"success","trial_type","trial_index","time_elapsed","internal_node_id","interactions","blur_events","focus_events","fullscreenenter_events","fullscreenexit_events","rt","stimulus","key_press","subject_id","participant_id","age","gender","prompt","response","choice_outcomes","context_n","context_img_id","trial_n","probe_img_id","pR_red","pR_white","pR_black","outcome","contextArray_ind","validImageProbes","invalidImageProbes","pRew_Red","pRew_White","pRew_Black","availableForMemProbe","choice_blocks"
"true","fullscreen","0","12961","0.0-0.0","""event"",""trial"",""time""
""fullscreenenter"",""0"",""11971""
","
","
","""event"",""trial"",""time""
""fullscreenenter"",""0"",""11971""
","
","","","","","","","","","","","","","","","","","","","","","","","","","",""
"","pavlovia","1","12970","0.0-1.0","""event"",""trial"",""time""
""fullscreenenter"",""0"",""11971""
""blur"",""2"",""16100""
""focus"",""2"",""16212""
""blur"",""2"",""56221""
""focus"",""2"",""58006""
","""event"",""trial"",""time""
""blur"",""2"",""16100""
""blur"",""2"",""56221""
","""event"",""trial"",""time""
""focus"",""2"",""16212""
""focus"",""2"",""58006""
","""event"",""trial"",""time""
""fullscreenenter"",""0"",""11971""
","
","","","","","","","","","","","","","","","","","","","","","","","","","",""
"","instruc1","2","58100","0.0-2.0","""event"",""trial"",""time""
""fullscreenenter"",""0"",""11971""
""blur"",""2"",""16100""
""focus"",""2"",""16212""
""blur"",""2"",""56221""
""focus"",""2"",""58006""
","""event"",""trial"",""time""
""blur"",""2"",""16100""
""blur"",""2"",""56221""
","""event"",""trial"",""time""
""focus"",""2"",""16212""
""focus"",""2"",""58006""
","""event"",""trial"",""time""
""fullscreenenter"",""0"",""11971""
","
","null","run_exp/static/audio/clip_1_welcome.m4a","null","229","626","10","male","<div class='center'><p>Welcome! This is the first part of the study. It will last ~30 minutes. In part 1 and part 2 of the study, you are the head captain of a pirate ship traveling around the world to different islands. You will play a few different games throughout these two parts. Here is an overview of them:</p><br><p>Part 1 (today)</p><p>1. Instructions, practice game, and quiz</p><p>2. Pick a pirate game on 6 different islands</p><br><p>Part 2 (tomorrow)</p><p>3. Pick a pirate game and memory game</p><p>4. Where did you see this ship? </p></div>","","","","","","","","","","","","","","","","","",""
"","html-keyboard-response","3","58559","0.0-3.0","""event"",""trial"",""time""
""fullscreenenter"",""0"",""11971""
""blur"",""2"",""16100""
""focus"",""2"",""16212""
""blur"",""2"",""56221""
""focus"",""2"",""58006""
","""event"",""trial"",""time""
""blur"",""2"",""16100""
""blur"",""2"",""56221""
","""event"",""trial"",""time""
""focus"",""2"",""16212""
""focus"",""2"",""58006""
","""event"",""trial"",""time""
""fullscreenenter"",""0"",""11971""
","
","456.30000001192093","<div class='center'><p>Welcome! This is the first part of the study. It will last ~30 minutes. In part 1 and part 2 of the study, you are the head captain of a pirate ship traveling around the world to different islands. You will play a few different games throughout these two parts. Here is an overview of them:</p><br><p>Part 1 (today)</p><p>1. Instructions, practice game, and quiz</p><p>2. Pick a pirate game on 6 different islands</p><br><p>Part 2 (tomorrow)</p><p>3. Pick a pirate game and memory game</p><p>4. Where did you see this ship? </p><p><b>[Press the space bar to continue]</b></p></div>","32","","","","","","","","","","","","","","","","","","","","","","",""
"","instruc2","4","63900","0.0-4.0","""event"",""trial"",""time""
""fullscreenenter"",""0"",""11971""
""blur"",""2"",""16100""
""focus"",""2"",""16212""
""blur"",""2"",""56221""
""focus"",""2"",""58006""
","""event"",""trial"",""time""
""blur"",""2"",""16100""
""blur"",""2"",""56221""
","""event"",""trial"",""time""
""focus"",""2"",""16212""
""focus"",""2"",""58006""
","""event"",""trial"",""time""
""fullscreenenter"",""0"",""11971""
","
","null","run_exp/static/audio/clip_2_different_places.m4a","null","","","","","<div class='center'><p>Today, you’ll visit these 6 islands on your journey. You'll be able to see these islands from your ship.</p><p><img src='run_exp/static/images/contexts/all_contexts.png' height='500'></p></div>","","","","","","","","","","","","","","","","","",""
"","html-keyboard-response","5","65015","0.0-5.0","""event"",""trial"",""time""
""fullscreenenter"",""0"",""11971""
""blur"",""2"",""16100""
""focus"",""2"",""16212""
""blur"",""2"",""56221""
""focus"",""2"",""58006""
","""event"",""trial"",""time""
""blur"",""2"",""16100""
""blur"",""2"",""56221""
","""event"",""trial"",""time""
""focus"",""2"",""16212""
""focus"",""2"",""58006""
","""event"",""trial"",""time""
""fullscreenenter"",""0"",""11971""
","
","1112","<div class='center'><p>Today, you’ll visit these 6 islands on your journey. You'll be able to see these islands from your ship.</p><p><img src='run_exp/static/images/contexts/all_contexts.png' height='500'></p><p><b>[Press the space bar to continue]</b></p></div>","32","","","","","","","","","","","","","","","","","","","","","","",""
"","instruc3","6","74720","0.0-6.0","""event"",""trial"",""time""
""fullscreenenter"",""0"",""11971""
""blur"",""2"",""16100""
""focus"",""2"",""16212""
""blur"",""2"",""56221""
""focus"",""2"",""58006""
","""event"",""trial"",""time""
""blur"",""2"",""16100""
""blur"",""2"",""56221""
","""event"",""trial"",""time""
""focus"",""2"",""16212""
""focus"",""2"",""58006""
","""event"",""trial"",""time""
""fullscreenenter"",""0"",""11971""
","
","null","run_exp/static/audio/clip_3_goal_of_game_1.m4a","null","","","","","<div class='center'><p> The pirates on your ship will rob other ships as they leave the island.</p> These ships have just sold their goods to the islanders, so they will be filled with lots and lots of gold.</p><p><img src='run_exp/static/images/tutorial/ship_center.png' height='400'></p></div>","","","","","","","","","","","","","","","","","",""
"","html-keyboard-response","7","75666","0.0-7.0","""event"",""trial"",""time""
""fullscreenenter"",""0"",""11971""
""blur"",""2"",""16100""
""focus"",""2"",""16212""
""blur"",""2"",""56221""
""focus"",""2"",""58006""
","""event"",""trial"",""time""
""blur"",""2"",""16100""
""blur"",""2"",""56221""
","""event"",""trial"",""time""
""focus"",""2"",""16212""
""focus"",""2"",""58006""
","""event"",""trial"",""time""
""fullscreenenter"",""0"",""11971""
","
","943.0999999642372","<div class='center'><p> The pirates on your ship will rob other ships as they leave the island.</p> These ships have just sold their goods to the islanders, so they will be filled with lots and lots of gold.</p><p><img src='run_exp/static/images/tutorial/ship_center.png' height='400'></p><p><b>[Press the space bar to continue]</b></p></div>","32","","","","","","","","","","","","","","","","","","","","","","",""
"","instruc4","8","103680","0.0-8.0","""event"",""trial"",""time""
""fullscreenenter"",""0"",""11971""
""blur"",""2"",""16100""
""focus"",""2"",""16212""
""blur"",""2"",""56221""
""focus"",""2"",""58006""
","""event"",""trial"",""time""
""blur"",""2"",""16100""
""blur"",""2"",""56221""
","""event"",""trial"",""time""
""focus"",""2"",""16212""
""focus"",""2"",""58006""
","""event"",""trial"",""time""
""fullscreenenter"",""0"",""11971""
","
","null","run_exp/static/audio/clip_4_goal_of_game_2.m4a","null","","","","","<div class='center'><p>As the head captain, you do not have to rob any ships yourself. Another pirate will be doing the robbing for you. First, you will choose a pirate to rob the next ship.</p><p><img src='run_exp/static/images/tutorial/pirates_all_crop.png' height='200'></p><p>Then, you'll see if the pirate successfully robbed the ship of their gold. If they were successful, then you'll get a stack of gold coins like this:</p><p><img src='run_exp/static/images/tutorial/reward.png' height='150'></p><p> If they were <b>not</b> successful, then you'll get no gold coins, and you'll see a big red x like this: </p><p><img src='run_exp/static/images/tutorial/reward_no.png' height='150'></p><p> How much bonus money you make is based on how many gold coins you collect.</p><div>","","","","","","","","","","","","","","","","","",""
"","html-keyboard-response","9","104172","0.0-9.0","""event"",""trial"",""time""
""fullscreenenter"",""0"",""11971""
""blur"",""2"",""16100""
""focus"",""2"",""16212""
""blur"",""2"",""56221""
""focus"",""2"",""58006""
","""event"",""trial"",""time""
""blur"",""2"",""16100""
""blur"",""2"",""56221""
","""event"",""trial"",""time""
""focus"",""2"",""16212""
""focus"",""2"",""58006""
","""event"",""trial"",""time""
""fullscreenenter"",""0"",""11971""
","
","488.30000001192093","<div class='center'><p>As the head captain, you do not have to rob any ships yourself. Another pirate will be doing the robbing for you. First, you will choose a pirate to rob the next ship.</p><p><img src='run_exp/static/images/tutorial/pirates_all_crop.png' height='200'></p><p>Then, you'll see if the pirate successfully robbed the ship of their gold. If they were successful, then you'll get a stack of gold coins like this:</p><p><img src='run_exp/static/images/tutorial/reward.png' height='150'></p><p> If they were <b>not</b> successful, then you'll get no gold coins, and you'll see a big red x like this: </p><p><img src='run_exp/static/images/tutorial/reward_no.png' height='150'></p><p> How much bonus money you make is based on how many gold coins you collect.</p<p><b>[Press the space bar to continue]</b></p></div>","32","","","","","","","","","","","","","","","","","","","","","","",""
"","instruc5","10","111852","0.0-10.0","""event"",""trial"",""time""
""fullscreenenter"",""0"",""11971""
""blur"",""2"",""16100""
""focus"",""2"",""16212""
""blur"",""2"",""56221""
""focus"",""2"",""58006""
","""event"",""trial"",""time""
""blur"",""2"",""16100""
""blur"",""2"",""56221""
","""event"",""trial"",""time""
""focus"",""2"",""16212""
""focus"",""2"",""58006""
","""event"",""trial"",""time""
""fullscreenenter"",""0"",""11971""
","
","7676.600000023842","run_exp/static/audio/clip_5_probabilistic.m4a","49","","","","","<div class='center'><p>Even the most skilled pirate can not rob EVERY ship.</p><p> Some ships will have very strong protections against pirate attacks.</p><p> Blue beard, here, is very, very good at robbing ships, but he won't be successful every time he tries to rob one.</p><p> You can press the <b>‘1’</b> key on the keyboard to choose him.</p><p> Try choosing him 10 times to see how often he succeeds at robbing a ship. </p><p><img src='run_exp/static/images/tutorial/blue.png' height='500'></p></div>","","","","","","","","","","","","","","","","","",""
"","html-keyboard-response","11","113356","0.0-11.0","""event"",""trial"",""time""
""fullscreenenter"",""0"",""11971""
""blur"",""2"",""16100""
""focus"",""2"",""16212""
""blur"",""2"",""56221""
""focus"",""2"",""58006""
","""event"",""trial"",""time""
""blur"",""2"",""16100""
""blur"",""2"",""56221""
","""event"",""trial"",""time""
""focus"",""2"",""16212""
""focus"",""2"",""58006""
","""event"",""trial"",""time""
""fullscreenenter"",""0"",""11971""
","
","null","<div class='center'><p><img src='run_exp/static/images/tutorial/blue_win.png' height='500'></p></div>","null","","","","","","","","","","","","","","","","","","","","","","",""
"","html-keyboard-response","12","113704","0.0-12.0","""event"",""trial"",""time""
""fullscreenenter"",""0"",""11971""
""blur"",""2"",""16100""
""focus"",""2"",""16212""
""blur"",""2"",""56221""
""focus"",""2"",""58006""
","""event"",""trial"",""time""
""blur"",""2"",""16100""
""blur"",""2"",""56221""
","""event"",""trial"",""time""
""focus"",""2"",""16212""
""focus"",""2"",""58006""
","""event"",""trial"",""time""
""fullscreenenter"",""0"",""11971""
","
","345.39999997615814","<div class='center'><img src='run_exp/static/images/tutorial/blue.png' height='500'></p></div>","49","","","","","","","","","","","","","","","","","","","","","","",""
"","html-keyboard-response","13","115212","0.0-13.0","""event"",""trial"",""time""
""fullscreenenter"",""0"",""11971""
""blur"",""2"",""16100""
""focus"",""2"",""16212""
""blur"",""2"",""56221""
""focus"",""2"",""58006""
","""event"",""trial"",""time""
""blur"",""2"",""16100""
""blur"",""2"",""56221""
","""event"",""trial"",""time""
""focus"",""2"",""16212""
""focus"",""2"",""58006""
","""event"",""trial"",""time""
""fullscreenenter"",""0"",""11971""
","
","null","<div class='center'><p><img src='run_exp/static/images/tutorial/blue_win.png' height='500'></p></div>","null","","","","","","","","","","","","","","","","","","","","","","",""
"","html-keyboard-response","14","115589","0.0-14.0","""event"",""trial"",""time""
""fullscreenenter"",""0"",""11971""
""blur"",""2"",""16100""
""focus"",""2"",""16212""
""blur"",""2"",""56221""
""focus"",""2"",""58006""
","""event"",""trial"",""time""
""blur"",""2"",""16100""
""blur"",""2"",""56221""
","""event"",""trial"",""time""
""focus"",""2"",""16212""
""focus"",""2"",""58006""
","""event"",""trial"",""time""
""fullscreenenter"",""0"",""11971""
","
","375.10000002384186","<div class='center'><img src='run_exp/static/images/tutorial/blue.png' height='500'></p></div>","49","","","","","","","","","","","","","","","","","","","","","","",""
"","html-keyboard-response","15","117101","0.0-15.0","""event"",""trial"",""time""
""fullscreenenter"",""0"",""11971""
""blur"",""2"",""16100""
""focus"",""2"",""16212""
""blur"",""2"",""56221""
""focus"",""2"",""58006""
","""event"",""trial"",""time""
""blur"",""2"",""16100""
""blur"",""2"",""56221""
","""event"",""trial"",""time""
""focus"",""2"",""16212""
""focus"",""2"",""58006""
","""event"",""trial"",""time""
""fullscreenenter"",""0"",""11971""
","
","null","<div class='center'><p><img src='run_exp/static/images/tutorial/blue_win.png' height='500'></p></div>","null","","","","","","","","","","","","","","","","","","","","","","",""
"","html-keyboard-response","16","117414","0.0-16.0","""event"",""trial"",""time""
""fullscreenenter"",""0"",""11971""
""blur"",""2"",""16100""
""focus"",""2"",""16212""
""blur"",""2"",""56221""
""focus"",""2"",""58006""
","""event"",""trial"",""time""
""blur"",""2"",""16100""
""blur"",""2"",""56221""
","""event"",""trial"",""time""
""focus"",""2"",""16212""
""focus"",""2"",""58006""
","""event"",""trial"",""time""
""fullscreenenter"",""0"",""11971""
","
","311.89999997615814","<div class='center'><img src='run_exp/static/images/tutorial/blue.png' height='500'></p></div>","49","","","","","","","","","","","","","","","","","","","","","","",""
"","html-keyboard-response","17","118928","0.0-17.0","""event"",""trial"",""time""
""fullscreenenter"",""0"",""11971""
""blur"",""2"",""16100""
""focus"",""2"",""16212""
""blur"",""2"",""56221""
""focus"",""2"",""58006""
","""event"",""trial"",""time""
""blur"",""2"",""16100""
""blur"",""2"",""56221""
","""event"",""trial"",""time""
""focus"",""2"",""16212""
""focus"",""2"",""58006""
","""event"",""trial"",""time""
""fullscreenenter"",""0"",""11971""
","
","null","<div class='center'><p><img src='run_exp/static/images/tutorial/blue_no_win.png' height='500'></p></div>","null","","","","","","","","","","","","","","","","","","","","","","",""
"","html-keyboard-response","18","119391","0.0-18.0","""event"",""trial"",""time""
""fullscreenenter"",""0"",""11971""
""blur"",""2"",""16100""
""focus"",""2"",""16212""
""blur"",""2"",""56221""
""focus"",""2"",""58006""
","""event"",""trial"",""time""
""blur"",""2"",""16100""
""blur"",""2"",""56221""
","""event"",""trial"",""time""
""focus"",""2"",""16212""
""focus"",""2"",""58006""
","""event"",""trial"",""time""
""fullscreenenter"",""0"",""11971""
","
","460.7999999523163","<div class='center'><img src='run_exp/static/images/tutorial/blue.png' height='500'></p></div>","49","","","","","","","","","","","","","","","","","","","","","","",""
"","html-keyboard-response","19","120899","0.0-19.0","""event"",""trial"",""time""
""fullscreenenter"",""0"",""11971""
""blur"",""2"",""16100""
""focus"",""2"",""16212""
""blur"",""2"",""56221""
""focus"",""2"",""58006""
","""event"",""trial"",""time""
""blur"",""2"",""16100""
""blur"",""2"",""56221""
","""event"",""trial"",""time""
""focus"",""2"",""16212""
""focus"",""2"",""58006""
","""event"",""trial"",""time""
""fullscreenenter"",""0"",""11971""
","
","null","<div class='center'><p><img src='run_exp/static/images/tutorial/blue_win.png' height='500'></p></div>","null","","","","","","","","","","","","","","","","","","","","","","",""
"","html-keyboard-response","20","120986","0.0-20.0","""event"",""trial"",""time""
""fullscreenenter"",""0"",""11971""
""blur"",""2"",""16100""
""focus"",""2"",""16212""
""blur"",""2"",""56221""
""focus"",""2"",""58006""
","""event"",""trial"",""time""
""blur"",""2"",""16100""
""blur"",""2"",""56221""
","""event"",""trial"",""time""
""focus"",""2"",""16212""
""focus"",""2"",""58006""
","""event"",""trial"",""time""
""fullscreenenter"",""0"",""11971""
","
","85.59999996423721","<div class='center'><img src='run_exp/static/images/tutorial/blue.png' height='500'></p></div>","49","","","","","","","","","","","","","","","","","","","","","","",""
"","html-keyboard-response","21","122493","0.0-21.0","""event"",""trial"",""time""
""fullscreenenter"",""0"",""11971""
""blur"",""2"",""16100""
""focus"",""2"",""16212""
""blur"",""2"",""56221""
""focus"",""2"",""58006""
","""event"",""trial"",""time""
""blur"",""2"",""16100""
""blur"",""2"",""56221""
","""event"",""trial"",""time""
""focus"",""2"",""16212""
""focus"",""2"",""58006""
","""event"",""trial"",""time""
""fullscreenenter"",""0"",""11971""
","
","null","<div class='center'><p><img src='run_exp/static/images/tutorial/blue_win.png' height='500'></p></div>","null","","","","","","","","","","","","","","","","","","","","","","",""
"","html-keyboard-response","22","122671","0.0-22.0","""event"",""trial"",""time""
""fullscreenenter"",""0"",""11971""
""blur"",""2"",""16100""
""focus"",""2"",""16212""
""blur"",""2"",""56221""
""focus"",""2"",""58006""
","""event"",""trial"",""time""
""blur"",""2"",""16100""
""blur"",""2"",""56221""
","""event"",""trial"",""time""
""focus"",""2"",""16212""
""focus"",""2"",""58006""
","""event"",""trial"",""time""
""fullscreenenter"",""0"",""11971""
","
","175.5","<div class='center'><img src='run_exp/static/images/tutorial/blue.png' height='500'></p></div>","49","","","","","","","","","","","","","","","","","","","","","","",""
"","html-keyboard-response","23","124183","0.0-23.0","""event"",""trial"",""time""
""fullscreenenter"",""0"",""11971""
""blur"",""2"",""16100""
""focus"",""2"",""16212""
""blur"",""2"",""56221""
""focus"",""2"",""58006""
","""event"",""trial"",""time""
""blur"",""2"",""16100""
""blur"",""2"",""56221""
","""event"",""trial"",""time""
""focus"",""2"",""16212""
""focus"",""2"",""58006""
","""event"",""trial"",""time""
""fullscreenenter"",""0"",""11971""
","
","null","<div class='center'><p><img src='run_exp/static/images/tutorial/blue_win.png' height='500'></p></div>","null","","","","","","","","","","","","","","","","","","","","","","",""
"","html-keyboard-response","24","127201","0.0-24.0","""event"",""trial"",""time""
""fullscreenenter"",""0"",""11971""
""blur"",""2"",""16100""
""focus"",""2"",""16212""
""blur"",""2"",""56221""
""focus"",""2"",""58006""
","""event"",""trial"",""time""
""blur"",""2"",""16100""
""blur"",""2"",""56221""
","""event"",""trial"",""time""
""focus"",""2"",""16212""
""focus"",""2"",""58006""
","""event"",""trial"",""time""
""fullscreenenter"",""0"",""11971""
","
","3016.699999988079","<div class='center'><img src='run_exp/static/images/tutorial/blue.png' height='500'></p></div>","49","","","","","","","","","","","","","","","","","","","","","","",""
"","html-keyboard-response","25","128706","0.0-25.0","""event"",""trial"",""time""
""fullscreenenter"",""0"",""11971""
""blur"",""2"",""16100""
""focus"",""2"",""16212""
""blur"",""2"",""56221""
""focus"",""2"",""58006""
","""event"",""trial"",""time""
""blur"",""2"",""16100""
""blur"",""2"",""56221""
","""event"",""trial"",""time""
""focus"",""2"",""16212""
""focus"",""2"",""58006""
","""event"",""trial"",""time""
""fullscreenenter"",""0"",""11971""
","
","null","<div class='center'><p><img src='run_exp/static/images/tutorial/blue_no_win.png' height='500'></p></div>","null","","","","","","","","","","","","","","","","","","","","","","",""
"","html-keyboard-response","26","129377","0.0-26.0","""event"",""trial"",""time""
""fullscreenenter"",""0"",""11971""
""blur"",""2"",""16100""
""focus"",""2"",""16212""
""blur"",""2"",""56221""
""focus"",""2"",""58006""
","""event"",""trial"",""time""
""blur"",""2"",""16100""
""blur"",""2"",""56221""
","""event"",""trial"",""time""
""focus"",""2"",""16212""
""focus"",""2"",""58006""
","""event"",""trial"",""time""
""fullscreenenter"",""0"",""11971""
","
","669.2999999523163","<div class='center'><img src='run_exp/static/images/tutorial/blue.png' height='500'></p></div>","49","","","","","","","","","","","","","","","","","","","","","","",""
"","html-keyboard-response","27","130884","0.0-27.0","""event"",""trial"",""time""
""fullscreenenter"",""0"",""11971""
""blur"",""2"",""16100""
""focus"",""2"",""16212""
""blur"",""2"",""56221""
""focus"",""2"",""58006""
","""event"",""trial"",""time""
""blur"",""2"",""16100""
""blur"",""2"",""56221""
","""event"",""trial"",""time""
""focus"",""2"",""16212""
""focus"",""2"",""58006""
","""event"",""trial"",""time""
""fullscreenenter"",""0"",""11971""
","
","null","<div class='center'><p><img src='run_exp/static/images/tutorial/blue_win.png' height='500'></p></div>","null","","","","","","","","","","","","","","","","","","","","","","",""
"","html-keyboard-response","28","131382","0.0-28.0","""event"",""trial"",""time""
""fullscreenenter"",""0"",""11971""
""blur"",""2"",""16100""
""focus"",""2"",""16212""
""blur"",""2"",""56221""
""focus"",""2"",""58006""
","""event"",""trial"",""time""
""blur"",""2"",""16100""
""blur"",""2"",""56221""
","""event"",""trial"",""time""
""focus"",""2"",""16212""
""focus"",""2"",""58006""
","""event"",""trial"",""time""
""fullscreenenter"",""0"",""11971""
","
","495.60000002384186","<div class='center'><img src='run_exp/static/images/tutorial/blue.png' height='500'></p></div>","49","","","","","","","","","","","","","","","","","","","","","","",""
"","html-keyboard-response","29","132884","0.0-29.0","""event"",""trial"",""time""
""fullscreenenter"",""0"",""11971""
""blur"",""2"",""16100""
""focus"",""2"",""16212""
""blur"",""2"",""56221""
""focus"",""2"",""58006""
","""event"",""trial"",""time""
""blur"",""2"",""16100""
""blur"",""2"",""56221""
","""event"",""trial"",""time""
""focus"",""2"",""16212""
""focus"",""2"",""58006""
","""event"",""trial"",""time""
""fullscreenenter"",""0"",""11971""
","
","null","<div class='center'><p><img src='run_exp/static/images/tutorial/blue_win.png' height='500'></p></div>","null","","","","","","","","","","","","","","","","","","","","","","",""
"","instruc6","30","138306","0.0-30.0","""event"",""trial"",""time""
""fullscreenenter"",""0"",""11971""
""blur"",""2"",""16100""
""focus"",""2"",""16212""
""blur"",""2"",""56221""
""focus"",""2"",""58006""
","""event"",""trial"",""time""
""blur"",""2"",""16100""
""blur"",""2"",""56221""
","""event"",""trial"",""time""
""focus"",""2"",""16212""
""focus"",""2"",""58006""
","""event"",""trial"",""time""
""fullscreenenter"",""0"",""11971""
","
","null","run_exp/static/audio/clip_6_blue_beard_outcome.m4a","null","","","","","<div class='center'><p> See, he succeeded in robbing the ships most of the time but not every time. </p></div>","","","","","","","","","","","","","","","","","",""
"","html-keyboard-response","31","138765","0.0-31.0","""event"",""trial"",""time""
""fullscreenenter"",""0"",""11971""
""blur"",""2"",""16100""
""focus"",""2"",""16212""
""blur"",""2"",""56221""
""focus"",""2"",""58006""
","""event"",""trial"",""time""
""blur"",""2"",""16100""
""blur"",""2"",""56221""
","""event"",""trial"",""time""
""focus"",""2"",""16212""
""focus"",""2"",""58006""
","""event"",""trial"",""time""
""fullscreenenter"",""0"",""11971""
","
","457.0999999642372","<div class='center'><p> See, he succeeded in robbing the ships most of the time but not every time. </p><p><b>[Press the space bar to continue]</b></p></div>","32","","","","","","","","","","","","","","","","","","","","","","",""
"","audio-keyboard-response","32","144989","0.0-32.0","""event"",""trial"",""time""
""fullscreenenter"",""0"",""11971""
""blur"",""2"",""16100""
""focus"",""2"",""16212""
""blur"",""2"",""56221""
""focus"",""2"",""58006""
","""event"",""trial"",""time""
""blur"",""2"",""16100""
""blur"",""2"",""56221""
","""event"",""trial"",""time""
""focus"",""2"",""16212""
""focus"",""2"",""58006""
","""event"",""trial"",""time""
""fullscreenenter"",""0"",""11971""
","
","6220.5","run_exp/static/audio/clip_7_pick_pirate.m4a","49","","","","","","","","","","","","","","","","","","","","","","",""
"","audio-keyboard-response","33","147780","0.0-33.0-0.0","""event"",""trial"",""time""
""fullscreenenter"",""0"",""11971""
""blur"",""2"",""16100""
""focus"",""2"",""16212""
""blur"",""2"",""56221""
""focus"",""2"",""58006""
","""event"",""trial"",""time""
""blur"",""2"",""16100""
""blur"",""2"",""56221""
","""event"",""trial"",""time""
""focus"",""2"",""16212""
""focus"",""2"",""58006""
","""event"",""trial"",""time""
""fullscreenenter"",""0"",""11971""
","
","2785.2999999523163","run_exp/static/audio/clip_8_chosen_pirate_win.m4a","32","","","","","","","","","","","","","","","","","","","","","","",""
"","audio-keyboard-response","34","148999","0.0-33.0-1.0","""event"",""trial"",""time""
""fullscreenenter"",""0"",""11971""
""blur"",""2"",""16100""
""focus"",""2"",""16212""
""blur"",""2"",""56221""
""focus"",""2"",""58006""
","""event"",""trial"",""time""
""blur"",""2"",""16100""
""blur"",""2"",""56221""
","""event"",""trial"",""time""
""focus"",""2"",""16212""
""focus"",""2"",""58006""
","""event"",""trial"",""time""
""fullscreenenter"",""0"",""11971""
","
","1216.3999999761581","run_exp/static/audio/clip_9_pick_a_pirate_again.m4a","49","","","","","","","","","","","","","","","","","","","","","","",""
"","audio-keyboard-response","35","153382","0.0-34.0-0.0","""event"",""trial"",""time""
""fullscreenenter"",""0"",""11971""
""blur"",""2"",""16100""
""focus"",""2"",""16212""
""blur"",""2"",""56221""
""focus"",""2"",""58006""
","""event"",""trial"",""time""
""blur"",""2"",""16100""
""blur"",""2"",""56221""
","""event"",""trial"",""time""
""focus"",""2"",""16212""
""focus"",""2"",""58006""
","""event"",""trial"",""time""
""fullscreenenter"",""0"",""11971""
","
","4379.5","run_exp/static/audio/clip_10_chosen_pirate_loss.m4a","32","","","","","","","","","","","","","","","","","","","","","","",""
"","instruc9","36","158887","0.0-35.0-0.0","""event"",""trial"",""time""
""fullscreenenter"",""0"",""11971""
""blur"",""2"",""16100""
""focus"",""2"",""16212""
""blur"",""2"",""56221""
""focus"",""2"",""58006""
","""event"",""trial"",""time""
""blur"",""2"",""16100""
""blur"",""2"",""56221""
","""event"",""trial"",""time""
""focus"",""2"",""16212""
""focus"",""2"",""58006""
","""event"",""trial"",""time""
""fullscreenenter"",""0"",""11971""
","
","null","run_exp/static/audio/clip_11_time_out.m4a","null","","","","","<div class='center'><p>If you don’t make your choice fast enough, you’ll have to wait a few seconds before you can make another one. </p><p><img src='run_exp/static/images/miscellaneous/hurry_up.png' height='500'></p></div>","","","","","","","","","","","","","","","","","",""
"","html-keyboard-response","37","159501","0.0-35.0-1.0","""event"",""trial"",""time""
""fullscreenenter"",""0"",""11971""
""blur"",""2"",""16100""
""focus"",""2"",""16212""
""blur"",""2"",""56221""
""focus"",""2"",""58006""
","""event"",""trial"",""time""
""blur"",""2"",""16100""
""blur"",""2"",""56221""
","""event"",""trial"",""time""
""focus"",""2"",""16212""
""focus"",""2"",""58006""
","""event"",""trial"",""time""
""fullscreenenter"",""0"",""11971""
","
","612.5","<div class='center'><p>If you don’t make your choice fast enough, you’ll have to wait a few seconds before you can make another one. </p><p><img src='run_exp/static/images/miscellaneous/hurry_up.png' height='500'></p><p><b>[Press the space bar to continue]</b></p></div>","32","","","","","","","","","","","","","","","","","","","","","","",""
"","instruc10","38","198607","0.0-35.0-2.0","""event"",""trial"",""time""
""fullscreenenter"",""0"",""11971""
""blur"",""2"",""16100""
""focus"",""2"",""16212""
""blur"",""2"",""56221""
""focus"",""2"",""58006""
","""event"",""trial"",""time""
""blur"",""2"",""16100""
""blur"",""2"",""56221""
","""event"",""trial"",""time""
""focus"",""2"",""16212""
""focus"",""2"",""58006""
","""event"",""trial"",""time""
""fullscreenenter"",""0"",""11971""
","
","null","run_exp/static/audio/clip_12_probe.m4a","null","","","","","<div class='center'><p>Once you've chosen a pirate, you’ll be shown the ship they are robbing. You will never rob the same ship twice. Ships can be told apart from one another by the image on them. These are the goods that they sell. See, this ship has a travel mug on it. </p><p> You’ll have to remember which island you saw each ship on. You will win more gold coins and hence more bonus money if you remember correctly! To help you remember, you can imagine a story. For example, here, you could imagine a mug full of water in the desert. Or, as another example, if on the forest island, your pirate robbed a ship with an apple on it, you could imagine an apple falling from a tree in the forest. </p><p><img src='run_exp/static/images/tutorial/example_probe.png' height='500'></p></div>","","","","","","","","","","","","","","","","","",""
"","html-keyboard-response","39","198935","0.0-35.0-3.0","""event"",""trial"",""time""
""fullscreenenter"",""0"",""11971""
""blur"",""2"",""16100""
""focus"",""2"",""16212""
""blur"",""2"",""56221""
""focus"",""2"",""58006""
""blur"",""40"",""211622""
""focus"",""40"",""213059""
","""event"",""trial"",""time""
""blur"",""2"",""16100""
""blur"",""2"",""56221""
""blur"",""40"",""211622""
","""event"",""trial"",""time""
""focus"",""2"",""16212""
""focus"",""2"",""58006""
""focus"",""40"",""213059""
","""event"",""trial"",""time""
""fullscreenenter"",""0"",""11971""
","
","326.0999999642372","<div class='center'><p>Once you've chosen a pirate, you’ll be shown the ship they are robbing. You will never rob the same ship twice. Ships can be told apart from one another by the image on them. These are the goods that they sell. See, this ship has a travel mug on it. </p><p> You’ll have to remember which island you saw each ship on. You will win more gold coins and hence more bonus money if you remember correctly! To help you remember, you can imagine a story. For example, here, you could imagine a mug full of water in the desert. Or, as another example, if on the forest island, your pirate robbed a ship with an apple on it, you could imagine an apple falling from a tree in the forest. </p><p><img src='run_exp/static/images/tutorial/example_probe.png' height='500'></p><p><b>[Press the space bar to continue]</b></p></div>","32","","","","","","","","","","","","","","","","","","","","","","",""
"","instruc11","40","215366","0.0-35.0-4.0","""event"",""trial"",""time""
""fullscreenenter"",""0"",""11971""
""blur"",""2"",""16100""
""focus"",""2"",""16212""
""blur"",""2"",""56221""
""focus"",""2"",""58006""
""blur"",""40"",""211622""
""focus"",""40"",""213059""
","""event"",""trial"",""time""
""blur"",""2"",""16100""
""blur"",""2"",""56221""
""blur"",""40"",""211622""
","""event"",""trial"",""time""
""focus"",""2"",""16212""
""focus"",""2"",""58006""
""focus"",""40"",""213059""
","""event"",""trial"",""time""
""fullscreenenter"",""0"",""11971""
","
","null","run_exp/static/audio/clip_13_changepoint.m4a","null","","","","","<div class='center'><p>How successful a pirate is at robbing ships will depend on the island you’re on.</p><p> A pirate may have visited this island many times before and gained a lot of practice robbing ships there.</p><p>So, they’re more likely to be successful than a pirate who has never visited the island before.</p></div>","","","","","","","","","","","","","","","","","",""
"","html-keyboard-response","41","215905","0.0-35.0-5.0","""event"",""trial"",""time""
""fullscreenenter"",""0"",""11971""
""blur"",""2"",""16100""
""focus"",""2"",""16212""
""blur"",""2"",""56221""
""focus"",""2"",""58006""
""blur"",""40"",""211622""
""focus"",""40"",""213059""
","""event"",""trial"",""time""
""blur"",""2"",""16100""
""blur"",""2"",""56221""
""blur"",""40"",""211622""
","""event"",""trial"",""time""
""focus"",""2"",""16212""
""focus"",""2"",""58006""
""focus"",""40"",""213059""
","""event"",""trial"",""time""
""fullscreenenter"",""0"",""11971""
","
","538.5","<div class='center'><p>How successful a pirate is at robbing ships will depend on the island you’re on.</p><p> A pirate may have visited this island many times before and gained a lot of practice robbing ships there.</p><p>So, they’re more likely to be successful than a pirate who has never visited the island before.</p><p><b>[Press the space bar to continue]</b></p></div>","32","","","","","","","","","","","","","","","","","","","","","","",""
"","instruc12","42","257026","0.0-35.0-6.0","""event"",""trial"",""time""
""fullscreenenter"",""0"",""11971""
""blur"",""2"",""16100""
""focus"",""2"",""16212""
""blur"",""2"",""56221""
""focus"",""2"",""58006""
""blur"",""40"",""211622""
""focus"",""40"",""213059""
","""event"",""trial"",""time""
""blur"",""2"",""16100""
""blur"",""2"",""56221""
""blur"",""40"",""211622""
","""event"",""trial"",""time""
""focus"",""2"",""16212""
""focus"",""2"",""58006""
""focus"",""40"",""213059""
","""event"",""trial"",""time""
""fullscreenenter"",""0"",""11971""
","
","null","run_exp/static/audio/clip_14_drift.m4a","null","","","","","<div class='center'><p>How successful a pirate is at robbing ships can also change over the time spent on the island. </p><p> Ships may hear from islanders about the pirates coming and will improve their protections against the attack. This may make it harder to rob them.</p><p> Ships may also become lazy and weaken the strength of their protections. This may make it easier to rob them.</p><br><p>Things are always changing on the high seas! So, try your best to pay attention!</p><p><img src='run_exp/static/images/tutorial/contingency.png' height='500'></p></div>","","","","","","","","","","","","","","","","","",""
"","html-keyboard-response","43","258644","0.0-35.0-7.0","""event"",""trial"",""time""
""fullscreenenter"",""0"",""11971""
""blur"",""2"",""16100""
""focus"",""2"",""16212""
""blur"",""2"",""56221""
""focus"",""2"",""58006""
""blur"",""40"",""211622""
""focus"",""40"",""213059""
","""event"",""trial"",""time""
""blur"",""2"",""16100""
""blur"",""2"",""56221""
""blur"",""40"",""211622""
","""event"",""trial"",""time""
""focus"",""2"",""16212""
""focus"",""2"",""58006""
""focus"",""40"",""213059""
","""event"",""trial"",""time""
""fullscreenenter"",""0"",""11971""
","
","1614.5999999642372","<div class='center'><p>How successful a pirate is at robbing ships can also change over the time spent on the island. </p><p> Ships may hear from islanders about the pirates coming and will improve their protections against the attack. This may make it harder to rob them.</p><p> Ships may also become lazy and weaken the strength of their protections. This may make it easier to rob them.</p><br><p>Things are always changing on the high seas! So, try your best to pay attention!</p><p><img src='run_exp/static/images/tutorial/contingency.png' height='500'></p><p><b>[Press the space bar to continue]</b></p></div>","32","","","","","","","","","","","","","","","","","","","","","","",""
"","instruc13","44","293846","0.0-35.0-8.0","""event"",""trial"",""time""
""fullscreenenter"",""0"",""11971""
""blur"",""2"",""16100""
""focus"",""2"",""16212""
""blur"",""2"",""56221""
""focus"",""2"",""58006""
""blur"",""40"",""211622""
""focus"",""40"",""213059""
","""event"",""trial"",""time""
""blur"",""2"",""16100""
""blur"",""2"",""56221""
""blur"",""40"",""211622""
","""event"",""trial"",""time""
""focus"",""2"",""16212""
""focus"",""2"",""58006""
""focus"",""40"",""213059""
","""event"",""trial"",""time""
""fullscreenenter"",""0"",""11971""
","
","null","run_exp/static/audio/clip_15_summary.m4a","null","","","","","<div class='center'><p>Let's go over the instructions quickly again. You have two important things to do: </p><b><p> 1. Pick the pirate who is the best at robbing ships on the current island. </p></b><b><p> 2. Remember on which island a ship was robbed.</p> </b><p>The amount of bonus money you can win depends on both.</p><p><br><p>Let’s try a practice game. The game will start by showing you the pirates. First, pick a pirate using the <b> 1, 2, 3 </b> keys on your keyboard. When you are shown a ship, try to remember which island you’re on by making up a story.</p><p>This is just a practice game, so you’re not playing for money. </p><p> Good luck! This game will be very difficult but try your best!</p></div>","","","","","","","","","","","","","","","","","",""
"","html-keyboard-response","45","294593","0.0-35.0-9.0","""event"",""trial"",""time""
""fullscreenenter"",""0"",""11971""
""blur"",""2"",""16100""
""focus"",""2"",""16212""
""blur"",""2"",""56221""
""focus"",""2"",""58006""
""blur"",""40"",""211622""
""focus"",""40"",""213059""
","""event"",""trial"",""time""
""blur"",""2"",""16100""
""blur"",""2"",""56221""
""blur"",""40"",""211622""
","""event"",""trial"",""time""
""focus"",""2"",""16212""
""focus"",""2"",""58006""
""focus"",""40"",""213059""
","""event"",""trial"",""time""
""fullscreenenter"",""0"",""11971""
","
","745.3000000119209","<div class='center'><p>Let's go over the instructions quickly again. You have two important things to do: </p><b><p> 1. Pick the pirate who is the best at robbing ships on the current island. </p></b><b><p> 2. Remember on which island a ship was robbed.</p> </b><p>The amount of bonus money you can win depends on both.</p><p><br><p>Let’s try a practice game. The game will start by showing you the pirates. First, pick a pirate using the <b> 1, 2, 3 </b> keys on your keyboard. When you are shown a ship, try to remember which island you’re on by making up a story.</p><p>This is just a practice game, so you’re not playing for money. </p><p> Good luck! This game will be very difficult but try your best!</p><p><b>[Press the space bar to continue]</b></p></div>","32","","","","","","","","","","","","","","","","","","","","","","",""
"","do_welcome","46","298624","0.0-35.0-10.0","""event"",""trial"",""time""
""fullscreenenter"",""0"",""11971""
""blur"",""2"",""16100""
""focus"",""2"",""16212""
""blur"",""2"",""56221""
""focus"",""2"",""58006""
""blur"",""40"",""211622""
""focus"",""40"",""213059""
","""event"",""trial"",""time""
""blur"",""2"",""16100""
""blur"",""2"",""56221""
""blur"",""40"",""211622""
","""event"",""trial"",""time""
""focus"",""2"",""16212""
""focus"",""2"",""58006""
""focus"",""40"",""213059""
","""event"",""trial"",""time""
""fullscreenenter"",""0"",""11971""
","
","null","","","","","","","","null","","","","","","","","","","","","","","","","",""
"","do_trial","47","304112","0.0-35.0-11.0","""event"",""trial"",""time""
""fullscreenenter"",""0"",""11971""
""blur"",""2"",""16100""
""focus"",""2"",""16212""
""blur"",""2"",""56221""
""focus"",""2"",""58006""
""blur"",""40"",""211622""
""focus"",""40"",""213059""
","""event"",""trial"",""time""
""blur"",""2"",""16100""
""blur"",""2"",""56221""
""blur"",""40"",""211622""
","""event"",""trial"",""time""
""focus"",""2"",""16212""
""focus"",""2"",""58006""
""focus"",""40"",""213059""
","""event"",""trial"",""time""
""fullscreenenter"",""0"",""11971""
","
","964.3000000119209","","","","","","","","49","1,0,0","","","","","","","","","","","","","","","",""
"","html-keyboard-response","48","305125","0.0-36.0-0.0","""event"",""trial"",""time""
""fullscreenenter"",""0"",""11971""
""blur"",""2"",""16100""
""focus"",""2"",""16212""
""blur"",""2"",""56221""
""focus"",""2"",""58006""
""blur"",""40"",""211622""
""focus"",""40"",""213059""
","""event"",""trial"",""time""
""blur"",""2"",""16100""
""blur"",""2"",""56221""
""blur"",""40"",""211622""
","""event"",""trial"",""time""
""focus"",""2"",""16212""
""focus"",""2"",""58006""
""focus"",""40"",""213059""
","""event"",""trial"",""time""
""fullscreenenter"",""0"",""11971""
","
","null","<p></p>","null","","","","","","","","","","","","","","","","","","","","","","",""
"","do_trial","49","309784","0.0-36.0-1.0","""event"",""trial"",""time""
""fullscreenenter"",""0"",""11971""
""blur"",""2"",""16100""
""focus"",""2"",""16212""
""blur"",""2"",""56221""
""focus"",""2"",""58006""
""blur"",""40"",""211622""
""focus"",""40"",""213059""
","""event"",""trial"",""time""
""blur"",""2"",""16100""
""blur"",""2"",""56221""
""blur"",""40"",""211622""
","""event"",""trial"",""time""
""focus"",""2"",""16212""
""focus"",""2"",""58006""
""focus"",""40"",""213059""
","""event"",""trial"",""time""
""fullscreenenter"",""0"",""11971""
","
","132.19999998807907","","","","","","","","50","1,1,0","","","","","","","","","","","","","","","",""
"","html-keyboard-response","50","310786","0.0-37.0-0.0","""event"",""trial"",""time""
""fullscreenenter"",""0"",""11971""
""blur"",""2"",""16100""
""focus"",""2"",""16212""
""blur"",""2"",""56221""
""focus"",""2"",""58006""
""blur"",""40"",""211622""
""focus"",""40"",""213059""
","""event"",""trial"",""time""
""blur"",""2"",""16100""
""blur"",""2"",""56221""
""blur"",""40"",""211622""
","""event"",""trial"",""time""
""focus"",""2"",""16212""
""focus"",""2"",""58006""
""focus"",""40"",""213059""
","""event"",""trial"",""time""
""fullscreenenter"",""0"",""11971""
","
","null","<p></p>","null","","","","","","","","","","","","","","","","","","","","","","",""
"","do_trial","51","315498","0.0-37.0-1.0","""event"",""trial"",""time""
""fullscreenenter"",""0"",""11971""
""blur"",""2"",""16100""
""focus"",""2"",""16212""
""blur"",""2"",""56221""
""focus"",""2"",""58006""
""blur"",""40"",""211622""
""focus"",""40"",""213059""
","""event"",""trial"",""time""
""blur"",""2"",""16100""
""blur"",""2"",""56221""
""blur"",""40"",""211622""
","""event"",""trial"",""time""
""focus"",""2"",""16212""
""focus"",""2"",""58006""
""focus"",""40"",""213059""
","""event"",""trial"",""time""
""fullscreenenter"",""0"",""11971""
","
","187.10000002384186","","","","","","","","49","1,0,1","","","","","","","","","","","","","","","",""
"","html-keyboard-response","52","316513","0.0-38.0-0.0","""event"",""trial"",""time""
""fullscreenenter"",""0"",""11971""
""blur"",""2"",""16100""
""focus"",""2"",""16212""
""blur"",""2"",""56221""
""focus"",""2"",""58006""
""blur"",""40"",""211622""
""focus"",""40"",""213059""
","""event"",""trial"",""time""
""blur"",""2"",""16100""
""blur"",""2"",""56221""
""blur"",""40"",""211622""
","""event"",""trial"",""time""
""focus"",""2"",""16212""
""focus"",""2"",""58006""
""focus"",""40"",""213059""
","""event"",""trial"",""time""
""fullscreenenter"",""0"",""11971""
","
","null","<p></p>","null","","","","","","","","","","","","","","","","","","","","","","",""
"","do_trial","53","321293","0.0-38.0-1.0","""event"",""trial"",""time""
""fullscreenenter"",""0"",""11971""
""blur"",""2"",""16100""
""focus"",""2"",""16212""
""blur"",""2"",""56221""
""focus"",""2"",""58006""
""blur"",""40"",""211622""
""focus"",""40"",""213059""
","""event"",""trial"",""time""
""blur"",""2"",""16100""
""blur"",""2"",""56221""
""blur"",""40"",""211622""
","""event"",""trial"",""time""
""focus"",""2"",""16212""
""focus"",""2"",""58006""
""focus"",""40"",""213059""
","""event"",""trial"",""time""
""fullscreenenter"",""0"",""11971""
","
","251","","","","","","","","51","0,1,0","","","","","","","","","","","","","","","",""
"","html-keyboard-response","54","322310","0.0-39.0-0.0","""event"",""trial"",""time""
""fullscreenenter"",""0"",""11971""
""blur"",""2"",""16100""
""focus"",""2"",""16212""
""blur"",""2"",""56221""
""focus"",""2"",""58006""
""blur"",""40"",""211622""
""focus"",""40"",""213059""
""blur"",""55"",""325227""
","""event"",""trial"",""time""
""blur"",""2"",""16100""
""blur"",""2"",""56221""
""blur"",""40"",""211622""
""blur"",""55"",""325227""
","""event"",""trial"",""time""
""focus"",""2"",""16212""
""focus"",""2"",""58006""
""focus"",""40"",""213059""
","""event"",""trial"",""time""
""fullscreenenter"",""0"",""11971""
","
","null","<p></p>","null","","","","","","","","","","","","","","","","","","","","","","",""
"","do_trial","55","327186","0.0-39.0-1.0","""event"",""trial"",""time""
""fullscreenenter"",""0"",""11971""
""blur"",""2"",""16100""
""focus"",""2"",""16212""
""blur"",""2"",""56221""
""focus"",""2"",""58006""
""blur"",""40"",""211622""
""focus"",""40"",""213059""
""blur"",""55"",""325227""
","""event"",""trial"",""time""
""blur"",""2"",""16100""
""blur"",""2"",""56221""
""blur"",""40"",""211622""
""blur"",""55"",""325227""
","""event"",""trial"",""time""
""focus"",""2"",""16212""
""focus"",""2"",""58006""
""focus"",""40"",""213059""
","""event"",""trial"",""time""
""fullscreenenter"",""0"",""11971""
","
","346.60000002384186","","","","","","","","49","1,0,0","","","","","","","","","","","","","","","",""
"","do_bye","56","328708","0.0-40.0-0.0","""event"",""trial"",""time""
""fullscreenenter"",""0"",""11971""
""blur"",""2"",""16100""
""focus"",""2"",""16212""
""blur"",""2"",""56221""
""focus"",""2"",""58006""
""blur"",""40"",""211622""
""focus"",""40"",""213059""
""blur"",""55"",""325227""
""focus"",""57"",""334641""
","""event"",""trial"",""time""
""blur"",""2"",""16100""
""blur"",""2"",""56221""
""blur"",""40"",""211622""
""blur"",""55"",""325227""
","""event"",""trial"",""time""
""focus"",""2"",""16212""
""focus"",""2"",""58006""
""focus"",""40"",""213059""
""focus"",""57"",""334641""
","""event"",""trial"",""time""
""fullscreenenter"",""0"",""11971""
","
","null","","","","","","","","null","","","","","","","","","","","","","","","","",""
"","do_travel","57","337723","0.0-40.0-1.0","""event"",""trial"",""time""
""fullscreenenter"",""0"",""11971""
""blur"",""2"",""16100""
""focus"",""2"",""16212""
""blur"",""2"",""56221""
""focus"",""2"",""58006""
""blur"",""40"",""211622""
""focus"",""40"",""213059""
""blur"",""55"",""325227""
""focus"",""57"",""334641""
","""event"",""trial"",""time""
""blur"",""2"",""16100""
""blur"",""2"",""56221""
""blur"",""40"",""211622""
""blur"",""55"",""325227""
","""event"",""trial"",""time""
""focus"",""2"",""16212""
""focus"",""2"",""58006""
""focus"",""40"",""213059""
""focus"",""57"",""334641""
","""event"",""trial"",""time""
""fullscreenenter"",""0"",""11971""
","
","null","","","","","","","","null","","","","","","","","","","","","","","","","",""
"","do_welcome","58","341738","0.0-40.0-2.0","""event"",""trial"",""time""
""fullscreenenter"",""0"",""11971""
""blur"",""2"",""16100""
""focus"",""2"",""16212""
""blur"",""2"",""56221""
""focus"",""2"",""58006""
""blur"",""40"",""211622""
""focus"",""40"",""213059""
""blur"",""55"",""325227""
""focus"",""57"",""334641""
","""event"",""trial"",""time""
""blur"",""2"",""16100""
""blur"",""2"",""56221""
""blur"",""40"",""211622""
""blur"",""55"",""325227""
","""event"",""trial"",""time""
""focus"",""2"",""16212""
""focus"",""2"",""58006""
""focus"",""40"",""213059""
""focus"",""57"",""334641""
","""event"",""trial"",""time""
""fullscreenenter"",""0"",""11971""
","
","null","","","","","","","","null","","","","","","","","","","","","","","","","",""
"","do_trial","59","347244","0.0-40.0-3.0","""event"",""trial"",""time""
""fullscreenenter"",""0"",""11971""
""blur"",""2"",""16100""
""focus"",""2"",""16212""
""blur"",""2"",""56221""
""focus"",""2"",""58006""
""blur"",""40"",""211622""
""focus"",""40"",""213059""
""blur"",""55"",""325227""
""focus"",""57"",""334641""
","""event"",""trial"",""time""
""blur"",""2"",""16100""
""blur"",""2"",""56221""
""blur"",""40"",""211622""
""blur"",""55"",""325227""
","""event"",""trial"",""time""
""focus"",""2"",""16212""
""focus"",""2"",""58006""
""focus"",""40"",""213059""
""focus"",""57"",""334641""
","""event"",""trial"",""time""
""fullscreenenter"",""0"",""11971""
","
","991.3999999761581","","","","","","","","49","1,0,0","","","","","","","","","","","","","","","",""
"","html-keyboard-response","60","348262","0.0-41.0-0.0","""event"",""trial"",""time""
""fullscreenenter"",""0"",""11971""
""blur"",""2"",""16100""
""focus"",""2"",""16212""
""blur"",""2"",""56221""
""focus"",""2"",""58006""
""blur"",""40"",""211622""
""focus"",""40"",""213059""
""blur"",""55"",""325227""
""focus"",""57"",""334641""
","""event"",""trial"",""time""
""blur"",""2"",""16100""
""blur"",""2"",""56221""
""blur"",""40"",""211622""
""blur"",""55"",""325227""
","""event"",""trial"",""time""
""focus"",""2"",""16212""
""focus"",""2"",""58006""
""focus"",""40"",""213059""
""focus"",""57"",""334641""
","""event"",""trial"",""time""
""fullscreenenter"",""0"",""11971""
","
","null","<p></p>","null","","","","","","","","","","","","","","","","","","","","","","",""
"","do_trial","61","352836","0.0-41.0-1.0","""event"",""trial"",""time""
""fullscreenenter"",""0"",""11971""
""blur"",""2"",""16100""
""focus"",""2"",""16212""
""blur"",""2"",""56221""
""focus"",""2"",""58006""
""blur"",""40"",""211622""
""focus"",""40"",""213059""
""blur"",""55"",""325227""
""focus"",""57"",""334641""
","""event"",""trial"",""time""
""blur"",""2"",""16100""
""blur"",""2"",""56221""
""blur"",""40"",""211622""
""blur"",""55"",""325227""
","""event"",""trial"",""time""
""focus"",""2"",""16212""
""focus"",""2"",""58006""
""focus"",""40"",""213059""
""focus"",""57"",""334641""
","""event"",""trial"",""time""
""fullscreenenter"",""0"",""11971""
","
","56.69999998807907","","","","","","","","50","1,0,1","","","","","","","","","","","","","","","",""
"","html-keyboard-response","62","353842","0.0-42.0-0.0","""event"",""trial"",""time""
""fullscreenenter"",""0"",""11971""
""blur"",""2"",""16100""
""focus"",""2"",""16212""
""blur"",""2"",""56221""
""focus"",""2"",""58006""
""blur"",""40"",""211622""
""focus"",""40"",""213059""
""blur"",""55"",""325227""
""focus"",""57"",""334641""
","""event"",""trial"",""time""
""blur"",""2"",""16100""
""blur"",""2"",""56221""
""blur"",""40"",""211622""
""blur"",""55"",""325227""
","""event"",""trial"",""time""
""focus"",""2"",""16212""
""focus"",""2"",""58006""
""focus"",""40"",""213059""
""focus"",""57"",""334641""
","""event"",""trial"",""time""
""fullscreenenter"",""0"",""11971""
","
","null","<p></p>","null","","","","","","","","","","","","","","","","","","","","","","",""
"","do_trial","63","358607","0.0-42.0-1.0","""event"",""trial"",""time""
""fullscreenenter"",""0"",""11971""
""blur"",""2"",""16100""
""focus"",""2"",""16212""
""blur"",""2"",""56221""
""focus"",""2"",""58006""
""blur"",""40"",""211622""
""focus"",""40"",""213059""
""blur"",""55"",""325227""
""focus"",""57"",""334641""
","""event"",""trial"",""time""
""blur"",""2"",""16100""
""blur"",""2"",""56221""
""blur"",""40"",""211622""
""blur"",""55"",""325227""
","""event"",""trial"",""time""
""focus"",""2"",""16212""
""focus"",""2"",""58006""
""focus"",""40"",""213059""
""focus"",""57"",""334641""
","""event"",""trial"",""time""
""fullscreenenter"",""0"",""11971""
","
","245.10000002384186","","","","","","","","49","1,1,0","","","","","","","","","","","","","","","",""
"","html-keyboard-response","64","359611","0.0-43.0-0.0","""event"",""trial"",""time""
""fullscreenenter"",""0"",""11971""
""blur"",""2"",""16100""
""focus"",""2"",""16212""
""blur"",""2"",""56221""
""focus"",""2"",""58006""
""blur"",""40"",""211622""
""focus"",""40"",""213059""
""blur"",""55"",""325227""
""focus"",""57"",""334641""
","""event"",""trial"",""time""
""blur"",""2"",""16100""
""blur"",""2"",""56221""
""blur"",""40"",""211622""
""blur"",""55"",""325227""
","""event"",""trial"",""time""
""focus"",""2"",""16212""
""focus"",""2"",""58006""
""focus"",""40"",""213059""
""focus"",""57"",""334641""
","""event"",""trial"",""time""
""fullscreenenter"",""0"",""11971""
","
","null","<p></p>","null","","","","","","","","","","","","","","","","","","","","","","",""
"","do_trial","65","364428","0.0-43.0-1.0","""event"",""trial"",""time""
""fullscreenenter"",""0"",""11971""
""blur"",""2"",""16100""
""focus"",""2"",""16212""
""blur"",""2"",""56221""
""focus"",""2"",""58006""
""blur"",""40"",""211622""
""focus"",""40"",""213059""
""blur"",""55"",""325227""
""focus"",""57"",""334641""
","""event"",""trial"",""time""
""blur"",""2"",""16100""
""blur"",""2"",""56221""
""blur"",""40"",""211622""
""blur"",""55"",""325227""
","""event"",""trial"",""time""
""focus"",""2"",""16212""
""focus"",""2"",""58006""
""focus"",""40"",""213059""
""focus"",""57"",""334641""
","""event"",""trial"",""time""
""fullscreenenter"",""0"",""11971""
","
","303.89999997615814","","","","","","","","49","0,0,1","","","","","","","","","","","","","","","",""
"","html-keyboard-response","66","365445","0.0-44.0-0.0","""event"",""trial"",""time""
""fullscreenenter"",""0"",""11971""
""blur"",""2"",""16100""
""focus"",""2"",""16212""
""blur"",""2"",""56221""
""focus"",""2"",""58006""
""blur"",""40"",""211622""
""focus"",""40"",""213059""
""blur"",""55"",""325227""
""focus"",""57"",""334641""
","""event"",""trial"",""time""
""blur"",""2"",""16100""
""blur"",""2"",""56221""
""blur"",""40"",""211622""
""blur"",""55"",""325227""
","""event"",""trial"",""time""
""focus"",""2"",""16212""
""focus"",""2"",""58006""
""focus"",""40"",""213059""
""focus"",""57"",""334641""
","""event"",""trial"",""time""
""fullscreenenter"",""0"",""11971""
","
","null","<p></p>","null","","","","","","","","","","","","","","","","","","","","","","",""
"","do_trial","67","370360","0.0-44.0-1.0","""event"",""trial"",""time""
""fullscreenenter"",""0"",""11971""
""blur"",""2"",""16100""
""focus"",""2"",""16212""
""blur"",""2"",""56221""
""focus"",""2"",""58006""
""blur"",""40"",""211622""
""focus"",""40"",""213059""
""blur"",""55"",""325227""
""focus"",""57"",""334641""
","""event"",""trial"",""time""
""blur"",""2"",""16100""
""blur"",""2"",""56221""
""blur"",""40"",""211622""
""blur"",""55"",""325227""
","""event"",""trial"",""time""
""focus"",""2"",""16212""
""focus"",""2"",""58006""
""focus"",""40"",""213059""
""focus"",""57"",""334641""
","""event"",""trial"",""time""
""fullscreenenter"",""0"",""11971""
","
","396.19999998807907","","","","","","","","51","1,0,1","","","","","","","","","","","","","","","",""
"","html-keyboard-response","68","372629","0.0-45.0-0.0","""event"",""trial"",""time""
""fullscreenenter"",""0"",""11971""
""blur"",""2"",""16100""
""focus"",""2"",""16212""
""blur"",""2"",""56221""
""focus"",""2"",""58006""
""blur"",""40"",""211622""
""focus"",""40"",""213059""
""blur"",""55"",""325227""
""focus"",""57"",""334641""
","""event"",""trial"",""time""
""blur"",""2"",""16100""
""blur"",""2"",""56221""
""blur"",""40"",""211622""
""blur"",""55"",""325227""
","""event"",""trial"",""time""
""focus"",""2"",""16212""
""focus"",""2"",""58006""
""focus"",""40"",""213059""
""focus"",""57"",""334641""
","""event"",""trial"",""time""
""fullscreenenter"",""0"",""11971""
","
","2267.400000035763","<div class='center'><p><img src='run_exp/static/images/tutorial/prac_best_pirate.png'  height='500'></p></div>","49","","","","","","","","","","","","","","","","","","","","","","",""
"","html-keyboard-response","69","373829","0.0-46.0-0.0","""event"",""trial"",""time""
""fullscreenenter"",""0"",""11971""
""blur"",""2"",""16100""
""focus"",""2"",""16212""
""blur"",""2"",""56221""
""focus"",""2"",""58006""
""blur"",""40"",""211622""
""focus"",""40"",""213059""
""blur"",""55"",""325227""
""focus"",""57"",""334641""
","""event"",""trial"",""time""
""blur"",""2"",""16100""
""blur"",""2"",""56221""
""blur"",""40"",""211622""
""blur"",""55"",""325227""
","""event"",""trial"",""time""
""focus"",""2"",""16212""
""focus"",""2"",""58006""
""focus"",""40"",""213059""
""focus"",""57"",""334641""
","""event"",""trial"",""time""
""fullscreenenter"",""0"",""11971""
","
","1197.199999988079","<div class='center'><p>That's correct! Red beard was the best.</p><p><b>[Press the space bar to continue]</b></p></div>","32","","","","","","","","","","","","","","","","","","","","","","",""
"","html-keyboard-response","70","376992","0.0-46.0-1.0","""event"",""trial"",""time""
""fullscreenenter"",""0"",""11971""
""blur"",""2"",""16100""
""focus"",""2"",""16212""
""blur"",""2"",""56221""
""focus"",""2"",""58006""
""blur"",""40"",""211622""
""focus"",""40"",""213059""
""blur"",""55"",""325227""
""focus"",""57"",""334641""
","""event"",""trial"",""time""
""blur"",""2"",""16100""
""blur"",""2"",""56221""
""blur"",""40"",""211622""
""blur"",""55"",""325227""
","""event"",""trial"",""time""
""focus"",""2"",""16212""
""focus"",""2"",""58006""
""focus"",""40"",""213059""
""focus"",""57"",""334641""
","""event"",""trial"",""time""
""fullscreenenter"",""0"",""11971""
","
","3161.100000023842","<div class='center'><p><img src='run_exp/static/images/tutorial/prac_source.png'  height='500'></p></div>","50","","","","","","","","","","","","","","","","","","","","","","",""
"","html-keyboard-response","71","377849","0.0-47.0-0.0","""event"",""trial"",""time""
""fullscreenenter"",""0"",""11971""
""blur"",""2"",""16100""
""focus"",""2"",""16212""
""blur"",""2"",""56221""
""focus"",""2"",""58006""
""blur"",""40"",""211622""
""focus"",""40"",""213059""
""blur"",""55"",""325227""
""focus"",""57"",""334641""
","""event"",""trial"",""time""
""blur"",""2"",""16100""
""blur"",""2"",""56221""
""blur"",""40"",""211622""
""blur"",""55"",""325227""
","""event"",""trial"",""time""
""focus"",""2"",""16212""
""focus"",""2"",""58006""
""focus"",""40"",""213059""
""focus"",""57"",""334641""
","""event"",""trial"",""time""
""fullscreenenter"",""0"",""11971""
","
","854.3999999761581","<div class='center'><p>That's correct! You saw this ship on the cavern island.</p><p><b>[Press the space bar to continue]</b></p></div>","32","","","","","","","","","","","","","","","","","","","","","","",""
"","quiz_beginning","72","389079","0.0-47.0-1.0","""event"",""trial"",""time""
""fullscreenenter"",""0"",""11971""
""blur"",""2"",""16100""
""focus"",""2"",""16212""
""blur"",""2"",""56221""
""focus"",""2"",""58006""
""blur"",""40"",""211622""
""focus"",""40"",""213059""
""blur"",""55"",""325227""
""focus"",""57"",""334641""
","""event"",""trial"",""time""
""blur"",""2"",""16100""
""blur"",""2"",""56221""
""blur"",""40"",""211622""
""blur"",""55"",""325227""
","""event"",""trial"",""time""
""focus"",""2"",""16212""
""focus"",""2"",""58006""
""focus"",""40"",""213059""
""focus"",""57"",""334641""
","""event"",""trial"",""time""
""fullscreenenter"",""0"",""11971""
","
","null","run_exp/static/audio/clip_16_quiz_intro.m4a","null","","","","","<div class='center'><p>Good job on the practice game! Now, you will be asked some true or false questions to make sure you really understand the rules of the game.</p><p> Press <b>'1'</b> on the keyboard for true and press <b>'2'</b> for false.</p></div>","","","","","","","","","","","","","","","","","",""
"","audio-keyboard-response","73","392148","0.0-47.0-2.0","""event"",""trial"",""time""
""fullscreenenter"",""0"",""11971""
""blur"",""2"",""16100""
""focus"",""2"",""16212""
""blur"",""2"",""56221""
""focus"",""2"",""58006""
""blur"",""40"",""211622""
""focus"",""40"",""213059""
""blur"",""55"",""325227""
""focus"",""57"",""334641""
","""event"",""trial"",""time""
""blur"",""2"",""16100""
""blur"",""2"",""56221""
""blur"",""40"",""211622""
""blur"",""55"",""325227""
","""event"",""trial"",""time""
""focus"",""2"",""16212""
""focus"",""2"",""58006""
""focus"",""40"",""213059""
""focus"",""57"",""334641""
","""event"",""trial"",""time""
""fullscreenenter"",""0"",""11971""
","
","3067","run_exp/static/audio/clip_17_q1.m4a","49","","","","","","","","","","","","","","","","","","","","","","",""
"","correct","74","394578","0.0-48.0-0.0","""event"",""trial"",""time""
""fullscreenenter"",""0"",""11971""
""blur"",""2"",""16100""
""focus"",""2"",""16212""
""blur"",""2"",""56221""
""focus"",""2"",""58006""
""blur"",""40"",""211622""
""focus"",""40"",""213059""
""blur"",""55"",""325227""
""focus"",""57"",""334641""
","""event"",""trial"",""time""
""blur"",""2"",""16100""
""blur"",""2"",""56221""
""blur"",""40"",""211622""
""blur"",""55"",""325227""
","""event"",""trial"",""time""
""focus"",""2"",""16212""
""focus"",""2"",""58006""
""focus"",""40"",""213059""
""focus"",""57"",""334641""
","""event"",""trial"",""time""
""fullscreenenter"",""0"",""11971""
","
","null","run_exp/static/audio/clip_18_correct.m4a","null","","","","","<div class='center'><p>That's correct!</p></div>","","","","","","","","","","","","","","","","","",""
"","html-keyboard-response","75","395699","0.0-48.0-1.0","""event"",""trial"",""time""
""fullscreenenter"",""0"",""11971""
""blur"",""2"",""16100""
""focus"",""2"",""16212""
""blur"",""2"",""56221""
""focus"",""2"",""58006""
""blur"",""40"",""211622""
""focus"",""40"",""213059""
""blur"",""55"",""325227""
""focus"",""57"",""334641""
","""event"",""trial"",""time""
""blur"",""2"",""16100""
""blur"",""2"",""56221""
""blur"",""40"",""211622""
""blur"",""55"",""325227""
","""event"",""trial"",""time""
""focus"",""2"",""16212""
""focus"",""2"",""58006""
""focus"",""40"",""213059""
""focus"",""57"",""334641""
","""event"",""trial"",""time""
""fullscreenenter"",""0"",""11971""
","
","1120.2999999523163","<div class='center'><p>That's correct!</p><p><b>[Press the space bar to continue]</b></p></div>","32","","","","","","","","","","","","","","","","","","","","","","",""
"","audio-keyboard-response","76","398980","0.0-48.0-2.0","""event"",""trial"",""time""
""fullscreenenter"",""0"",""11971""
""blur"",""2"",""16100""
""focus"",""2"",""16212""
""blur"",""2"",""56221""
""focus"",""2"",""58006""
""blur"",""40"",""211622""
""focus"",""40"",""213059""
""blur"",""55"",""325227""
""focus"",""57"",""334641""
","""event"",""trial"",""time""
""blur"",""2"",""16100""
""blur"",""2"",""56221""
""blur"",""40"",""211622""
""blur"",""55"",""325227""
","""event"",""trial"",""time""
""focus"",""2"",""16212""
""focus"",""2"",""58006""
""focus"",""40"",""213059""
""focus"",""57"",""334641""
","""event"",""trial"",""time""
""fullscreenenter"",""0"",""11971""
","
","3278.300000011921","run_exp/static/audio/clip_20_q2.m4a","50","","","","","","","","","","","","","","","","","","","","","","",""
"","correct","77","401378","0.0-49.0-0.0","""event"",""trial"",""time""
""fullscreenenter"",""0"",""11971""
""blur"",""2"",""16100""
""focus"",""2"",""16212""
""blur"",""2"",""56221""
""focus"",""2"",""58006""
""blur"",""40"",""211622""
""focus"",""40"",""213059""
""blur"",""55"",""325227""
""focus"",""57"",""334641""
","""event"",""trial"",""time""
""blur"",""2"",""16100""
""blur"",""2"",""56221""
""blur"",""40"",""211622""
""blur"",""55"",""325227""
","""event"",""trial"",""time""
""focus"",""2"",""16212""
""focus"",""2"",""58006""
""focus"",""40"",""213059""
""focus"",""57"",""334641""
","""event"",""trial"",""time""
""fullscreenenter"",""0"",""11971""
","
","null","run_exp/static/audio/clip_18_correct.m4a","null","","","","","<div class='center'><p>That's correct!</p></div>","","","","","","","","","","","","","","","","","",""
"","html-keyboard-response","78","402560","0.0-49.0-1.0","""event"",""trial"",""time""
""fullscreenenter"",""0"",""11971""
""blur"",""2"",""16100""
""focus"",""2"",""16212""
""blur"",""2"",""56221""
""focus"",""2"",""58006""
""blur"",""40"",""211622""
""focus"",""40"",""213059""
""blur"",""55"",""325227""
""focus"",""57"",""334641""
","""event"",""trial"",""time""
""blur"",""2"",""16100""
""blur"",""2"",""56221""
""blur"",""40"",""211622""
""blur"",""55"",""325227""
","""event"",""trial"",""time""
""focus"",""2"",""16212""
""focus"",""2"",""58006""
""focus"",""40"",""213059""
""focus"",""57"",""334641""
","""event"",""trial"",""time""
""fullscreenenter"",""0"",""11971""
","
","1180","<div class='center'><p>That's correct!</p><p><b>[Press the space bar to continue]</b></p></div>","32","","","","","","","","","","","","","","","","","","","","","","",""
"","audio-keyboard-response","79","405365","0.0-49.0-2.0","""event"",""trial"",""time""
""fullscreenenter"",""0"",""11971""
""blur"",""2"",""16100""
""focus"",""2"",""16212""
""blur"",""2"",""56221""
""focus"",""2"",""58006""
""blur"",""40"",""211622""
""focus"",""40"",""213059""
""blur"",""55"",""325227""
""focus"",""57"",""334641""
","""event"",""trial"",""time""
""blur"",""2"",""16100""
""blur"",""2"",""56221""
""blur"",""40"",""211622""
""blur"",""55"",""325227""
","""event"",""trial"",""time""
""focus"",""2"",""16212""
""focus"",""2"",""58006""
""focus"",""40"",""213059""
""focus"",""57"",""334641""
","""event"",""trial"",""time""
""fullscreenenter"",""0"",""11971""
","
","2802.699999988079","run_exp/static/audio/clip_22_q3.m4a","50","","","","","","","","","","","","","","","","","","","","","","",""
"","correct","80","407759","0.0-50.0-0.0","""event"",""trial"",""time""
""fullscreenenter"",""0"",""11971""
""blur"",""2"",""16100""
""focus"",""2"",""16212""
""blur"",""2"",""56221""
""focus"",""2"",""58006""
""blur"",""40"",""211622""
""focus"",""40"",""213059""
""blur"",""55"",""325227""
""focus"",""57"",""334641""
","""event"",""trial"",""time""
""blur"",""2"",""16100""
""blur"",""2"",""56221""
""blur"",""40"",""211622""
""blur"",""55"",""325227""
","""event"",""trial"",""time""
""focus"",""2"",""16212""
""focus"",""2"",""58006""
""focus"",""40"",""213059""
""focus"",""57"",""334641""
","""event"",""trial"",""time""
""fullscreenenter"",""0"",""11971""
","
","null","run_exp/static/audio/clip_18_correct.m4a","null","","","","","<div class='center'><p>That's correct!</p></div>","","","","","","","","","","","","","","","","","",""
"","html-keyboard-response","81","408097","0.0-50.0-1.0","""event"",""trial"",""time""
""fullscreenenter"",""0"",""11971""
""blur"",""2"",""16100""
""focus"",""2"",""16212""
""blur"",""2"",""56221""
""focus"",""2"",""58006""
""blur"",""40"",""211622""
""focus"",""40"",""213059""
""blur"",""55"",""325227""
""focus"",""57"",""334641""
","""event"",""trial"",""time""
""blur"",""2"",""16100""
""blur"",""2"",""56221""
""blur"",""40"",""211622""
""blur"",""55"",""325227""
","""event"",""trial"",""time""
""focus"",""2"",""16212""
""focus"",""2"",""58006""
""focus"",""40"",""213059""
""focus"",""57"",""334641""
","""event"",""trial"",""time""
""fullscreenenter"",""0"",""11971""
","
","337.5","<div class='center'><p>That's correct!</p><p><b>[Press the space bar to continue]</b></p></div>","32","","","","","","","","","","","","","","","","","","","","","","",""
"","audio-keyboard-response","82","410024","0.0-50.0-2.0","""event"",""trial"",""time""
""fullscreenenter"",""0"",""11971""
""blur"",""2"",""16100""
""focus"",""2"",""16212""
""blur"",""2"",""56221""
""focus"",""2"",""58006""
""blur"",""40"",""211622""
""focus"",""40"",""213059""
""blur"",""55"",""325227""
""focus"",""57"",""334641""
","""event"",""trial"",""time""
""blur"",""2"",""16100""
""blur"",""2"",""56221""
""blur"",""40"",""211622""
""blur"",""55"",""325227""
","""event"",""trial"",""time""
""focus"",""2"",""16212""
""focus"",""2"",""58006""
""focus"",""40"",""213059""
""focus"",""57"",""334641""
","""event"",""trial"",""time""
""fullscreenenter"",""0"",""11971""
","
","1924","run_exp/static/audio/clip_24_q4.m4a","49","","","","","","","","","","","","","","","","","","","","","","",""
"","correct","83","412479","0.0-51.0-0.0","""event"",""trial"",""time""
""fullscreenenter"",""0"",""11971""
""blur"",""2"",""16100""
""focus"",""2"",""16212""
""blur"",""2"",""56221""
""focus"",""2"",""58006""
""blur"",""40"",""211622""
""focus"",""40"",""213059""
""blur"",""55"",""325227""
""focus"",""57"",""334641""
","""event"",""trial"",""time""
""blur"",""2"",""16100""
""blur"",""2"",""56221""
""blur"",""40"",""211622""
""blur"",""55"",""325227""
","""event"",""trial"",""time""
""focus"",""2"",""16212""
""focus"",""2"",""58006""
""focus"",""40"",""213059""
""focus"",""57"",""334641""
","""event"",""trial"",""time""
""fullscreenenter"",""0"",""11971""
","
","null","run_exp/static/audio/clip_18_correct.m4a","null","","","","","<div class='center'><p>That's correct!</p></div>","","","","","","","","","","","","","","","","","",""
"","html-keyboard-response","84","413310","0.0-51.0-1.0","""event"",""trial"",""time""
""fullscreenenter"",""0"",""11971""
""blur"",""2"",""16100""
""focus"",""2"",""16212""
""blur"",""2"",""56221""
""focus"",""2"",""58006""
""blur"",""40"",""211622""
""focus"",""40"",""213059""
""blur"",""55"",""325227""
""focus"",""57"",""334641""
","""event"",""trial"",""time""
""blur"",""2"",""16100""
""blur"",""2"",""56221""
""blur"",""40"",""211622""
""blur"",""55"",""325227""
","""event"",""trial"",""time""
""focus"",""2"",""16212""
""focus"",""2"",""58006""
""focus"",""40"",""213059""
""focus"",""57"",""334641""
","""event"",""trial"",""time""
""fullscreenenter"",""0"",""11971""
","
","829.1999999880791","<div class='center'><p>That's correct!</p><p><b>[Press the space bar to continue]</b></p></div>","32","","","","","","","","","","","","","","","","","","","","","","",""
"","q_all_corr","85","421839","0.0-52.0-0.0","""event"",""trial"",""time""
""fullscreenenter"",""0"",""11971""
""blur"",""2"",""16100""
""focus"",""2"",""16212""
""blur"",""2"",""56221""
""focus"",""2"",""58006""
""blur"",""40"",""211622""
""focus"",""40"",""213059""
""blur"",""55"",""325227""
""focus"",""57"",""334641""
","""event"",""trial"",""time""
""blur"",""2"",""16100""
""blur"",""2"",""56221""
""blur"",""40"",""211622""
""blur"",""55"",""325227""
","""event"",""trial"",""time""
""focus"",""2"",""16212""
""focus"",""2"",""58006""
""focus"",""40"",""213059""
""focus"",""57"",""334641""
","""event"",""trial"",""time""
""fullscreenenter"",""0"",""11971""
","
","null","run_exp/static/audio/clip_27_quiz_all_correct.m4a","null","","","","","<div class='center'><p>Good job! You’re now ready to move on to the real game! Remember this game will be difficult but don't get discouraged and try your best!</p></div>","","","","","","","","","","","","","","","","","",""
"","html-keyboard-response","86","422623","0.0-52.0-1.0","""event"",""trial"",""time""
""fullscreenenter"",""0"",""11971""
""blur"",""2"",""16100""
""focus"",""2"",""16212""
""blur"",""2"",""56221""
""focus"",""2"",""58006""
""blur"",""40"",""211622""
""focus"",""40"",""213059""
""blur"",""55"",""325227""
""focus"",""57"",""334641""
","""event"",""trial"",""time""
""blur"",""2"",""16100""
""blur"",""2"",""56221""
""blur"",""40"",""211622""
""blur"",""55"",""325227""
","""event"",""trial"",""time""
""focus"",""2"",""16212""
""focus"",""2"",""58006""
""focus"",""40"",""213059""
""focus"",""57"",""334641""
","""event"",""trial"",""time""
""fullscreenenter"",""0"",""11971""
","
","781.8999999761581","<div class='center'><p>Good job! You’re now ready to move on to the real game! Remember this game will be difficult but don't get discouraged and try your best!</p><p><b>[Press the space bar to continue]</b></p></div>","32","","","","","","","","","","","","","","","","","","","","","","",""
"","do_welcome","87","426641","0.0-53.0-0.0","""event"",""trial"",""time""
""fullscreenenter"",""0"",""11971""
""blur"",""2"",""16100""
""focus"",""2"",""16212""
""blur"",""2"",""56221""
""focus"",""2"",""58006""
""blur"",""40"",""211622""
""focus"",""40"",""213059""
""blur"",""55"",""325227""
""focus"",""57"",""334641""
","""event"",""trial"",""time""
""blur"",""2"",""16100""
""blur"",""2"",""56221""
""blur"",""40"",""211622""
""blur"",""55"",""325227""
","""event"",""trial"",""time""
""focus"",""2"",""16212""
""focus"",""2"",""58006""
""focus"",""40"",""213059""
""focus"",""57"",""334641""
","""event"",""trial"",""time""
""fullscreenenter"",""0"",""11971""
","
","null","","","","","","","","null","","","","","","","","","","","","","","","","",""
"","do_trial","88","431907","0.0-54.0-0.0","""event"",""trial"",""time""
""fullscreenenter"",""0"",""11971""
""blur"",""2"",""16100""
""focus"",""2"",""16212""
""blur"",""2"",""56221""
""focus"",""2"",""58006""
""blur"",""40"",""211622""
""focus"",""40"",""213059""
""blur"",""55"",""325227""
""focus"",""57"",""334641""
","""event"",""trial"",""time""
""blur"",""2"",""16100""
""blur"",""2"",""56221""
""blur"",""40"",""211622""
""blur"",""55"",""325227""
","""event"",""trial"",""time""
""focus"",""2"",""16212""
""focus"",""2"",""58006""
""focus"",""40"",""213059""
""focus"",""57"",""334641""
","""event"",""trial"",""time""
""fullscreenenter"",""0"",""11971""
","
","690.7999999523163","","","","","","","","49","1,0,0","0","countryside","0","probe-160","0.6","0.3","0.1","1","","","","","","","",""
"","html-keyboard-response","89","432913","0.0-54.0-1.0","""event"",""trial"",""time""
""fullscreenenter"",""0"",""11971""
""blur"",""2"",""16100""
""focus"",""2"",""16212""
""blur"",""2"",""56221""
""focus"",""2"",""58006""
""blur"",""40"",""211622""
""focus"",""40"",""213059""
""blur"",""55"",""325227""
""focus"",""57"",""334641""
","""event"",""trial"",""time""
""blur"",""2"",""16100""
""blur"",""2"",""56221""
""blur"",""40"",""211622""
""blur"",""55"",""325227""
","""event"",""trial"",""time""
""focus"",""2"",""16212""
""focus"",""2"",""58006""
""focus"",""40"",""213059""
""focus"",""57"",""334641""
","""event"",""trial"",""time""
""fullscreenenter"",""0"",""11971""
","
","null","<p></p>","null","","","","","","","","","","","","","","","","","","","","","","",""
"","do_trial","90","437738","0.0-55.0-0.0","""event"",""trial"",""time""
""fullscreenenter"",""0"",""11971""
""blur"",""2"",""16100""
""focus"",""2"",""16212""
""blur"",""2"",""56221""
""focus"",""2"",""58006""
""blur"",""40"",""211622""
""focus"",""40"",""213059""
""blur"",""55"",""325227""
""focus"",""57"",""334641""
","""event"",""trial"",""time""
""blur"",""2"",""16100""
""blur"",""2"",""56221""
""blur"",""40"",""211622""
""blur"",""55"",""325227""
","""event"",""trial"",""time""
""focus"",""2"",""16212""
""focus"",""2"",""58006""
""focus"",""40"",""213059""
""focus"",""57"",""334641""
","""event"",""trial"",""time""
""fullscreenenter"",""0"",""11971""
","
","250.4000000357628","","","","","","","","49","1,1,0","0","countryside","1","probe-61","0.5841625222201882","0.2918290934224521","0.1529835927621369","1","","","","","","","",""
"","html-keyboard-response","91","438745","0.0-55.0-1.0","""event"",""trial"",""time""
""fullscreenenter"",""0"",""11971""
""blur"",""2"",""16100""
""focus"",""2"",""16212""
""blur"",""2"",""56221""
""focus"",""2"",""58006""
""blur"",""40"",""211622""
""focus"",""40"",""213059""
""blur"",""55"",""325227""
""focus"",""57"",""334641""
","""event"",""trial"",""time""
""blur"",""2"",""16100""
""blur"",""2"",""56221""
""blur"",""40"",""211622""
""blur"",""55"",""325227""
","""event"",""trial"",""time""
""focus"",""2"",""16212""
""focus"",""2"",""58006""
""focus"",""40"",""213059""
""focus"",""57"",""334641""
","""event"",""trial"",""time""
""fullscreenenter"",""0"",""11971""
","
","null","<p></p>","null","","","","","","","","","","","","","","","","","","","","","","",""
"","do_trial","92","443621","0.0-56.0-0.0","""event"",""trial"",""time""
""fullscreenenter"",""0"",""11971""
""blur"",""2"",""16100""
""focus"",""2"",""16212""
""blur"",""2"",""56221""
""focus"",""2"",""58006""
""blur"",""40"",""211622""
""focus"",""40"",""213059""
""blur"",""55"",""325227""
""focus"",""57"",""334641""
","""event"",""trial"",""time""
""blur"",""2"",""16100""
""blur"",""2"",""56221""
""blur"",""40"",""211622""
""blur"",""55"",""325227""
","""event"",""trial"",""time""
""focus"",""2"",""16212""
""focus"",""2"",""58006""
""focus"",""40"",""213059""
""focus"",""57"",""334641""
","""event"",""trial"",""time""
""fullscreenenter"",""0"",""11971""
","
","296.69999998807907","","","","","","","","49","1,0,0","0","countryside","2","probe-83","0.6034958420716287","0.23920990193260827","0.07028263711966914","1","","","","","","","",""
"","html-keyboard-response","93","444625","0.0-56.0-1.0","""event"",""trial"",""time""
""fullscreenenter"",""0"",""11971""
""blur"",""2"",""16100""
""focus"",""2"",""16212""
""blur"",""2"",""56221""
""focus"",""2"",""58006""
""blur"",""40"",""211622""
""focus"",""40"",""213059""
""blur"",""55"",""325227""
""focus"",""57"",""334641""
","""event"",""trial"",""time""
""blur"",""2"",""16100""
""blur"",""2"",""56221""
""blur"",""40"",""211622""
""blur"",""55"",""325227""
","""event"",""trial"",""time""
""focus"",""2"",""16212""
""focus"",""2"",""58006""
""focus"",""40"",""213059""
""focus"",""57"",""334641""
","""event"",""trial"",""time""
""fullscreenenter"",""0"",""11971""
","
","null","<p></p>","null","","","","","","","","","","","","","","","","","","","","","","",""
"","do_trial","94","450992","0.0-57.0-0.0","""event"",""trial"",""time""
""fullscreenenter"",""0"",""11971""
""blur"",""2"",""16100""
""focus"",""2"",""16212""
""blur"",""2"",""56221""
""focus"",""2"",""58006""
""blur"",""40"",""211622""
""focus"",""40"",""213059""
""blur"",""55"",""325227""
""focus"",""57"",""334641""
","""event"",""trial"",""time""
""blur"",""2"",""16100""
""blur"",""2"",""56221""
""blur"",""40"",""211622""
""blur"",""55"",""325227""
","""event"",""trial"",""time""
""focus"",""2"",""16212""
""focus"",""2"",""58006""
""focus"",""40"",""213059""
""focus"",""57"",""334641""
","""event"",""trial"",""time""
""fullscreenenter"",""0"",""11971""
","
","1774.800000011921","","","","","","","","49","1,0,0","0","countryside","3","probe-173","0.5954404222026543","0.29249561572179206","0.10531690166426959","1","","","","","","","",""
"","html-keyboard-response","95","451999","0.0-57.0-1.0","""event"",""trial"",""time""
""fullscreenenter"",""0"",""11971""
""blur"",""2"",""16100""
""focus"",""2"",""16212""
""blur"",""2"",""56221""
""focus"",""2"",""58006""
""blur"",""40"",""211622""
""focus"",""40"",""213059""
""blur"",""55"",""325227""
""focus"",""57"",""334641""
","""event"",""trial"",""time""
""blur"",""2"",""16100""
""blur"",""2"",""56221""
""blur"",""40"",""211622""
""blur"",""55"",""325227""
","""event"",""trial"",""time""
""focus"",""2"",""16212""
""focus"",""2"",""58006""
""focus"",""40"",""213059""
""focus"",""57"",""334641""
","""event"",""trial"",""time""
""fullscreenenter"",""0"",""11971""
","
","null","<p></p>","null","","","","","","","","","","","","","","","","","","","","","","",""
"","do_trial","96","456901","0.0-58.0-0.0","""event"",""trial"",""time""
""fullscreenenter"",""0"",""11971""
""blur"",""2"",""16100""
""focus"",""2"",""16212""
""blur"",""2"",""56221""
""focus"",""2"",""58006""
""blur"",""40"",""211622""
""focus"",""40"",""213059""
""blur"",""55"",""325227""
""focus"",""57"",""334641""
","""event"",""trial"",""time""
""blur"",""2"",""16100""
""blur"",""2"",""56221""
""blur"",""40"",""211622""
""blur"",""55"",""325227""
","""event"",""trial"",""time""
""focus"",""2"",""16212""
""focus"",""2"",""58006""
""focus"",""40"",""213059""
""focus"",""57"",""334641""
","""event"",""trial"",""time""
""fullscreenenter"",""0"",""11971""
","
","323.5","","","","","","","","49","0,1,0","0","countryside","4","probe-157","0.6586309773784325","0.349903710317737","0.13232554637743477","0","","","","","","","",""
"","html-keyboard-response","97","457908","0.0-58.0-1.0","""event"",""trial"",""time""
""fullscreenenter"",""0"",""11971""
""blur"",""2"",""16100""
""focus"",""2"",""16212""
""blur"",""2"",""56221""
""focus"",""2"",""58006""
""blur"",""40"",""211622""
""focus"",""40"",""213059""
""blur"",""55"",""325227""
""focus"",""57"",""334641""
","""event"",""trial"",""time""
""blur"",""2"",""16100""
""blur"",""2"",""56221""
""blur"",""40"",""211622""
""blur"",""55"",""325227""
","""event"",""trial"",""time""
""focus"",""2"",""16212""
""focus"",""2"",""58006""
""focus"",""40"",""213059""
""focus"",""57"",""334641""
","""event"",""trial"",""time""
""fullscreenenter"",""0"",""11971""
","
","null","<p></p>","null","","","","","","","","","","","","","","","","","","","","","","",""
"","do_trial","98","462610","0.0-59.0-0.0","""event"",""trial"",""time""
""fullscreenenter"",""0"",""11971""
""blur"",""2"",""16100""
""focus"",""2"",""16212""
""blur"",""2"",""56221""
""focus"",""2"",""58006""
""blur"",""40"",""211622""
""focus"",""40"",""213059""
""blur"",""55"",""325227""
""focus"",""57"",""334641""
","""event"",""trial"",""time""
""blur"",""2"",""16100""
""blur"",""2"",""56221""
""blur"",""40"",""211622""
""blur"",""55"",""325227""
","""event"",""trial"",""time""
""focus"",""2"",""16212""
""focus"",""2"",""58006""
""focus"",""40"",""213059""
""focus"",""57"",""334641""
","""event"",""trial"",""time""
""fullscreenenter"",""0"",""11971""
","
","135.10000002384186","","","","","","","","50","1,0,0","0","countryside","5","probe-144","0.6542310763011271","0.2669974787633178","0.19045662924531695","0","","","","","","","",""
"","html-keyboard-response","99","463616","0.0-59.0-1.0","""event"",""trial"",""time""
""fullscreenenter"",""0"",""11971""
""blur"",""2"",""16100""
""focus"",""2"",""16212""
""blur"",""2"",""56221""
""focus"",""2"",""58006""
""blur"",""40"",""211622""
""focus"",""40"",""213059""
""blur"",""55"",""325227""
""focus"",""57"",""334641""
","""event"",""trial"",""time""
""blur"",""2"",""16100""
""blur"",""2"",""56221""
""blur"",""40"",""211622""
""blur"",""55"",""325227""
","""event"",""trial"",""time""
""focus"",""2"",""16212""
""focus"",""2"",""58006""
""focus"",""40"",""213059""
""focus"",""57"",""334641""
","""event"",""trial"",""time""
""fullscreenenter"",""0"",""11971""
","
","null","<p></p>","null","","","","","","","","","","","","","","","","","","","","","","",""
"","do_trial","100","469465","0.0-60.0-0.0","""event"",""trial"",""time""
""fullscreenenter"",""0"",""11971""
""blur"",""2"",""16100""
""focus"",""2"",""16212""
""blur"",""2"",""56221""
""focus"",""2"",""58006""
""blur"",""40"",""211622""
""focus"",""40"",""213059""
""blur"",""55"",""325227""
""focus"",""57"",""334641""
","""event"",""trial"",""time""
""blur"",""2"",""16100""
""blur"",""2"",""56221""
""blur"",""40"",""211622""
""blur"",""55"",""325227""
","""event"",""trial"",""time""
""focus"",""2"",""16212""
""focus"",""2"",""58006""
""focus"",""40"",""213059""
""focus"",""57"",""334641""
","""event"",""trial"",""time""
""fullscreenenter"",""0"",""11971""
","
","1215.699999988079","","","","","","","","51","0,0,0","0","countryside","6","probe-162","0.756490939954482","0.31980973593101486","0.14569582120922567","0","","","","","","","",""
"","html-keyboard-response","101","470481","0.0-60.0-1.0","""event"",""trial"",""time""
""fullscreenenter"",""0"",""11971""
""blur"",""2"",""16100""
""focus"",""2"",""16212""
""blur"",""2"",""56221""
""focus"",""2"",""58006""
""blur"",""40"",""211622""
""focus"",""40"",""213059""
""blur"",""55"",""325227""
""focus"",""57"",""334641""
","""event"",""trial"",""time""
""blur"",""2"",""16100""
""blur"",""2"",""56221""
""blur"",""40"",""211622""
""blur"",""55"",""325227""
","""event"",""trial"",""time""
""focus"",""2"",""16212""
""focus"",""2"",""58006""
""focus"",""40"",""213059""
""focus"",""57"",""334641""
","""event"",""trial"",""time""
""fullscreenenter"",""0"",""11971""
","
","null","<p></p>","null","","","","","","","","","","","","","","","","","","","","","","",""
"","do_trial","102","475373","0.0-61.0-0.0","""event"",""trial"",""time""
""fullscreenenter"",""0"",""11971""
""blur"",""2"",""16100""
""focus"",""2"",""16212""
""blur"",""2"",""56221""
""focus"",""2"",""58006""
""blur"",""40"",""211622""
""focus"",""40"",""213059""
""blur"",""55"",""325227""
""focus"",""57"",""334641""
","""event"",""trial"",""time""
""blur"",""2"",""16100""
""blur"",""2"",""56221""
""blur"",""40"",""211622""
""blur"",""55"",""325227""
","""event"",""trial"",""time""
""focus"",""2"",""16212""
""focus"",""2"",""58006""
""focus"",""40"",""213059""
""focus"",""57"",""334641""
","""event"",""trial"",""time""
""fullscreenenter"",""0"",""11971""
","
","285.89999997615814","","","","","","","","49","1,1,0","0","countryside","7","probe-04","0.6341090147810665","0.3726645392018641","0.05132295415560442","1","","","","","","","",""
"","html-keyboard-response","103","476375","0.0-61.0-1.0","""event"",""trial"",""time""
""fullscreenenter"",""0"",""11971""
""blur"",""2"",""16100""
""focus"",""2"",""16212""
""blur"",""2"",""56221""
""focus"",""2"",""58006""
""blur"",""40"",""211622""
""focus"",""40"",""213059""
""blur"",""55"",""325227""
""focus"",""57"",""334641""
","""event"",""trial"",""time""
""blur"",""2"",""16100""
""blur"",""2"",""56221""
""blur"",""40"",""211622""
""blur"",""55"",""325227""
","""event"",""trial"",""time""
""focus"",""2"",""16212""
""focus"",""2"",""58006""
""focus"",""40"",""213059""
""focus"",""57"",""334641""
","""event"",""trial"",""time""
""fullscreenenter"",""0"",""11971""
","
","null","<p></p>","null","","","","","","","","","","","","","","","","","","","","","","",""
"","do_trial","104","481340","0.0-62.0-0.0","""event"",""trial"",""time""
""fullscreenenter"",""0"",""11971""
""blur"",""2"",""16100""
""focus"",""2"",""16212""
""blur"",""2"",""56221""
""focus"",""2"",""58006""
""blur"",""40"",""211622""
""focus"",""40"",""213059""
""blur"",""55"",""325227""
""focus"",""57"",""334641""
","""event"",""trial"",""time""
""blur"",""2"",""16100""
""blur"",""2"",""56221""
""blur"",""40"",""211622""
""blur"",""55"",""325227""
","""event"",""trial"",""time""
""focus"",""2"",""16212""
""focus"",""2"",""58006""
""focus"",""40"",""213059""
""focus"",""57"",""334641""
","""event"",""trial"",""time""
""fullscreenenter"",""0"",""11971""
","
","358.69999998807907","","","","","","","","50","0,1,0","0","countryside","8","probe-30","0.6974440580888155","0.34685660609904745","0.08166176578286315","1","","","","","","","",""
"","html-keyboard-response","105","482344","0.0-62.0-1.0","""event"",""trial"",""time""
""fullscreenenter"",""0"",""11971""
""blur"",""2"",""16100""
""focus"",""2"",""16212""
""blur"",""2"",""56221""
""focus"",""2"",""58006""
""blur"",""40"",""211622""
""focus"",""40"",""213059""
""blur"",""55"",""325227""
""focus"",""57"",""334641""
","""event"",""trial"",""time""
""blur"",""2"",""16100""
""blur"",""2"",""56221""
""blur"",""40"",""211622""
""blur"",""55"",""325227""
","""event"",""trial"",""time""
""focus"",""2"",""16212""
""focus"",""2"",""58006""
""focus"",""40"",""213059""
""focus"",""57"",""334641""
","""event"",""trial"",""time""
""fullscreenenter"",""0"",""11971""
","
","null","<p></p>","null","","","","","","","","","","","","","","","","","","","","","","",""
"","do_trial","106","487404","0.0-63.0-0.0","""event"",""trial"",""time""
""fullscreenenter"",""0"",""11971""
""blur"",""2"",""16100""
""focus"",""2"",""16212""
""blur"",""2"",""56221""
""focus"",""2"",""58006""
""blur"",""40"",""211622""
""focus"",""40"",""213059""
""blur"",""55"",""325227""
""focus"",""57"",""334641""
","""event"",""trial"",""time""
""blur"",""2"",""16100""
""blur"",""2"",""56221""
""blur"",""40"",""211622""
""blur"",""55"",""325227""
","""event"",""trial"",""time""
""focus"",""2"",""16212""
""focus"",""2"",""58006""
""focus"",""40"",""213059""
""focus"",""57"",""334641""
","""event"",""trial"",""time""
""fullscreenenter"",""0"",""11971""
","
","485","","","","","","","","51","1,1,0","0","countryside","9","probe-14","0.6677949880072173","0.24412937375155416","0.14458435433528644","0","","","","","","","",""
"","html-keyboard-response","107","488422","0.0-63.0-1.0","""event"",""trial"",""time""
""fullscreenenter"",""0"",""11971""
""blur"",""2"",""16100""
""focus"",""2"",""16212""
""blur"",""2"",""56221""
""focus"",""2"",""58006""
""blur"",""40"",""211622""
""focus"",""40"",""213059""
""blur"",""55"",""325227""
""focus"",""57"",""334641""
","""event"",""trial"",""time""
""blur"",""2"",""16100""
""blur"",""2"",""56221""
""blur"",""40"",""211622""
""blur"",""55"",""325227""
","""event"",""trial"",""time""
""focus"",""2"",""16212""
""focus"",""2"",""58006""
""focus"",""40"",""213059""
""focus"",""57"",""334641""
","""event"",""trial"",""time""
""fullscreenenter"",""0"",""11971""
","
","null","<p></p>","null","","","","","","","","","","","","","","","","","","","","","","",""
"","do_trial","108","493665","0.0-64.0-0.0","""event"",""trial"",""time""
""fullscreenenter"",""0"",""11971""
""blur"",""2"",""16100""
""focus"",""2"",""16212""
""blur"",""2"",""56221""
""focus"",""2"",""58006""
""blur"",""40"",""211622""
""focus"",""40"",""213059""
""blur"",""55"",""325227""
""focus"",""57"",""334641""
","""event"",""trial"",""time""
""blur"",""2"",""16100""
""blur"",""2"",""56221""
""blur"",""40"",""211622""
""blur"",""55"",""325227""
","""event"",""trial"",""time""
""focus"",""2"",""16212""
""focus"",""2"",""58006""
""focus"",""40"",""213059""
""focus"",""57"",""334641""
","""event"",""trial"",""time""
""fullscreenenter"",""0"",""11971""
","
","640.0999999642372","","","","","","","","49","1,0,0","0","countryside","10","probe-119","0.6404595251318927","0.2712860160715771","0.16676471496514705","1","","","","","","","",""
"","html-keyboard-response","109","494683","0.0-64.0-1.0","""event"",""trial"",""time""
""fullscreenenter"",""0"",""11971""
""blur"",""2"",""16100""
""focus"",""2"",""16212""
""blur"",""2"",""56221""
""focus"",""2"",""58006""
""blur"",""40"",""211622""
""focus"",""40"",""213059""
""blur"",""55"",""325227""
""focus"",""57"",""334641""
","""event"",""trial"",""time""
""blur"",""2"",""16100""
""blur"",""2"",""56221""
""blur"",""40"",""211622""
""blur"",""55"",""325227""
","""event"",""trial"",""time""
""focus"",""2"",""16212""
""focus"",""2"",""58006""
""focus"",""40"",""213059""
""focus"",""57"",""334641""
","""event"",""trial"",""time""
""fullscreenenter"",""0"",""11971""
","
","null","<p></p>","null","","","","","","","","","","","","","","","","","","","","","","",""
"","do_trial","110","499587","0.0-65.0-0.0","""event"",""trial"",""time""
""fullscreenenter"",""0"",""11971""
""blur"",""2"",""16100""
""focus"",""2"",""16212""
""blur"",""2"",""56221""
""focus"",""2"",""58006""
""blur"",""40"",""211622""
""focus"",""40"",""213059""
""blur"",""55"",""325227""
""focus"",""57"",""334641""
","""event"",""trial"",""time""
""blur"",""2"",""16100""
""blur"",""2"",""56221""
""blur"",""40"",""211622""
""blur"",""55"",""325227""
","""event"",""trial"",""time""
""focus"",""2"",""16212""
""focus"",""2"",""58006""
""focus"",""40"",""213059""
""focus"",""57"",""334641""
","""event"",""trial"",""time""
""fullscreenenter"",""0"",""11971""
","
","325.19999998807907","","","","","","","","49","1,0,0","0","countryside","11","probe-25","0.7750231868469265","0.2163285799993798","0.07845236444601753","1","","","","","","","",""
"","html-keyboard-response","111","500593","0.0-65.0-1.0","""event"",""trial"",""time""
""fullscreenenter"",""0"",""11971""
""blur"",""2"",""16100""
""focus"",""2"",""16212""
""blur"",""2"",""56221""
""focus"",""2"",""58006""
""blur"",""40"",""211622""
""focus"",""40"",""213059""
""blur"",""55"",""325227""
""focus"",""57"",""334641""
","""event"",""trial"",""time""
""blur"",""2"",""16100""
""blur"",""2"",""56221""
""blur"",""40"",""211622""
""blur"",""55"",""325227""
","""event"",""trial"",""time""
""focus"",""2"",""16212""
""focus"",""2"",""58006""
""focus"",""40"",""213059""
""focus"",""57"",""334641""
","""event"",""trial"",""time""
""fullscreenenter"",""0"",""11971""
","
","null","<p></p>","null","","","","","","","","","","","","","","","","","","","","","","",""
"","do_trial","112","506685","0.0-66.0-0.0","""event"",""trial"",""time""
""fullscreenenter"",""0"",""11971""
""blur"",""2"",""16100""
""focus"",""2"",""16212""
""blur"",""2"",""56221""
""focus"",""2"",""58006""
""blur"",""40"",""211622""
""focus"",""40"",""213059""
""blur"",""55"",""325227""
""focus"",""57"",""334641""
","""event"",""trial"",""time""
""blur"",""2"",""16100""
""blur"",""2"",""56221""
""blur"",""40"",""211622""
""blur"",""55"",""325227""
","""event"",""trial"",""time""
""focus"",""2"",""16212""
""focus"",""2"",""58006""
""focus"",""40"",""213059""
""focus"",""57"",""334641""
","""event"",""trial"",""time""
""fullscreenenter"",""0"",""11971""
","
","null","","","","","","","","null","1,0,0","0","countryside","12","probe-161","0.8469044191860168","0.15890183460986707","0.13103638255605454","","","","","","","","",""
"","html-keyboard-response","113","507689","0.0-66.0-1.0","""event"",""trial"",""time""
""fullscreenenter"",""0"",""11971""
""blur"",""2"",""16100""
""focus"",""2"",""16212""
""blur"",""2"",""56221""
""focus"",""2"",""58006""
""blur"",""40"",""211622""
""focus"",""40"",""213059""
""blur"",""55"",""325227""
""focus"",""57"",""334641""
","""event"",""trial"",""time""
""blur"",""2"",""16100""
""blur"",""2"",""56221""
""blur"",""40"",""211622""
""blur"",""55"",""325227""
","""event"",""trial"",""time""
""focus"",""2"",""16212""
""focus"",""2"",""58006""
""focus"",""40"",""213059""
""focus"",""57"",""334641""
","""event"",""trial"",""time""
""fullscreenenter"",""0"",""11971""
","
","null","<p></p>","null","","","","","","","","","","","","","","","","","","","","","","",""
"","do_trial","114","512637","0.0-67.0-0.0","""event"",""trial"",""time""
""fullscreenenter"",""0"",""11971""
""blur"",""2"",""16100""
""focus"",""2"",""16212""
""blur"",""2"",""56221""
""focus"",""2"",""58006""
""blur"",""40"",""211622""
""focus"",""40"",""213059""
""blur"",""55"",""325227""
""focus"",""57"",""334641""
","""event"",""trial"",""time""
""blur"",""2"",""16100""
""blur"",""2"",""56221""
""blur"",""40"",""211622""
""blur"",""55"",""325227""
","""event"",""trial"",""time""
""focus"",""2"",""16212""
""focus"",""2"",""58006""
""focus"",""40"",""213059""
""focus"",""57"",""334641""
","""event"",""trial"",""time""
""fullscreenenter"",""0"",""11971""
","
","361","","","","","","","","49","1,1,0","0","countryside","13","probe-12","0.8077218987360935","0.34312620534434585","0.08849484619140185","1","","","","","","","",""
"","html-keyboard-response","115","513640","0.0-67.0-1.0","""event"",""trial"",""time""
""fullscreenenter"",""0"",""11971""
""blur"",""2"",""16100""
""focus"",""2"",""16212""
""blur"",""2"",""56221""
""focus"",""2"",""58006""
""blur"",""40"",""211622""
""focus"",""40"",""213059""
""blur"",""55"",""325227""
""focus"",""57"",""334641""
","""event"",""trial"",""time""
""blur"",""2"",""16100""
""blur"",""2"",""56221""
""blur"",""40"",""211622""
""blur"",""55"",""325227""
","""event"",""trial"",""time""
""focus"",""2"",""16212""
""focus"",""2"",""58006""
""focus"",""40"",""213059""
""focus"",""57"",""334641""
","""event"",""trial"",""time""
""fullscreenenter"",""0"",""11971""
","
","null","<p></p>","null","","","","","","","","","","","","","","","","","","","","","","",""
"","do_trial","116","518611","0.0-68.0-0.0","""event"",""trial"",""time""
""fullscreenenter"",""0"",""11971""
""blur"",""2"",""16100""
""focus"",""2"",""16212""
""blur"",""2"",""56221""
""focus"",""2"",""58006""
""blur"",""40"",""211622""
""focus"",""40"",""213059""
""blur"",""55"",""325227""
""focus"",""57"",""334641""
","""event"",""trial"",""time""
""blur"",""2"",""16100""
""blur"",""2"",""56221""
""blur"",""40"",""211622""
""blur"",""55"",""325227""
","""event"",""trial"",""time""
""focus"",""2"",""16212""
""focus"",""2"",""58006""
""focus"",""40"",""213059""
""focus"",""57"",""334641""
","""event"",""trial"",""time""
""fullscreenenter"",""0"",""11971""
","
","396.5999999642372","","","","","","","","49","1,0,0","0","countryside","14","probe-207","0.6998450482434008","0.2933094660770127","0.07747957691263467","1","","","","","","","",""
"","html-keyboard-response","117","519614","0.0-68.0-1.0","""event"",""trial"",""time""
""fullscreenenter"",""0"",""11971""
""blur"",""2"",""16100""
""focus"",""2"",""16212""
""blur"",""2"",""56221""
""focus"",""2"",""58006""
""blur"",""40"",""211622""
""focus"",""40"",""213059""
""blur"",""55"",""325227""
""focus"",""57"",""334641""
","""event"",""trial"",""time""
""blur"",""2"",""16100""
""blur"",""2"",""56221""
""blur"",""40"",""211622""
""blur"",""55"",""325227""
","""event"",""trial"",""time""
""focus"",""2"",""16212""
""focus"",""2"",""58006""
""focus"",""40"",""213059""
""focus"",""57"",""334641""
","""event"",""trial"",""time""
""fullscreenenter"",""0"",""11971""
","
","null","<p></p>","null","","","","","","","","","","","","","","","","","","","","","","",""
"","do_trial","118","525247","0.0-69.0-0.0","""event"",""trial"",""time""
""fullscreenenter"",""0"",""11971""
""blur"",""2"",""16100""
""focus"",""2"",""16212""
""blur"",""2"",""56221""
""focus"",""2"",""58006""
""blur"",""40"",""211622""
""focus"",""40"",""213059""
""blur"",""55"",""325227""
""focus"",""57"",""334641""
","""event"",""trial"",""time""
""blur"",""2"",""16100""
""blur"",""2"",""56221""
""blur"",""40"",""211622""
""blur"",""55"",""325227""
","""event"",""trial"",""time""
""focus"",""2"",""16212""
""focus"",""2"",""58006""
""focus"",""40"",""213059""
""focus"",""57"",""334641""
","""event"",""trial"",""time""
""fullscreenenter"",""0"",""11971""
","
