"success","trial_type","trial_index","time_elapsed","internal_node_id","interactions","blur_events","focus_events","fullscreenenter_events","fullscreenexit_events","rt","stimulus","key_press","subject_id","participant_id","age","gender","prompt","response","choice_outcomes","context_n","context_img_id","trial_n","probe_img_id","pR_red","pR_white","pR_black","outcome","contextArray_ind","validImageProbes","invalidImageProbes","pRew_Red","pRew_White","pRew_Black","availableForMemProbe","choice_blocks"
"true","fullscreen","0","2896","0.0-0.0","""event"",""trial"",""time""
""fullscreenenter"",""0"",""1912""
","
","
","""event"",""trial"",""time""
""fullscreenenter"",""0"",""1912""
","
","","","","","","","","","","","","","","","","","","","","","","","","","",""
"","pavlovia","1","2898","0.0-1.0","""event"",""trial"",""time""
""fullscreenenter"",""0"",""1912""
","
","
","""event"",""trial"",""time""
""fullscreenenter"",""0"",""1912""
","
","","","","","","","","","","","","","","","","","","","","","","","","","",""
"","instruc1","2","47990","0.0-2.0","""event"",""trial"",""time""
""fullscreenenter"",""0"",""1912""
","
","
","""event"",""trial"",""time""
""fullscreenenter"",""0"",""1912""
","
","null","run_exp/static/audio/clip_1_welcome.m4a","null","287","560","15","Male","<div class='center'><p>Welcome! This is the first part of the study. It will last ~30 minutes. In part 1 and part 2 of the study, you are the head captain of a pirate ship traveling around the world to different islands. You will play a few different games throughout these two parts. Here is an overview of them:</p><br><p>Part 1 (today)</p><p>1. Instructions, practice game, and quiz</p><p>2. Pick a pirate game on 6 different islands</p><br><p>Part 2 (tomorrow)</p><p>3. Pick a pirate game and memory game</p><p>4. Where did you see this ship? </p></div>","","","","","","","","","","","","","","","","","",""
"","html-keyboard-response","3","48013","0.0-3.0","""event"",""trial"",""time""
""fullscreenenter"",""0"",""1912""
","
","
","""event"",""trial"",""time""
""fullscreenenter"",""0"",""1912""
","
","21.5","<div class='center'><p>Welcome! This is the first part of the study. It will last ~30 minutes. In part 1 and part 2 of the study, you are the head captain of a pirate ship traveling around the world to different islands. You will play a few different games throughout these two parts. Here is an overview of them:</p><br><p>Part 1 (today)</p><p>1. Instructions, practice game, and quiz</p><p>2. Pick a pirate game on 6 different islands</p><br><p>Part 2 (tomorrow)</p><p>3. Pick a pirate game and memory game</p><p>4. Where did you see this ship? </p><p><b>[Press the space bar to continue]</b></p></div>","32","","","","","","","","","","","","","","","","","","","","","","",""
"","instruc2","4","53329","0.0-4.0","""event"",""trial"",""time""
""fullscreenenter"",""0"",""1912""
","
","
","""event"",""trial"",""time""
""fullscreenenter"",""0"",""1912""
","
","null","run_exp/static/audio/clip_2_different_places.m4a","null","","","","","<div class='center'><p>Today, you’ll visit these 6 islands on your journey. You'll be able to see these islands from your ship.</p><p><img src='run_exp/static/images/contexts/all_contexts.png' height='500'></p></div>","","","","","","","","","","","","","","","","","",""
"","html-keyboard-response","5","54677","0.0-5.0","""event"",""trial"",""time""
""fullscreenenter"",""0"",""1912""
","
","
","""event"",""trial"",""time""
""fullscreenenter"",""0"",""1912""
","
","1347.3999998569489","<div class='center'><p>Today, you’ll visit these 6 islands on your journey. You'll be able to see these islands from your ship.</p><p><img src='run_exp/static/images/contexts/all_contexts.png' height='500'></p><p><b>[Press the space bar to continue]</b></p></div>","32","","","","","","","","","","","","","","","","","","","","","","",""
"","instruc3","6","64369","0.0-6.0","""event"",""trial"",""time""
""fullscreenenter"",""0"",""1912""
","
","
","""event"",""trial"",""time""
""fullscreenenter"",""0"",""1912""
","
","null","run_exp/static/audio/clip_3_goal_of_game_1.m4a","null","","","","","<div class='center'><p> The pirates on your ship will rob other ships as they leave the island.</p> These ships have just sold their goods to the islanders, so they will be filled with lots and lots of gold.</p><p><img src='run_exp/static/images/tutorial/ship_center.png' height='400'></p></div>","","","","","","","","","","","","","","","","","",""
"","html-keyboard-response","7","65399","0.0-7.0","""event"",""trial"",""time""
""fullscreenenter"",""0"",""1912""
","
","
","""event"",""trial"",""time""
""fullscreenenter"",""0"",""1912""
","
","1029.7999999523163","<div class='center'><p> The pirates on your ship will rob other ships as they leave the island.</p> These ships have just sold their goods to the islanders, so they will be filled with lots and lots of gold.</p><p><img src='run_exp/static/images/tutorial/ship_center.png' height='400'></p><p><b>[Press the space bar to continue]</b></p></div>","32","","","","","","","","","","","","","","","","","","","","","","",""
"","instruc4","8","93389","0.0-8.0","""event"",""trial"",""time""
""fullscreenenter"",""0"",""1912""
","
","
","""event"",""trial"",""time""
""fullscreenenter"",""0"",""1912""
","
","null","run_exp/static/audio/clip_4_goal_of_game_2.m4a","null","","","","","<div class='center'><p>As the head captain, you do not have to rob any ships yourself. Another pirate will be doing the robbing for you. First, you will choose a pirate to rob the next ship.</p><p><img src='run_exp/static/images/tutorial/pirates_all_crop.png' height='200'></p><p>Then, you'll see if the pirate successfully robbed the ship of their gold. If they were successful, then you'll get a stack of gold coins like this:</p><p><img src='run_exp/static/images/tutorial/reward.png' height='150'></p><p> If they were <b>not</b> successful, then you'll get no gold coins, and you'll see a big red x like this: </p><p><img src='run_exp/static/images/tutorial/reward_no.png' height='150'></p><p> How much bonus money you make is based on how many gold coins you collect.</p><div>","","","","","","","","","","","","","","","","","",""
"","html-keyboard-response","9","93884","0.0-9.0","""event"",""trial"",""time""
""fullscreenenter"",""0"",""1912""
","
","
","""event"",""trial"",""time""
""fullscreenenter"",""0"",""1912""
","
","494.60000014305115","<div class='center'><p>As the head captain, you do not have to rob any ships yourself. Another pirate will be doing the robbing for you. First, you will choose a pirate to rob the next ship.</p><p><img src='run_exp/static/images/tutorial/pirates_all_crop.png' height='200'></p><p>Then, you'll see if the pirate successfully robbed the ship of their gold. If they were successful, then you'll get a stack of gold coins like this:</p><p><img src='run_exp/static/images/tutorial/reward.png' height='150'></p><p> If they were <b>not</b> successful, then you'll get no gold coins, and you'll see a big red x like this: </p><p><img src='run_exp/static/images/tutorial/reward_no.png' height='150'></p><p> How much bonus money you make is based on how many gold coins you collect.</p<p><b>[Press the space bar to continue]</b></p></div>","32","","","","","","","","","","","","","","","","","","","","","","",""
"","instruc5","10","115309","0.0-10.0","""event"",""trial"",""time""
""fullscreenenter"",""0"",""1912""
","
","
","""event"",""trial"",""time""
""fullscreenenter"",""0"",""1912""
","
","21424.299999952316","run_exp/static/audio/clip_5_probabilistic.m4a","49","","","","","<div class='center'><p>Even the most skilled pirate can not rob EVERY ship.</p><p> Some ships will have very strong protections against pirate attacks.</p><p> Blue beard, here, is very, very good at robbing ships, but he won't be successful every time he tries to rob one.</p><p> You can press the <b>‘1’</b> key on the keyboard to choose him.</p><p> Try choosing him 10 times to see how often he succeeds at robbing a ship. </p><p><img src='run_exp/static/images/tutorial/blue.png' height='500'></p></div>","","","","","","","","","","","","","","","","","",""
"","html-keyboard-response","11","116815","0.0-11.0","""event"",""trial"",""time""
""fullscreenenter"",""0"",""1912""
","
","
","""event"",""trial"",""time""
""fullscreenenter"",""0"",""1912""
","
","null","<div class='center'><p><img src='run_exp/static/images/tutorial/blue_win.png' height='500'></p></div>","null","","","","","","","","","","","","","","","","","","","","","","",""
"","html-keyboard-response","12","117573","0.0-12.0","""event"",""trial"",""time""
""fullscreenenter"",""0"",""1912""
","
","
","""event"",""trial"",""time""
""fullscreenenter"",""0"",""1912""
","
","757.1000001430511","<div class='center'><img src='run_exp/static/images/tutorial/blue.png' height='500'></p></div>","49","","","","","","","","","","","","","","","","","","","","","","",""
"","html-keyboard-response","13","119075","0.0-13.0","""event"",""trial"",""time""
""fullscreenenter"",""0"",""1912""
","
","
","""event"",""trial"",""time""
""fullscreenenter"",""0"",""1912""
","
","null","<div class='center'><p><img src='run_exp/static/images/tutorial/blue_win.png' height='500'></p></div>","null","","","","","","","","","","","","","","","","","","","","","","",""
"","html-keyboard-response","14","119542","0.0-14.0","""event"",""trial"",""time""
""fullscreenenter"",""0"",""1912""
","
","
","""event"",""trial"",""time""
""fullscreenenter"",""0"",""1912""
","
","466.89999985694885","<div class='center'><img src='run_exp/static/images/tutorial/blue.png' height='500'></p></div>","49","","","","","","","","","","","","","","","","","","","","","","",""
"","html-keyboard-response","15","121050","0.0-15.0","""event"",""trial"",""time""
""fullscreenenter"",""0"",""1912""
","
","
","""event"",""trial"",""time""
""fullscreenenter"",""0"",""1912""
","
","null","<div class='center'><p><img src='run_exp/static/images/tutorial/blue_win.png' height='500'></p></div>","null","","","","","","","","","","","","","","","","","","","","","","",""
"","html-keyboard-response","16","121391","0.0-16.0","""event"",""trial"",""time""
""fullscreenenter"",""0"",""1912""
","
","
","""event"",""trial"",""time""
""fullscreenenter"",""0"",""1912""
","
","340.10000014305115","<div class='center'><img src='run_exp/static/images/tutorial/blue.png' height='500'></p></div>","49","","","","","","","","","","","","","","","","","","","","","","",""
"","html-keyboard-response","17","122900","0.0-17.0","""event"",""trial"",""time""
""fullscreenenter"",""0"",""1912""
","
","
","""event"",""trial"",""time""
""fullscreenenter"",""0"",""1912""
","
","null","<div class='center'><p><img src='run_exp/static/images/tutorial/blue_no_win.png' height='500'></p></div>","null","","","","","","","","","","","","","","","","","","","","","","",""
"","html-keyboard-response","18","124780","0.0-18.0","""event"",""trial"",""time""
""fullscreenenter"",""0"",""1912""
","
","
","""event"",""trial"",""time""
""fullscreenenter"",""0"",""1912""
","
","1878.5","<div class='center'><img src='run_exp/static/images/tutorial/blue.png' height='500'></p></div>","49","","","","","","","","","","","","","","","","","","","","","","",""
"","html-keyboard-response","19","126288","0.0-19.0","""event"",""trial"",""time""
""fullscreenenter"",""0"",""1912""
","
","
","""event"",""trial"",""time""
""fullscreenenter"",""0"",""1912""
","
","null","<div class='center'><p><img src='run_exp/static/images/tutorial/blue_win.png' height='500'></p></div>","null","","","","","","","","","","","","","","","","","","","","","","",""
"","html-keyboard-response","20","126709","0.0-20.0","""event"",""trial"",""time""
""fullscreenenter"",""0"",""1912""
","
","
","""event"",""trial"",""time""
""fullscreenenter"",""0"",""1912""
","
","420.5","<div class='center'><img src='run_exp/static/images/tutorial/blue.png' height='500'></p></div>","49","","","","","","","","","","","","","","","","","","","","","","",""
"","html-keyboard-response","21","128209","0.0-21.0","""event"",""trial"",""time""
""fullscreenenter"",""0"",""1912""
","
","
","""event"",""trial"",""time""
""fullscreenenter"",""0"",""1912""
","
","null","<div class='center'><p><img src='run_exp/static/images/tutorial/blue_win.png' height='500'></p></div>","null","","","","","","","","","","","","","","","","","","","","","","",""
"","html-keyboard-response","22","128553","0.0-22.0","""event"",""trial"",""time""
""fullscreenenter"",""0"",""1912""
","
","
","""event"",""trial"",""time""
""fullscreenenter"",""0"",""1912""
","
","343.2999999523163","<div class='center'><img src='run_exp/static/images/tutorial/blue.png' height='500'></p></div>","49","","","","","","","","","","","","","","","","","","","","","","",""
"","html-keyboard-response","23","130063","0.0-23.0","""event"",""trial"",""time""
""fullscreenenter"",""0"",""1912""
","
","
","""event"",""trial"",""time""
""fullscreenenter"",""0"",""1912""
","
","null","<div class='center'><p><img src='run_exp/static/images/tutorial/blue_win.png' height='500'></p></div>","null","","","","","","","","","","","","","","","","","","","","","","",""
"","html-keyboard-response","24","130588","0.0-24.0","""event"",""trial"",""time""
""fullscreenenter"",""0"",""1912""
","
","
","""event"",""trial"",""time""
""fullscreenenter"",""0"",""1912""
","
","524.7000000476837","<div class='center'><img src='run_exp/static/images/tutorial/blue.png' height='500'></p></div>","49","","","","","","","","","","","","","","","","","","","","","","",""
"","html-keyboard-response","25","132104","0.0-25.0","""event"",""trial"",""time""
""fullscreenenter"",""0"",""1912""
","
","
","""event"",""trial"",""time""
""fullscreenenter"",""0"",""1912""
","
","null","<div class='center'><p><img src='run_exp/static/images/tutorial/blue_no_win.png' height='500'></p></div>","null","","","","","","","","","","","","","","","","","","","","","","",""
"","html-keyboard-response","26","132675","0.0-26.0","""event"",""trial"",""time""
""fullscreenenter"",""0"",""1912""
","
","
","""event"",""trial"",""time""
""fullscreenenter"",""0"",""1912""
","
","570.4000000953674","<div class='center'><img src='run_exp/static/images/tutorial/blue.png' height='500'></p></div>","49","","","","","","","","","","","","","","","","","","","","","","",""
"","html-keyboard-response","27","134180","0.0-27.0","""event"",""trial"",""time""
""fullscreenenter"",""0"",""1912""
","
","
","""event"",""trial"",""time""
""fullscreenenter"",""0"",""1912""
","
","null","<div class='center'><p><img src='run_exp/static/images/tutorial/blue_win.png' height='500'></p></div>","null","","","","","","","","","","","","","","","","","","","","","","",""
"","html-keyboard-response","28","134706","0.0-28.0","""event"",""trial"",""time""
""fullscreenenter"",""0"",""1912""
","
","
","""event"",""trial"",""time""
""fullscreenenter"",""0"",""1912""
","
","525.1999998092651","<div class='center'><img src='run_exp/static/images/tutorial/blue.png' height='500'></p></div>","49","","","","","","","","","","","","","","","","","","","","","","",""
"","html-keyboard-response","29","136210","0.0-29.0","""event"",""trial"",""time""
""fullscreenenter"",""0"",""1912""
","
","
","""event"",""trial"",""time""
""fullscreenenter"",""0"",""1912""
","
","null","<div class='center'><p><img src='run_exp/static/images/tutorial/blue_win.png' height='500'></p></div>","null","","","","","","","","","","","","","","","","","","","","","","",""
"","instruc6","30","141609","0.0-30.0","""event"",""trial"",""time""
""fullscreenenter"",""0"",""1912""
","
","
","""event"",""trial"",""time""
""fullscreenenter"",""0"",""1912""
","
","null","run_exp/static/audio/clip_6_blue_beard_outcome.m4a","null","","","","","<div class='center'><p> See, he succeeded in robbing the ships most of the time but not every time. </p></div>","","","","","","","","","","","","","","","","","",""
"","html-keyboard-response","31","141905","0.0-31.0","""event"",""trial"",""time""
""fullscreenenter"",""0"",""1912""
","
","
","""event"",""trial"",""time""
""fullscreenenter"",""0"",""1912""
","
","295","<div class='center'><p> See, he succeeded in robbing the ships most of the time but not every time. </p><p><b>[Press the space bar to continue]</b></p></div>","32","","","","","","","","","","","","","","","","","","","","","","",""
"","audio-keyboard-response","32","152584","0.0-32.0","""event"",""trial"",""time""
""fullscreenenter"",""0"",""1912""
","
","
","""event"",""trial"",""time""
""fullscreenenter"",""0"",""1912""
","
","10678.299999952316","run_exp/static/audio/clip_7_pick_pirate.m4a","49","","","","","","","","","","","","","","","","","","","","","","",""
"","audio-keyboard-response","33","154817","0.0-33.0-0.0","""event"",""trial"",""time""
""fullscreenenter"",""0"",""1912""
","
","
","""event"",""trial"",""time""
""fullscreenenter"",""0"",""1912""
","
","2232.4000000953674","run_exp/static/audio/clip_8_chosen_pirate_win.m4a","32","","","","","","","","","","","","","","","","","","","","","","",""
"","audio-keyboard-response","34","156786","0.0-33.0-1.0","""event"",""trial"",""time""
""fullscreenenter"",""0"",""1912""
","
","
","""event"",""trial"",""time""
""fullscreenenter"",""0"",""1912""
","
","1968.1999998092651","run_exp/static/audio/clip_9_pick_a_pirate_again.m4a","51","","","","","","","","","","","","","","","","","","","","","","",""
"","audio-keyboard-response","35","159451","0.0-34.0-0.0","""event"",""trial"",""time""
""fullscreenenter"",""0"",""1912""
","
","
","""event"",""trial"",""time""
""fullscreenenter"",""0"",""1912""
","
","2663.9000000953674","run_exp/static/audio/clip_10_chosen_pirate_loss.m4a","32","","","","","","","","","","","","","","","","","","","","","","",""
"","instruc9","36","164929","0.0-35.0-0.0","""event"",""trial"",""time""
""fullscreenenter"",""0"",""1912""
","
","
","""event"",""trial"",""time""
""fullscreenenter"",""0"",""1912""
","
","null","run_exp/static/audio/clip_11_time_out.m4a","null","","","","","<div class='center'><p>If you don’t make your choice fast enough, you’ll have to wait a few seconds before you can make another one. </p><p><img src='run_exp/static/images/miscellaneous/hurry_up.png' height='500'></p></div>","","","","","","","","","","","","","","","","","",""
"","html-keyboard-response","37","165349","0.0-35.0-1.0","""event"",""trial"",""time""
""fullscreenenter"",""0"",""1912""
","
","
","""event"",""trial"",""time""
""fullscreenenter"",""0"",""1912""
","
","419.59999990463257","<div class='center'><p>If you don’t make your choice fast enough, you’ll have to wait a few seconds before you can make another one. </p><p><img src='run_exp/static/images/miscellaneous/hurry_up.png' height='500'></p><p><b>[Press the space bar to continue]</b></p></div>","32","","","","","","","","","","","","","","","","","","","","","","",""
"","instruc10","38","204429","0.0-35.0-2.0","""event"",""trial"",""time""
""fullscreenenter"",""0"",""1912""
","
","
","""event"",""trial"",""time""
""fullscreenenter"",""0"",""1912""
","
","null","run_exp/static/audio/clip_12_probe.m4a","null","","","","","<div class='center'><p>Once you've chosen a pirate, you’ll be shown the ship they are robbing. You will never rob the same ship twice. Ships can be told apart from one another by the image on them. These are the goods that they sell. See, this ship has a travel mug on it. </p><p> You’ll have to remember which island you saw each ship on. You will win more gold coins and hence more bonus money if you remember correctly! To help you remember, you can imagine a story. For example, here, you could imagine a mug full of water in the desert. Or, as another example, if on the forest island, your pirate robbed a ship with an apple on it, you could imagine an apple falling from a tree in the forest. </p><p><img src='run_exp/static/images/tutorial/example_probe.png' height='500'></p></div>","","","","","","","","","","","","","","","","","",""
"","html-keyboard-response","39","218169","0.0-35.0-3.0","""event"",""trial"",""time""
""fullscreenenter"",""0"",""1912""
","
","
","""event"",""trial"",""time""
""fullscreenenter"",""0"",""1912""
","
","13739.600000143051","<div class='center'><p>Once you've chosen a pirate, you’ll be shown the ship they are robbing. You will never rob the same ship twice. Ships can be told apart from one another by the image on them. These are the goods that they sell. See, this ship has a travel mug on it. </p><p> You’ll have to remember which island you saw each ship on. You will win more gold coins and hence more bonus money if you remember correctly! To help you remember, you can imagine a story. For example, here, you could imagine a mug full of water in the desert. Or, as another example, if on the forest island, your pirate robbed a ship with an apple on it, you could imagine an apple falling from a tree in the forest. </p><p><img src='run_exp/static/images/tutorial/example_probe.png' height='500'></p><p><b>[Press the space bar to continue]</b></p></div>","32","","","","","","","","","","","","","","","","","","","","","","",""
"","instruc11","40","234549","0.0-35.0-4.0","""event"",""trial"",""time""
""fullscreenenter"",""0"",""1912""
","
","
","""event"",""trial"",""time""
""fullscreenenter"",""0"",""1912""
","
","null","run_exp/static/audio/clip_13_changepoint.m4a","null","","","","","<div class='center'><p>How successful a pirate is at robbing ships will depend on the island you’re on.</p><p> A pirate may have visited this island many times before and gained a lot of practice robbing ships there.</p><p>So, they’re more likely to be successful than a pirate who has never visited the island before.</p></div>","","","","","","","","","","","","","","","","","",""
"","html-keyboard-response","41","234865","0.0-35.0-5.0","""event"",""trial"",""time""
""fullscreenenter"",""0"",""1912""
","
","
","""event"",""trial"",""time""
""fullscreenenter"",""0"",""1912""
","
","316","<div class='center'><p>How successful a pirate is at robbing ships will depend on the island you’re on.</p><p> A pirate may have visited this island many times before and gained a lot of practice robbing ships there.</p><p>So, they’re more likely to be successful than a pirate who has never visited the island before.</p><p><b>[Press the space bar to continue]</b></p></div>","32","","","","","","","","","","","","","","","","","","","","","","",""
"","instruc12","42","275948","0.0-35.0-6.0","""event"",""trial"",""time""
""fullscreenenter"",""0"",""1912""
","
","
","""event"",""trial"",""time""
""fullscreenenter"",""0"",""1912""
","
","null","run_exp/static/audio/clip_14_drift.m4a","null","","","","","<div class='center'><p>How successful a pirate is at robbing ships can also change over the time spent on the island. </p><p> Ships may hear from islanders about the pirates coming and will improve their protections against the attack. This may make it harder to rob them.</p><p> Ships may also become lazy and weaken the strength of their protections. This may make it easier to rob them.</p><br><p>Things are always changing on the high seas! So, try your best to pay attention!</p><p><img src='run_exp/static/images/tutorial/contingency.png' height='500'></p></div>","","","","","","","","","","","","","","","","","",""
"","html-keyboard-response","43","278048","0.0-35.0-7.0","""event"",""trial"",""time""
""fullscreenenter"",""0"",""1912""
","
","
","""event"",""trial"",""time""
""fullscreenenter"",""0"",""1912""
","
","2099.9000000953674","<div class='center'><p>How successful a pirate is at robbing ships can also change over the time spent on the island. </p><p> Ships may hear from islanders about the pirates coming and will improve their protections against the attack. This may make it harder to rob them.</p><p> Ships may also become lazy and weaken the strength of their protections. This may make it easier to rob them.</p><br><p>Things are always changing on the high seas! So, try your best to pay attention!</p><p><img src='run_exp/static/images/tutorial/contingency.png' height='500'></p><p><b>[Press the space bar to continue]</b></p></div>","32","","","","","","","","","","","","","","","","","","","","","","",""
"","instruc13","44","313228","0.0-35.0-8.0","""event"",""trial"",""time""
""fullscreenenter"",""0"",""1912""
","
","
","""event"",""trial"",""time""
""fullscreenenter"",""0"",""1912""
","
","null","run_exp/static/audio/clip_15_summary.m4a","null","","","","","<div class='center'><p>Let's go over the instructions quickly again. You have two important things to do: </p><b><p> 1. Pick the pirate who is the best at robbing ships on the current island. </p></b><b><p> 2. Remember on which island a ship was robbed.</p> </b><p>The amount of bonus money you can win depends on both.</p><p><br><p>Let’s try a practice game. The game will start by showing you the pirates. First, pick a pirate using the <b> 1, 2, 3 </b> keys on your keyboard. When you are shown a ship, try to remember which island you’re on by making up a story.</p><p>This is just a practice game, so you’re not playing for money. </p><p> Good luck! This game will be very difficult but try your best!</p></div>","","","","","","","","","","","","","","","","","",""
"","html-keyboard-response","45","313741","0.0-35.0-9.0","""event"",""trial"",""time""
""fullscreenenter"",""0"",""1912""
""blur"",""46"",""316544""
""focus"",""46"",""316606""
","""event"",""trial"",""time""
""blur"",""46"",""316544""
","""event"",""trial"",""time""
""focus"",""46"",""316606""
","""event"",""trial"",""time""
""fullscreenenter"",""0"",""1912""
","
","513","<div class='center'><p>Let's go over the instructions quickly again. You have two important things to do: </p><b><p> 1. Pick the pirate who is the best at robbing ships on the current island. </p></b><b><p> 2. Remember on which island a ship was robbed.</p> </b><p>The amount of bonus money you can win depends on both.</p><p><br><p>Let’s try a practice game. The game will start by showing you the pirates. First, pick a pirate using the <b> 1, 2, 3 </b> keys on your keyboard. When you are shown a ship, try to remember which island you’re on by making up a story.</p><p>This is just a practice game, so you’re not playing for money. </p><p> Good luck! This game will be very difficult but try your best!</p><p><b>[Press the space bar to continue]</b></p></div>","32","","","","","","","","","","","","","","","","","","","","","","",""
"","do_welcome","46","317752","0.0-35.0-10.0","""event"",""trial"",""time""
""fullscreenenter"",""0"",""1912""
""blur"",""46"",""316544""
""focus"",""46"",""316606""
","""event"",""trial"",""time""
""blur"",""46"",""316544""
","""event"",""trial"",""time""
""focus"",""46"",""316606""
","""event"",""trial"",""time""
""fullscreenenter"",""0"",""1912""
","
","null","","","","","","","","null","","","","","","","","","","","","","","","","",""
"","do_trial","47","323574","0.0-35.0-11.0","""event"",""trial"",""time""
""fullscreenenter"",""0"",""1912""
""blur"",""46"",""316544""
""focus"",""46"",""316606""
","""event"",""trial"",""time""
""blur"",""46"",""316544""
","""event"",""trial"",""time""
""focus"",""46"",""316606""
","""event"",""trial"",""time""
""fullscreenenter"",""0"",""1912""
","
","1308.3999998569489","","","","","","","","50","1,0,0","","","","","","","","","","","","","","","",""
"","html-keyboard-response","48","324586","0.0-36.0-0.0","""event"",""trial"",""time""
""fullscreenenter"",""0"",""1912""
""blur"",""46"",""316544""
""focus"",""46"",""316606""
","""event"",""trial"",""time""
""blur"",""46"",""316544""
","""event"",""trial"",""time""
""focus"",""46"",""316606""
","""event"",""trial"",""time""
""fullscreenenter"",""0"",""1912""
","
","null","<p></p>","null","","","","","","","","","","","","","","","","","","","","","","",""
"","do_trial","49","330658","0.0-36.0-1.0","""event"",""trial"",""time""
""fullscreenenter"",""0"",""1912""
""blur"",""46"",""316544""
""focus"",""46"",""316606""
","""event"",""trial"",""time""
""blur"",""46"",""316544""
","""event"",""trial"",""time""
""focus"",""46"",""316606""
","""event"",""trial"",""time""
""fullscreenenter"",""0"",""1912""
","
","1554.9000000953674","","","","","","","","51","1,1,0","","","","","","","","","","","","","","","",""
"","html-keyboard-response","50","331664","0.0-37.0-0.0","""event"",""trial"",""time""
""fullscreenenter"",""0"",""1912""
""blur"",""46"",""316544""
""focus"",""46"",""316606""
","""event"",""trial"",""time""
""blur"",""46"",""316544""
","""event"",""trial"",""time""
""focus"",""46"",""316606""
","""event"",""trial"",""time""
""fullscreenenter"",""0"",""1912""
","
","null","<p></p>","null","","","","","","","","","","","","","","","","","","","","","","",""
"","do_trial","51","336652","0.0-37.0-1.0","""event"",""trial"",""time""
""fullscreenenter"",""0"",""1912""
""blur"",""46"",""316544""
""focus"",""46"",""316606""
","""event"",""trial"",""time""
""blur"",""46"",""316544""
","""event"",""trial"",""time""
""focus"",""46"",""316606""
","""event"",""trial"",""time""
""fullscreenenter"",""0"",""1912""
","
","475.2000000476837","","","","","","","","49","1,0,1","","","","","","","","","","","","","","","",""
"","html-keyboard-response","52","337660","0.0-38.0-0.0","""event"",""trial"",""time""
""fullscreenenter"",""0"",""1912""
""blur"",""46"",""316544""
""focus"",""46"",""316606""
","""event"",""trial"",""time""
""blur"",""46"",""316544""
","""event"",""trial"",""time""
""focus"",""46"",""316606""
","""event"",""trial"",""time""
""fullscreenenter"",""0"",""1912""
","
","null","<p></p>","null","","","","","","","","","","","","","","","","","","","","","","",""
"","do_trial","53","342457","0.0-38.0-1.0","""event"",""trial"",""time""
""fullscreenenter"",""0"",""1912""
""blur"",""46"",""316544""
""focus"",""46"",""316606""
","""event"",""trial"",""time""
""blur"",""46"",""316544""
","""event"",""trial"",""time""
""focus"",""46"",""316606""
","""event"",""trial"",""time""
""fullscreenenter"",""0"",""1912""
","
","285.7999999523163","","","","","","","","49","0,1,0","","","","","","","","","","","","","","","",""
"","html-keyboard-response","54","343464","0.0-39.0-0.0","""event"",""trial"",""time""
""fullscreenenter"",""0"",""1912""
""blur"",""46"",""316544""
""focus"",""46"",""316606""
","""event"",""trial"",""time""
""blur"",""46"",""316544""
","""event"",""trial"",""time""
""focus"",""46"",""316606""
","""event"",""trial"",""time""
""fullscreenenter"",""0"",""1912""
","
","null","<p></p>","null","","","","","","","","","","","","","","","","","","","","","","",""
"","do_trial","55","348383","0.0-39.0-1.0","""event"",""trial"",""time""
""fullscreenenter"",""0"",""1912""
""blur"",""46"",""316544""
""focus"",""46"",""316606""
","""event"",""trial"",""time""
""blur"",""46"",""316544""
","""event"",""trial"",""time""
""focus"",""46"",""316606""
","""event"",""trial"",""time""
""fullscreenenter"",""0"",""1912""
","
","403","","","","","","","","49","1,0,0","","","","","","","","","","","","","","","",""
"","do_bye","56","349895","0.0-40.0-0.0","""event"",""trial"",""time""
""fullscreenenter"",""0"",""1912""
""blur"",""46"",""316544""
""focus"",""46"",""316606""
","""event"",""trial"",""time""
""blur"",""46"",""316544""
","""event"",""trial"",""time""
""focus"",""46"",""316606""
","""event"",""trial"",""time""
""fullscreenenter"",""0"",""1912""
","
","null","","","","","","","","null","","","","","","","","","","","","","","","","",""
"","do_travel","57","358898","0.0-40.0-1.0","""event"",""trial"",""time""
""fullscreenenter"",""0"",""1912""
""blur"",""46"",""316544""
""focus"",""46"",""316606""
","""event"",""trial"",""time""
""blur"",""46"",""316544""
","""event"",""trial"",""time""
""focus"",""46"",""316606""
","""event"",""trial"",""time""
""fullscreenenter"",""0"",""1912""
","
","null","","","","","","","","null","","","","","","","","","","","","","","","","",""
"","do_welcome","58","362915","0.0-40.0-2.0","""event"",""trial"",""time""
""fullscreenenter"",""0"",""1912""
""blur"",""46"",""316544""
""focus"",""46"",""316606""
","""event"",""trial"",""time""
""blur"",""46"",""316544""
","""event"",""trial"",""time""
""focus"",""46"",""316606""
","""event"",""trial"",""time""
""fullscreenenter"",""0"",""1912""
","
","null","","","","","","","","null","","","","","","","","","","","","","","","","",""
"","do_trial","59","369338","0.0-40.0-3.0","""event"",""trial"",""time""
""fullscreenenter"",""0"",""1912""
""blur"",""46"",""316544""
""focus"",""46"",""316606""
","""event"",""trial"",""time""
""blur"",""46"",""316544""
","""event"",""trial"",""time""
""focus"",""46"",""316606""
","""event"",""trial"",""time""
""fullscreenenter"",""0"",""1912""
","
","1903.5","","","","","","","","50","1,0,0","","","","","","","","","","","","","","","",""
"","html-keyboard-response","60","370345","0.0-41.0-0.0","""event"",""trial"",""time""
""fullscreenenter"",""0"",""1912""
""blur"",""46"",""316544""
""focus"",""46"",""316606""
","""event"",""trial"",""time""
""blur"",""46"",""316544""
","""event"",""trial"",""time""
""focus"",""46"",""316606""
","""event"",""trial"",""time""
""fullscreenenter"",""0"",""1912""
","
","null","<p></p>","null","","","","","","","","","","","","","","","","","","","","","","",""
"","do_trial","61","375423","0.0-41.0-1.0","""event"",""trial"",""time""
""fullscreenenter"",""0"",""1912""
""blur"",""46"",""316544""
""focus"",""46"",""316606""
","""event"",""trial"",""time""
""blur"",""46"",""316544""
","""event"",""trial"",""time""
""focus"",""46"",""316606""
","""event"",""trial"",""time""
""fullscreenenter"",""0"",""1912""
","
","560.7000000476837","","","","","","","","51","1,0,1","","","","","","","","","","","","","","","",""
"","html-keyboard-response","62","376425","0.0-42.0-0.0","""event"",""trial"",""time""
""fullscreenenter"",""0"",""1912""
""blur"",""46"",""316544""
""focus"",""46"",""316606""
","""event"",""trial"",""time""
""blur"",""46"",""316544""
","""event"",""trial"",""time""
""focus"",""46"",""316606""
","""event"",""trial"",""time""
""fullscreenenter"",""0"",""1912""
","
","null","<p></p>","null","","","","","","","","","","","","","","","","","","","","","","",""
"","do_trial","63","381396","0.0-42.0-1.0","""event"",""trial"",""time""
""fullscreenenter"",""0"",""1912""
""blur"",""46"",""316544""
""focus"",""46"",""316606""
","""event"",""trial"",""time""
""blur"",""46"",""316544""
","""event"",""trial"",""time""
""focus"",""46"",""316606""
","""event"",""trial"",""time""
""fullscreenenter"",""0"",""1912""
","
","457.5","","","","","","","","51","1,1,0","","","","","","","","","","","","","","","",""
"","html-keyboard-response","64","382410","0.0-43.0-0.0","""event"",""trial"",""time""
""fullscreenenter"",""0"",""1912""
""blur"",""46"",""316544""
""focus"",""46"",""316606""
","""event"",""trial"",""time""
""blur"",""46"",""316544""
","""event"",""trial"",""time""
""focus"",""46"",""316606""
","""event"",""trial"",""time""
""fullscreenenter"",""0"",""1912""
","
","null","<p></p>","null","","","","","","","","","","","","","","","","","","","","","","",""
"","do_trial","65","387204","0.0-43.0-1.0","""event"",""trial"",""time""
""fullscreenenter"",""0"",""1912""
""blur"",""46"",""316544""
""focus"",""46"",""316606""
","""event"",""trial"",""time""
""blur"",""46"",""316544""
","""event"",""trial"",""time""
""focus"",""46"",""316606""
","""event"",""trial"",""time""
""fullscreenenter"",""0"",""1912""
","
","276.2999999523163","","","","","","","","51","0,0,1","","","","","","","","","","","","","","","",""
"","html-keyboard-response","66","388208","0.0-44.0-0.0","""event"",""trial"",""time""
""fullscreenenter"",""0"",""1912""
""blur"",""46"",""316544""
""focus"",""46"",""316606""
","""event"",""trial"",""time""
""blur"",""46"",""316544""
","""event"",""trial"",""time""
""focus"",""46"",""316606""
","""event"",""trial"",""time""
""fullscreenenter"",""0"",""1912""
","
","null","<p></p>","null","","","","","","","","","","","","","","","","","","","","","","",""
"","do_trial","67","392953","0.0-44.0-1.0","""event"",""trial"",""time""
""fullscreenenter"",""0"",""1912""
""blur"",""46"",""316544""
""focus"",""46"",""316606""
","""event"",""trial"",""time""
""blur"",""46"",""316544""
","""event"",""trial"",""time""
""focus"",""46"",""316606""
","""event"",""trial"",""time""
""fullscreenenter"",""0"",""1912""
","
","228.20000004768372","","","","","","","","51","1,0,1","","","","","","","","","","","","","","","",""
"","html-keyboard-response","68","397020","0.0-45.0-0.0","""event"",""trial"",""time""
""fullscreenenter"",""0"",""1912""
""blur"",""46"",""316544""
""focus"",""46"",""316606""
","""event"",""trial"",""time""
""blur"",""46"",""316544""
","""event"",""trial"",""time""
""focus"",""46"",""316606""
","""event"",""trial"",""time""
""fullscreenenter"",""0"",""1912""
","
","4065.100000143051","<div class='center'><p><img src='run_exp/static/images/tutorial/prac_best_pirate.png'  height='500'></p></div>","51","","","","","","","","","","","","","","","","","","","","","","",""
"","html-keyboard-response","69","402841","0.0-46.0-0.0","""event"",""trial"",""time""
""fullscreenenter"",""0"",""1912""
""blur"",""46"",""316544""
""focus"",""46"",""316606""
","""event"",""trial"",""time""
""blur"",""46"",""316544""
","""event"",""trial"",""time""
""focus"",""46"",""316606""
","""event"",""trial"",""time""
""fullscreenenter"",""0"",""1912""
","
","5820.5","<div class='center'><p>That's incorrect! Red beard was the best.</p><p><b>[Press the space bar to continue]</b></p></div>","32","","","","","","","","","","","","","","","","","","","","","","",""
"","html-keyboard-response","70","405631","0.0-46.0-1.0","""event"",""trial"",""time""
""fullscreenenter"",""0"",""1912""
""blur"",""46"",""316544""
""focus"",""46"",""316606""
","""event"",""trial"",""time""
""blur"",""46"",""316544""
","""event"",""trial"",""time""
""focus"",""46"",""316606""
","""event"",""trial"",""time""
""fullscreenenter"",""0"",""1912""
","
","2789.2999999523163","<div class='center'><p><img src='run_exp/static/images/tutorial/prac_source.png'  height='500'></p></div>","50","","","","","","","","","","","","","","","","","","","","","","",""
"","html-keyboard-response","71","406650","0.0-47.0-0.0","""event"",""trial"",""time""
""fullscreenenter"",""0"",""1912""
""blur"",""46"",""316544""
""focus"",""46"",""316606""
","""event"",""trial"",""time""
""blur"",""46"",""316544""
","""event"",""trial"",""time""
""focus"",""46"",""316606""
","""event"",""trial"",""time""
""fullscreenenter"",""0"",""1912""
","
","1018.4000000953674","<div class='center'><p>That's correct! You saw this ship on the cavern island.</p><p><b>[Press the space bar to continue]</b></p></div>","32","","","","","","","","","","","","","","","","","","","","","","",""
"","quiz_beginning","72","417849","0.0-47.0-1.0","""event"",""trial"",""time""
""fullscreenenter"",""0"",""1912""
""blur"",""46"",""316544""
""focus"",""46"",""316606""
","""event"",""trial"",""time""
""blur"",""46"",""316544""
","""event"",""trial"",""time""
""focus"",""46"",""316606""
","""event"",""trial"",""time""
""fullscreenenter"",""0"",""1912""
","
","null","run_exp/static/audio/clip_16_quiz_intro.m4a","null","","","","","<div class='center'><p>Good job on the practice game! Now, you will be asked some true or false questions to make sure you really understand the rules of the game.</p><p> Press <b>'1'</b> on the keyboard for true and press <b>'2'</b> for false.</p></div>","","","","","","","","","","","","","","","","","",""
"","audio-keyboard-response","73","939761","0.0-47.0-2.0","""event"",""trial"",""time""
""fullscreenenter"",""0"",""1912""
""blur"",""46"",""316544""
""focus"",""46"",""316606""
","""event"",""trial"",""time""
""blur"",""46"",""316544""
","""event"",""trial"",""time""
""focus"",""46"",""316606""
","""event"",""trial"",""time""
""fullscreenenter"",""0"",""1912""
","
","523290.5","run_exp/static/audio/clip_17_q1.m4a","49","","","","","","","","","","","","","","","","","","","","","","",""
"","correct","74","942159","0.0-48.0-0.0","""event"",""trial"",""time""
""fullscreenenter"",""0"",""1912""
""blur"",""46"",""316544""
""focus"",""46"",""316606""
","""event"",""trial"",""time""
""blur"",""46"",""316544""
","""event"",""trial"",""time""
""focus"",""46"",""316606""
","""event"",""trial"",""time""
""fullscreenenter"",""0"",""1912""
","
","null","run_exp/static/audio/clip_18_correct.m4a","null","","","","","<div class='center'><p>That's correct!</p></div>","","","","","","","","","","","","","","","","","",""
"","html-keyboard-response","75","942589","0.0-48.0-1.0","""event"",""trial"",""time""
""fullscreenenter"",""0"",""1912""
""blur"",""46"",""316544""
""focus"",""46"",""316606""
","""event"",""trial"",""time""
""blur"",""46"",""316544""
","""event"",""trial"",""time""
""focus"",""46"",""316606""
","""event"",""trial"",""time""
""fullscreenenter"",""0"",""1912""
","
","429.7999999523163","<div class='center'><p>That's correct!</p><p><b>[Press the space bar to continue]</b></p></div>","32","","","","","","","","","","","","","","","","","","","","","","",""
"","audio-keyboard-response","76","949817","0.0-48.0-2.0","""event"",""trial"",""time""
""fullscreenenter"",""0"",""1912""
""blur"",""46"",""316544""
""focus"",""46"",""316606""
","""event"",""trial"",""time""
""blur"",""46"",""316544""
","""event"",""trial"",""time""
""focus"",""46"",""316606""
","""event"",""trial"",""time""
""fullscreenenter"",""0"",""1912""
","
","7226.700000047684","run_exp/static/audio/clip_20_q2.m4a","50","","","","","","","","","","","","","","","","","","","","","","",""
"","correct","77","952199","0.0-49.0-0.0","""event"",""trial"",""time""
""fullscreenenter"",""0"",""1912""
""blur"",""46"",""316544""
""focus"",""46"",""316606""
","""event"",""trial"",""time""
""blur"",""46"",""316544""
","""event"",""trial"",""time""
""focus"",""46"",""316606""
","""event"",""trial"",""time""
""fullscreenenter"",""0"",""1912""
","
","null","run_exp/static/audio/clip_18_correct.m4a","null","","","","","<div class='center'><p>That's correct!</p></div>","","","","","","","","","","","","","","","","","",""
"","html-keyboard-response","78","952567","0.0-49.0-1.0","""event"",""trial"",""time""
""fullscreenenter"",""0"",""1912""
""blur"",""46"",""316544""
""focus"",""46"",""316606""
","""event"",""trial"",""time""
""blur"",""46"",""316544""
","""event"",""trial"",""time""
""focus"",""46"",""316606""
","""event"",""trial"",""time""
""fullscreenenter"",""0"",""1912""
","
","367.2000000476837","<div class='center'><p>That's correct!</p><p><b>[Press the space bar to continue]</b></p></div>","32","","","","","","","","","","","","","","","","","","","","","","",""
"","audio-keyboard-response","79","959395","0.0-49.0-2.0","""event"",""trial"",""time""
""fullscreenenter"",""0"",""1912""
""blur"",""46"",""316544""
""focus"",""46"",""316606""
","""event"",""trial"",""time""
""blur"",""46"",""316544""
","""event"",""trial"",""time""
""focus"",""46"",""316606""
","""event"",""trial"",""time""
""fullscreenenter"",""0"",""1912""
","
","6828.299999952316","run_exp/static/audio/clip_22_q3.m4a","50","","","","","","","","","","","","","","","","","","","","","","",""
"","correct","80","961779","0.0-50.0-0.0","""event"",""trial"",""time""
""fullscreenenter"",""0"",""1912""
""blur"",""46"",""316544""
""focus"",""46"",""316606""
","""event"",""trial"",""time""
""blur"",""46"",""316544""
","""event"",""trial"",""time""
""focus"",""46"",""316606""
","""event"",""trial"",""time""
""fullscreenenter"",""0"",""1912""
","
","null","run_exp/static/audio/clip_18_correct.m4a","null","","","","","<div class='center'><p>That's correct!</p></div>","","","","","","","","","","","","","","","","","",""
"","html-keyboard-response","81","962456","0.0-50.0-1.0","""event"",""trial"",""time""
""fullscreenenter"",""0"",""1912""
""blur"",""46"",""316544""
""focus"",""46"",""316606""
","""event"",""trial"",""time""
""blur"",""46"",""316544""
","""event"",""trial"",""time""
""focus"",""46"",""316606""
","""event"",""trial"",""time""
""fullscreenenter"",""0"",""1912""
","
","677.1000001430511","<div class='center'><p>That's correct!</p><p><b>[Press the space bar to continue]</b></p></div>","32","","","","","","","","","","","","","","","","","","","","","","",""
"","audio-keyboard-response","82","967015","0.0-50.0-2.0","""event"",""trial"",""time""
""fullscreenenter"",""0"",""1912""
""blur"",""46"",""316544""
""focus"",""46"",""316606""
","""event"",""trial"",""time""
""blur"",""46"",""316544""
","""event"",""trial"",""time""
""focus"",""46"",""316606""
","""event"",""trial"",""time""
""fullscreenenter"",""0"",""1912""
","
","4558.400000095367","run_exp/static/audio/clip_24_q4.m4a","49","","","","","","","","","","","","","","","","","","","","","","",""
"","correct","83","969439","0.0-51.0-0.0","""event"",""trial"",""time""
""fullscreenenter"",""0"",""1912""
""blur"",""46"",""316544""
""focus"",""46"",""316606""
","""event"",""trial"",""time""
""blur"",""46"",""316544""
","""event"",""trial"",""time""
""focus"",""46"",""316606""
","""event"",""trial"",""time""
""fullscreenenter"",""0"",""1912""
","
","null","run_exp/static/audio/clip_18_correct.m4a","null","","","","","<div class='center'><p>That's correct!</p></div>","","","","","","","","","","","","","","","","","",""
"","html-keyboard-response","84","969656","0.0-51.0-1.0","""event"",""trial"",""time""
""fullscreenenter"",""0"",""1912""
""blur"",""46"",""316544""
""focus"",""46"",""316606""
","""event"",""trial"",""time""
""blur"",""46"",""316544""
","""event"",""trial"",""time""
""focus"",""46"",""316606""
","""event"",""trial"",""time""
""fullscreenenter"",""0"",""1912""
","
","216","<div class='center'><p>That's correct!</p><p><b>[Press the space bar to continue]</b></p></div>","32","","","","","","","","","","","","","","","","","","","","","","",""
"","q_all_corr","85","978139","0.0-52.0-0.0","""event"",""trial"",""time""
""fullscreenenter"",""0"",""1912""
""blur"",""46"",""316544""
""focus"",""46"",""316606""
","""event"",""trial"",""time""
""blur"",""46"",""316544""
","""event"",""trial"",""time""
""focus"",""46"",""316606""
","""event"",""trial"",""time""
""fullscreenenter"",""0"",""1912""
","
","null","run_exp/static/audio/clip_27_quiz_all_correct.m4a","null","","","","","<div class='center'><p>Good job! You’re now ready to move on to the real game! Remember this game will be difficult but don't get discouraged and try your best!</p></div>","","","","","","","","","","","","","","","","","",""
"","html-keyboard-response","86","979138","0.0-52.0-1.0","""event"",""trial"",""time""
""fullscreenenter"",""0"",""1912""
""blur"",""46"",""316544""
""focus"",""46"",""316606""
","""event"",""trial"",""time""
""blur"",""46"",""316544""
","""event"",""trial"",""time""
""focus"",""46"",""316606""
","""event"",""trial"",""time""
""fullscreenenter"",""0"",""1912""
","
","998.0999999046326","<div class='center'><p>Good job! You’re now ready to move on to the real game! Remember this game will be difficult but don't get discouraged and try your best!</p><p><b>[Press the space bar to continue]</b></p></div>","32","","","","","","","","","","","","","","","","","","","","","","",""
"","do_welcome","87","983141","0.0-53.0-0.0","""event"",""trial"",""time""
""fullscreenenter"",""0"",""1912""
""blur"",""46"",""316544""
""focus"",""46"",""316606""
","""event"",""trial"",""time""
""blur"",""46"",""316544""
","""event"",""trial"",""time""
""focus"",""46"",""316606""
","""event"",""trial"",""time""
""fullscreenenter"",""0"",""1912""
","
","null","","","","","","","","null","","","","","","","","","","","","","","","","",""
"","do_trial","88","988426","0.0-54.0-0.0","""event"",""trial"",""time""
""fullscreenenter"",""0"",""1912""
""blur"",""46"",""316544""
""focus"",""46"",""316606""
","""event"",""trial"",""time""
""blur"",""46"",""316544""
","""event"",""trial"",""time""
""focus"",""46"",""316606""
","""event"",""trial"",""time""
""fullscreenenter"",""0"",""1912""
","
","739.4000000953674","","","","","","","","49","0,0,0","0","coast","0","probe-24","0.6","0.3","0.1","0","","","","","","","",""
"","html-keyboard-response","89","989438","0.0-54.0-1.0","""event"",""trial"",""time""
""fullscreenenter"",""0"",""1912""
""blur"",""46"",""316544""
""focus"",""46"",""316606""
","""event"",""trial"",""time""
""blur"",""46"",""316544""
","""event"",""trial"",""time""
""focus"",""46"",""316606""
","""event"",""trial"",""time""
""fullscreenenter"",""0"",""1912""
","
","null","<p></p>","null","","","","","","","","","","","","","","","","","","","","","","",""
"","do_trial","90","994693","0.0-55.0-0.0","""event"",""trial"",""time""
""fullscreenenter"",""0"",""1912""
""blur"",""46"",""316544""
""focus"",""46"",""316606""
","""event"",""trial"",""time""
""blur"",""46"",""316544""
","""event"",""trial"",""time""
""focus"",""46"",""316606""
","""event"",""trial"",""time""
""fullscreenenter"",""0"",""1912""
","
","721.1000001430511","","","","","","","","50","0,1,0","0","coast","1","probe-62","0.5156388665179763","0.3114739107410716","0.12067332474217037","1","","","","","","","",""
"","html-keyboard-response","91","995706","0.0-55.0-1.0","""event"",""trial"",""time""
""fullscreenenter"",""0"",""1912""
""blur"",""46"",""316544""
""focus"",""46"",""316606""
","""event"",""trial"",""time""
""blur"",""46"",""316544""
","""event"",""trial"",""time""
""focus"",""46"",""316606""
","""event"",""trial"",""time""
""fullscreenenter"",""0"",""1912""
","
","null","<p></p>","null","","","","","","","","","","","","","","","","","","","","","","",""
"","do_trial","92","1000442","0.0-56.0-0.0","""event"",""trial"",""time""
""fullscreenenter"",""0"",""1912""
""blur"",""46"",""316544""
""focus"",""46"",""316606""
","""event"",""trial"",""time""
""blur"",""46"",""316544""
","""event"",""trial"",""time""
""focus"",""46"",""316606""
","""event"",""trial"",""time""
""fullscreenenter"",""0"",""1912""
","
","191.09999990463257","","","","","","","","50","0,0,0","0","coast","2","probe-122","0.569522550777451","0.5172734351108409","0.21965068266775617","0","","","","","","","",""
"","html-keyboard-response","93","1001453","0.0-56.0-1.0","""event"",""trial"",""time""
""fullscreenenter"",""0"",""1912""
""blur"",""46"",""316544""
""focus"",""46"",""316606""
","""event"",""trial"",""time""
""blur"",""46"",""316544""
","""event"",""trial"",""time""
""focus"",""46"",""316606""
","""event"",""trial"",""time""
""fullscreenenter"",""0"",""1912""
","
","null","<p></p>","null","","","","","","","","","","","","","","","","","","","","","","",""
"","do_trial","94","1006242","0.0-57.0-0.0","""event"",""trial"",""time""
""fullscreenenter"",""0"",""1912""
""blur"",""46"",""316544""
""focus"",""46"",""316606""
","""event"",""trial"",""time""
""blur"",""46"",""316544""
","""event"",""trial"",""time""
""focus"",""46"",""316606""
","""event"",""trial"",""time""
""fullscreenenter"",""0"",""1912""
","
","248","","","","","","","","50","1,1,1","0","coast","3","probe-120","0.6241892618593068","0.33425507880716765","0.171272501506963","1","","","","","","","",""
"","html-keyboard-response","95","1007256","0.0-57.0-1.0","""event"",""trial"",""time""
""fullscreenenter"",""0"",""1912""
""blur"",""46"",""316544""
""focus"",""46"",""316606""
","""event"",""trial"",""time""
""blur"",""46"",""316544""
","""event"",""trial"",""time""
""focus"",""46"",""316606""
","""event"",""trial"",""time""
""fullscreenenter"",""0"",""1912""
","
","null","<p></p>","null","","","","","","","","","","","","","","","","","","","","","","",""
"","do_trial","96","1011973","0.0-58.0-0.0","""event"",""trial"",""time""
""fullscreenenter"",""0"",""1912""
""blur"",""46"",""316544""
""focus"",""46"",""316606""
","""event"",""trial"",""time""
""blur"",""46"",""316544""
","""event"",""trial"",""time""
""focus"",""46"",""316606""
","""event"",""trial"",""time""
""fullscreenenter"",""0"",""1912""
","
","183.39999985694885","","","","","","","","50","1,0,0","0","coast","4","probe-227","0.7096420379456352","0.3839901193995309","0.17199111759185762","0","","","","","","","",""
"","html-keyboard-response","97","1012978","0.0-58.0-1.0","""event"",""trial"",""time""
""fullscreenenter"",""0"",""1912""
""blur"",""46"",""316544""
""focus"",""46"",""316606""
","""event"",""trial"",""time""
""blur"",""46"",""316544""
","""event"",""trial"",""time""
""focus"",""46"",""316606""
","""event"",""trial"",""time""
""fullscreenenter"",""0"",""1912""
","
","null","<p></p>","null","","","","","","","","","","","","","","","","","","","","","","",""
"","do_trial","98","1017782","0.0-59.0-0.0","""event"",""trial"",""time""
""fullscreenenter"",""0"",""1912""
""blur"",""46"",""316544""
""focus"",""46"",""316606""
","""event"",""trial"",""time""
""blur"",""46"",""316544""
","""event"",""trial"",""time""
""focus"",""46"",""316606""
","""event"",""trial"",""time""
""fullscreenenter"",""0"",""1912""
","
","266.7000000476837","","","","","","","","50","0,0,1","0","coast","5","probe-177","0.6235612847578808","0.44784335238219747","0.06814242225464778","0","","","","","","","",""
"","html-keyboard-response","99","1018789","0.0-59.0-1.0","""event"",""trial"",""time""
""fullscreenenter"",""0"",""1912""
""blur"",""46"",""316544""
""focus"",""46"",""316606""
","""event"",""trial"",""time""
""blur"",""46"",""316544""
","""event"",""trial"",""time""
""focus"",""46"",""316606""
","""event"",""trial"",""time""
""fullscreenenter"",""0"",""1912""
","
","null","<p></p>","null","","","","","","","","","","","","","","","","","","","","","","",""
"","do_trial","100","1023540","0.0-60.0-0.0","""event"",""trial"",""time""
""fullscreenenter"",""0"",""1912""
""blur"",""46"",""316544""
""focus"",""46"",""316606""
","""event"",""trial"",""time""
""blur"",""46"",""316544""
","""event"",""trial"",""time""
""focus"",""46"",""316606""
","""event"",""trial"",""time""
""fullscreenenter"",""0"",""1912""
","
","215.09999990463257","","","","","","","","51","1,1,0","0","coast","6","probe-95","0.6137513381607547","0.3343288219739104","0.15530194404819017","0","","","","","","","",""
"","html-keyboard-response","101","1024555","0.0-60.0-1.0","""event"",""trial"",""time""
""fullscreenenter"",""0"",""1912""
""blur"",""46"",""316544""
""focus"",""46"",""316606""
","""event"",""trial"",""time""
""blur"",""46"",""316544""
","""event"",""trial"",""time""
""focus"",""46"",""316606""
","""event"",""trial"",""time""
""fullscreenenter"",""0"",""1912""
","
","null","<p></p>","null","","","","","","","","","","","","","","","","","","","","","","",""
"","do_trial","102","1029268","0.0-61.0-0.0","""event"",""trial"",""time""
""fullscreenenter"",""0"",""1912""
""blur"",""46"",""316544""
""focus"",""46"",""316606""
","""event"",""trial"",""time""
""blur"",""46"",""316544""
","""event"",""trial"",""time""
""focus"",""46"",""316606""
","""event"",""trial"",""time""
""fullscreenenter"",""0"",""1912""
","
","168.79999995231628","","","","","","","","51","1,0,0","0","coast","7","probe-203","0.651343957735219","0.4278446305077613","0.06154690295274733","0","","","","","","","",""
"","html-keyboard-response","103","1030274","0.0-61.0-1.0","""event"",""trial"",""time""
""fullscreenenter"",""0"",""1912""
""blur"",""46"",""316544""
""focus"",""46"",""316606""
","""event"",""trial"",""time""
""blur"",""46"",""316544""
","""event"",""trial"",""time""
""focus"",""46"",""316606""
","""event"",""trial"",""time""
""fullscreenenter"",""0"",""1912""
","
","null","<p></p>","null","","","","","","","","","","","","","","","","","","","","","","",""
"","do_trial","104","1035003","0.0-62.0-0.0","""event"",""trial"",""time""
""fullscreenenter"",""0"",""1912""
""blur"",""46"",""316544""
""focus"",""46"",""316606""
","""event"",""trial"",""time""
""blur"",""46"",""316544""
","""event"",""trial"",""time""
""focus"",""46"",""316606""
","""event"",""trial"",""time""
""fullscreenenter"",""0"",""1912""
","
","182","","","","","","","","49","1,0,0","0","coast","8","probe-212","0.7161355729596715","0.38610223519974796","0.05948931427659888","1","","","","","","","",""
"","html-keyboard-response","105","1036004","0.0-62.0-1.0","""event"",""trial"",""time""
""fullscreenenter"",""0"",""1912""
""blur"",""46"",""316544""
""focus"",""46"",""316606""
","""event"",""trial"",""time""
""blur"",""46"",""316544""
","""event"",""trial"",""time""
""focus"",""46"",""316606""
","""event"",""trial"",""time""
""fullscreenenter"",""0"",""1912""
","
","null","<p></p>","null","","","","","","","","","","","","","","","","","","","","","","",""
"","do_trial","106","1040775","0.0-63.0-0.0","""event"",""trial"",""time""
""fullscreenenter"",""0"",""1912""
""blur"",""46"",""316544""
""focus"",""46"",""316606""
","""event"",""trial"",""time""
""blur"",""46"",""316544""
","""event"",""trial"",""time""
""focus"",""46"",""316606""
","""event"",""trial"",""time""
""fullscreenenter"",""0"",""1912""
","
","223.10000014305115","","","","","","","","49","0,0,1","0","coast","9","probe-03","0.7349797160503424","0.36606930760726236","0.1654443044431163","0","","","","","","","",""
"","html-keyboard-response","107","1041787","0.0-63.0-1.0","""event"",""trial"",""time""
""fullscreenenter"",""0"",""1912""
""blur"",""46"",""316544""
""focus"",""46"",""316606""
","""event"",""trial"",""time""
""blur"",""46"",""316544""
","""event"",""trial"",""time""
""focus"",""46"",""316606""
","""event"",""trial"",""time""
""fullscreenenter"",""0"",""1912""
","
","null","<p></p>","null","","","","","","","","","","","","","","","","","","","","","","",""
"","do_trial","108","1046478","0.0-64.0-0.0","""event"",""trial"",""time""
""fullscreenenter"",""0"",""1912""
""blur"",""46"",""316544""
""focus"",""46"",""316606""
","""event"",""trial"",""time""
""blur"",""46"",""316544""
","""event"",""trial"",""time""
""focus"",""46"",""316606""
","""event"",""trial"",""time""
""fullscreenenter"",""0"",""1912""
","
","157.70000004768372","","","","","","","","50","0,1,0","0","coast","10","probe-103","0.5457320255459552","0.4571749243799434","0.13206441303503177","1","","","","","","","",""
"","html-keyboard-response","109","1047487","0.0-64.0-1.0","""event"",""trial"",""time""
""fullscreenenter"",""0"",""1912""
""blur"",""46"",""316544""
""focus"",""46"",""316606""
","""event"",""trial"",""time""
""blur"",""46"",""316544""
","""event"",""trial"",""time""
""focus"",""46"",""316606""
","""event"",""trial"",""time""
""fullscreenenter"",""0"",""1912""
","
","null","<p></p>","null","","","","","","","","","","","","","","","","","","","","","","",""
"","do_trial","110","1052278","0.0-65.0-0.0","""event"",""trial"",""time""
""fullscreenenter"",""0"",""1912""
""blur"",""46"",""316544""
""focus"",""46"",""316606""
","""event"",""trial"",""time""
""blur"",""46"",""316544""
","""event"",""trial"",""time""
""focus"",""46"",""316606""
","""event"",""trial"",""time""
""fullscreenenter"",""0"",""1912""
","
","247.59999990463257","","","","","","","","50","0,0,0","0","coast","11","probe-175","0.5006952124131661","0.28011255489976067","0.10653808573875923","0","","","","","","","",""
"","html-keyboard-response","111","1053293","0.0-65.0-1.0","""event"",""trial"",""time""
""fullscreenenter"",""0"",""1912""
""blur"",""46"",""316544""
""focus"",""46"",""316606""
","""event"",""trial"",""time""
""blur"",""46"",""316544""
","""event"",""trial"",""time""
""focus"",""46"",""316606""
","""event"",""trial"",""time""
""fullscreenenter"",""0"",""1912""
","
","null","<p></p>","null","","","","","","","","","","","","","","","","","","","","","","",""
"","do_trial","112","1058064","0.0-66.0-0.0","""event"",""trial"",""time""
""fullscreenenter"",""0"",""1912""
""blur"",""46"",""316544""
""focus"",""46"",""316606""
","""event"",""trial"",""time""
""blur"",""46"",""316544""
","""event"",""trial"",""time""
""focus"",""46"",""316606""
","""event"",""trial"",""time""
""fullscreenenter"",""0"",""1912""
","
","224.5","","","","","","","","50","0,1,1","0","coast","12","probe-56","0.5736688044093787","0.3046300335239475","0.18803961127224092","1","","","","","","","",""
"","html-keyboard-response","113","1059074","0.0-66.0-1.0","""event"",""trial"",""time""
""fullscreenenter"",""0"",""1912""
""blur"",""46"",""316544""
""focus"",""46"",""316606""
","""event"",""trial"",""time""
""blur"",""46"",""316544""
","""event"",""trial"",""time""
""focus"",""46"",""316606""
","""event"",""trial"",""time""
""fullscreenenter"",""0"",""1912""
","
","null","<p></p>","null","","","","","","","","","","","","","","","","","","","","","","",""
"","do_trial","114","1063847","0.0-67.0-0.0","""event"",""trial"",""time""
""fullscreenenter"",""0"",""1912""
""blur"",""46"",""316544""
""focus"",""46"",""316606""
","""event"",""trial"",""time""
""blur"",""46"",""316544""
","""event"",""trial"",""time""
""focus"",""46"",""316606""
","""event"",""trial"",""time""
""fullscreenenter"",""0"",""1912""
","
","235.5","","","","","","","","50","1,1,0","0","coast","13","probe-105","0.486097129982177","0.2846941825772444","0.2856154993598868","1","","","","","","","",""
"","html-keyboard-response","115","1064855","0.0-67.0-1.0","""event"",""trial"",""time""
""fullscreenenter"",""0"",""1912""
""blur"",""46"",""316544""
""focus"",""46"",""316606""
","""event"",""trial"",""time""
""blur"",""46"",""316544""
","""event"",""trial"",""time""
""focus"",""46"",""316606""
","""event"",""trial"",""time""
""fullscreenenter"",""0"",""1912""
","
","null","<p></p>","null","","","","","","","","","","","","","","","","","","","","","","",""
"","do_trial","116","1069703","0.0-68.0-0.0","""event"",""trial"",""time""
""fullscreenenter"",""0"",""1912""
""blur"",""46"",""316544""
""focus"",""46"",""316606""
","""event"",""trial"",""time""
""blur"",""46"",""316544""
","""event"",""trial"",""time""
""focus"",""46"",""316606""
","""event"",""trial"",""time""
""fullscreenenter"",""0"",""1912""
","
","308.30000019073486","","","","","","","","50","0,1,0","0","coast","14","probe-158","0.5279746057187055","0.34270074437948905","0.18699495499197724","1","","","","","","","",""
"","html-keyboard-response","117","1070716","0.0-68.0-1.0","""event"",""trial"",""time""
""fullscreenenter"",""0"",""1912""
""blur"",""46"",""316544""
""focus"",""46"",""316606""
","""event"",""trial"",""time""
""blur"",""46"",""316544""
","""event"",""trial"",""time""
""focus"",""46"",""316606""
","""event"",""trial"",""time""
""fullscreenenter"",""0"",""1912""
","
","null","<p></p>","null","","","","","","","","","","","","","","","","","","","","","","",""
"","do_trial","118","1075611","0.0-69.0-0.0","""event"",""trial"",""time""
""fullscreenenter"",""0"",""1912""
""blur"",""46"",""316544""
""focus"",""46"",""316606""
","""event"",""trial"",""time""
""blur"",""46"",""316544""
","""event"",""trial"",""time""
""focus"",""46"",""316606""
","""event"",""trial"",""time""
""fullscreenenter"",""0"",""1912""
","
","359.5","","","","","","","","50","0,0,0","0","coast","15","probe-82","0.47109398405301056","0.24818735169582784","0.23513544539229245","0","","","","","","","",""
"","html-keyboard-response","119","1076622","0.0-69.0-1.0","""event"",""trial"",""time""
""fullscreenenter"",""0"",""1912""
""blur"",""46"",""316544""
""focus"",""46"",""316606""
","""event"",""trial"",""time""
""blur"",""46"",""316544""
","""event"",""trial"",""time""
""focus"",""46"",""316606""
","""event"",""trial"",""time""
""fullscreenenter"",""0"",""1912""
","
","null","<p></p>","null","","","","","","","","","","","","","","","","","","","","","","",""
"","do_trial","120","1081493","0.0-70.0-0.0","""event"",""trial"",""time""
""fullscreenenter"",""0"",""1912""
""blur"",""46"",""316544""
""focus"",""46"",""316606""
","""event"",""trial"",""time""
""blur"",""46"",""316544""
","""event"",""trial"",""time""
""focus"",""46"",""316606""
","""event"",""trial"",""time""
""fullscreenenter"",""0"",""1912""
","
","325.40000009536743","","","","","","","","50","1,1,0","0","coast","16","probe-196","0.6376562142652829","0.23882005210785123","0.15356429382679612","1","","","","","","","",""
"","html-keyboard-response","121","1082504","0.0-70.0-1.0","""event"",""trial"",""time""
""fullscreenenter"",""0"",""1912""
""blur"",""46"",""316544""
""focus"",""46"",""316606""
","""event"",""trial"",""time""
""blur"",""46"",""316544""
","""event"",""trial"",""time""
""focus"",""46"",""316606""
","""event"",""trial"",""time""
""fullscreenenter"",""0"",""1912""
","
","null","<p></p>","null","","","","","","","","","","","","","","","","","","","","","","",""
"","do_trial","122","1087262","0.0-71.0-0.0","""event"",""trial"",""time""
""fullscreenenter"",""0"",""1912""
""blur"",""46"",""316544""
""focus"",""46"",""316606""
","""event"",""trial"",""time""
""blur"",""46"",""316544""
","""event"",""trial"",""time""
""focus"",""46"",""316606""
","""event"",""trial"",""time""
""fullscreenenter"",""0"",""1912""
","
","219.40000009536743","","","","","","","","50","1,0,0","0","coast","17","probe-89","0.7567498030976458","0.23313863803204654","0.21756100871795991","0","","","","","","","",""
"","html-keyboard-response","123","1088264","0.0-71.0-1.0","""event"",""trial"",""time""
""fullscreenenter"",""0"",""1912""
""blur"",""46"",""316544""
""focus"",""46"",""316606""
","""event"",""trial"",""time""
""blur"",""46"",""316544""
","""event"",""trial"",""time""
""focus"",""46"",""316606""
","""event"",""trial"",""time""
""fullscreenenter"",""0"",""1912""
","
","null","<p></p>","null","","","","","","","","","","","","","","","","","","","","","","",""
"","do_trial","124","1093169","0.0-72.0-0.0","""event"",""trial"",""time""
""fullscreenenter"",""0"",""1912""
""blur"",""46"",""316544""
""focus"",""46"",""316606""
","""event"",""trial"",""time""
""blur"",""46"",""316544""
","""event"",""trial"",""time""
""focus"",""46"",""316606""
","""event"",""trial"",""time""
""fullscreenenter"",""0"",""1912""
","
","370.10000014305115","","","","","","","","50","1,0,0","0","coast","18","probe-126","0.7318050384436287","0.2986328686795783","0.28830673476790175","0","","","","","","","",""
"","html-keyboard-response","125","1094181","0.0-72.0-1.0","""event"",""trial"",""time""
""fullscreenenter"",""0"",""1912""
""blur"",""46"",""316544""
""focus"",""46"",""316606""
","""event"",""trial"",""time""
""blur"",""46"",""316544""
","""event"",""trial"",""time""
""focus"",""46"",""316606""
","""event"",""trial"",""time""
""fullscreenenter"",""0"",""1912""
","
","null","<p></p>","null","","","","","","","","","","","","","","","","","","","","","","",""
"","do_trial","126","1098978","0.0-73.0-0.0","""event"",""trial"",""time""
""fullscreenenter"",""0"",""1912""
""blur"",""46"",""316544""
""focus"",""46"",""316606""
","""event"",""trial"",""time""
""blur"",""46"",""316544""
","""event"",""trial"",""time""
""focus"",""46"",""316606""
","""event"",""trial"",""time""
""fullscreenenter"",""0"",""1912""
","
","255.89999985694885","","","","","","","","50","0,0,0","0","coast","19","probe-201","0.6208187559449604","0.35212823304254776","0.2436031702493248","0","","","","","","","",""
"","html-keyboard-response","127","1099991","0.0-73.0-1.0","""event"",""trial"",""time""
""fullscreenenter"",""0"",""1912""
""blur"",""46"",""316544""
""focus"",""46"",""316606""
","""event"",""trial"",""time""
""blur"",""46"",""316544""
","""event"",""trial"",""time""
""focus"",""46"",""316606""
","""event"",""trial"",""time""
""fullscreenenter"",""0"",""1912""
","
","null","<p></p>","null","","","","","","","","","","","","","","","","","","","","","","",""
"","do_trial","128","1104802","0.0-74.0-0.0","""event"",""trial"",""time""
""fullscreenenter"",""0"",""1912""
""blur"",""46"",""316544""
""focus"",""46"",""316606""
","""event"",""trial"",""time""
""blur"",""46"",""316544""
","""event"",""trial"",""time""
""focus"",""46"",""316606""
","""event"",""trial"",""time""
""fullscreenenter"",""0"",""1912""
","
","276.2000000476837","","","","","","","","50","0,0,0","0","coast","20","probe-65","0.4426636943410635","0.34314246286739436","0.21089983505564028","0","","","","","","","",""
"","html-keyboard-response","129","1105807","0.0-74.0-1.0","""event"",""trial"",""time""
""fullscreenenter"",""0"",""1912""
""blur"",""46"",""316544""
""focus"",""46"",""316606""
","""event"",""trial"",""time""
""blur"",""46"",""316544""
","""event"",""trial"",""time""
""focus"",""46"",""316606""
","""event"",""trial"",""time""
""fullscreenenter"",""0"",""1912""
","
","null","<p></p>","null","","","","","","","","","","","","","","","","","","","","","","",""
"","do_trial","130","1110849","0.0-75.0-0.0","""event"",""trial"",""time""
""fullscreenenter"",""0"",""1912""
""blur"",""46"",""316544""
""focus"",""46"",""316606""
","""event"",""trial"",""time""
""blur"",""46"",""316544""
","""event"",""trial"",""time""
""focus"",""46"",""316606""
","""event"",""trial"",""time""
""fullscreenenter"",""0"",""1912""
","
","498.90000009536743","","","","","","","","49","0,1,0","0","coast","21","probe-70","0.3653722945373016","0.20630556377263504","0.22051032384660002","0","","","","","","","",""
"","html-keyboard-response","131","1111851","0.0-75.0-1.0","""event"",""trial"",""time""
""fullscreenenter"",""0"",""1912""
""blur"",""46"",""316544""
""focus"",""46"",""316606""
","""event"",""trial"",""time""
""blur"",""46"",""316544""
","""event"",""trial"",""time""
""focus"",""46"",""316606""
","""event"",""trial"",""time""
""fullscreenenter"",""0"",""1912""
","
","null","<p></p>","null","","","","","","","","","","","","","","","","","","","","","","",""
"","do_trial","132","1116620","0.0-76.0-0.0","""event"",""trial"",""time""
""fullscreenenter"",""0"",""1912""
""blur"",""46"",""316544""
""focus"",""46"",""316606""
","""event"",""trial"",""time""
""blur"",""46"",""316544""
","""event"",""trial"",""time""
""focus"",""46"",""316606""
","""event"",""trial"",""time""
""fullscreenenter"",""0"",""1912""
","
","230.5","","","","","","","","50","1,1,0","0","coast","22","probe-90","0.44937962059671455","0.365228648675138","0.12880354489498821","1","","","","","","","",""
"","html-keyboard-response","133","1117637","0.0-76.0-1.0","""event"",""trial"",""time""
""fullscreenenter"",""0"",""1912""
""blur"",""46"",""316544""
""focus"",""46"",""316606""
","""event"",""trial"",""time""
""blur"",""46"",""316544""
","""event"",""trial"",""time""
""focus"",""46"",""316606""
","""event"",""trial"",""time""
""fullscreenenter"",""0"",""1912""
","
","null","<p></p>","null","","","","","","","","","","","","","","","","","","","","","","",""
"","do_trial","134","1122453","0.0-77.0-0.0","""event"",""trial"",""time""
""fullscreenenter"",""0"",""1912""
""blur"",""46"",""316544""
""focus"",""46"",""316606""
","""event"",""trial"",""time""
""blur"",""46"",""316544""
","""event"",""trial"",""time""
""focus"",""46"",""316606""
","""event"",""trial"",""time""
""fullscreenenter"",""0"",""1912""
","
","279.2000000476837","","","","","","","","50","0,0,0","0","coast","23","probe-25","0.6968566304524834","0.21358676792177828","0.2233941762462238","0","","","","","","","",""
"","html-keyboard-response","135","1123467","0.0-77.0-1.0","""event"",""trial"",""time""
""fullscreenenter"",""0"",""1912""
""blur"",""46"",""316544""
""focus"",""46"",""316606""
","""event"",""trial"",""time""
""blur"",""46"",""316544""
","""event"",""trial"",""time""
""focus"",""46"",""316606""
","""event"",""trial"",""time""
""fullscreenenter"",""0"",""1912""
","
","null","<p></p>","null","","","","","","","","","","","","","","","","","","","","","","",""
"","do_trial","136","1128409","0.0-78.0-0.0","""event"",""trial"",""time""
""fullscreenenter"",""0"",""1912""
""blur"",""46"",""316544""
""focus"",""46"",""316606""
","""event"",""trial"",""time""
""blur"",""46"",""316544""
","""event"",""trial"",""time""
""focus"",""46"",""316606""
","""event"",""trial"",""time""
""fullscreenenter"",""0"",""1912""
","
","404.40000009536743","","","","","","","","50","1,1,0","0","coast","24","probe-31","0.5574699631254173","0.2139427064391685","0.1669569121731295","1","","","","","","","",""
"","html-keyboard-response","137","1129422","0.0-78.0-1.0","""event"",""trial"",""time""
""fullscreenenter"",""0"",""1912""
""blur"",""46"",""316544""
""focus"",""46"",""316606""
","""event"",""trial"",""time""
""blur"",""46"",""316544""
","""event"",""trial"",""time""
""focus"",""46"",""316606""
","""event"",""trial"",""time""
""fullscreenenter"",""0"",""1912""
","
","null","<p></p>","null","","","","","","","","","","","","","","","","","","","","","","",""
"","do_trial","138","1134366","0.0-79.0-0.0","""event"",""trial"",""time""
""fullscreenenter"",""0"",""1912""
""blur"",""46"",""316544""
""focus"",""46"",""316606""
","""event"",""trial"",""time""
""blur"",""46"",""316544""
","""event"",""trial"",""time""
""focus"",""46"",""316606""
","""event"",""trial"",""time""
""fullscreenenter"",""0"",""1912""
","
","397.40000009536743","","","","","","","","50","0,0,0","0","coast","25","probe-109","0.5871770610758335","0.2548426287415622","0.16182814049604996","0","","","","","","","",""
"","html-keyboard-response","139","1135379","0.0-79.0-1.0","""event"",""trial"",""time""
""fullscreenenter"",""0"",""1912""
""blur"",""46"",""316544""
""focus"",""46"",""316606""
","""event"",""trial"",""time""
""blur"",""46"",""316544""
","""event"",""trial"",""time""
""focus"",""46"",""316606""
","""event"",""trial"",""time""
""fullscreenenter"",""0"",""1912""
","
","null","<p></p>","null","","","","","","","","","","","","","","","","","","","","","","",""
"","do_trial","140","1140116","0.0-80.0-0.0","""event"",""trial"",""time""
""fullscreenenter"",""0"",""1912""
""blur"",""46"",""316544""
""focus"",""46"",""316606""
","""event"",""trial"",""time""
""blur"",""46"",""316544""
","""event"",""trial"",""time""
""focus"",""46"",""316606""
","""event"",""trial"",""time""
""fullscreenenter"",""0"",""1912""
","
","189","","","","","","","","50","0,0,0","0","coast","26","probe-146","0.5249252441829165","0.2111240542863462","0.10148892804567641","0","","","","","","","",""
"","html-keyboard-response","141","1141132","0.0-80.0-1.0","""event"",""trial"",""time""
""fullscreenenter"",""0"",""1912""
""blur"",""46"",""316544""
""focus"",""46"",""316606""
","""event"",""trial"",""time""
""blur"",""46"",""316544""
","""event"",""trial"",""time""
""focus"",""46"",""316606""
","""event"",""trial"",""time""
""fullscreenenter"",""0"",""1912""
","
","null","<p></p>","null","","","","","","","","","","","","","","","","","","","","","","",""
"","do_trial","142","1146605","0.0-81.0-0.0","""event"",""trial"",""time""
""fullscreenenter"",""0"",""1912""
""blur"",""46"",""316544""
""focus"",""46"",""316606""
","""event"",""trial"",""time""
""blur"",""46"",""316544""
","""event"",""trial"",""time""
""focus"",""46"",""316606""
","""event"",""trial"",""time""
""fullscreenenter"",""0"",""1912""
","
","930.1000001430511","","","","","","","","50","1,1,1","0","coast","27","probe-79","0.5159745897848338","0.28217726357354767","0.11097283780610401","1","","","","","","","",""
"","html-keyboard-response","143","1147608","0.0-81.0-1.0","""event"",""trial"",""time""
""fullscreenenter"",""0"",""1912""
""blur"",""46"",""316544""
""focus"",""46"",""316606""
","""event"",""trial"",""time""
""blur"",""46"",""316544""
","""event"",""trial"",""time""
""focus"",""46"",""316606""
","""event"",""trial"",""time""
""fullscreenenter"",""0"",""1912""
","
","null","<p></p>","null","","","","","","","","","","","","","","","","","","","","","","",""
"","do_trial","144","1152603","0.0-82.0-0.0","""event"",""trial"",""time""
""fullscreenenter"",""0"",""1912""
""blur"",""46"",""316544""
""focus"",""46"",""316606""
","""event"",""trial"",""time""
""blur"",""46"",""316544""
","""event"",""trial"",""time""
""focus"",""46"",""316606""
","""event"",""trial"",""time""
""fullscreenenter"",""0"",""1912""
","
","448.2999999523163","","","","","","","","50","0,0,0","0","coast","28","probe-228","0.5710291495380471","0.3786079767534236","0.06169229957163563","0","","","","","","","",""
"","html-keyboard-response","145","1153607","0.0-82.0-1.0","""event"",""trial"",""time""
""fullscreenenter"",""0"",""1912""
""blur"",""46"",""316544""
""focus"",""46"",""316606""
","""event"",""trial"",""time""
""blur"",""46"",""316544""
","""event"",""trial"",""time""
""focus"",""46"",""316606""
","""event"",""trial"",""time""
""fullscreenenter"",""0"",""1912""
","
","null","<p></p>","null","","","","","","","","","","","","","","","","","","","","","","",""
"","do_trial","146","1158503","0.0-83.0-0.0","""event"",""trial"",""time""
""fullscreenenter"",""0"",""1912""
""blur"",""46"",""316544""
""focus"",""46"",""316606""
","""event"",""trial"",""time""
""blur"",""46"",""316544""
","""event"",""trial"",""time""
""focus"",""46"",""316606""
","""event"",""trial"",""time""
""fullscreenenter"",""0"",""1912""
","
","346.7999999523163","","","","","","","","50","1,1,0","0","coast","29","probe-05","0.6460584616826209","0.32394255715509873","0.05709942109463599","1","","","","","","","",""
"","html-keyboard-response","147","1159514","0.0-83.0-1.0","""event"",""trial"",""time""
""fullscreenenter"",""0"",""1912""
""blur"",""46"",""316544""
""focus"",""46"",""316606""
","""event"",""trial"",""time""
""blur"",""46"",""316544""
","""event"",""trial"",""time""
""focus"",""46"",""316606""
","""event"",""trial"",""time""
""fullscreenenter"",""0"",""1912""
","
","null","<p></p>","null","","","","","","","","","","","","","","","","","","","","","","",""
"","do_bye","148","1161023","0.0-84.0-0.0","""event"",""trial"",""time""
""fullscreenenter"",""0"",""1912""
""blur"",""46"",""316544""
""focus"",""46"",""316606""
","""event"",""trial"",""time""
""blur"",""46"",""316544""
","""event"",""trial"",""time""
""focus"",""46"",""316606""
","""event"",""trial"",""time""
""fullscreenenter"",""0"",""1912""
","
","null","","","","","","","","null","","","","","","","","","","","","","","","","",""
"","break","149","1166819","0.0-84.0-1.0","""event"",""trial"",""time""
""fullscreenenter"",""0"",""1912""
""blur"",""46"",""316544""
""focus"",""46"",""316606""
","""event"",""trial"",""time""
""blur"",""46"",""316544""
","""event"",""trial"",""time""
""focus"",""46"",""316606""
","""event"",""trial"",""time""
""fullscreenenter"",""0"",""1912""
","
","5795.700000047684","<div class='center'><p>Time to take a quick break! You have 2 minutes to rest, but you can move on sooner if you'd like.</p><p> Press the <b>space bar</b> to continue.</p></div>","32","","","","","","","","","","","","","","","","","","","","","","",""
"","do_travel","150","1175830","0.0-85.0-0.0","""event"",""trial"",""time""
""fullscreenenter"",""0"",""1912""
""blur"",""46"",""316544""
""focus"",""46"",""316606""
","""event"",""trial"",""time""
""blur"",""46"",""316544""
","""event"",""trial"",""time""
""focus"",""46"",""316606""
","""event"",""trial"",""time""
""fullscreenenter"",""0"",""1912""
","
","null","","","","","","","","null","","","","","","","","","","","","","","","","",""
"","do_welcome","151","1179840","0.0-85.0-1.0","""event"",""trial"",""time""
""fullscreenenter"",""0"",""1912""
""blur"",""46"",""316544""
""focus"",""46"",""316606""
","""event"",""trial"",""time""
""blur"",""46"",""316544""
","""event"",""trial"",""time""
""focus"",""46"",""316606""
","""event"",""trial"",""time""
""fullscreenenter"",""0"",""1912""
","
","null","","","","","","","","null","","","","","","","","","","","","","","","","",""
"","do_trial","152","1185904","0.0-86.0-0.0","""event"",""trial"",""time""
""fullscreenenter"",""0"",""1912""
""blur"",""46"",""316544""
""focus"",""46"",""316606""
","""event"",""trial"",""time""
""blur"",""46"",""316544""
","""event"",""trial"",""time""
""focus"",""46"",""316606""
","""event"",""trial"",""time""
""fullscreenenter"",""0"",""1912""
","
","1516.2000000476837","","","","","","","","49","1,1,0","1","countryside","30","probe-152","1","0.4177293855025574","0.11361405716869057","1","","","","","","","",""
"","html-keyboard-response","153","1186918","0.0-86.0-1.0","""event"",""trial"",""time""
""fullscreenenter"",""0"",""1912""
""blur"",""46"",""316544""
""focus"",""46"",""316606""
","""event"",""trial"",""time""
""blur"",""46"",""316544""
","""event"",""trial"",""time""
""focus"",""46"",""316606""
","""event"",""trial"",""time""
""fullscreenenter"",""0"",""1912""
","
","null","<p></p>","null","","","","","","","","","","","","","","","","","","","","","","",""
"","do_trial","154","1191634","0.0-87.0-0.0","""event"",""trial"",""time""
""fullscreenenter"",""0"",""1912""
""blur"",""46"",""316544""
""focus"",""46"",""316606""
","""event"",""trial"",""time""
""blur"",""46"",""316544""
","""event"",""trial"",""time""
""focus"",""46"",""316606""
","""event"",""trial"",""time""
""fullscreenenter"",""0"",""1912""
","
","179.5","","","","","","","","49","1,1,0","1","countryside","31","probe-230","1","0.3570524287353705","0.05631057154992093","1","","","","","","","",""
"","html-keyboard-response","155","1192640","0.0-87.0-1.0","""event"",""trial"",""time""
""fullscreenenter"",""0"",""1912""
""blur"",""46"",""316544""
""focus"",""46"",""316606""
","""event"",""trial"",""time""
""blur"",""46"",""316544""
","""event"",""trial"",""time""
""focus"",""46"",""316606""
","""event"",""trial"",""time""
""fullscreenenter"",""0"",""1912""
","
","null","<p></p>","null","","","","","","","","","","","","","","","","","","","","","","",""
"","do_trial","156","1197373","0.0-88.0-0.0","""event"",""trial"",""time""
""fullscreenenter"",""0"",""1912""
""blur"",""46"",""316544""
""focus"",""46"",""316606""
","""event"",""trial"",""time""
""blur"",""46"",""316544""
","""event"",""trial"",""time""
""focus"",""46"",""316606""
","""event"",""trial"",""time""
""fullscreenenter"",""0"",""1912""
","
","190.59999990463257","","","","","","","","49","1,0,0","1","countryside","32","probe-213","1","0.36330896363739146","0.08098304976267723","1","","","","","","","",""
"","html-keyboard-response","157","1198388","0.0-88.0-1.0","""event"",""trial"",""time""
""fullscreenenter"",""0"",""1912""
""blur"",""46"",""316544""
""focus"",""46"",""316606""
","""event"",""trial"",""time""
""blur"",""46"",""316544""
","""event"",""trial"",""time""
""focus"",""46"",""316606""
","""event"",""trial"",""time""
""fullscreenenter"",""0"",""1912""
","
","null","<p></p>","null","","","","","","","","","","","","","","","","","","","","","","",""
"","do_trial","158","1203142","0.0-89.0-0.0","""event"",""trial"",""time""
""fullscreenenter"",""0"",""1912""
""blur"",""46"",""316544""
""focus"",""46"",""316606""
","""event"",""trial"",""time""
""blur"",""46"",""316544""
","""event"",""trial"",""time""
""focus"",""46"",""316606""
","""event"",""trial"",""time""
""fullscreenenter"",""0"",""1912""
","
","210.09999990463257","","","","","","","","49","1,0,0","1","countryside","33","probe-52","0.8172750681044473","0.3736261043550886","0.06063913633378953","1","","","","","","","",""
"","html-keyboard-response","159","1204157","0.0-89.0-1.0","""event"",""trial"",""time""
""fullscreenenter"",""0"",""1912""
""blur"",""46"",""316544""
""focus"",""46"",""316606""
","""event"",""trial"",""time""
""blur"",""46"",""316544""
","""event"",""trial"",""time""
""focus"",""46"",""316606""
","""event"",""trial"",""time""
""fullscreenenter"",""0"",""1912""
","
","null","<p></p>","null","","","","","","","","","","","","","","","","","","","","","","",""
"","do_trial","160","1208878","0.0-90.0-0.0","""event"",""trial"",""time""
""fullscreenenter"",""0"",""1912""
""blur"",""46"",""316544""
""focus"",""46"",""316606""
","""event"",""trial"",""time""
""blur"",""46"",""316544""
","""event"",""trial"",""time""
""focus"",""46"",""316606""
","""event"",""trial"",""time""
""fullscreenenter"",""0"",""1912""
","
","184.10000014305115","","","","","","","","49","1,1,0","1","countryside","34","probe-48","0.7831435637952915","0.4163402352096332","0.18950672811119","1","","","","","","","",""
"","html-keyboard-response","161","1209893","0.0-90.0-1.0","""event"",""trial"",""time""
""fullscreenenter"",""0"",""1912""
""blur"",""46"",""316544""
""focus"",""46"",""316606""
","""event"",""trial"",""time""
""blur"",""46"",""316544""
","""event"",""trial"",""time""
""focus"",""46"",""316606""
","""event"",""trial"",""time""
""fullscreenenter"",""0"",""1912""
","
","null","<p></p>","null","","","","","","","","","","","","","","","","","","","","","","",""
"","do_trial","162","1215016","0.0-91.0-0.0","""event"",""trial"",""time""
""fullscreenenter"",""0"",""1912""
""blur"",""46"",""316544""
""focus"",""46"",""316606""
","""event"",""trial"",""time""
""blur"",""46"",""316544""
","""event"",""trial"",""time""
""focus"",""46"",""316606""
","""event"",""trial"",""time""
""fullscreenenter"",""0"",""1912""
","
","589.8999998569489","","","","","","","","49","1,1,0","1","countryside","35","probe-29","0.6692644382647253","0.3830625104637387","0.23689624040362467","1","","","","","","","",""
"","html-keyboard-response","163","1216031","0.0-91.0-1.0","""event"",""trial"",""time""
""fullscreenenter"",""0"",""1912""
""blur"",""46"",""316544""
""focus"",""46"",""316606""
","""event"",""trial"",""time""
""blur"",""46"",""316544""
","""event"",""trial"",""time""
""focus"",""46"",""316606""
","""event"",""trial"",""time""
""fullscreenenter"",""0"",""1912""
","
","null","<p></p>","null","","","","","","","","","","","","","","","","","","","","","","",""
"","do_trial","164","1220828","0.0-92.0-0.0","""event"",""trial"",""time""
""fullscreenenter"",""0"",""1912""
""blur"",""46"",""316544""
""focus"",""46"",""316606""
","""event"",""trial"",""time""
""blur"",""46"",""316544""
","""event"",""trial"",""time""
""focus"",""46"",""316606""
","""event"",""trial"",""time""
""fullscreenenter"",""0"",""1912""
","
","256","","","","","","","","49","1,1,0","1","countryside","36","probe-97","0.5188841817449897","0.5094044263522801","0.2558039473354123","1","","","","","","","",""
"","html-keyboard-response","165","1221840","0.0-92.0-1.0","""event"",""trial"",""time""
""fullscreenenter"",""0"",""1912""
""blur"",""46"",""316544""
""focus"",""46"",""316606""
","""event"",""trial"",""time""
""blur"",""46"",""316544""
","""event"",""trial"",""time""
""focus"",""46"",""316606""
","""event"",""trial"",""time""
""fullscreenenter"",""0"",""1912""
","
","null","<p></p>","null","","","","","","","","","","","","","","","","","","","","","","",""
"","do_trial","166","1226816","0.0-93.0-0.0","""event"",""trial"",""time""
""fullscreenenter"",""0"",""1912""
""blur"",""46"",""316544""
""focus"",""46"",""316606""
","""event"",""trial"",""time""
""blur"",""46"",""316544""
","""event"",""trial"",""time""
""focus"",""46"",""316606""
","""event"",""trial"",""time""
""fullscreenenter"",""0"",""1912""
","
","437.89999985694885","","","","","","","","49","1,0,1","1","countryside","37","probe-199","0.5857593289726843","0.38029277648300147","0.1090832050836541","1","","","","","","","",""
"","html-keyboard-response","167","1227829","0.0-93.0-1.0","""event"",""trial"",""time""
""fullscreenenter"",""0"",""1912""
""blur"",""46"",""316544""
""focus"",""46"",""316606""
","""event"",""trial"",""time""
""blur"",""46"",""316544""
","""event"",""trial"",""time""
""focus"",""46"",""316606""
","""event"",""trial"",""time""
""fullscreenenter"",""0"",""1912""
","
","null","<p></p>","null","","","","","","","","","","","","","","","","","","","","","","",""
"","do_trial","168","1232570","0.0-94.0-0.0","""event"",""trial"",""time""
""fullscreenenter"",""0"",""1912""
""blur"",""46"",""316544""
""focus"",""46"",""316606""
","""event"",""trial"",""time""
""blur"",""46"",""316544""
","""event"",""trial"",""time""
""focus"",""46"",""316606""
","""event"",""trial"",""time""
""fullscreenenter"",""0"",""1912""
","
","205.5","","","","","","","","49","0,1,0","1","countryside","38","probe-138","0.6327722154452965","0.20451076874861662","0.0870917191430567","0","","","","","","","",""
"","html-keyboard-response","169","1233578","0.0-94.0-1.0","""event"",""trial"",""time""
""fullscreenenter"",""0"",""1912""
""blur"",""46"",""316544""
""focus"",""46"",""316606""
","""event"",""trial"",""time""
""blur"",""46"",""316544""
","""event"",""trial"",""time""
""focus"",""46"",""316606""
","""event"",""trial"",""time""
""fullscreenenter"",""0"",""1912""
","
","null","<p></p>","null","","","","","","","","","","","","","","","","","","","","","","",""
"","do_trial","170","1238493","0.0-95.0-0.0","""event"",""trial"",""time""
""fullscreenenter"",""0"",""1912""
""blur"",""46"",""316544""
""focus"",""46"",""316606""
","""event"",""trial"",""time""
""blur"",""46"",""316544""
","""event"",""trial"",""time""
""focus"",""46"",""316606""
","""event"",""trial"",""time""
""fullscreenenter"",""0"",""1912""
","
","376.89999985694885","","","","","","","","49","0,0,0","1","countryside","39","probe-17","0.6258381170026558","0.30033205867397855","0.05535190174929545","0","","","","","","","",""
"","html-keyboard-response","171","1239496","0.0-95.0-1.0","""event"",""trial"",""time""
""fullscreenenter"",""0"",""1912""
""blur"",""46"",""316544""
""focus"",""46"",""316606""
","""event"",""trial"",""time""
""blur"",""46"",""316544""
","""event"",""trial"",""time""
""focus"",""46"",""316606""
","""event"",""trial"",""time""
""fullscreenenter"",""0"",""1912""
","
","null","<p></p>","null","","","","","","","","","","","","","","","","","","","","","","",""
"","do_trial","172","1244631","0.0-96.0-0.0","""event"",""trial"",""time""
""fullscreenenter"",""0"",""1912""
""blur"",""46"",""316544""
""focus"",""46"",""316606""
","""event"",""trial"",""time""
""blur"",""46"",""316544""
","""event"",""trial"",""time""
""focus"",""46"",""316606""
","""event"",""trial"",""time""
""fullscreenenter"",""0"",""1912""
","
","599.7000000476837","","","","","","","","49","0,1,0","1","countryside","40","probe-133","0.6729470847222343","0.3060616517511801","0.05166073913865501","0","","","","","","","",""
"","html-keyboard-response","173","1245633","0.0-96.0-1.0","""event"",""trial"",""time""
""fullscreenenter"",""0"",""1912""
""blur"",""46"",""316544""
""focus"",""46"",""316606""
","""event"",""trial"",""time""
""blur"",""46"",""316544""
","""event"",""trial"",""time""
""focus"",""46"",""316606""
","""event"",""trial"",""time""
""fullscreenenter"",""0"",""1912""
","
","null","<p></p>","null","","","","","","","","","","","","","","","","","","","","","","",""
"","do_trial","174","1250901","0.0-97.0-0.0","""event"",""trial"",""time""
""fullscreenenter"",""0"",""1912""
""blur"",""46"",""316544""
""focus"",""46"",""316606""
","""event"",""trial"",""time""
""blur"",""46"",""316544""
","""event"",""trial"",""time""
""focus"",""46"",""316606""
","""event"",""trial"",""time""
""fullscreenenter"",""0"",""1912""
","
","729.0999999046326","","","","","","","","49","1,1,0","1","countryside","41","probe-108","0.6881900239894132","0.17932252978841284","0.10383907737710014","1","","","","","","","",""
"","html-keyboard-response","175","1251910","0.0-97.0-1.0","""event"",""trial"",""time""
""fullscreenenter"",""0"",""1912""
""blur"",""46"",""316544""
""focus"",""46"",""316606""
","""event"",""trial"",""time""
""blur"",""46"",""316544""
","""event"",""trial"",""time""
""focus"",""46"",""316606""
","""event"",""trial"",""time""
""fullscreenenter"",""0"",""1912""
","
","null","<p></p>","null","","","","","","","","","","","","","","","","","","","","","","",""
"","do_trial","176","1256923","0.0-98.0-0.0","""event"",""trial"",""time""
""fullscreenenter"",""0"",""1912""
""blur"",""46"",""316544""
""focus"",""46"",""316606""
","""event"",""trial"",""time""
""blur"",""46"",""316544""
","""event"",""trial"",""time""
""focus"",""46"",""316606""
","""event"",""trial"",""time""
""fullscreenenter"",""0"",""1912""
","
","475.7000000476837","","","","","","","","49","1,0,1","1","countryside","42","probe-74","0.6970012804609529","0.26136977145265045","0.2634345394373043","1","","","","","","","",""
"","html-keyboard-response","177","1257937","0.0-98.0-1.0","""event"",""trial"",""time""
""fullscreenenter"",""0"",""1912""
""blur"",""46"",""316544""
""focus"",""46"",""316606""
","""event"",""trial"",""time""
""blur"",""46"",""316544""
","""event"",""trial"",""time""
""focus"",""46"",""316606""
","""event"",""trial"",""time""
""fullscreenenter"",""0"",""1912""
","
","null","<p></p>","null","","","","","","","","","","","","","","","","","","","","","","",""
"","do_trial","178","1263115","0.0-99.0-0.0","""event"",""trial"",""time""
""fullscreenenter"",""0"",""1912""
""blur"",""46"",""316544""
""focus"",""46"",""316606""
","""event"",""trial"",""time""
""blur"",""46"",""316544""
","""event"",""trial"",""time""
""focus"",""46"",""316606""
","""event"",""trial"",""time""
""fullscreenenter"",""0"",""1912""
","
","637.0999999046326","","","","","","","","49","0,0,1","1","countryside","43","probe-66","0.4722768617889973","0.2483792248303334","0.40901395437252985","0","","","","","","","",""
"","html-keyboard-response","179","1264130","0.0-99.0-1.0","""event"",""trial"",""time""
""fullscreenenter"",""0"",""1912""
""blur"",""46"",""316544""
""focus"",""46"",""316606""
","""event"",""trial"",""time""
""blur"",""46"",""316544""
","""event"",""trial"",""time""
""focus"",""46"",""316606""
","""event"",""trial"",""time""
""fullscreenenter"",""0"",""1912""
","
","null","<p></p>","null","","","","","","","","","","","","","","","","","","","","","","",""
"","do_trial","180","1269005","0.0-100.0-0.0","""event"",""trial"",""time""
""fullscreenenter"",""0"",""1912""
""blur"",""46"",""316544""
""focus"",""46"",""316606""
","""event"",""trial"",""time""
""blur"",""46"",""316544""
","""event"",""trial"",""time""
""focus"",""46"",""316606""
","""event"",""trial"",""time""
""fullscreenenter"",""0"",""1912""
","
","339.7999999523163","","","","","","","","49","1,1,1","1","countryside","44","probe-39","0.2932055303630004","0.20349018324598675","0.5526467755757877","1","","","","","","","",""
"","html-keyboard-response","181","1270006","0.0-100.0-1.0","""event"",""trial"",""time""
""fullscreenenter"",""0"",""1912""
""blur"",""46"",""316544""
""focus"",""46"",""316606""
","""event"",""trial"",""time""
""blur"",""46"",""316544""
","""event"",""trial"",""time""
""focus"",""46"",""316606""
","""event"",""trial"",""time""
""fullscreenenter"",""0"",""1912""
","
","null","<p></p>","null","","","","","","","","","","","","","","","","","","","","","","",""
"","do_trial","182","1274826","0.0-101.0-0.0","""event"",""trial"",""time""
""fullscreenenter"",""0"",""1912""
""blur"",""46"",""316544""
""focus"",""46"",""316606""
","""event"",""trial"",""time""
""blur"",""46"",""316544""
","""event"",""trial"",""time""
""focus"",""46"",""316606""
","""event"",""trial"",""time""
""fullscreenenter"",""0"",""1912""
","
","279.40000009536743","","","","","","","","49","1,0,0","1","countryside","45","probe-160","0.3676095985219488","0.0641347467097379","0.5683156479728987","1","","","","","","","",""
"","html-keyboard-response","183","1275839","0.0-101.0-1.0","""event"",""trial"",""time""
""fullscreenenter"",""0"",""1912""
""blur"",""46"",""316544""
""focus"",""46"",""316606""
","""event"",""trial"",""time""
""blur"",""46"",""316544""
","""event"",""trial"",""time""
""focus"",""46"",""316606""
","""event"",""trial"",""time""
""fullscreenenter"",""0"",""1912""
","
","null","<p></p>","null","","","","","","","","","","","","","","","","","","","","","","",""
"","do_trial","184","1281000","0.0-102.0-0.0","""event"",""trial"",""time""
""fullscreenenter"",""0"",""1912""
""blur"",""46"",""316544""
""focus"",""46"",""316606""
","""event"",""trial"",""time""
""blur"",""46"",""316544""
","""event"",""trial"",""time""
""focus"",""46"",""316606""
","""event"",""trial"",""time""
""fullscreenenter"",""0"",""1912""
","
","621.6000001430511","","","","","","","","49","0,0,0","1","countryside","46","probe-32","0.2837812150552297","0.05554087951929175","0.5483125824837013","0","","","","","","","",""
"","html-keyboard-response","185","1282013","0.0-102.0-1.0","""event"",""trial"",""time""
""fullscreenenter"",""0"",""1912""
""blur"",""46"",""316544""
""focus"",""46"",""316606""
","""event"",""trial"",""time""
""blur"",""46"",""316544""
","""event"",""trial"",""time""
""focus"",""46"",""316606""
","""event"",""trial"",""time""
""fullscreenenter"",""0"",""1912""
","
","null","<p></p>","null","","","","","","","","","","","","","","","","","","","","","","",""
"","do_trial","186","1286795","0.0-103.0-0.0","""event"",""trial"",""time""
""fullscreenenter"",""0"",""1912""
""blur"",""46"",""316544""
""focus"",""46"",""316606""
","""event"",""trial"",""time""
""blur"",""46"",""316544""
","""event"",""trial"",""time""
""focus"",""46"",""316606""
","""event"",""trial"",""time""
""fullscreenenter"",""0"",""1912""
","
","219.29999995231628","","","","","","","","49","0,1,1","1","countryside","47","probe-143","0.3087937585026563","0.15966770881714534","0.6744267713567215","0","","","","","","","",""
"","html-keyboard-response","187","1287802","0.0-103.0-1.0","""event"",""trial"",""time""
""fullscreenenter"",""0"",""1912""
""blur"",""46"",""316544""
""focus"",""46"",""316606""
","""event"",""trial"",""time""
""blur"",""46"",""316544""
","""event"",""trial"",""time""
""focus"",""46"",""316606""
","""event"",""trial"",""time""
""fullscreenenter"",""0"",""1912""
","
","null","<p></p>","null","","","","","","","","","","","","","","","","","","","","","","",""
"","do_trial","188","1292664","0.0-104.0-0.0","""event"",""trial"",""time""
""fullscreenenter"",""0"",""1912""
""blur"",""46"",""316544""
""focus"",""46"",""316606""
","""event"",""trial"",""time""
""blur"",""46"",""316544""
","""event"",""trial"",""time""
""focus"",""46"",""316606""
","""event"",""trial"",""time""
""fullscreenenter"",""0"",""1912""
","
","312.80000019073486","","","","","","","","49","0,0,1","1","countryside","48","probe-140","0.48603221003304115","0.16483993539638564","0.5696789866738577","0","","","","","","","",""
