"success","trial_type","trial_index","time_elapsed","internal_node_id","interactions","blur_events","focus_events","fullscreenenter_events","fullscreenexit_events","rt","stimulus","key_press","subject_id","participant_id","age","gender","prompt","response","choice_outcomes","context_n","context_img_id","trial_n","probe_img_id","pR_red","pR_white","pR_black","outcome","contextArray_ind","validImageProbes","invalidImageProbes","pRew_Red","pRew_White","pRew_Black","availableForMemProbe","choice_blocks"
"true","fullscreen","0","5054","0.0-0.0","""event"",""trial"",""time""
""fullscreenenter"",""0"",""4076""
","
","
","""event"",""trial"",""time""
""fullscreenenter"",""0"",""4076""
","
","","","","","","","","","","","","","","","","","","","","","","","","","",""
"","pavlovia","1","5069","0.0-1.0","""event"",""trial"",""time""
""fullscreenenter"",""0"",""4076""
","
","
","""event"",""trial"",""time""
""fullscreenenter"",""0"",""4076""
","
","","","","","","","","","","","","","","","","","","","","","","","","","",""
"","instruc1","2","50343","0.0-2.0","""event"",""trial"",""time""
""fullscreenenter"",""0"",""4076""
","
","
","""event"",""trial"",""time""
""fullscreenenter"",""0"",""4076""
","
","null","run_exp/static/audio/clip_1_welcome.m4a","null","290","250","15","Female","<div class='center'><p>Welcome! This is the first part of the study. It will last ~30 minutes. In part 1 and part 2 of the study, you are the head captain of a pirate ship traveling around the world to different islands. You will play a few different games throughout these two parts. Here is an overview of them:</p><br><p>Part 1 (today)</p><p>1. Instructions, practice game, and quiz</p><p>2. Pick a pirate game on 6 different islands</p><br><p>Part 2 (tomorrow)</p><p>3. Pick a pirate game and memory game</p><p>4. Where did you see this ship? </p></div>","","","","","","","","","","","","","","","","","",""
"","html-keyboard-response","3","53248","0.0-3.0","""event"",""trial"",""time""
""fullscreenenter"",""0"",""4076""
","
","
","""event"",""trial"",""time""
""fullscreenenter"",""0"",""4076""
","
","2898.0999999940395","<div class='center'><p>Welcome! This is the first part of the study. It will last ~30 minutes. In part 1 and part 2 of the study, you are the head captain of a pirate ship traveling around the world to different islands. You will play a few different games throughout these two parts. Here is an overview of them:</p><br><p>Part 1 (today)</p><p>1. Instructions, practice game, and quiz</p><p>2. Pick a pirate game on 6 different islands</p><br><p>Part 2 (tomorrow)</p><p>3. Pick a pirate game and memory game</p><p>4. Where did you see this ship? </p><p><b>[Press the space bar to continue]</b></p></div>","32","","","","","","","","","","","","","","","","","","","","","","",""
"","instruc2","4","58792","0.0-4.0","""event"",""trial"",""time""
""fullscreenenter"",""0"",""4076""
","
","
","""event"",""trial"",""time""
""fullscreenenter"",""0"",""4076""
","
","null","run_exp/static/audio/clip_2_different_places.m4a","null","","","","","<div class='center'><p>Today, you’ll visit these 6 islands on your journey. You'll be able to see these islands from your ship.</p><p><img src='run_exp/static/images/contexts/all_contexts.png' height='500'></p></div>","","","","","","","","","","","","","","","","","",""
"","html-keyboard-response","5","61246","0.0-5.0","""event"",""trial"",""time""
""fullscreenenter"",""0"",""4076""
","
","
","""event"",""trial"",""time""
""fullscreenenter"",""0"",""4076""
","
","2447","<div class='center'><p>Today, you’ll visit these 6 islands on your journey. You'll be able to see these islands from your ship.</p><p><img src='run_exp/static/images/contexts/all_contexts.png' height='500'></p><p><b>[Press the space bar to continue]</b></p></div>","32","","","","","","","","","","","","","","","","","","","","","","",""
"","instruc3","6","71239","0.0-6.0","""event"",""trial"",""time""
""fullscreenenter"",""0"",""4076""
","
","
","""event"",""trial"",""time""
""fullscreenenter"",""0"",""4076""
","
","null","run_exp/static/audio/clip_3_goal_of_game_1.m4a","null","","","","","<div class='center'><p> The pirates on your ship will rob other ships as they leave the island.</p> These ships have just sold their goods to the islanders, so they will be filled with lots and lots of gold.</p><p><img src='run_exp/static/images/tutorial/ship_center.png' height='400'></p></div>","","","","","","","","","","","","","","","","","",""
"","html-keyboard-response","7","83364","0.0-7.0","""event"",""trial"",""time""
""fullscreenenter"",""0"",""4076""
","
","
","""event"",""trial"",""time""
""fullscreenenter"",""0"",""4076""
","
","12117","<div class='center'><p> The pirates on your ship will rob other ships as they leave the island.</p> These ships have just sold their goods to the islanders, so they will be filled with lots and lots of gold.</p><p><img src='run_exp/static/images/tutorial/ship_center.png' height='400'></p><p><b>[Press the space bar to continue]</b></p></div>","32","","","","","","","","","","","","","","","","","","","","","","",""
"","instruc4","8","111529","0.0-8.0","""event"",""trial"",""time""
""fullscreenenter"",""0"",""4076""
","
","
","""event"",""trial"",""time""
""fullscreenenter"",""0"",""4076""
","
","null","run_exp/static/audio/clip_4_goal_of_game_2.m4a","null","","","","","<div class='center'><p>As the head captain, you do not have to rob any ships yourself. Another pirate will be doing the robbing for you. First, you will choose a pirate to rob the next ship.</p><p><img src='run_exp/static/images/tutorial/pirates_all_crop.png' height='200'></p><p>Then, you'll see if the pirate successfully robbed the ship of their gold. If they were successful, then you'll get a stack of gold coins like this:</p><p><img src='run_exp/static/images/tutorial/reward.png' height='150'></p><p> If they were <b>not</b> successful, then you'll get no gold coins, and you'll see a big red x like this: </p><p><img src='run_exp/static/images/tutorial/reward_no.png' height='150'></p><p> How much bonus money you make is based on how many gold coins you collect.</p><div>","","","","","","","","","","","","","","","","","",""
"","html-keyboard-response","9","112493","0.0-9.0","""event"",""trial"",""time""
""fullscreenenter"",""0"",""4076""
","
","
","""event"",""trial"",""time""
""fullscreenenter"",""0"",""4076""
","
","955.0999999940395","<div class='center'><p>As the head captain, you do not have to rob any ships yourself. Another pirate will be doing the robbing for you. First, you will choose a pirate to rob the next ship.</p><p><img src='run_exp/static/images/tutorial/pirates_all_crop.png' height='200'></p><p>Then, you'll see if the pirate successfully robbed the ship of their gold. If they were successful, then you'll get a stack of gold coins like this:</p><p><img src='run_exp/static/images/tutorial/reward.png' height='150'></p><p> If they were <b>not</b> successful, then you'll get no gold coins, and you'll see a big red x like this: </p><p><img src='run_exp/static/images/tutorial/reward_no.png' height='150'></p><p> How much bonus money you make is based on how many gold coins you collect.</p<p><b>[Press the space bar to continue]</b></p></div>","32","","","","","","","","","","","","","","","","","","","","","","",""
"","instruc5","10","133811","0.0-10.0","""event"",""trial"",""time""
""fullscreenenter"",""0"",""4076""
","
","
","""event"",""trial"",""time""
""fullscreenenter"",""0"",""4076""
","
","21307.79999998212","run_exp/static/audio/clip_5_probabilistic.m4a","49","","","","","<div class='center'><p>Even the most skilled pirate can not rob EVERY ship.</p><p> Some ships will have very strong protections against pirate attacks.</p><p> Blue beard, here, is very, very good at robbing ships, but he won't be successful every time he tries to rob one.</p><p> You can press the <b>‘1’</b> key on the keyboard to choose him.</p><p> Try choosing him 10 times to see how often he succeeds at robbing a ship. </p><p><img src='run_exp/static/images/tutorial/blue.png' height='500'></p></div>","","","","","","","","","","","","","","","","","",""
"","html-keyboard-response","11","135319","0.0-11.0","""event"",""trial"",""time""
""fullscreenenter"",""0"",""4076""
","
","
","""event"",""trial"",""time""
""fullscreenenter"",""0"",""4076""
","
","null","<div class='center'><p><img src='run_exp/static/images/tutorial/blue_win.png' height='500'></p></div>","null","","","","","","","","","","","","","","","","","","","","","","",""
"","html-keyboard-response","12","136986","0.0-12.0","""event"",""trial"",""time""
""fullscreenenter"",""0"",""4076""
","
","
","""event"",""trial"",""time""
""fullscreenenter"",""0"",""4076""
","
","1663.300000011921","<div class='center'><img src='run_exp/static/images/tutorial/blue.png' height='500'></p></div>","49","","","","","","","","","","","","","","","","","","","","","","",""
"","html-keyboard-response","13","138490","0.0-13.0","""event"",""trial"",""time""
""fullscreenenter"",""0"",""4076""
","
","
","""event"",""trial"",""time""
""fullscreenenter"",""0"",""4076""
","
","null","<div class='center'><p><img src='run_exp/static/images/tutorial/blue_win.png' height='500'></p></div>","null","","","","","","","","","","","","","","","","","","","","","","",""
"","html-keyboard-response","14","139375","0.0-14.0","""event"",""trial"",""time""
""fullscreenenter"",""0"",""4076""
","
","
","""event"",""trial"",""time""
""fullscreenenter"",""0"",""4076""
","
","879.0999999940395","<div class='center'><img src='run_exp/static/images/tutorial/blue.png' height='500'></p></div>","49","","","","","","","","","","","","","","","","","","","","","","",""
"","html-keyboard-response","15","140879","0.0-15.0","""event"",""trial"",""time""
""fullscreenenter"",""0"",""4076""
","
","
","""event"",""trial"",""time""
""fullscreenenter"",""0"",""4076""
","
","null","<div class='center'><p><img src='run_exp/static/images/tutorial/blue_win.png' height='500'></p></div>","null","","","","","","","","","","","","","","","","","","","","","","",""
"","html-keyboard-response","16","141221","0.0-16.0","""event"",""trial"",""time""
""fullscreenenter"",""0"",""4076""
","
","
","""event"",""trial"",""time""
""fullscreenenter"",""0"",""4076""
","
","338.5","<div class='center'><img src='run_exp/static/images/tutorial/blue.png' height='500'></p></div>","49","","","","","","","","","","","","","","","","","","","","","","",""
"","html-keyboard-response","17","142727","0.0-17.0","""event"",""trial"",""time""
""fullscreenenter"",""0"",""4076""
","
","
","""event"",""trial"",""time""
""fullscreenenter"",""0"",""4076""
","
","null","<div class='center'><p><img src='run_exp/static/images/tutorial/blue_no_win.png' height='500'></p></div>","null","","","","","","","","","","","","","","","","","","","","","","",""
"","html-keyboard-response","18","143390","0.0-18.0","""event"",""trial"",""time""
""fullscreenenter"",""0"",""4076""
","
","
","""event"",""trial"",""time""
""fullscreenenter"",""0"",""4076""
","
","657.6000000238419","<div class='center'><img src='run_exp/static/images/tutorial/blue.png' height='500'></p></div>","49","","","","","","","","","","","","","","","","","","","","","","",""
"","html-keyboard-response","19","144894","0.0-19.0","""event"",""trial"",""time""
""fullscreenenter"",""0"",""4076""
","
","
","""event"",""trial"",""time""
""fullscreenenter"",""0"",""4076""
","
","null","<div class='center'><p><img src='run_exp/static/images/tutorial/blue_win.png' height='500'></p></div>","null","","","","","","","","","","","","","","","","","","","","","","",""
"","html-keyboard-response","20","145602","0.0-20.0","""event"",""trial"",""time""
""fullscreenenter"",""0"",""4076""
","
","
","""event"",""trial"",""time""
""fullscreenenter"",""0"",""4076""
","
","705.5999999940395","<div class='center'><img src='run_exp/static/images/tutorial/blue.png' height='500'></p></div>","49","","","","","","","","","","","","","","","","","","","","","","",""
"","html-keyboard-response","21","147106","0.0-21.0","""event"",""trial"",""time""
""fullscreenenter"",""0"",""4076""
","
","
","""event"",""trial"",""time""
""fullscreenenter"",""0"",""4076""
","
","null","<div class='center'><p><img src='run_exp/static/images/tutorial/blue_win.png' height='500'></p></div>","null","","","","","","","","","","","","","","","","","","","","","","",""
"","html-keyboard-response","22","147614","0.0-22.0","""event"",""trial"",""time""
""fullscreenenter"",""0"",""4076""
","
","
","""event"",""trial"",""time""
""fullscreenenter"",""0"",""4076""
","
","504.2999999821186","<div class='center'><img src='run_exp/static/images/tutorial/blue.png' height='500'></p></div>","49","","","","","","","","","","","","","","","","","","","","","","",""
"","html-keyboard-response","23","149119","0.0-23.0","""event"",""trial"",""time""
""fullscreenenter"",""0"",""4076""
","
","
","""event"",""trial"",""time""
""fullscreenenter"",""0"",""4076""
","
","null","<div class='center'><p><img src='run_exp/static/images/tutorial/blue_win.png' height='500'></p></div>","null","","","","","","","","","","","","","","","","","","","","","","",""
"","html-keyboard-response","24","149445","0.0-24.0","""event"",""trial"",""time""
""fullscreenenter"",""0"",""4076""
","
","
","""event"",""trial"",""time""
""fullscreenenter"",""0"",""4076""
","
","320","<div class='center'><img src='run_exp/static/images/tutorial/blue.png' height='500'></p></div>","49","","","","","","","","","","","","","","","","","","","","","","",""
"","html-keyboard-response","25","150950","0.0-25.0","""event"",""trial"",""time""
""fullscreenenter"",""0"",""4076""
","
","
","""event"",""trial"",""time""
""fullscreenenter"",""0"",""4076""
","
","null","<div class='center'><p><img src='run_exp/static/images/tutorial/blue_no_win.png' height='500'></p></div>","null","","","","","","","","","","","","","","","","","","","","","","",""
"","html-keyboard-response","26","151354","0.0-26.0","""event"",""trial"",""time""
""fullscreenenter"",""0"",""4076""
","
","
","""event"",""trial"",""time""
""fullscreenenter"",""0"",""4076""
","
","398.7999999821186","<div class='center'><img src='run_exp/static/images/tutorial/blue.png' height='500'></p></div>","49","","","","","","","","","","","","","","","","","","","","","","",""
"","html-keyboard-response","27","152860","0.0-27.0","""event"",""trial"",""time""
""fullscreenenter"",""0"",""4076""
","
","
","""event"",""trial"",""time""
""fullscreenenter"",""0"",""4076""
","
","null","<div class='center'><p><img src='run_exp/static/images/tutorial/blue_win.png' height='500'></p></div>","null","","","","","","","","","","","","","","","","","","","","","","",""
"","html-keyboard-response","28","153232","0.0-28.0","""event"",""trial"",""time""
""fullscreenenter"",""0"",""4076""
","
","
","""event"",""trial"",""time""
""fullscreenenter"",""0"",""4076""
","
","365.7999999821186","<div class='center'><img src='run_exp/static/images/tutorial/blue.png' height='500'></p></div>","49","","","","","","","","","","","","","","","","","","","","","","",""
"","html-keyboard-response","29","154739","0.0-29.0","""event"",""trial"",""time""
""fullscreenenter"",""0"",""4076""
","
","
","""event"",""trial"",""time""
""fullscreenenter"",""0"",""4076""
","
","null","<div class='center'><p><img src='run_exp/static/images/tutorial/blue_win.png' height='500'></p></div>","null","","","","","","","","","","","","","","","","","","","","","","",""
"","instruc6","30","160355","0.0-30.0","""event"",""trial"",""time""
""fullscreenenter"",""0"",""4076""
","
","
","""event"",""trial"",""time""
""fullscreenenter"",""0"",""4076""
","
","null","run_exp/static/audio/clip_6_blue_beard_outcome.m4a","null","","","","","<div class='center'><p> See, he succeeded in robbing the ships most of the time but not every time. </p></div>","","","","","","","","","","","","","","","","","",""
"","html-keyboard-response","31","162055","0.0-31.0","""event"",""trial"",""time""
""fullscreenenter"",""0"",""4076""
","
","
","""event"",""trial"",""time""
""fullscreenenter"",""0"",""4076""
","
","1695.699999988079","<div class='center'><p> See, he succeeded in robbing the ships most of the time but not every time. </p><p><b>[Press the space bar to continue]</b></p></div>","32","","","","","","","","","","","","","","","","","","","","","","",""
"","audio-keyboard-response","32","179251","0.0-32.0","""event"",""trial"",""time""
""fullscreenenter"",""0"",""4076""
","
","
","""event"",""trial"",""time""
""fullscreenenter"",""0"",""4076""
","
","17188.80000001192","run_exp/static/audio/clip_7_pick_pirate.m4a","50","","","","","","","","","","","","","","","","","","","","","","",""
"","audio-keyboard-response","33","184714","0.0-33.0-0.0","""event"",""trial"",""time""
""fullscreenenter"",""0"",""4076""
","
","
","""event"",""trial"",""time""
""fullscreenenter"",""0"",""4076""
","
","5451.700000017881","run_exp/static/audio/clip_8_chosen_pirate_win.m4a","32","","","","","","","","","","","","","","","","","","","","","","",""
"","audio-keyboard-response","34","187475","0.0-33.0-1.0","""event"",""trial"",""time""
""fullscreenenter"",""0"",""4076""
","
","
","""event"",""trial"",""time""
""fullscreenenter"",""0"",""4076""
","
","2750.800000011921","run_exp/static/audio/clip_9_pick_a_pirate_again.m4a","49","","","","","","","","","","","","","","","","","","","","","","",""
"","audio-keyboard-response","35","192522","0.0-34.0-0.0","""event"",""trial"",""time""
""fullscreenenter"",""0"",""4076""
","
","
","""event"",""trial"",""time""
""fullscreenenter"",""0"",""4076""
","
","5034.9000000059605","run_exp/static/audio/clip_10_chosen_pirate_loss.m4a","32","","","","","","","","","","","","","","","","","","","","","","",""
"","instruc9","36","198347","0.0-35.0-0.0","""event"",""trial"",""time""
""fullscreenenter"",""0"",""4076""
","
","
","""event"",""trial"",""time""
""fullscreenenter"",""0"",""4076""
","
","null","run_exp/static/audio/clip_11_time_out.m4a","null","","","","","<div class='center'><p>If you don’t make your choice fast enough, you’ll have to wait a few seconds before you can make another one. </p><p><img src='run_exp/static/images/miscellaneous/hurry_up.png' height='500'></p></div>","","","","","","","","","","","","","","","","","",""
"","html-keyboard-response","37","199217","0.0-35.0-1.0","""event"",""trial"",""time""
""fullscreenenter"",""0"",""4076""
","
","
","""event"",""trial"",""time""
""fullscreenenter"",""0"",""4076""
","
","862.0999999940395","<div class='center'><p>If you don’t make your choice fast enough, you’ll have to wait a few seconds before you can make another one. </p><p><img src='run_exp/static/images/miscellaneous/hurry_up.png' height='500'></p><p><b>[Press the space bar to continue]</b></p></div>","32","","","","","","","","","","","","","","","","","","","","","","",""
"","instruc10","38","238658","0.0-35.0-2.0","""event"",""trial"",""time""
""fullscreenenter"",""0"",""4076""
","
","
","""event"",""trial"",""time""
""fullscreenenter"",""0"",""4076""
","
","null","run_exp/static/audio/clip_12_probe.m4a","null","","","","","<div class='center'><p>Once you've chosen a pirate, you’ll be shown the ship they are robbing. You will never rob the same ship twice. Ships can be told apart from one another by the image on them. These are the goods that they sell. See, this ship has a travel mug on it. </p><p> You’ll have to remember which island you saw each ship on. You will win more gold coins and hence more bonus money if you remember correctly! To help you remember, you can imagine a story. For example, here, you could imagine a mug full of water in the desert. Or, as another example, if on the forest island, your pirate robbed a ship with an apple on it, you could imagine an apple falling from a tree in the forest. </p><p><img src='run_exp/static/images/tutorial/example_probe.png' height='500'></p></div>","","","","","","","","","","","","","","","","","",""
"","html-keyboard-response","39","273079","0.0-35.0-3.0","""event"",""trial"",""time""
""fullscreenenter"",""0"",""4076""
","
","
","""event"",""trial"",""time""
""fullscreenenter"",""0"",""4076""
","
","34412.90000000596","<div class='center'><p>Once you've chosen a pirate, you’ll be shown the ship they are robbing. You will never rob the same ship twice. Ships can be told apart from one another by the image on them. These are the goods that they sell. See, this ship has a travel mug on it. </p><p> You’ll have to remember which island you saw each ship on. You will win more gold coins and hence more bonus money if you remember correctly! To help you remember, you can imagine a story. For example, here, you could imagine a mug full of water in the desert. Or, as another example, if on the forest island, your pirate robbed a ship with an apple on it, you could imagine an apple falling from a tree in the forest. </p><p><img src='run_exp/static/images/tutorial/example_probe.png' height='500'></p><p><b>[Press the space bar to continue]</b></p></div>","32","","","","","","","","","","","","","","","","","","","","","","",""
"","instruc11","40","290349","0.0-35.0-4.0","""event"",""trial"",""time""
""fullscreenenter"",""0"",""4076""
","
","
","""event"",""trial"",""time""
""fullscreenenter"",""0"",""4076""
","
","null","run_exp/static/audio/clip_13_changepoint.m4a","null","","","","","<div class='center'><p>How successful a pirate is at robbing ships will depend on the island you’re on.</p><p> A pirate may have visited this island many times before and gained a lot of practice robbing ships there.</p><p>So, they’re more likely to be successful than a pirate who has never visited the island before.</p></div>","","","","","","","","","","","","","","","","","",""
"","html-keyboard-response","41","312036","0.0-35.0-5.0","""event"",""trial"",""time""
""fullscreenenter"",""0"",""4076""
","
","
","""event"",""trial"",""time""
""fullscreenenter"",""0"",""4076""
","
","21681.30000001192","<div class='center'><p>How successful a pirate is at robbing ships will depend on the island you’re on.</p><p> A pirate may have visited this island many times before and gained a lot of practice robbing ships there.</p><p>So, they’re more likely to be successful than a pirate who has never visited the island before.</p><p><b>[Press the space bar to continue]</b></p></div>","32","","","","","","","","","","","","","","","","","","","","","","",""
"","instruc12","42","353323","0.0-35.0-6.0","""event"",""trial"",""time""
""fullscreenenter"",""0"",""4076""
","
","
","""event"",""trial"",""time""
""fullscreenenter"",""0"",""4076""
","
","null","run_exp/static/audio/clip_14_drift.m4a","null","","","","","<div class='center'><p>How successful a pirate is at robbing ships can also change over the time spent on the island. </p><p> Ships may hear from islanders about the pirates coming and will improve their protections against the attack. This may make it harder to rob them.</p><p> Ships may also become lazy and weaken the strength of their protections. This may make it easier to rob them.</p><br><p>Things are always changing on the high seas! So, try your best to pay attention!</p><p><img src='run_exp/static/images/tutorial/contingency.png' height='500'></p></div>","","","","","","","","","","","","","","","","","",""
"","html-keyboard-response","43","381348","0.0-35.0-7.0","""event"",""trial"",""time""
""fullscreenenter"",""0"",""4076""
","
","
","""event"",""trial"",""time""
""fullscreenenter"",""0"",""4076""
","
","28015.70000001788","<div class='center'><p>How successful a pirate is at robbing ships can also change over the time spent on the island. </p><p> Ships may hear from islanders about the pirates coming and will improve their protections against the attack. This may make it harder to rob them.</p><p> Ships may also become lazy and weaken the strength of their protections. This may make it easier to rob them.</p><br><p>Things are always changing on the high seas! So, try your best to pay attention!</p><p><img src='run_exp/static/images/tutorial/contingency.png' height='500'></p><p><b>[Press the space bar to continue]</b></p></div>","32","","","","","","","","","","","","","","","","","","","","","","",""
"","instruc13","44","417004","0.0-35.0-8.0","""event"",""trial"",""time""
""fullscreenenter"",""0"",""4076""
","
","
","""event"",""trial"",""time""
""fullscreenenter"",""0"",""4076""
","
","null","run_exp/static/audio/clip_15_summary.m4a","null","","","","","<div class='center'><p>Let's go over the instructions quickly again. You have two important things to do: </p><b><p> 1. Pick the pirate who is the best at robbing ships on the current island. </p></b><b><p> 2. Remember on which island a ship was robbed.</p> </b><p>The amount of bonus money you can win depends on both.</p><p><br><p>Let’s try a practice game. The game will start by showing you the pirates. First, pick a pirate using the <b> 1, 2, 3 </b> keys on your keyboard. When you are shown a ship, try to remember which island you’re on by making up a story.</p><p>This is just a practice game, so you’re not playing for money. </p><p> Good luck! This game will be very difficult but try your best!</p></div>","","","","","","","","","","","","","","","","","",""
"","html-keyboard-response","45","418664","0.0-35.0-9.0","""event"",""trial"",""time""
""fullscreenenter"",""0"",""4076""
","
","
","""event"",""trial"",""time""
""fullscreenenter"",""0"",""4076""
","
","1653.7000000178814","<div class='center'><p>Let's go over the instructions quickly again. You have two important things to do: </p><b><p> 1. Pick the pirate who is the best at robbing ships on the current island. </p></b><b><p> 2. Remember on which island a ship was robbed.</p> </b><p>The amount of bonus money you can win depends on both.</p><p><br><p>Let’s try a practice game. The game will start by showing you the pirates. First, pick a pirate using the <b> 1, 2, 3 </b> keys on your keyboard. When you are shown a ship, try to remember which island you’re on by making up a story.</p><p>This is just a practice game, so you’re not playing for money. </p><p> Good luck! This game will be very difficult but try your best!</p><p><b>[Press the space bar to continue]</b></p></div>","32","","","","","","","","","","","","","","","","","","","","","","",""
"","do_welcome","46","422709","0.0-35.0-10.0","""event"",""trial"",""time""
""fullscreenenter"",""0"",""4076""
","
","
","""event"",""trial"",""time""
""fullscreenenter"",""0"",""4076""
","
","null","","","","","","","","null","","","","","","","","","","","","","","","","",""
"","do_trial","47","428674","0.0-35.0-11.0","""event"",""trial"",""time""
""fullscreenenter"",""0"",""4076""
","
","
","""event"",""trial"",""time""
""fullscreenenter"",""0"",""4076""
","
","842.7999999821186","","","","","","","","49","1,0,0","","","","","","","","","","","","","","","",""
"","html-keyboard-response","48","430424","0.0-36.0-0.0","""event"",""trial"",""time""
""fullscreenenter"",""0"",""4076""
","
","
","""event"",""trial"",""time""
""fullscreenenter"",""0"",""4076""
","
","null","<p></p>","null","","","","","","","","","","","","","","","","","","","","","","",""
"","do_trial","49","436696","0.0-36.0-1.0","""event"",""trial"",""time""
""fullscreenenter"",""0"",""4076""
","
","
","""event"",""trial"",""time""
""fullscreenenter"",""0"",""4076""
","
","1753.5","","","","","","","","50","1,1,0","","","","","","","","","","","","","","","",""
"","html-keyboard-response","50","437711","0.0-37.0-0.0","""event"",""trial"",""time""
""fullscreenenter"",""0"",""4076""
","
","
","""event"",""trial"",""time""
""fullscreenenter"",""0"",""4076""
","
","null","<p></p>","null","","","","","","","","","","","","","","","","","","","","","","",""
"","do_trial","51","443321","0.0-37.0-1.0","""event"",""trial"",""time""
""fullscreenenter"",""0"",""4076""
","
","
","""event"",""trial"",""time""
""fullscreenenter"",""0"",""4076""
","
","1088.7000000178814","","","","","","","","51","1,0,1","","","","","","","","","","","","","","","",""
"","html-keyboard-response","52","444330","0.0-38.0-0.0","""event"",""trial"",""time""
""fullscreenenter"",""0"",""4076""
","
","
","""event"",""trial"",""time""
""fullscreenenter"",""0"",""4076""
","
","null","<p></p>","null","","","","","","","","","","","","","","","","","","","","","","",""
"","do_trial","53","449904","0.0-38.0-1.0","""event"",""trial"",""time""
""fullscreenenter"",""0"",""4076""
","
","
","""event"",""trial"",""time""
""fullscreenenter"",""0"",""4076""
","
","1052.5999999940395","","","","","","","","50","0,1,0","","","","","","","","","","","","","","","",""
"","html-keyboard-response","54","450912","0.0-39.0-0.0","""event"",""trial"",""time""
""fullscreenenter"",""0"",""4076""
","
","
","""event"",""trial"",""time""
""fullscreenenter"",""0"",""4076""
","
","null","<p></p>","null","","","","","","","","","","","","","","","","","","","","","","",""
"","do_trial","55","456201","0.0-39.0-1.0","""event"",""trial"",""time""
""fullscreenenter"",""0"",""4076""
","
","
","""event"",""trial"",""time""
""fullscreenenter"",""0"",""4076""
","
","768","","","","","","","","49","1,0,0","","","","","","","","","","","","","","","",""
"","do_bye","56","457719","0.0-40.0-0.0","""event"",""trial"",""time""
""fullscreenenter"",""0"",""4076""
","
","
","""event"",""trial"",""time""
""fullscreenenter"",""0"",""4076""
","
","null","","","","","","","","null","","","","","","","","","","","","","","","","",""
"","do_travel","57","466732","0.0-40.0-1.0","""event"",""trial"",""time""
""fullscreenenter"",""0"",""4076""
","
","
","""event"",""trial"",""time""
""fullscreenenter"",""0"",""4076""
","
","null","","","","","","","","null","","","","","","","","","","","","","","","","",""
"","do_welcome","58","470750","0.0-40.0-2.0","""event"",""trial"",""time""
""fullscreenenter"",""0"",""4076""
","
","
","""event"",""trial"",""time""
""fullscreenenter"",""0"",""4076""
","
","null","","","","","","","","null","","","","","","","","","","","","","","","","",""
"","do_trial","59","476238","0.0-40.0-3.0","""event"",""trial"",""time""
""fullscreenenter"",""0"",""4076""
","
","
","""event"",""trial"",""time""
""fullscreenenter"",""0"",""4076""
","
","969.8000000119209","","","","","","","","50","1,0,0","","","","","","","","","","","","","","","",""
"","html-keyboard-response","60","477242","0.0-41.0-0.0","""event"",""trial"",""time""
""fullscreenenter"",""0"",""4076""
","
","
","""event"",""trial"",""time""
""fullscreenenter"",""0"",""4076""
","
","null","<p></p>","null","","","","","","","","","","","","","","","","","","","","","","",""
"","do_trial","61","482663","0.0-41.0-1.0","""event"",""trial"",""time""
""fullscreenenter"",""0"",""4076""
","
","
","""event"",""trial"",""time""
""fullscreenenter"",""0"",""4076""
","
","899.7999999821186","","","","","","","","51","1,0,1","","","","","","","","","","","","","","","",""
"","html-keyboard-response","62","483672","0.0-42.0-0.0","""event"",""trial"",""time""
""fullscreenenter"",""0"",""4076""
","
","
","""event"",""trial"",""time""
""fullscreenenter"",""0"",""4076""
","
","null","<p></p>","null","","","","","","","","","","","","","","","","","","","","","","",""
"","do_trial","63","488694","0.0-42.0-1.0","""event"",""trial"",""time""
""fullscreenenter"",""0"",""4076""
","
","
","""event"",""trial"",""time""
""fullscreenenter"",""0"",""4076""
","
","503.39999997615814","","","","","","","","49","1,1,0","","","","","","","","","","","","","","","",""
"","html-keyboard-response","64","489700","0.0-43.0-0.0","""event"",""trial"",""time""
""fullscreenenter"",""0"",""4076""
","
","
","""event"",""trial"",""time""
""fullscreenenter"",""0"",""4076""
","
","null","<p></p>","null","","","","","","","","","","","","","","","","","","","","","","",""
"","do_trial","65","494999","0.0-43.0-1.0","""event"",""trial"",""time""
""fullscreenenter"",""0"",""4076""
","
","
","""event"",""trial"",""time""
""fullscreenenter"",""0"",""4076""
","
","777.6999999880791","","","","","","","","50","0,0,1","","","","","","","","","","","","","","","",""
"","html-keyboard-response","66","496007","0.0-44.0-0.0","""event"",""trial"",""time""
""fullscreenenter"",""0"",""4076""
","
","
","""event"",""trial"",""time""
""fullscreenenter"",""0"",""4076""
","
","null","<p></p>","null","","","","","","","","","","","","","","","","","","","","","","",""
"","do_trial","67","501528","0.0-44.0-1.0","""event"",""trial"",""time""
""fullscreenenter"",""0"",""4076""
","
","
","""event"",""trial"",""time""
""fullscreenenter"",""0"",""4076""
","
","1000.1999999880791","","","","","","","","51","1,0,1","","","","","","","","","","","","","","","",""
"","html-keyboard-response","68","511189","0.0-45.0-0.0","""event"",""trial"",""time""
""fullscreenenter"",""0"",""4076""
","
","
","""event"",""trial"",""time""
""fullscreenenter"",""0"",""4076""
","
","9651.09999999404","<div class='center'><p><img src='run_exp/static/images/tutorial/prac_best_pirate.png'  height='500'></p></div>","49","","","","","","","","","","","","","","","","","","","","","","",""
"","html-keyboard-response","69","515875","0.0-46.0-0.0","""event"",""trial"",""time""
""fullscreenenter"",""0"",""4076""
","
","
","""event"",""trial"",""time""
""fullscreenenter"",""0"",""4076""
","
","4677.699999988079","<div class='center'><p>That's correct! Red beard was the best.</p><p><b>[Press the space bar to continue]</b></p></div>","32","","","","","","","","","","","","","","","","","","","","","","",""
"","html-keyboard-response","70","522242","0.0-46.0-1.0","""event"",""trial"",""time""
""fullscreenenter"",""0"",""4076""
","
","
","""event"",""trial"",""time""
""fullscreenenter"",""0"",""4076""
","
","6362.300000011921","<div class='center'><p><img src='run_exp/static/images/tutorial/prac_source.png'  height='500'></p></div>","50","","","","","","","","","","","","","","","","","","","","","","",""
"","html-keyboard-response","71","525211","0.0-47.0-0.0","""event"",""trial"",""time""
""fullscreenenter"",""0"",""4076""
","
","
","""event"",""trial"",""time""
""fullscreenenter"",""0"",""4076""
","
","2962.9000000059605","<div class='center'><p>That's correct! You saw this ship on the cavern island.</p><p><b>[Press the space bar to continue]</b></p></div>","32","","","","","","","","","","","","","","","","","","","","","","",""
"","quiz_beginning","72","537085","0.0-47.0-1.0","""event"",""trial"",""time""
""fullscreenenter"",""0"",""4076""
","
","
","""event"",""trial"",""time""
""fullscreenenter"",""0"",""4076""
","
","null","run_exp/static/audio/clip_16_quiz_intro.m4a","null","","","","","<div class='center'><p>Good job on the practice game! Now, you will be asked some true or false questions to make sure you really understand the rules of the game.</p><p> Press <b>'1'</b> on the keyboard for true and press <b>'2'</b> for false.</p></div>","","","","","","","","","","","","","","","","","",""
"","audio-keyboard-response","73","542535","0.0-47.0-2.0","""event"",""trial"",""time""
""fullscreenenter"",""0"",""4076""
","
","
","""event"",""trial"",""time""
""fullscreenenter"",""0"",""4076""
","
","5445","run_exp/static/audio/clip_17_q1.m4a","49","","","","","","","","","","","","","","","","","","","","","","",""
"","correct","74","545259","0.0-48.0-0.0","""event"",""trial"",""time""
""fullscreenenter"",""0"",""4076""
","
","
","""event"",""trial"",""time""
""fullscreenenter"",""0"",""4076""
","
","null","run_exp/static/audio/clip_18_correct.m4a","null","","","","","<div class='center'><p>That's correct!</p></div>","","","","","","","","","","","","","","","","","",""
"","html-keyboard-response","75","547012","0.0-48.0-1.0","""event"",""trial"",""time""
""fullscreenenter"",""0"",""4076""
","
","
","""event"",""trial"",""time""
""fullscreenenter"",""0"",""4076""
","
","1746.699999988079","<div class='center'><p>That's correct!</p><p><b>[Press the space bar to continue]</b></p></div>","32","","","","","","","","","","","","","","","","","","","","","","",""
"","audio-keyboard-response","76","555143","0.0-48.0-2.0","""event"",""trial"",""time""
""fullscreenenter"",""0"",""4076""
","
","
","""event"",""trial"",""time""
""fullscreenenter"",""0"",""4076""
","
","8125.5","run_exp/static/audio/clip_20_q2.m4a","50","","","","","","","","","","","","","","","","","","","","","","",""
"","correct","77","557891","0.0-49.0-0.0","""event"",""trial"",""time""
""fullscreenenter"",""0"",""4076""
","
","
","""event"",""trial"",""time""
""fullscreenenter"",""0"",""4076""
","
","null","run_exp/static/audio/clip_18_correct.m4a","null","","","","","<div class='center'><p>That's correct!</p></div>","","","","","","","","","","","","","","","","","",""
"","html-keyboard-response","78","558716","0.0-49.0-1.0","""event"",""trial"",""time""
""fullscreenenter"",""0"",""4076""
","
","
","""event"",""trial"",""time""
""fullscreenenter"",""0"",""4076""
","
","820.4000000059605","<div class='center'><p>That's correct!</p><p><b>[Press the space bar to continue]</b></p></div>","32","","","","","","","","","","","","","","","","","","","","","","",""
"","audio-keyboard-response","79","565465","0.0-49.0-2.0","""event"",""trial"",""time""
""fullscreenenter"",""0"",""4076""
","
","
","""event"",""trial"",""time""
""fullscreenenter"",""0"",""4076""
","
","6739.799999982119","run_exp/static/audio/clip_22_q3.m4a","50","","","","","","","","","","","","","","","","","","","","","","",""
"","correct","80","568203","0.0-50.0-0.0","""event"",""trial"",""time""
""fullscreenenter"",""0"",""4076""
","
","
","""event"",""trial"",""time""
""fullscreenenter"",""0"",""4076""
","
","null","run_exp/static/audio/clip_18_correct.m4a","null","","","","","<div class='center'><p>That's correct!</p></div>","","","","","","","","","","","","","","","","","",""
"","html-keyboard-response","81","569511","0.0-50.0-1.0","""event"",""trial"",""time""
""fullscreenenter"",""0"",""4076""
","
","
","""event"",""trial"",""time""
""fullscreenenter"",""0"",""4076""
","
","1305.4000000059605","<div class='center'><p>That's correct!</p><p><b>[Press the space bar to continue]</b></p></div>","32","","","","","","","","","","","","","","","","","","","","","","",""
"","audio-keyboard-response","82","575434","0.0-50.0-2.0","""event"",""trial"",""time""
""fullscreenenter"",""0"",""4076""
","
","
","""event"",""trial"",""time""
""fullscreenenter"",""0"",""4076""
","
","5920.0999999940395","run_exp/static/audio/clip_24_q4.m4a","49","","","","","","","","","","","","","","","","","","","","","","",""
"","correct","83","578329","0.0-51.0-0.0","""event"",""trial"",""time""
""fullscreenenter"",""0"",""4076""
","
","
","""event"",""trial"",""time""
""fullscreenenter"",""0"",""4076""
","
","null","run_exp/static/audio/clip_18_correct.m4a","null","","","","","<div class='center'><p>That's correct!</p></div>","","","","","","","","","","","","","","","","","",""
"","html-keyboard-response","84","580171","0.0-51.0-1.0","""event"",""trial"",""time""
""fullscreenenter"",""0"",""4076""
","
","
","""event"",""trial"",""time""
""fullscreenenter"",""0"",""4076""
","
","1837.7000000178814","<div class='center'><p>That's correct!</p><p><b>[Press the space bar to continue]</b></p></div>","32","","","","","","","","","","","","","","","","","","","","","","",""
"","q_all_corr","85","589007","0.0-52.0-0.0","""event"",""trial"",""time""
""fullscreenenter"",""0"",""4076""
","
","
","""event"",""trial"",""time""
""fullscreenenter"",""0"",""4076""
","
","null","run_exp/static/audio/clip_27_quiz_all_correct.m4a","null","","","","","<div class='center'><p>Good job! You’re now ready to move on to the real game! Remember this game will be difficult but don't get discouraged and try your best!</p></div>","","","","","","","","","","","","","","","","","",""
"","html-keyboard-response","86","590281","0.0-52.0-1.0","""event"",""trial"",""time""
""fullscreenenter"",""0"",""4076""
","
","
","""event"",""trial"",""time""
""fullscreenenter"",""0"",""4076""
","
","1266.7999999821186","<div class='center'><p>Good job! You’re now ready to move on to the real game! Remember this game will be difficult but don't get discouraged and try your best!</p><p><b>[Press the space bar to continue]</b></p></div>","32","","","","","","","","","","","","","","","","","","","","","","",""
"","do_welcome","87","594301","0.0-53.0-0.0","""event"",""trial"",""time""
""fullscreenenter"",""0"",""4076""
","
","
","""event"",""trial"",""time""
""fullscreenenter"",""0"",""4076""
","
","null","","","","","","","","null","","","","","","","","","","","","","","","","",""
"","do_trial","88","599852","0.0-54.0-0.0","""event"",""trial"",""time""
""fullscreenenter"",""0"",""4076""
","
","
","""event"",""trial"",""time""
""fullscreenenter"",""0"",""4076""
","
","935.8000000119209","","","","","","","","49","1,0,0","0","mountain","0","probe-132","0.6","0.3","0.1","1","","","","","","","",""
"","html-keyboard-response","89","600858","0.0-54.0-1.0","""event"",""trial"",""time""
""fullscreenenter"",""0"",""4076""
","
","
","""event"",""trial"",""time""
""fullscreenenter"",""0"",""4076""
","
","null","<p></p>","null","","","","","","","","","","","","","","","","","","","","","","",""
"","do_trial","90","606820","0.0-55.0-0.0","""event"",""trial"",""time""
""fullscreenenter"",""0"",""4076""
","
","
","""event"",""trial"",""time""
""fullscreenenter"",""0"",""4076""
","
","1349.300000011921","","","","","","","","50","0,0,0","0","mountain","1","probe-155","0.593257565376786","0.2912982320478625","0.15089281821455272","0","","","","","","","",""
"","html-keyboard-response","91","607829","0.0-55.0-1.0","""event"",""trial"",""time""
""fullscreenenter"",""0"",""4076""
","
","
","""event"",""trial"",""time""
""fullscreenenter"",""0"",""4076""
","
","null","<p></p>","null","","","","","","","","","","","","","","","","","","","","","","",""
"","do_trial","92","612959","0.0-56.0-0.0","""event"",""trial"",""time""
""fullscreenenter"",""0"",""4076""
","
","
","""event"",""trial"",""time""
""fullscreenenter"",""0"",""4076""
","
","515.8999999761581","","","","","","","","49","0,0,0","0","mountain","2","probe-100","0.6016199703347294","0.2188503591432056","0.16773268689958676","0","","","","","","","",""
"","html-keyboard-response","93","613971","0.0-56.0-1.0","""event"",""trial"",""time""
""fullscreenenter"",""0"",""4076""
","
","
","""event"",""trial"",""time""
""fullscreenenter"",""0"",""4076""
","
","null","<p></p>","null","","","","","","","","","","","","","","","","","","","","","","",""
"","do_trial","94","619451","0.0-57.0-0.0","""event"",""trial"",""time""
""fullscreenenter"",""0"",""4076""
","
","
","""event"",""trial"",""time""
""fullscreenenter"",""0"",""4076""
","
","868.2000000178814","","","","","","","","51","1,0,0","0","mountain","3","probe-16","0.6244417425627008","0.3749999472361061","0.06818017369400416","0","","","","","","","",""
"","html-keyboard-response","95","620456","0.0-57.0-1.0","""event"",""trial"",""time""
""fullscreenenter"",""0"",""4076""
","
","
","""event"",""trial"",""time""
""fullscreenenter"",""0"",""4076""
","
","null","<p></p>","null","","","","","","","","","","","","","","","","","","","","","","",""
"","do_trial","96","625353","0.0-58.0-0.0","""event"",""trial"",""time""
""fullscreenenter"",""0"",""4076""
","
","
","""event"",""trial"",""time""
""fullscreenenter"",""0"",""4076""
","
","274.7000000178814","","","","","","","","50","1,0,0","0","mountain","4","probe-27","0.5880761980179918","0.47619185231077127","0.05680969497862462","0","","","","","","","",""
"","html-keyboard-response","97","626359","0.0-58.0-1.0","""event"",""trial"",""time""
""fullscreenenter"",""0"",""4076""
","
","
","""event"",""trial"",""time""
""fullscreenenter"",""0"",""4076""
","
","null","<p></p>","null","","","","","","","","","","","","","","","","","","","","","","",""
"","do_trial","98","631317","0.0-59.0-0.0","""event"",""trial"",""time""
""fullscreenenter"",""0"",""4076""
","
","
","""event"",""trial"",""time""
""fullscreenenter"",""0"",""4076""
","
","342","","","","","","","","49","1,1,0","0","mountain","5","probe-129","0.505327194049615","0.34262565225825264","0.11558034026640084","1","","","","","","","",""
"","html-keyboard-response","99","632324","0.0-59.0-1.0","""event"",""trial"",""time""
""fullscreenenter"",""0"",""4076""
","
","
","""event"",""trial"",""time""
""fullscreenenter"",""0"",""4076""
","
","null","<p></p>","null","","","","","","","","","","","","","","","","","","","","","","",""
"","do_trial","100","637338","0.0-60.0-0.0","""event"",""trial"",""time""
""fullscreenenter"",""0"",""4076""
","
","
","""event"",""trial"",""time""
""fullscreenenter"",""0"",""4076""
","
","403","","","","","","","","49","0,1,0","0","mountain","6","probe-186","0.48712447389906893","0.25474136091353883","0.09639591302958915","0","","","","","","","",""
"","html-keyboard-response","101","638346","0.0-60.0-1.0","""event"",""trial"",""time""
""fullscreenenter"",""0"",""4076""
","
","
","""event"",""trial"",""time""
""fullscreenenter"",""0"",""4076""
","
","null","<p></p>","null","","","","","","","","","","","","","","","","","","","","","","",""
"","do_trial","102","644171","0.0-61.0-0.0","""event"",""trial"",""time""
""fullscreenenter"",""0"",""4076""
","
","
","""event"",""trial"",""time""
""fullscreenenter"",""0"",""4076""
","
","1211.199999988079","","","","","","","","51","1,0,0","0","mountain","7","probe-202","0.7114018947393308","0.4380271482079185","0.052237925349394296","0","","","","","","","",""
"","html-keyboard-response","103","645179","0.0-61.0-1.0","""event"",""trial"",""time""
""fullscreenenter"",""0"",""4076""
","
","
","""event"",""trial"",""time""
""fullscreenenter"",""0"",""4076""
","
","null","<p></p>","null","","","","","","","","","","","","","","","","","","","","","","",""
"","do_trial","104","650413","0.0-62.0-0.0","""event"",""trial"",""time""
""fullscreenenter"",""0"",""4076""
","
","
","""event"",""trial"",""time""
""fullscreenenter"",""0"",""4076""
","
","619.5999999940395","","","","","","","","50","1,0,0","0","mountain","8","probe-75","0.7576065307921193","0.4051363294330383","0.07012521944167628","0","","","","","","","",""
"","html-keyboard-response","105","651421","0.0-62.0-1.0","""event"",""trial"",""time""
""fullscreenenter"",""0"",""4076""
","
","
","""event"",""trial"",""time""
""fullscreenenter"",""0"",""4076""
","
","null","<p></p>","null","","","","","","","","","","","","","","","","","","","","","","",""
"","do_trial","106","656436","0.0-63.0-0.0","""event"",""trial"",""time""
""fullscreenenter"",""0"",""4076""
","
","
","""event"",""trial"",""time""
""fullscreenenter"",""0"",""4076""
","
","395.30000001192093","","","","","","","","49","1,0,0","0","mountain","9","probe-153","0.8109530904219621","0.3369610424683208","0.1039452504999476","1","","","","","","","",""
"","html-keyboard-response","107","657443","0.0-63.0-1.0","""event"",""trial"",""time""
""fullscreenenter"",""0"",""4076""
","
","
","""event"",""trial"",""time""
""fullscreenenter"",""0"",""4076""
","
","null","<p></p>","null","","","","","","","","","","","","","","","","","","","","","","",""
"","do_trial","108","664850","0.0-64.0-0.0","""event"",""trial"",""time""
""fullscreenenter"",""0"",""4076""
","
","
","""event"",""trial"",""time""
""fullscreenenter"",""0"",""4076""
","
","2796.699999988079","","","","","","","","49","1,0,1","0","mountain","10","probe-134","0.8572329434135785","0.34003621775606824","0.1992133823861048","1","","","","","","","",""
"","html-keyboard-response","109","665854","0.0-64.0-1.0","""event"",""trial"",""time""
""fullscreenenter"",""0"",""4076""
","
","
","""event"",""trial"",""time""
""fullscreenenter"",""0"",""4076""
","
","null","<p></p>","null","","","","","","","","","","","","","","","","","","","","","","",""
"","do_trial","110","671433","0.0-65.0-0.0","""event"",""trial"",""time""
""fullscreenenter"",""0"",""4076""
","
","
","""event"",""trial"",""time""
""fullscreenenter"",""0"",""4076""
","
","957.3000000119209","","","","","","","","50","1,1,0","0","mountain","11","probe-198","0.626789360654379","0.4539959507738899","0.06970872402441373","1","","","","","","","",""
"","html-keyboard-response","111","672440","0.0-65.0-1.0","""event"",""trial"",""time""
""fullscreenenter"",""0"",""4076""
","
","
","""event"",""trial"",""time""
""fullscreenenter"",""0"",""4076""
","
","null","<p></p>","null","","","","","","","","","","","","","","","","","","","","","","",""
"","do_trial","112","677550","0.0-66.0-0.0","""event"",""trial"",""time""
""fullscreenenter"",""0"",""4076""
","
","
","""event"",""trial"",""time""
""fullscreenenter"",""0"",""4076""
","
","497.19999998807907","","","","","","","","49","0,0,0","0","mountain","12","probe-208","0.6248867054850371","0.32452374260973577","0.05602112385974316","0","","","","","","","",""
"","html-keyboard-response","113","678557","0.0-66.0-1.0","""event"",""trial"",""time""
""fullscreenenter"",""0"",""4076""
","
","
","""event"",""trial"",""time""
""fullscreenenter"",""0"",""4076""
","
","null","<p></p>","null","","","","","","","","","","","","","","","","","","","","","","",""
"","do_trial","114","683610","0.0-67.0-0.0","""event"",""trial"",""time""
""fullscreenenter"",""0"",""4076""
","
","
","""event"",""trial"",""time""
""fullscreenenter"",""0"",""4076""
","
","441.90000000596046","","","","","","","","49","1,1,0","0","mountain","13","probe-41","0.52365710652099","0.19447906677197288","0.19837547331909336","1","","","","","","","",""
"","html-keyboard-response","115","684617","0.0-67.0-1.0","""event"",""trial"",""time""
""fullscreenenter"",""0"",""4076""
","
","
","""event"",""trial"",""time""
""fullscreenenter"",""0"",""4076""
","
","null","<p></p>","null","","","","","","","","","","","","","","","","","","","","","","",""
"","do_trial","116","689800","0.0-68.0-0.0","""event"",""trial"",""time""
""fullscreenenter"",""0"",""4076""
","
","
","""event"",""trial"",""time""
""fullscreenenter"",""0"",""4076""
","
","566.9000000059605","","","","","","","","50","1,0,0","0","mountain","14","probe-120","0.4590195420728887","0.20978208700886847","0.12976511515703207","0","","","","","","","",""
"","html-keyboard-response","117","690807","0.0-68.0-1.0","""event"",""trial"",""time""
""fullscreenenter"",""0"",""4076""
","
","
","""event"",""trial"",""time""
""fullscreenenter"",""0"",""4076""
","
","null","<p></p>","null","","","","","","","","","","","","","","","","","","","","","","",""
"","do_trial","118","695983","0.0-69.0-0.0","""event"",""trial"",""time""
""fullscreenenter"",""0"",""4076""
","
","
","""event"",""trial"",""time""
""fullscreenenter"",""0"",""4076""
","
","561.8000000119209","","","","","","","","51","1,0,0","0","mountain","15","probe-162","0.6383170739529649","0.2524149594855484","0.18375637082321997","0","","","","","","","",""
"","html-keyboard-response","119","696987","0.0-69.0-1.0","""event"",""trial"",""time""
""fullscreenenter"",""0"",""4076""
","
","
","""event"",""trial"",""time""
""fullscreenenter"",""0"",""4076""
","
","null","<p></p>","null","","","","","","","","","","","","","","","","","","","","","","",""
"","do_trial","120","701974","0.0-70.0-0.0","""event"",""trial"",""time""
""fullscreenenter"",""0"",""4076""
","
","
","""event"",""trial"",""time""
""fullscreenenter"",""0"",""4076""
","
","367.30000001192093","","","","","","","","49","0,1,0","0","mountain","16","probe-83","0.6188051447560503","0.34074968611487744","0.15391538739825023","0","","","","","","","",""
"","html-keyboard-response","121","702980","0.0-70.0-1.0","""event"",""trial"",""time""
""fullscreenenter"",""0"",""4076""
","
","
","""event"",""trial"",""time""
""fullscreenenter"",""0"",""4076""
","
","null","<p></p>","null","","","","","","","","","","","","","","","","","","","","","","",""
"","do_trial","122","708067","0.0-71.0-0.0","""event"",""trial"",""time""
""fullscreenenter"",""0"",""4076""
","
","
","""event"",""trial"",""time""
""fullscreenenter"",""0"",""4076""
","
","462.30000001192093","","","","","","","","50","0,0,0","0","mountain","17","probe-118","0.6848784947811858","0.2928097319624083","0.19004818311061922","0","","","","","","","",""
"","html-keyboard-response","123","709073","0.0-71.0-1.0","""event"",""trial"",""time""
""fullscreenenter"",""0"",""4076""
","
","
","""event"",""trial"",""time""
""fullscreenenter"",""0"",""4076""
","
","null","<p></p>","null","","","","","","","","","","","","","","","","","","","","","","",""
"","do_trial","124","714196","0.0-72.0-0.0","""event"",""trial"",""time""
""fullscreenenter"",""0"",""4076""
","
","
","""event"",""trial"",""time""
""fullscreenenter"",""0"",""4076""
","
","516.6999999880791","","","","","","","","49","1,1,1","0","mountain","18","probe-195","0.7998114692726912","0.39986050679731555","0.18669820141411142","1","","","","","","","",""
"","html-keyboard-response","125","715202","0.0-72.0-1.0","""event"",""trial"",""time""
""fullscreenenter"",""0"",""4076""
","
","
","""event"",""trial"",""time""
""fullscreenenter"",""0"",""4076""
","
","null","<p></p>","null","","","","","","","","","","","","","","","","","","","","","","",""
"","do_trial","126","720353","0.0-73.0-0.0","""event"",""trial"",""time""
""fullscreenenter"",""0"",""4076""
","
","
","""event"",""trial"",""time""
""fullscreenenter"",""0"",""4076""
","
","538.5999999940395","","","","","","","","51","1,0,1","0","mountain","19","probe-74","0.7297238536292112","0.31915015458617385","0.15531165272855071","1","","","","","","","",""
"","html-keyboard-response","127","721361","0.0-73.0-1.0","""event"",""trial"",""time""
""fullscreenenter"",""0"",""4076""
","
","
","""event"",""trial"",""time""
""fullscreenenter"",""0"",""4076""
","
","null","<p></p>","null","","","","","","","","","","","","","","","","","","","","","","",""
"","do_trial","128","726403","0.0-74.0-0.0","""event"",""trial"",""time""
""fullscreenenter"",""0"",""4076""
","
","
","""event"",""trial"",""time""
""fullscreenenter"",""0"",""4076""
","
","421.80000001192093","","","","","","","","49","1,0,0","0","mountain","20","probe-133","0.7461180678574921","0.28095647267893364","0.24358500855815948","1","","","","","","","",""
"","html-keyboard-response","129","727410","0.0-74.0-1.0","""event"",""trial"",""time""
""fullscreenenter"",""0"",""4076""
","
","
","""event"",""trial"",""time""
""fullscreenenter"",""0"",""4076""
","
","null","<p></p>","null","","","","","","","","","","","","","","","","","","","","","","",""
"","do_trial","130","732509","0.0-75.0-0.0","""event"",""trial"",""time""
""fullscreenenter"",""0"",""4076""
","
","
","""event"",""trial"",""time""
""fullscreenenter"",""0"",""4076""
","
","469.39999997615814","","","","","","","","51","0,1,0","0","mountain","21","probe-166","0.7629465340947366","0.2603497256524117","0.08494446340816604","0","","","","","","","",""
"","html-keyboard-response","131","733516","0.0-75.0-1.0","""event"",""trial"",""time""
""fullscreenenter"",""0"",""4076""
","
","
","""event"",""trial"",""time""
""fullscreenenter"",""0"",""4076""
","
","null","<p></p>","null","","","","","","","","","","","","","","","","","","","","","","",""
"","do_trial","132","738429","0.0-76.0-0.0","""event"",""trial"",""time""
""fullscreenenter"",""0"",""4076""
","
","
","""event"",""trial"",""time""
""fullscreenenter"",""0"",""4076""
","
","299.5","","","","","","","","50","1,0,0","0","mountain","22","probe-24","0.7275005968834153","0.3981295581391675","0.21203540874896645","0","","","","","","","",""
"","html-keyboard-response","133","739436","0.0-76.0-1.0","""event"",""trial"",""time""
""fullscreenenter"",""0"",""4076""
","
","
","""event"",""trial"",""time""
""fullscreenenter"",""0"",""4076""
","
","null","<p></p>","null","","","","","","","","","","","","","","","","","","","","","","",""
"","do_trial","134","744382","0.0-77.0-0.0","""event"",""trial"",""time""
""fullscreenenter"",""0"",""4076""
","
","
","""event"",""trial"",""time""
""fullscreenenter"",""0"",""4076""
","
","329.40000000596046","","","","","","","","49","1,1,1","0","mountain","23","probe-51","0.6687070443547889","0.4281806407563442","0.13835183534479106","1","","","","","","","",""
"","html-keyboard-response","135","745389","0.0-77.0-1.0","""event"",""trial"",""time""
""fullscreenenter"",""0"",""4076""
","
","
","""event"",""trial"",""time""
""fullscreenenter"",""0"",""4076""
","
","null","<p></p>","null","","","","","","","","","","","","","","","","","","","","","","",""
"","do_trial","136","750522","0.0-78.0-0.0","""event"",""trial"",""time""
""fullscreenenter"",""0"",""4076""
","
","
","""event"",""trial"",""time""
""fullscreenenter"",""0"",""4076""
","
","520.4000000059605","","","","","","","","49","1,1,0","0","mountain","24","probe-67","0.6270024230569066","0.3728205497220204","0.14072932844307492","1","","","","","","","",""
"","html-keyboard-response","137","751529","0.0-78.0-1.0","""event"",""trial"",""time""
""fullscreenenter"",""0"",""4076""
","
","
","""event"",""trial"",""time""
""fullscreenenter"",""0"",""4076""
","
","null","<p></p>","null","","","","","","","","","","","","","","","","","","","","","","",""
"","do_trial","138","756666","0.0-79.0-0.0","""event"",""trial"",""time""
""fullscreenenter"",""0"",""4076""
","
","
","""event"",""trial"",""time""
""fullscreenenter"",""0"",""4076""
","
","526.0999999940395","","","","","","","","51","1,1,0","0","mountain","25","probe-140","0.7407647931349578","0.28506264603745446","0.06039431613098041","0","","","","","","","",""
"","html-keyboard-response","139","757672","0.0-79.0-1.0","""event"",""trial"",""time""
""fullscreenenter"",""0"",""4076""
","
","
","""event"",""trial"",""time""
""fullscreenenter"",""0"",""4076""
","
","null","<p></p>","null","","","","","","","","","","","","","","","","","","","","","","",""
"","do_trial","140","762682","0.0-80.0-0.0","""event"",""trial"",""time""
""fullscreenenter"",""0"",""4076""
","
","
","""event"",""trial"",""time""
""fullscreenenter"",""0"",""4076""
","
","386.09999999403954","","","","","","","","50","1,0,0","0","mountain","26","probe-63","0.6570778480678909","0.19407339968321424","0.23910174745904236","0","","","","","","","",""
"","html-keyboard-response","141","763688","0.0-80.0-1.0","""event"",""trial"",""time""
""fullscreenenter"",""0"",""4076""
","
","
","""event"",""trial"",""time""
""fullscreenenter"",""0"",""4076""
","
","null","<p></p>","null","","","","","","","","","","","","","","","","","","","","","","",""
"","do_trial","142","768989","0.0-81.0-0.0","""event"",""trial"",""time""
""fullscreenenter"",""0"",""4076""
","
","
","""event"",""trial"",""time""
""fullscreenenter"",""0"",""4076""
","
","688.9000000059605","","","","","","","","49","0,0,0","0","mountain","27","probe-79","0.589095003060053","0.1892560883567134","0.12440776634541369","0","","","","","","","",""
"","html-keyboard-response","143","769996","0.0-81.0-1.0","""event"",""trial"",""time""
""fullscreenenter"",""0"",""4076""
","
","
","""event"",""trial"",""time""
""fullscreenenter"",""0"",""4076""
","
","null","<p></p>","null","","","","","","","","","","","","","","","","","","","","","","",""
"","do_trial","144","775357","0.0-82.0-0.0","""event"",""trial"",""time""
""fullscreenenter"",""0"",""4076""
","
","
","""event"",""trial"",""time""
""fullscreenenter"",""0"",""4076""
","
","737.1999999880791","","","","","","","","49","1,0,0","0","mountain","28","probe-45","0.5414064447318518","0.2891795850495857","0.12474621741248253","1","","","","","","","",""
"","html-keyboard-response","145","776364","0.0-82.0-1.0","""event"",""trial"",""time""
""fullscreenenter"",""0"",""4076""
","
","
","""event"",""trial"",""time""
""fullscreenenter"",""0"",""4076""
","
","null","<p></p>","null","","","","","","","","","","","","","","","","","","","","","","",""
"","do_trial","146","781747","0.0-83.0-0.0","""event"",""trial"",""time""
""fullscreenenter"",""0"",""4076""
","
","
","""event"",""trial"",""time""
""fullscreenenter"",""0"",""4076""
","
","768.7999999821186","","","","","","","","51","0,0,0","0","mountain","29","probe-35","0.6144336092533976","0.22624670435648234","0.1142809993819749","0","","","","","","","",""
"","html-keyboard-response","147","782754","0.0-83.0-1.0","""event"",""trial"",""time""
""fullscreenenter"",""0"",""4076""
","
","
","""event"",""trial"",""time""
""fullscreenenter"",""0"",""4076""
","
","null","<p></p>","null","","","","","","","","","","","","","","","","","","","","","","",""
"","do_bye","148","784271","0.0-84.0-0.0","""event"",""trial"",""time""
""fullscreenenter"",""0"",""4076""
","
","
","""event"",""trial"",""time""
""fullscreenenter"",""0"",""4076""
","
","null","","","","","","","","null","","","","","","","","","","","","","","","","",""
"","break","149","904275","0.0-84.0-1.0","""event"",""trial"",""time""
""fullscreenenter"",""0"",""4076""
","
","
","""event"",""trial"",""time""
""fullscreenenter"",""0"",""4076""
","
","null","<div class='center'><p>Time to take a quick break! You have 2 minutes to rest, but you can move on sooner if you'd like.</p><p> Press the <b>space bar</b> to continue.</p></div>","null","","","","","","","","","","","","","","","","","","","","","","",""
"","do_travel","150","913288","0.0-85.0-0.0","""event"",""trial"",""time""
""fullscreenenter"",""0"",""4076""
","
","
","""event"",""trial"",""time""
""fullscreenenter"",""0"",""4076""
","
","null","","","","","","","","null","","","","","","","","","","","","","","","","",""
"","do_welcome","151","917301","0.0-85.0-1.0","""event"",""trial"",""time""
""fullscreenenter"",""0"",""4076""
","
","
","""event"",""trial"",""time""
""fullscreenenter"",""0"",""4076""
","
","null","","","","","","","","null","","","","","","","","","","","","","","","","",""
"","do_trial","152","924288","0.0-86.0-0.0","""event"",""trial"",""time""
""fullscreenenter"",""0"",""4076""
","
","
","""event"",""trial"",""time""
""fullscreenenter"",""0"",""4076""
","
","2369.7000000178814","","","","","","","","49","1,0,1","1","countryside","30","probe-187","1","0.17982461282170248","0.23282540387570078","1","","","","","","","",""
"","html-keyboard-response","153","925293","0.0-86.0-1.0","""event"",""trial"",""time""
""fullscreenenter"",""0"",""4076""
","
","
","""event"",""trial"",""time""
""fullscreenenter"",""0"",""4076""
","
","null","<p></p>","null","","","","","","","","","","","","","","","","","","","","","","",""
"","do_trial","154","931006","0.0-87.0-0.0","""event"",""trial"",""time""
""fullscreenenter"",""0"",""4076""
","
","
","""event"",""trial"",""time""
""fullscreenenter"",""0"",""4076""
","
","1084.699999988079","","","","","","","","50","1,0,0","1","countryside","31","probe-225","1","0.2528252068211482","0.2548026603879823","0","","","","","","","",""
"","html-keyboard-response","155","932013","0.0-87.0-1.0","""event"",""trial"",""time""
""fullscreenenter"",""0"",""4076""
","
","
","""event"",""trial"",""time""
""fullscreenenter"",""0"",""4076""
","
","null","<p></p>","null","","","","","","","","","","","","","","","","","","","","","","",""
"","do_trial","156","937163","0.0-88.0-0.0","""event"",""trial"",""time""
""fullscreenenter"",""0"",""4076""
","
","
","""event"",""trial"",""time""
""fullscreenenter"",""0"",""4076""
","
","535.4000000059605","","","","","","","","51","1,1,1","1","countryside","32","probe-182","1","0.3997767250380236","0.13117112089474714","1","","","","","","","",""
"","html-keyboard-response","157","938171","0.0-88.0-1.0","""event"",""trial"",""time""
""fullscreenenter"",""0"",""4076""
","
","
","""event"",""trial"",""time""
""fullscreenenter"",""0"",""4076""
","
","null","<p></p>","null","","","","","","","","","","","","","","","","","","","","","","",""
"","do_trial","158","943709","0.0-89.0-0.0","""event"",""trial"",""time""
""fullscreenenter"",""0"",""4076""
","
","
","""event"",""trial"",""time""
""fullscreenenter"",""0"",""4076""
","
","927.5","","","","","","","","49","1,0,0","1","countryside","33","probe-72","0.8572231279620808","0.31549885788917903","0.23860361722994725","1","","","","","","","",""
"","html-keyboard-response","159","944716","0.0-89.0-1.0","""event"",""trial"",""time""
""fullscreenenter"",""0"",""4076""
","
","
","""event"",""trial"",""time""
""fullscreenenter"",""0"",""4076""
","
","null","<p></p>","null","","","","","","","","","","","","","","","","","","","","","","",""
"","do_trial","160","949708","0.0-90.0-0.0","""event"",""trial"",""time""
""fullscreenenter"",""0"",""4076""
","
","
","""event"",""trial"",""time""
""fullscreenenter"",""0"",""4076""
","
","371.7000000178814","","","","","","","","51","0,0,1","1","countryside","34","probe-101","0.7807309711489703","0.31808611273864246","0.25022986375925643","1","","","","","","","",""
"","html-keyboard-response","161","950714","0.0-90.0-1.0","""event"",""trial"",""time""
""fullscreenenter"",""0"",""4076""
","
","
","""event"",""trial"",""time""
""fullscreenenter"",""0"",""4076""
","
","null","<p></p>","null","","","","","","","","","","","","","","","","","","","","","","",""
"","do_trial","162","956175","0.0-91.0-0.0","""event"",""trial"",""time""
""fullscreenenter"",""0"",""4076""
","
","
","""event"",""trial"",""time""
""fullscreenenter"",""0"",""4076""
","
","842.7000000178814","","","","","","","","50","0,0,0","1","countryside","35","probe-114","0.773064395047423","0.283254852592884","0.14713453885340116","0","","","","","","","",""
"","html-keyboard-response","163","957180","0.0-91.0-1.0","""event"",""trial"",""time""
""fullscreenenter"",""0"",""4076""
","
","
","""event"",""trial"",""time""
""fullscreenenter"",""0"",""4076""
","
","null","<p></p>","null","","","","","","","","","","","","","","","","","","","","","","",""
"","do_trial","164","962328","0.0-92.0-0.0","""event"",""trial"",""time""
""fullscreenenter"",""0"",""4076""
","
","
","""event"",""trial"",""time""
""fullscreenenter"",""0"",""4076""
","
","525.0999999940395","","","","","","","","49","1,0,0","1","countryside","36","probe-112","0.7351479502038721","0.2326434001276813","0.14904019212155606","1","","","","","","","",""
"","html-keyboard-response","165","963334","0.0-92.0-1.0","""event"",""trial"",""time""
""fullscreenenter"",""0"",""4076""
","
","
","""event"",""trial"",""time""
""fullscreenenter"",""0"",""4076""
","
","null","<p></p>","null","","","","","","","","","","","","","","","","","","","","","","",""
"","do_trial","166","968412","0.0-93.0-0.0","""event"",""trial"",""time""
""fullscreenenter"",""0"",""4076""
","
","
","""event"",""trial"",""time""
""fullscreenenter"",""0"",""4076""
","
","456.90000000596046","","","","","","","","49","1,0,1","1","countryside","37","probe-97","0.6792872810633789","0.24362428278274498","0.2329727236916977","1","","","","","","","",""
"","html-keyboard-response","167","969419","0.0-93.0-1.0","""event"",""trial"",""time""
""fullscreenenter"",""0"",""4076""
","
","
","""event"",""trial"",""time""
""fullscreenenter"",""0"",""4076""
","
","null","<p></p>","null","","","","","","","","","","","","","","","","","","","","","","",""
"","do_trial","168","974718","0.0-94.0-0.0","""event"",""trial"",""time""
""fullscreenenter"",""0"",""4076""
","
","
","""event"",""trial"",""time""
""fullscreenenter"",""0"",""4076""
","
","684.5999999940395","","","","","","","","51","0,0,1","1","countryside","38","probe-145","0.6640257354950367","0.35475697151875873","0.3254321939352356","1","","","","","","","",""
"","html-keyboard-response","169","975725","0.0-94.0-1.0","""event"",""trial"",""time""
""fullscreenenter"",""0"",""4076""
","
","
","""event"",""trial"",""time""
""fullscreenenter"",""0"",""4076""
","
","null","<p></p>","null","","","","","","","","","","","","","","","","","","","","","","",""
"","do_trial","170","981101","0.0-95.0-0.0","""event"",""trial"",""time""
""fullscreenenter"",""0"",""4076""
","
","
","""event"",""trial"",""time""
""fullscreenenter"",""0"",""4076""
","
","763.8000000119209","","","","","","","","49","1,0,1","1","countryside","39","probe-103","0.6969059462782137","0.20429654570254996","0.3889484151424628","1","","","","","","","",""
"","html-keyboard-response","171","982108","0.0-95.0-1.0","""event"",""trial"",""time""
""fullscreenenter"",""0"",""4076""
","
","
","""event"",""trial"",""time""
""fullscreenenter"",""0"",""4076""
","
","null","<p></p>","null","","","","","","","","","","","","","","","","","","","","","","",""
"","do_trial","172","987408","0.0-96.0-0.0","""event"",""trial"",""time""
""fullscreenenter"",""0"",""4076""
","
","
","""event"",""trial"",""time""
""fullscreenenter"",""0"",""4076""
","
","686.5999999940395","","","","","","","","51","1,1,1","1","countryside","40","probe-151","0.6729102415431266","0.28210591168733223","0.5340544236287608","1","","","","","","","",""
"","html-keyboard-response","173","988415","0.0-96.0-1.0","""event"",""trial"",""time""
""fullscreenenter"",""0"",""4076""
","
","
","""event"",""trial"",""time""
""fullscreenenter"",""0"",""4076""
","
","null","<p></p>","null","","","","","","","","","","","","","","","","","","","","","","",""
"","do_trial","174","995331","0.0-97.0-0.0","""event"",""trial"",""time""
""fullscreenenter"",""0"",""4076""
","
","
","""event"",""trial"",""time""
""fullscreenenter"",""0"",""4076""
","
","2300.9000000059605","","","","","","","","51","0,0,1","1","countryside","41","probe-227","0.505420787679763","0.1762279353882589","0.5676141499889239","1","","","","","","","",""
"","html-keyboard-response","175","996338","0.0-97.0-1.0","""event"",""trial"",""time""
""fullscreenenter"",""0"",""4076""
","
","
","""event"",""trial"",""time""
""fullscreenenter"",""0"",""4076""
","
","null","<p></p>","null","","","","","","","","","","","","","","","","","","","","","","",""
"","do_trial","176","1001972","0.0-98.0-0.0","""event"",""trial"",""time""
""fullscreenenter"",""0"",""4076""
","
","
","""event"",""trial"",""time""
""fullscreenenter"",""0"",""4076""
","
","1022.5","","","","","","","","50","0,0,0","1","countryside","42","probe-177","0.36769461331375447","0.2943560022299914","0.3649663787652679","0","","","","","","","",""
"","html-keyboard-response","177","1002978","0.0-98.0-1.0","""event"",""trial"",""time""
""fullscreenenter"",""0"",""4076""
","
","
","""event"",""trial"",""time""
""fullscreenenter"",""0"",""4076""
","
","null","<p></p>","null","","","","","","","","","","","","","","","","","","","","","","",""
"","do_trial","178","1008059","0.0-99.0-0.0","""event"",""trial"",""time""
""fullscreenenter"",""0"",""4076""
","
","
","""event"",""trial"",""time""
""fullscreenenter"",""0"",""4076""
","
","470","","","","","","","","49","0,1,0","1","countryside","43","probe-99","0.27472199790910423","0.44088794270056786","0.2414632849516421","0","","","","","","","",""
"","html-keyboard-response","179","1009070","0.0-99.0-1.0","""event"",""trial"",""time""
""fullscreenenter"",""0"",""4076""
","
","
","""event"",""trial"",""time""
""fullscreenenter"",""0"",""4076""
","
","null","<p></p>","null","","","","","","","","","","","","","","","","","","","","","","",""
"","do_trial","180","1015854","0.0-100.0-0.0","""event"",""trial"",""time""
""fullscreenenter"",""0"",""4076""
","
","
","""event"",""trial"",""time""
""fullscreenenter"",""0"",""4076""
","
","2168.4000000059605","","","","","","","","50","0,0,0","1","countryside","44","probe-82","0.2752503147662329","0.5246312653485272","0.18056193453235483","0","","","","","","","",""
"","html-keyboard-response","181","1016860","0.0-100.0-1.0","""event"",""trial"",""time""
""fullscreenenter"",""0"",""4076""
","
","
","""event"",""trial"",""time""
""fullscreenenter"",""0"",""4076""
","
","null","<p></p>","null","","","","","","","","","","","","","","","","","","","","","","",""
"","do_trial","182","1022301","0.0-101.0-0.0","""event"",""trial"",""time""
""fullscreenenter"",""0"",""4076""
","
","
","""event"",""trial"",""time""
""fullscreenenter"",""0"",""4076""
","
","826.2999999821186","","","","","","","","49","0,1,0","1","countryside","45","probe-228","0.3491788952769339","0.5576925954061673","0.11324186110064276","0","","","","","","","",""
"","html-keyboard-response","183","1023309","0.0-101.0-1.0","""event"",""trial"",""time""
""fullscreenenter"",""0"",""4076""
","
","
","""event"",""trial"",""time""
""fullscreenenter"",""0"",""4076""
","
","null","<p></p>","null","","","","","","","","","","","","","","","","","","","","","","",""
"","do_trial","184","1028399","0.0-102.0-0.0","""event"",""trial"",""time""
""fullscreenenter"",""0"",""4076""
","
","
","""event"",""trial"",""time""
""fullscreenenter"",""0"",""4076""
","
","470.80000001192093","","","","","","","","51","0,1,0","1","countryside","46","probe-80","0.36286348148898234","0.5819506479582747","0.16051359818845615","0","","","","","","","",""
"","html-keyboard-response","185","1029406","0.0-102.0-1.0","""event"",""trial"",""time""
""fullscreenenter"",""0"",""4076""
","
","
","""event"",""trial"",""time""
""fullscreenenter"",""0"",""4076""
","
","null","<p></p>","null","","","","","","","","","","","","","","","","","","","","","","",""
"","do_trial","186","1034912","0.0-103.0-0.0","""event"",""trial"",""time""
""fullscreenenter"",""0"",""4076""
","
","
","""event"",""trial"",""time""
""fullscreenenter"",""0"",""4076""
","
","891.6000000238419","","","","","","","","49","0,1,0","1","countryside","47","probe-04","0.20638697419504282","0.662376393711762","0.19506258873852372","0","","","","","","","",""
"","html-keyboard-response","187","1035918","0.0-103.0-1.0","""event"",""trial"",""time""
""fullscreenenter"",""0"",""4076""
","
","
","""event"",""trial"",""time""
""fullscreenenter"",""0"",""4076""
","
","null","<p></p>","null","","","","","","","","","","","","","","","","","","","","","","",""
"","do_trial","188","1041050","0.0-104.0-0.0","""event"",""trial"",""time""
""fullscreenenter"",""0"",""4076""
","
","
","""event"",""trial"",""time""
""fullscreenenter"",""0"",""4076""
","
","523.5","","","","","","","","51","0,0,1","1","countryside","48","probe-190","0.309136273077298","0.6227473751673446","0.13760672217230713","1","","","","","","","",""
"","html-keyboard-response","189","1042055","0.0-104.0-1.0","""event"",""trial"",""time""
""fullscreenenter"",""0"",""4076""
","
","
","""event"",""trial"",""time""
""fullscreenenter"",""0"",""4076""
","
","null","<p></p>","null","","","","","","","","","","","","","","","","","","","","","","",""
"","do_trial","190","1047089","0.0-105.0-0.0","""event"",""trial"",""time""
""fullscreenenter"",""0"",""4076""
","
","
","""event"",""trial"",""time""
""fullscreenenter"",""0"",""4076""
","
","422","","","","","","","","49","0,0,1","1","countryside","49","probe-167","0.3362730568798477","0.7074636074543109","0.26131950535994064","0","","","","","","","",""
"","html-keyboard-response","191","1048096","0.0-105.0-1.0","""event"",""trial"",""time""
""fullscreenenter"",""0"",""4076""
","
","
","""event"",""trial"",""time""
""fullscreenenter"",""0"",""4076""
","
","null","<p></p>","null","","","","","","","","","","","","","","","","","","","","","","",""
"","do_trial","192","1053888","0.0-106.0-0.0","""event"",""trial"",""time""
""fullscreenenter"",""0"",""4076""
","
","
","""event"",""trial"",""time""
""fullscreenenter"",""0"",""4076""
","
","1178","","","","","","","","51","0,1,0","1","countryside","50","probe-56","0.2847813920125149","0.5599383431700977","0.26628621429533367","0","","","","","","","",""
"","html-keyboard-response","193","1054895","0.0-106.0-1.0","""event"",""trial"",""time""
""fullscreenenter"",""0"",""4076""
","
","
","""event"",""trial"",""time""
""fullscreenenter"",""0"",""4076""
","
","null","<p></p>","null","","","","","","","","","","","","","","","","","","","","","","",""
"","do_trial","194","1060522","0.0-107.0-0.0","""event"",""trial"",""time""
""fullscreenenter"",""0"",""4076""
","
","
","""event"",""trial"",""time""
""fullscreenenter"",""0"",""4076""
","
","1012.4000000059605","","","","","","","","50","0,0,1","1","countryside","51","probe-84","0.4123957043487425","0.5671763820971568","0.30413237474403987","0","","","","","","","",""
"","html-keyboard-response","195","1061527","0.0-107.0-1.0","""event"",""trial"",""time""
""fullscreenenter"",""0"",""4076""
","
","
","""event"",""trial"",""time""
""fullscreenenter"",""0"",""4076""
","
","null","<p></p>","null","","","","","","","","","","","","","","","","","","","","","","",""
"","do_trial","196","1066449","0.0-108.0-0.0","""event"",""trial"",""time""
""fullscreenenter"",""0"",""4076""
","
","
","""event"",""trial"",""time""
""fullscreenenter"",""0"",""4076""
","
","309.5","","","","","","","","49","0,1,0","1","countryside","52","probe-200","0.42101637382770407","0.6168122447470685","0.1845662452866468","0","","","","","","","",""
"","html-keyboard-response","197","1067456","0.0-108.0-1.0","""event"",""trial"",""time""
""fullscreenenter"",""0"",""4076""
","
","
","""event"",""trial"",""time""
""fullscreenenter"",""0"",""4076""
","
","null","<p></p>","null","","","","","","","","","","","","","","","","","","","","","","",""
"","do_trial","198","1072414","0.0-109.0-0.0","""event"",""trial"",""time""
""fullscreenenter"",""0"",""4076""
","
","
","""event"",""trial"",""time""
""fullscreenenter"",""0"",""4076""
","
","346.39999997615814","","","","","","","","51","0,0,0","1","countryside","53","probe-33","0.43921627889920006","0.6765556668008469","0.05307421645871461","0","","","","","","","",""
"","html-keyboard-response","199","1073419","0.0-109.0-1.0","""event"",""trial"",""time""
""fullscreenenter"",""0"",""4076""
","
","
","""event"",""trial"",""time""
""fullscreenenter"",""0"",""4076""
","
","null","<p></p>","null","","","","","","","","","","","","","","","","","","","","","","",""
"","do_trial","200","1078341","0.0-110.0-0.0","""event"",""trial"",""time""
""fullscreenenter"",""0"",""4076""
","
","
","""event"",""trial"",""time""
""fullscreenenter"",""0"",""4076""
","
","309.7999999821186","","","","","","","","51","1,1,0","1","countryside","54","probe-207","0.47024947412525875","0.6918034641298841","0.10593477376997848","0","","","","","","","",""
"","html-keyboard-response","201","1079349","0.0-110.0-1.0","""event"",""trial"",""time""
""fullscreenenter"",""0"",""4076""
","
","
","""event"",""trial"",""time""
""fullscreenenter"",""0"",""4076""
","
","null","<p></p>","null","","","","","","","","","","","","","","","","","","","","","","",""
"","do_trial","202","1084409","0.0-111.0-0.0","""event"",""trial"",""time""
""fullscreenenter"",""0"",""4076""
","
","
","""event"",""trial"",""time""
""fullscreenenter"",""0"",""4076""
","
","439.40000000596046","","","","","","","","49","1,0,0","1","countryside","55","probe-128","0.30469481476269566","0.6963856728357241","0.1942150713726757","1","","","","","","","",""
"","html-keyboard-response","203","1085416","0.0-111.0-1.0","""event"",""trial"",""time""
""fullscreenenter"",""0"",""4076""
","
","
","""event"",""trial"",""time""
""fullscreenenter"",""0"",""4076""
","
","null","<p></p>","null","","","","","","","","","","","","","","","","","","","","","","",""
"","do_trial","204","1091093","0.0-112.0-0.0","""event"",""trial"",""time""
""fullscreenenter"",""0"",""4076""
","
","
","""event"",""trial"",""time""
""fullscreenenter"",""0"",""4076""
","
","1052.5999999940395","","","","","","","","49","1,0,0","1","countryside","56","probe-119","0.3393356281238166","0.6246605594469502","0.21182358351683","1","","","","","","","",""
"","html-keyboard-response","205","1092100","0.0-112.0-1.0","""event"",""trial"",""time""
""fullscreenenter"",""0"",""4076""
","
","
","""event"",""trial"",""time""
""fullscreenenter"",""0"",""4076""
","
","null","<p></p>","null","","","","","","","","","","","","","","","","","","","","","","",""
"","do_trial","206","1097575","0.0-113.0-0.0","""event"",""trial"",""time""
""fullscreenenter"",""0"",""4076""
","
","
","""event"",""trial"",""time""
""fullscreenenter"",""0"",""4076""
","
","865.0999999940395","","","","","","","","50","0,0,1","1","countryside","57","probe-183","0.37278467822970857","0.6264657035685194","0.1842793688528908","0","","","","","","","",""
"","html-keyboard-response","207","1098582","0.0-113.0-1.0","""event"",""trial"",""time""
""fullscreenenter"",""0"",""4076""
","
","
","""event"",""trial"",""time""
""fullscreenenter"",""0"",""4076""
","
","null","<p></p>","null","","","","","","","","","","","","","","","","","","","","","","",""
"","do_trial","208","1103924","0.0-114.0-0.0","""event"",""trial"",""time""
""fullscreenenter"",""0"",""4076""
","
","
","""event"",""trial"",""time""
""fullscreenenter"",""0"",""4076""
","
","731.6999999880791","","","","","","","","49","0,1,0","1","countryside","58","probe-117","0.3179694107122552","0.6476078721650643","0.06539057460795186","0","","","","","","","",""
"","html-keyboard-response","209","1104928","0.0-114.0-1.0","""event"",""trial"",""time""
""fullscreenenter"",""0"",""4076""
","
","
","""event"",""trial"",""time""
""fullscreenenter"",""0"",""4076""
","
","null","<p></p>","null","","","","","","","","","","","","","","","","","","","","","","",""
"","do_trial","210","1110177","0.0-115.0-0.0","""event"",""trial"",""time""
""fullscreenenter"",""0"",""4076""
","
","
","""event"",""trial"",""time""
""fullscreenenter"",""0"",""4076""
","
","635.1999999880791","","","","","","","","51","0,1,0","1","countryside","59","probe-86","0.32348044272351606","0.631553773772969","0.11147197650153412","0","","","","","","","",""
"","html-keyboard-response","211","1111184","0.0-115.0-1.0","""event"",""trial"",""time""
""fullscreenenter"",""0"",""4076""
","
","
","""event"",""trial"",""time""
""fullscreenenter"",""0"",""4076""
","
","null","<p></p>","null","","","","","","","","","","","","","","","","","","","","","","",""
"","do_trial","212","1116595","0.0-116.0-0.0","""event"",""trial"",""time""
""fullscreenenter"",""0"",""4076""
","
","
","""event"",""trial"",""time""
""fullscreenenter"",""0"",""4076""
","
","799.4000000059605","","","","","","","","50","0,1,0","1","countryside","60","probe-88","0.2614037909347878","0.5605166762143666","0.08206604199853468","1","","","","","","","",""
"","html-keyboard-response","213","1117601","0.0-116.0-1.0","""event"",""trial"",""time""
""fullscreenenter"",""0"",""4076""
","
","
","""event"",""trial"",""time""
""fullscreenenter"",""0"",""4076""
","
","null","<p></p>","null","","","","","","","","","","","","","","","","","","","","","","",""
"","do_trial","214","1122874","0.0-117.0-0.0","""event"",""trial"",""time""
""fullscreenenter"",""0"",""4076""
","
","
","""event"",""trial"",""time""
""fullscreenenter"",""0"",""4076""
","
","661.1000000238419","","","","","","","","49","1,1,0","1","countryside","61","probe-32","0.3992023920044623","0.5951301381009061","0.068357865708765","1","","","","","","","",""
"","html-keyboard-response","215","1123882","0.0-117.0-1.0","""event"",""trial"",""time""
""fullscreenenter"",""0"",""4076""
","
","
","""event"",""trial"",""time""
""fullscreenenter"",""0"",""4076""
","
","null","<p></p>","null","","","","","","","","","","","","","","","","","","","","","","",""
"","do_trial","216","1129613","0.0-118.0-0.0","""event"",""trial"",""time""
""fullscreenenter"",""0"",""4076""
","
","
","""event"",""trial"",""time""
""fullscreenenter"",""0"",""4076""
","
","1116.800000011921","","","","","","","","51","0,1,0","1","countryside","62","probe-148","0.25293248245032024","0.5022817639371706","0.06973567151222607","0","","","","","","","",""
"","html-keyboard-response","217","1130621","0.0-118.0-1.0","""event"",""trial"",""time""
""fullscreenenter"",""0"",""4076""
","
","
","""event"",""trial"",""time""
""fullscreenenter"",""0"",""4076""
","
","null","<p></p>","null","","","","","","","","","","","","","","","","","","","","","","",""
"","do_trial","218","1135813","0.0-119.0-0.0","""event"",""trial"",""time""
""fullscreenenter"",""0"",""4076""
","
","
","""event"",""trial"",""time""
""fullscreenenter"",""0"",""4076""
","
","568.3000000119209","","","","","","","","49","0,0,0","1","countryside","63","probe-36","0.2577342047375038","0.5716033685309596","0.08366208060663267","0","","","","","","","",""
"","html-keyboard-response","219","1136820","0.0-119.0-1.0","""event"",""trial"",""time""
""fullscreenenter"",""0"",""4076""
","
","
","""event"",""trial"",""time""
""fullscreenenter"",""0"",""4076""
","
","null","<p></p>","null","","","","","","","","","","","","","","","","","","","","","","",""
"","do_trial","220","1142179","0.0-120.0-0.0","""event"",""trial"",""time""
""fullscreenenter"",""0"",""4076""
","
","
","""event"",""trial"",""time""
""fullscreenenter"",""0"",""4076""
","
","737.5999999940395","","","","","","","","50","0,0,0","1","countryside","64","probe-42","0.13947339911994355","0.6544217213731797","0.10337248641345091","0","","","","","","","",""
"","html-keyboard-response","221","1143187","0.0-120.0-1.0","""event"",""trial"",""time""
""fullscreenenter"",""0"",""4076""
","
","
","""event"",""trial"",""time""
""fullscreenenter"",""0"",""4076""
","
","null","<p></p>","null","","","","","","","","","","","","","","","","","","","","","","",""
"","do_trial","222","1148698","0.0-121.0-0.0","""event"",""trial"",""time""
""fullscreenenter"",""0"",""4076""
","
","
","""event"",""trial"",""time""
""fullscreenenter"",""0"",""4076""
","
","899.4000000059605","","","","","","","","49","0,1,0","1","countryside","65","probe-181","0.1466928815617345","0.6850283535098811","0.10970895961640627","0","","","","","","","",""
"","html-keyboard-response","223","1149705","0.0-121.0-1.0","""event"",""trial"",""time""
""fullscreenenter"",""0"",""4076""
","
","
","""event"",""trial"",""time""
""fullscreenenter"",""0"",""4076""
","
","null","<p></p>","null","","","","","","","","","","","","","","","","","","","","","","",""
"","do_trial","224","1155051","0.0-122.0-0.0","""event"",""trial"",""time""
""fullscreenenter"",""0"",""4076""
","
","
","""event"",""trial"",""time""
""fullscreenenter"",""0"",""4076""
","
","712.5","","","","","","","","51","1,0,0","1","countryside","66","probe-61","0.46646109614838566","0.5403739121894522","0.06511223523000938","0","","","","","","","",""
"","html-keyboard-response","225","1156059","0.0-122.0-1.0","""event"",""trial"",""time""
""fullscreenenter"",""0"",""4076""
","
","
","""event"",""trial"",""time""
""fullscreenenter"",""0"",""4076""
","
","null","<p></p>","null","","","","","","","","","","","","","","","","","","","","","","",""
"","do_trial","226","1161224","0.0-123.0-0.0","""event"",""trial"",""time""
""fullscreenenter"",""0"",""4076""
","
","
","""event"",""trial"",""time""
""fullscreenenter"",""0"",""4076""
","
","551.5999999940395","","","","","","","","49","1,1,0","1","countryside","67","probe-43","0.33059987076978387","0.5960195319513176","0.09168606598652755","1","","","","","","","",""
"","html-keyboard-response","227","1162229","0.0-123.0-1.0","""event"",""trial"",""time""
""fullscreenenter"",""0"",""4076""
","
","
","""event"",""trial"",""time""
""fullscreenenter"",""0"",""4076""
","
","null","<p></p>","null","","","","","","","","","","","","","","","","","","","","","","",""
"","do_trial","228","1168557","0.0-124.0-0.0","""event"",""trial"",""time""
""fullscreenenter"",""0"",""4076""
","
","
","""event"",""trial"",""time""
""fullscreenenter"",""0"",""4076""
","
","1716.4000000059605","","","","","","","","49","1,0,0","1","countryside","68","probe-64","0.2816674341510219","0.4956464063024993","0.08428424836653292","1","","","","","","","",""
"","html-keyboard-response","229","1169564","0.0-124.0-1.0","""event"",""trial"",""time""
""fullscreenenter"",""0"",""4076""
","
","
","""event"",""trial"",""time""
""fullscreenenter"",""0"",""4076""
","
","null","<p></p>","null","","","","","","","","","","","","","","","","","","","","","","",""
"","do_trial","230","1175082","0.0-125.0-0.0","""event"",""trial"",""time""
""fullscreenenter"",""0"",""4076""
","
","
","""event"",""trial"",""time""
""fullscreenenter"",""0"",""4076""
","
","906.7000000178814","","","","","","","","50","0,0,1","1","countryside","69","probe-46","0.24054740753582884","0.39721322331092557","0.08158514831229019","0","","","","","","","",""
"","html-keyboard-response","231","1176085","0.0-125.0-1.0","""event"",""trial"",""time""
""fullscreenenter"",""0"",""4076""
","
","
","""event"",""trial"",""time""
""fullscreenenter"",""0"",""4076""
","
","null","<p></p>","null","","","","","","","","","","","","","","","","","","","","","","",""
"","do_bye","232","1177593","0.0-126.0-0.0","""event"",""trial"",""time""
""fullscreenenter"",""0"",""4076""
","
","
","""event"",""trial"",""time""
""fullscreenenter"",""0"",""4076""
","
","null","","","","","","","","null","","","","","","","","","","","","","","","","",""
"","break","233","1297597","0.0-126.0-1.0","""event"",""trial"",""time""
""fullscreenenter"",""0"",""4076""
","
","
","""event"",""trial"",""time""
""fullscreenenter"",""0"",""4076""
","
","null","<div class='center'><p>Time to take a quick break! You have 2 minutes to rest, but you can move on sooner if you'd like.</p><p> Press the <b>space bar</b> to continue.</p></div>","null","","","","","","","","","","","","","","","","","","","","","","",""
"","do_travel","234","1306605","0.0-127.0-0.0","""event"",""trial"",""time""
""fullscreenenter"",""0"",""4076""
","
","
","""event"",""trial"",""time""
""fullscreenenter"",""0"",""4076""
","
","null","","","","","","","","null","","","","","","","","","","","","","","","","",""
"","do_welcome","235","1310628","0.0-127.0-1.0","""event"",""trial"",""time""
""fullscreenenter"",""0"",""4076""
","
","
","""event"",""trial"",""time""
""fullscreenenter"",""0"",""4076""
","
","null","","","","","","","","null","","","","","","","","","","","","","","","","",""
"","do_trial","236","1316757","0.0-128.0-0.0","""event"",""trial"",""time""
""fullscreenenter"",""0"",""4076""
","
","
","""event"",""trial"",""time""
""fullscreenenter"",""0"",""4076""
","
","1514","","","","","","","","49","0,1,0","2","forest","70","probe-156","0.3505205657347705","1","0.2003070928549576","0","","","","","","","",""
"","html-keyboard-response","237","1317764","0.0-128.0-1.0","""event"",""trial"",""time""
""fullscreenenter"",""0"",""4076""
","
","
","""event"",""trial"",""time""
""fullscreenenter"",""0"",""4076""
","
","null","<p></p>","null","","","","","","","","","","","","","","","","","","","","","","",""
"","do_trial","238","1323377","0.0-129.0-0.0","""event"",""trial"",""time""
""fullscreenenter"",""0"",""4076""
","
","
","""event"",""trial"",""time""
""fullscreenenter"",""0"",""4076""
","
","993.5","","","","","","","","50","0,1,1","2","forest","71","probe-73","0.44892026633817084","1","0.20466428905206668","1","","","","","","","",""
"","html-keyboard-response","239","1324381","0.0-129.0-1.0","""event"",""trial"",""time""
""fullscreenenter"",""0"",""4076""
","
","
","""event"",""trial"",""time""
""fullscreenenter"",""0"",""4076""
","
","null","<p></p>","null","","","","","","","","","","","","","","","","","","","","","","",""
"","do_trial","240","1330079","0.0-130.0-0.0","""event"",""trial"",""time""
""fullscreenenter"",""0"",""4076""
","
","
","""event"",""trial"",""time""
""fullscreenenter"",""0"",""4076""
","
","1085.199999988079","","","","","","","","51","1,1,0","2","forest","72","probe-31","0.4178447838778119","0.8143019978564396","0.2986759808934261","0","","","","","","","",""
"","html-keyboard-response","241","1331090","0.0-130.0-1.0","""event"",""trial"",""time""
""fullscreenenter"",""0"",""4076""
","
","
","""event"",""trial"",""time""
""fullscreenenter"",""0"",""4076""
","
","null","<p></p>","null","","","","","","","","","","","","","","","","","","","","","","",""
"","do_trial","242","1336731","0.0-131.0-0.0","""event"",""trial"",""time""
""fullscreenenter"",""0"",""4076""
","
","
","""event"",""trial"",""time""
""fullscreenenter"",""0"",""4076""
","
","1015.2999999821186","","","","","","","","50","0,0,0","2","forest","73","probe-210","0.2760417788455573","0.5512973192336826","0.24385867315213616","0","","","","","","","",""
"","html-keyboard-response","243","1337738","0.0-131.0-1.0","""event"",""trial"",""time""
""fullscreenenter"",""0"",""4076""
","
","
","""event"",""trial"",""time""
""fullscreenenter"",""0"",""4076""
","
","null","<p></p>","null","","","","","","","","","","","","","","","","","","","","","","",""
"","do_trial","244","1343246","0.0-132.0-0.0","""event"",""trial"",""time""
""fullscreenenter"",""0"",""4076""
","
","
","""event"",""trial"",""time""
""fullscreenenter"",""0"",""4076""
","
","895.0999999940395","","","","","","","","49","0,1,0","2","forest","74","probe-59","0.16695863481267226","0.5516840619069419","0.3002686048029058","0","","","","","","","",""
"","html-keyboard-response","245","1344253","0.0-132.0-1.0","""event"",""trial"",""time""
""fullscreenenter"",""0"",""4076""
","
","
","""event"",""trial"",""time""
""fullscreenenter"",""0"",""4076""
","
","null","<p></p>","null","","","","","","","","","","","","","","","","","","","","","","",""
"","do_trial","246","1349580","0.0-133.0-0.0","""event"",""trial"",""time""
""fullscreenenter"",""0"",""4076""
","
","
","""event"",""trial"",""time""
""fullscreenenter"",""0"",""4076""
","
","714.8999999761581","","","","","","","","49","0,1,0","2","forest","75","probe-25","0.14851264447451543","0.5989828304072252","0.3212116099706717","0","","","","","","","",""
"","html-keyboard-response","247","1350586","0.0-133.0-1.0","""event"",""trial"",""time""
""fullscreenenter"",""0"",""4076""
","
","
","""event"",""trial"",""time""
""fullscreenenter"",""0"",""4076""
","
","null","<p></p>","null","","","","","","","","","","","","","","","","","","","","","","",""
"","do_trial","248","1355703","0.0-134.0-0.0","""event"",""trial"",""time""
""fullscreenenter"",""0"",""4076""
","
","
","""event"",""trial"",""time""
""fullscreenenter"",""0"",""4076""
","
","492.59999999403954","","","","","","","","50","0,1,0","2","forest","76","probe-206","0.287878186506108","0.647897320741458","0.21066171806662187","1","","","","","","","",""
"","html-keyboard-response","249","1356710","0.0-134.0-1.0","""event"",""trial"",""time""
""fullscreenenter"",""0"",""4076""
","
","
","""event"",""trial"",""time""
""fullscreenenter"",""0"",""4076""
","
","null","<p></p>","null","","","","","","","","","","","","","","","","","","","","","","",""
"","do_trial","250","1362394","0.0-135.0-0.0","""event"",""trial"",""time""
""fullscreenenter"",""0"",""4076""
","
","
","""event"",""trial"",""time""
""fullscreenenter"",""0"",""4076""
","
","1072.4000000059605","","","","","","","","51","1,1,0","2","forest","77","probe-160","0.29724134180321815","0.7293926253972033","0.10456923012410181","0","","","","","","","",""
"","html-keyboard-response","251","1363402","0.0-135.0-1.0","""event"",""trial"",""time""
""fullscreenenter"",""0"",""4076""
","
","
","""event"",""trial"",""time""
""fullscreenenter"",""0"",""4076""
","
","null","<p></p>","null","","","","","","","","","","","","","","","","","","","","","","",""
"","do_trial","252","1368418","0.0-136.0-0.0","""event"",""trial"",""time""
""fullscreenenter"",""0"",""4076""
","
","
","""event"",""trial"",""time""
""fullscreenenter"",""0"",""4076""
","
","403.80000001192093","","","","","","","","50","1,1,1","2","forest","78","probe-226","0.36033195167392396","0.7152604845479867","0.14097686312681443","1","","","","","","","",""
"","html-keyboard-response","253","1369423","0.0-136.0-1.0","""event"",""trial"",""time""
""fullscreenenter"",""0"",""4076""
","
","
","""event"",""trial"",""time""
""fullscreenenter"",""0"",""4076""
","
","null","<p></p>","null","","","","","","","","","","","","","","","","","","","","","","",""
"","do_trial","254","1374691","0.0-137.0-0.0","""event"",""trial"",""time""
""fullscreenenter"",""0"",""4076""
","
","
","""event"",""trial"",""time""
""fullscreenenter"",""0"",""4076""
","
","640.6000000238419","","","","","","","","49","1,1,0","2","forest","79","probe-49","0.3179255640831738","0.7189990263766677","0.07634515595557288","1","","","","","","","",""
"","html-keyboard-response","255","1375699","0.0-137.0-1.0","""event"",""trial"",""time""
""fullscreenenter"",""0"",""4076""
","
","
","""event"",""trial"",""time""
""fullscreenenter"",""0"",""4076""
","
","null","<p></p>","null","","","","","","","","","","","","","","","","","","","","","","",""
"","do_trial","256","1382220","0.0-138.0-0.0","""event"",""trial"",""time""
""fullscreenenter"",""0"",""4076""
","
","
","""event"",""trial"",""time""
""fullscreenenter"",""0"",""4076""
","
","1901.5","","","","","","","","50","0,1,0","2","forest","80","probe-58","0.3595053632658148","0.6612778071973798","0.15616847546084095","1","","","","","","","",""
"","html-keyboard-response","257","1383227","0.0-138.0-1.0","""event"",""trial"",""time""
""fullscreenenter"",""0"",""4076""
","
","
","""event"",""trial"",""time""
""fullscreenenter"",""0"",""4076""
","
","null","<p></p>","null","","","","","","","","","","","","","","","","","","","","","","",""
"","do_trial","258","1388870","0.0-139.0-0.0","""event"",""trial"",""time""
""fullscreenenter"",""0"",""4076""
","
","
","""event"",""trial"",""time""
""fullscreenenter"",""0"",""4076""
","
","1031","","","","","","","","51","0,1,0","2","forest","81","probe-127","0.3752438380288931","0.6217434783201555","0.28150686195746977","0","","","","","","","",""
"","html-keyboard-response","259","1389875","0.0-139.0-1.0","""event"",""trial"",""time""
""fullscreenenter"",""0"",""4076""
","
","
","""event"",""trial"",""time""
""fullscreenenter"",""0"",""4076""
","
","null","<p></p>","null","","","","","","","","","","","","","","","","","","","","","","",""
"","do_trial","260","1396028","0.0-140.0-0.0","""event"",""trial"",""time""
""fullscreenenter"",""0"",""4076""
","
","
","""event"",""trial"",""time""
""fullscreenenter"",""0"",""4076""
","
