"success","trial_type","trial_index","time_elapsed","internal_node_id","rt","stimulus","key_press","subject_id","response","choice_outcomes","context_n","context_img_id","trial_n","probe_img_id","pR_red","pR_white","pR_black","outcome","contextArray_ind","validImageProbes","invalidImageProbes","pRew_Red","pRew_White","pRew_Black","availableForMemProbe","choice_blocks"
"true","fullscreen","0","6544","0.0-0.0","","","","","","","","","","","","","","","","","","","","","",""
"","pavlovia","1","6550","0.0-1.0","","","","","","","","","","","","","","","","","","","","","",""
"","html-keyboard-response","2","24578","0.0-2.0","18025.699999928474","<div class='center'><p>Welcome! This is the first day of the experiment which will last ~30 minutes. In this experiment, you are the head captain of a pirate ship traveling around the world to different places. You will complete several different tasks during this experiment. Here is an overview of these tasks:</p><br><p>Day 1</p><p>1. Tutorial and quiz</p><p>2. Pick a pirate game in 6 different places</p><br><p>Day 2</p><p>3. Pick a pirate game and memory game</p><p>4. Final questions and payment</p><br><p>If you complete the entire experiment, you will receive $15 and a possible bonus payment.</p><p><b>[Press the space bar to begin the tutorial]</b></p></div>","32","61379787b8ae7499a6c31f02","","","","","","","","","","","","","","","","","",""
"","html-keyboard-response","3","40006","0.0-3.0","15426.100000023842","<div class='center'><p>You are the head captain of a pirate ship.</p><p> Your pirates rob other ships as they leave the marketplace port.</p> These ships have just sold all their goods at the marketplace, so they have lots and lots of gold on them.</p><p><img src='run_exp/static/images/ship_center.png' height='400'></p><p><b>[Press the space bar to continue]</b></p></div>","32","","","","","","","","","","","","","","","","","","",""
"","html-keyboard-response","4","61603","0.0-4.0","21594.5","<div class='center'><p>As the head captain, you do not have to rob any ships yourself.</p><p>You get to choose which pirate you want to rob the next ship. </p><p>If they are successful at robbing the ship, then you will get gold coins.</p><p> If they are not successful, then you will get no gold coins.</p><p> The more coins you collect, the more bonus money you will win. So, choose your pirate wisely.</p><p><img src='run_exp/static/images/goal.png' height='400'></p><p><b>[Press the space bar to continue]</b></p><div>","32","","","","","","","","","","","","","","","","","","",""
"","html-keyboard-response","5","83171","0.0-5.0","21566.599999904633","<div class='center'><p>Even the most skilled pirate will not be able to rob EVERY ship.</p><p> Some ships will have very strong defenses against attacks.</p><p> For example, blue beard, here,  is very good at robbing ships.</p><p> You can press the <b>‘1’</b> button on the keyboard to choose him.</p><p> Try choosing him 10 times to see how often he is successful at robbing ships. </p><p><img src='run_exp/static/images/blue.png' height='500'></p></div>","49","","","","","","","","","","","","","","","","","","",""
"","html-keyboard-response","6","84680","0.0-6.0","null","<br><br><br><br><p><img src='run_exp/static/images/blue_win.png' height='500'></p>","null","","","","","","","","","","","","","","","","","","",""
"","html-keyboard-response","7","87049","0.0-7.0","2367","<br><br><br><br><p><img src='run_exp/static/images/blue.png' height='500'></p>","49","","","","","","","","","","","","","","","","","","",""
"","html-keyboard-response","8","88560","0.0-8.0","null","<br><br><br><br><p><img src='run_exp/static/images/blue_win.png' height='500'></p>","null","","","","","","","","","","","","","","","","","","",""
"","html-keyboard-response","9","89517","0.0-9.0","954.7999999523163","<br><br><br><br><p><img src='run_exp/static/images/blue.png' height='500'></p>","49","","","","","","","","","","","","","","","","","","",""
"","html-keyboard-response","10","91023","0.0-10.0","null","<br><br><br><br><p><img src='run_exp/static/images/blue_win.png' height='500'></p>","null","","","","","","","","","","","","","","","","","","",""
"","html-keyboard-response","11","91939","0.0-11.0","913.0999999046326","<br><br><br><br><p><img src='run_exp/static/images/blue.png' height='500'></p>","49","","","","","","","","","","","","","","","","","","",""
"","html-keyboard-response","12","93445","0.0-12.0","null","<br><br><br><br><p><img src='run_exp/static/images/blue_no_win.png' height='500'></p>","null","","","","","","","","","","","","","","","","","","",""
"","html-keyboard-response","13","94139","0.0-13.0","692.0999999046326","<br><br><br><br><p><img src='run_exp/static/images/blue.png' height='500'></p>","49","","","","","","","","","","","","","","","","","","",""
"","html-keyboard-response","14","95646","0.0-14.0","null","<br><br><br><br><p><img src='run_exp/static/images/blue_win.png' height='500'></p>","null","","","","","","","","","","","","","","","","","","",""
"","html-keyboard-response","15","96353","0.0-15.0","703.5999999046326","<br><br><br><br><p><img src='run_exp/static/images/blue.png' height='500'></p>","49","","","","","","","","","","","","","","","","","","",""
"","html-keyboard-response","16","97869","0.0-16.0","null","<br><br><br><br><p><img src='run_exp/static/images/blue_win.png' height='500'></p>","null","","","","","","","","","","","","","","","","","","",""
"","html-keyboard-response","17","98828","0.0-17.0","956.2999999523163","<br><br><br><br><p><img src='run_exp/static/images/blue.png' height='500'></p>","49","","","","","","","","","","","","","","","","","","",""
"","html-keyboard-response","18","100330","0.0-18.0","null","<br><br><br><br><p><img src='run_exp/static/images/blue_win.png' height='500'></p>","null","","","","","","","","","","","","","","","","","","",""
"","html-keyboard-response","19","100894","0.0-19.0","560.7999999523163","<br><br><br><br><p><img src='run_exp/static/images/blue.png' height='500'></p>","49","","","","","","","","","","","","","","","","","","",""
"","html-keyboard-response","20","102407","0.0-20.0","null","<br><br><br><br><p><img src='run_exp/static/images/blue_no_win.png' height='500'></p>","null","","","","","","","","","","","","","","","","","","",""
"","html-keyboard-response","21","103117","0.0-21.0","707.0999999046326","<br><br><br><br><p><img src='run_exp/static/images/blue.png' height='500'></p>","49","","","","","","","","","","","","","","","","","","",""
"","html-keyboard-response","22","104630","0.0-22.0","null","<br><br><br><br><p><img src='run_exp/static/images/blue_win.png' height='500'></p>","null","","","","","","","","","","","","","","","","","","",""
"","html-keyboard-response","23","105364","0.0-23.0","730.6000000238419","<br><br><br><br><p><img src='run_exp/static/images/blue.png' height='500'></p>","49","","","","","","","","","","","","","","","","","","",""
"","html-keyboard-response","24","106872","0.0-24.0","null","<br><br><br><br><p><img src='run_exp/static/images/blue_win.png' height='500'></p>","null","","","","","","","","","","","","","","","","","","",""
"","html-keyboard-response","25","111441","0.0-25.0","4566.5","<div class='center'><p> See, he was successful at robbing the ships most of the time but not every time. </p><p><b>[Press the space bar to continue]</b></p></div>","32","","","","","","","","","","","","","","","","","","",""
"","html-keyboard-response","26","127630","0.0-26.0","16186.5","<div class='center'><p>In the game, you will get to choose which of three pirates you want to rob the next ship. <p>Press the <b>‘1’</b> button on your keyboard to pick the pirate with the red beard.</p><p> Press <b>‘2’</b> to pick the pirate with the white beard.</p><p> Press <b>‘3’</b> to pick the pirate with the black beard.</p><p>Try picking a pirate now!</p><p><img src='run_exp/static/images/all_pirates.png' height='500'></p></div>","49","","","","","","","","","","","","","","","","","","",""
"","html-keyboard-response","27","130686","0.0-27.0-0.0","3054","<div class='center'><p>This pirate was successful at robbing the ship!</p><p><img src='run_exp/static/images/red_win.png' height='500'></p><p><b>[Press the space bar to continue]</b></p></div>","32","","","","","","","","","","","","","","","","","","",""
"","html-keyboard-response","28","134237","0.0-27.0-1.0","3550.0999999046326","<div class='center'><p>Now try choosing another</p><p><img src='run_exp/static/images/all_pirates.png' height='500'></p></div>","50","","","","","","","","","","","","","","","","","","",""
"","html-keyboard-response","29","137024","0.0-28.0-0.0","2784.7000000476837","<div class='center'><p>This pirate was not successful at robbing the ship!</p><p><img src='run_exp/static/images/white_no_win.png' height='500'></p><p><b>[Press the space bar to continue]</b></p></div>","32","","","","","","","","","","","","","","","","","","",""
"","html-keyboard-response","30","145542","0.0-29.0-0.0","8517","<div class='center'><p>You’ll stop at these 6 places on your journey.</p><p><img src='run_exp/static/images/all_contexts.png' height='500'></p><p><b>[Press the space bar to continue]</b></p></div>","32","","","","","","","","","","","","","","","","","","",""
"","html-keyboard-response","31","156360","0.0-29.0-1.0","10816.899999976158","<div class='center'><p>How good a pirate is at robbing ships will depend on the current place.</p><p> Some pirates will have been to the place before, and will have more experience robbing ships there.</p><p>So, they will be more successful at stealing gold and bringing it back to you.</p><p><b>[Press the space bar to continue]</b></p></div>","32","","","","","","","","","","","","","","","","","","",""
"","html-keyboard-response","32","178411","0.0-29.0-2.0","22047.5","<div class='center'><p>How successful a pirate is at robbing ships can also change in a place.<p> Ships may hear about the pirates coming and will improve their defenses. This may make it more difficult to rob them.</p><p> Ships may also grow lazy and lower their defenses. This may make it easier to rob them.</p><br><p>Things are always changing on the high seas! So, try your best to pay attention!</p><p><img src='run_exp/static/images/contingency.png' height='500'></p><p><b>[Press the space bar to continue]</b></p></div>","32","","","","","","","","","","","","","","","","","","",""
"","html-keyboard-response","33","224905","0.0-29.0-3.0","46490.699999928474","<div class='center'><p>Once you choose a pirate to rob a ship, you’ll be shown the ship they are robbing.</p><p>The ship will have a picture of the item they sold at the marketplace.</p><p> Try your best to remember the ship and where you saw the ship.</p><p> You’ll have to remember this for later, and remembering this correctly will help you win more bonus money!</p><p>You can remember the ship by remembering the item they sold at the marketplace</p><p>A helpful strategy is to try to come up with a story of the chosen pirate and ship’s item interacting with the scene.</p><p> For example, a ship might have sold travel mugs and you could imagine red beard walking through the city with a travel mug. </p><p>Or imagine an apple falling from a tree into white beard's hands in the forest.</p><p><img src='run_exp/static/images/example_probe.png' height='500'></p><p><b>[Press the space bar to continue]</b></p></div>","32","","","","","","","","","","","","","","","","","","",""
"","html-keyboard-response","34","245928","0.0-29.0-4.0","21021","<div class='center'><p>If you don’t make your choice fast enough, you’ll have to wait a few seconds before you can make another one. </p><p>You can’t win more gold. You just have to sit and wait.</p><p><img src='run_exp/static/images/hurry_up.png' height='500'></p><p><b>[Press the space bar to continue]</b></p></div>","32","","","","","","","","","","","","","","","","","","",""
"","html-keyboard-response","35","287129","0.0-29.0-5.0","41199.60000002384","<div class='center'><p>Again, you have two important things to do: </p><b><p> 1. Pick the pirate who you think will be most successful at robbing the next ship.</p></b><b><p> 2. Remember where a pirate robbed a ship.</p> </b><p>Both are important in determining how much bonus money you’ll win.</p><br><p>Let’s try a practice game. The game will start by showing you the pirates. First pick a pirate using the <b> 1, 2, 3 </b> buttons on your keyboard. When you are shown a ship, try to remember the place you’re in by making up a story.</p><p> You only have 3 seconds to pick a pirate, so please make a choice quickly! If you are too slow, you’ll have to wait a bit during the time out.</p><p> Don’t feel rushed, but please do try to make a choice every time.</p><p>How good a pirate is at robbing a ship will change depending on the place they are in and how good the defenses are of the ship.</p> <p>This is just a practice game, so you’re not playing for money. </p><p>You’ll receive a bag which may or may not contain gold coins.</p><p> In the real game, though, you’ll be able to see whether or not you received the gold coins.</p><p> Good luck, remember press <b>'1'</b> to choose red beard, <b>'2'</b> to choose white beard, and <b>'3'</b> to choose black beard</p><p><b>[Press the space bar to begin the practice game]</b></p></div>","32","","","","","","","","","","","","","","","","","","",""
"","do_trial_prac","36","294009","0.0-29.0-6.0","2356.899999976158","","","","49","","","","","","","","","","","","","","","","",""
"","do_trial_prac","37","301036","0.0-29.0-7.0","2513.3000000715256","","","","50","","","","","","","","","","","","","","","","",""
"","do_trial_prac","38","307760","0.0-29.0-8.0","2218.5","","","","51","","","","","","","","","","","","","","","","",""
"","do_trial_prac","39","313336","0.0-29.0-9.0","1069.6000000238419","","","","50","","","","","","","","","","","","","","","","",""
"","do_trial_prac","40","319062","0.0-29.0-10.0","1220.0999999046326","","","","49","","","","","","","","","","","","","","","","",""
"","html-keyboard-response","41","330004","0.0-29.0-11.0","10940.399999976158","<div class='center'><p>Great job on the practice game!</p><p> Now, you will be asked you some true or false questions to make sure you really understand the rules of the game.</p><p> Press <b>'1'</b> on the keyboard for true and press <b>'2'</b> for false.</p><p><b>[Press the space bar to begin the quiz]</b></p></div>","32","","","","","","","","","","","","","","","","","","",""
"","html-keyboard-response","42","337885","0.0-29.0-12.0","7878.799999952316","<div class='center'><p>You win bonus money by making choices as fast as possible.</p><p>Press 1 for true and press  2 for false.</p></div>","49","","","","","","","","","","","","","","","","","","",""
"","html-keyboard-response","43","345158","0.0-30.0-0.0","7269.899999976158","<br><br><br><br><p>That’s incorrect! You win bonus money by collecting as many gold coins as possible!</p><p><b>[press the space bar to continue with the quiz]</b></p>","32","","","","","","","","","","","","","","","","","","",""
"","html-keyboard-response","44","358677","0.0-30.0-1.0","13517.600000023842","<div class='center'><p>You press the <b>‘3’</b> button on the keyboard to choose the red bearded pirate? </p><p>Press 1 for true and press  2 for false.</p></div>","49","","","","","","","","","","","","","","","","","","",""
"","html-keyboard-response","45","364356","0.0-31.0-0.0","5676.300000071526","<br><br><br><br><p>That’s incorrect! You press the <b>‘1’</b> button to choose the red bearded pirate!</p><p><b>[press the space bar to continue with the quiz]</b></p>","32","","","","","","","","","","","","","","","","","","",""
"","html-keyboard-response","46","371877","0.0-31.0-1.0","7520.700000047684","<div class='center'><p>A pirate will always be equally successful at robbing ships in each place</p><p>Press 1 for true and press  2 for false.</p></div>","50","","","","","","","","","","","","","","","","","","",""
"","html-keyboard-response","47","374220","0.0-32.0-0.0","2341.8000000715256","<br><br><br><br><p>That's correct!</p> <p><b>[press the space bar to continue with the quiz]</b></p>","32","","","","","","","","","","","","","","","","","","",""
"","html-keyboard-response","48","378722","0.0-32.0-1.0","4502.099999904633","<div class='center'><p>You should remember the place where a pirate robbed a ship.</p><p>Press 1 for true and press  2 for false.</p></div>","49","","","","","","","","","","","","","","","","","","",""
"","html-keyboard-response","49","381713","0.0-33.0-0.0","2989.399999976158","<br><br><br><br><p>That's correct!</p> <p><b>[press the space bar to continue with the quiz]</b></p>","32","","","","","","","","","","","","","","","","","","",""
"","html-keyboard-response","50","391858","0.0-34.0-0.0","10144.200000047684","<br><br><br><br><p>Oops, you missed some questions. Now that you’ve heard the correct answers. Try the quiz again! If you fail the quiz too many times, you won’t be able to do the experiment. </p> <p><br>[press the space bar to repeat the quiz]</br></p>","32","","","","","","","","","","","","","","","","","","",""
"","html-keyboard-response","51","396535","0.0-34.0-1.0","4674.699999928474","<div class='center'><p>You win bonus money by making choices as fast as possible.</p><p>Press 1 for true and press  2 for false.</p></div>","50","","","","","","","","","","","","","","","","","","",""
"","html-keyboard-response","52","398923","0.0-35.0-0.0","2386.3000000715256","<br><br><br><br><p>That's correct!</p> <p><b>[press the space bar to continue with the quiz]</b></p>","32","","","","","","","","","","","","","","","","","","",""
"","html-keyboard-response","53","403750","0.0-35.0-1.0","4824.599999904633","<div class='center'><p>You press the <b>‘3’</b> button on the keyboard to choose the red bearded pirate? </p><p>Press 1 for true and press  2 for false.</p></div>","50","","","","","","","","","","","","","","","","","","",""
"","html-keyboard-response","54","405871","0.0-36.0-0.0","2119.5","<br><br><br><br><p>That's correct!</p> <p><b>[press the space bar to continue with the quiz]</b></p>","32","","","","","","","","","","","","","","","","","","",""
"","html-keyboard-response","55","413482","0.0-36.0-1.0","7609","<div class='center'><p>A pirate will always be equally successful at robbing ships in each place</p><p>Press 1 for true and press  2 for false.</p></div>","50","","","","","","","","","","","","","","","","","","",""
"","html-keyboard-response","56","416220","0.0-37.0-0.0","2736","<br><br><br><br><p>That's correct!</p> <p><b>[press the space bar to continue with the quiz]</b></p>","32","","","","","","","","","","","","","","","","","","",""
"","html-keyboard-response","57","419451","0.0-37.0-1.0","3229.7000000476837","<div class='center'><p>You should remember the place where a pirate robbed a ship.</p><p>Press 1 for true and press  2 for false.</p></div>","49","","","","","","","","","","","","","","","","","","",""
"","html-keyboard-response","58","421359","0.0-38.0-0.0","1888.7000000476837","<br><br><br><br><p>That's correct!</p> <p><b>[press the space bar to continue with the quiz]</b></p>","32","","","","","","","","","","","","","","","","","","",""
"","html-keyboard-response","59","432878","0.0-39.0-0.0","11518.299999952316","<br><br><br><br><p>Good job! You’re now ready to move on to the real game!</p> <p><br>[press the space bar to begin!]</br></p>","32","","","","","","","","","","","","","","","","","","",""
"","do_welcome","60","434384","0.0-40.0-0.0","null","","","","null","","","","","","","","","","","","","","","","",""
"","do_trial","61","440485","0.0-41.0-0.0","1540","","","","50","1,0,0","0","mountain","0","probe-33","1","0.4","0.1","0","","","","","","","",""
"","do_trial","62","447854","0.0-42.0-0.0","2801.8000000715256","","","","50","1,0,0","0","mountain","1","probe-74","1","0.4058776038938158","0.10674819283125851","0","","","","","","","",""
"","do_trial","63","454954","0.0-43.0-0.0","2520.5","","","","51","1,1,0","0","mountain","2","probe-96","1","0.33930372815668053","0.1392427455033942","0","","","","","","","",""
"","do_trial","64","462333","0.0-44.0-0.0","2797.5","","","","50","1,0,0","0","mountain","3","probe-151","1","0.3383413239742531","0.11982866305719393","0","","","","","","","",""
"","do_trial","65","468572","0.0-45.0-0.0","1633.2999999523163","","","","51","1,1,0","0","mountain","4","probe-106","0.9349764439587336","0.31571345871943984","0.1611082732470194","0","","","","","","","",""
"","do_trial","66","474556","0.0-46.0-0.0","1382.8000000715256","","","","49","1,0,0","0","mountain","5","probe-101","0.7410901678403664","0.248527729846092","0.1792539179952884","1","","","","","","","",""
"","do_trial","67","481859","0.0-47.0-0.0","2727.3000000715256","","","","50","1,0,0","0","mountain","6","probe-199","0.6859820014374515","0.4149075742772949","0.2895034105314544","0","","","","","","","",""
"","do_trial","68","487178","0.0-48.0-0.0","761.5999999046326","","","","49","1,1,0","0","mountain","7","probe-44","0.7806939893664904","0.4712974258470867","0.16277221049384366","1","","","","","","","",""
"","do_trial","69","493011","0.0-49.0-0.0","1275","","","","49","1,1,1","0","mountain","8","probe-45","0.8231345253219358","0.5161136233222664","0.22645555385077742","1","","","","","","","",""
"","do_trial","70","498633","0.0-50.0-0.0","1055.2999999523163","","","","49","1,1,0","0","mountain","9","probe-218","0.8277554446439721","0.6313556136584717","0.09083071847744856","1","","","","","","","",""
"","do_trial","71","504497","0.0-51.0-0.0","1293.4000000953674","","","","49","0,1,0","0","mountain","10","probe-37","0.4931964755661655","0.7906870885828","0.262675499000394","0","","","","","","","",""
"","do_trial","72","510600","0.0-52.0-0.0","null","","","","null","0,1,1","0","mountain","11","probe-02","0.38096649703063556","0.7841928020056106","0.3350073236582108","","","","","","","","",""
"","do_trial","73","516042","0.0-53.0-0.0","869.7999999523163","","","","49","0,0,0","0","mountain","12","probe-67","0.25275615996526063","0.8588112188319145","0.364635442245517","0","","","","","","","",""
"","do_trial","74","521534","0.0-54.0-0.0","910.6999999284744","","","","50","1,1,0","0","mountain","13","probe-143","0.054368987204919235","0.9435856636129241","0.4864036761499784","1","","","","","","","",""
"","do_trial","75","526894","0.0-55.0-0.0","776.5","","","","50","0,0,1","0","mountain","14","probe-208","0.12782260509052143","0.8820974776490084","0.43087266927404605","0","","","","","","","",""
"","do_trial","76","532104","0.0-56.0-0.0","631.8000000715256","","","","51","0,1,0","0","mountain","15","probe-113","0.16139359378349322","0.8340423522066166","0.3684322016166314","0","","","","","","","",""
"","do_trial","77","537555","0.0-57.0-0.0","837","","","","51","0,1,1","0","mountain","16","probe-137","0.15641020568387712","0.9205790098978041","0.3420014577932182","1","","","","","","","",""
"","do_trial","78","542885","0.0-58.0-0.0","711.3000000715256","","","","50","1,1,0","0","mountain","17","probe-122","0.11835740853626948","0.9254692005899352","0.24393550046367413","1","","","","","","","",""
"","do_trial","79","548597","0.0-59.0-0.0","1147.3999999761581","","","","50","0,1,1","0","mountain","18","probe-72","0.056368088211753896","0.9109475817055982","0.3974223138982954","1","","","","","","","",""
"","do_trial","80","553971","0.0-60.0-0.0","807.3999999761581","","","","49","0,1,0","0","mountain","19","probe-186","0.14298968273073892","0.8949211139270129","0.2895356461845595","0","","","","","","","",""
"","do_trial","81","559647","0.0-61.0-0.0","1119.1000000238419","","","","50","0,1,0","0","mountain","20","probe-43","0.1324320171392979","0.9366565072488764","0.26626799124503364","1","","","","","","","",""
"","do_trial","82","565261","0.0-62.0-0.0","1053.7999999523163","","","","51","0,1,1","0","mountain","21","probe-147","0.05103223081561553","0.8540578454267974","0.35341920323635106","1","","","","","","","",""
"","do_trial","83","570791","0.0-63.0-0.0","942.7999999523163","","","","51","1,1,1","0","mountain","22","probe-171","0.09240384854273359","0.7380601930297648","0.3792249673228348","1","","","","","","","",""
"","do_trial","84","576142","0.0-64.0-0.0","784.2000000476837","","","","50","0,0,1","0","mountain","23","probe-172","0.13510728420468973","0.6589571734510231","0.3206820826688741","0","","","","","","","",""
"","do_trial","85","581946","0.0-65.0-0.0","1222.4000000953674","","","","49","0,0,1","0","mountain","24","probe-92","0.11432296917508632","0.7339282422555892","0.3466898185061335","0","","","","","","","",""
"","do_trial","86","587619","0.0-66.0-0.0","1084.2000000476837","","","","50","1,1,1","0","mountain","25","probe-124","0.10078079449832666","0.5989198805468836","0.2666082355552522","1","","","","","","","",""
"","do_trial","87","593764","0.0-67.0-0.0","1568","","","","50","0,1,0","0","mountain","26","probe-20","0.2121861881470573","0.6493994532883588","0.25211639237052114","1","","","","","","","",""
"","do_trial","88","600124","0.0-68.0-0.0","1748.3999999761581","","","","50","0,1,0","0","mountain","27","probe-27","0.27171671341188136","0.712534417454025","0.21476468975535074","1","","","","","","","",""
"","do_trial","89","605842","0.0-69.0-0.0","1151.3999999761581","","","","49","0,1,1","0","mountain","28","probe-102","0.36428730070017795","0.7791787394957678","0.34389258446336857","0","","","","","","","",""
"","do_trial","90","611447","0.0-70.0-0.0","1043.8999999761581","","","","51","0,1,0","0","mountain","29","probe-84","0.20268195412732254","0.6926657159855547","0.27558431433775105","0","","","","","","","",""
"","do_trial","91","616777","0.0-71.0-0.0","765.7000000476837","","","","49","0,1,1","0","mountain","30","probe-36","0.24386178446448584","0.8617569641284821","0.2266638769404613","0","","","","","","","",""
"","do_trial","92","623080","0.0-72.0-0.0","1745.2000000476837","","","","50","0,1,1","0","mountain","31","probe-156","0.07052467836710224","0.8273505651292244","0.32428642959130033","1","","","","","","","",""
"","do_trial","93","628632","0.0-73.0-0.0","958","","","","51","0,1,0","0","mountain","32","probe-231","0.1009965912433887","0.7879729903272665","0.2781198578853222","0","","","","","","","",""
"","do_trial","94","634251","0.0-74.0-0.0","993","","","","50","1,1,0","0","mountain","33","probe-150","0.056883562365856066","0.7720136819508262","0.24429659931374414","1","","","","","","","",""
"","do_trial","95","639781","0.0-75.0-0.0","956","","","","50","1,0,0","0","mountain","34","probe-179","0.22881594333671157","0.6850878285535175","0.4120389769122255","0","","","","","","","",""
"","do_trial","96","644993","0.0-76.0-0.0","633.5","","","","51","0,1,1","0","mountain","35","probe-210","0.0566151617341302","0.7032881502535083","0.4142276938469879","1","","","","","","","",""
"","do_trial","97","650974","0.0-77.0-0.0","1380.2000000476837","","","","50","0,1,0","0","mountain","36","probe-182","0.080219139832031","0.6263072431791171","0.3137418273339592","1","","","","","","","",""
"","do_trial","98","656867","0.0-78.0-0.0","1298.9000000953674","","","","49","0,1,0","0","mountain","37","probe-85","0.14404426165216838","0.6440328918885438","0.33613716163978724","0","","","","","","","",""
"","do_trial","99","663127","0.0-79.0-0.0","1686.1000000238419","","","","50","0,0,0","0","mountain","38","probe-170","0.21563155576926263","0.7229304887920799","0.27594685283772263","0","","","","","","","",""
"","do_trial","100","669001","0.0-80.0-0.0","1315.1999999284744","","","","51","1,1,0","0","mountain","39","probe-220","0.22913730804608462","0.6770618020658262","0.34496256364948286","0","","","","","","","",""
"","do_bye","101","670506","0.0-81.0-0.0","null","","","","null","","","","","","","","","","","","","","","","",""
"","do_travel","102","676509","0.0-82.0-0.0","null","","","","null","","","","","","","","","","","","","","","","",""
"","do_welcome","103","678014","0.0-82.0-1.0","null","","","","null","","","","","","","","","","","","","","","","",""
"","do_trial","104","684017","0.0-83.0-0.0","1444.1999999284744","","","","50","0,1,0","1","countryside","40","probe-91","0.30077696670715526","1","0.3937489942783004","1","","","","","","","",""
"","do_trial","105","689641","0.0-84.0-0.0","1044","","","","50","1,1,1","1","countryside","41","probe-54","0.3348403479472663","1","0.33563109891214493","1","","","","","","","",""
"","do_trial","106","695564","0.0-85.0-0.0","1337.3999999761581","","","","50","0,1,1","1","countryside","42","probe-188","0.2075284554111865","1","0.27935716062123866","1","","","","","","","",""
"","do_trial","107","702332","0.0-86.0-0.0","2176.8000000715256","","","","50","1,1,0","1","countryside","43","probe-63","0.0859264321719212","1","0.3141935144090618","1","","","","","","","",""
"","do_trial","108","708330","0.0-87.0-0.0","1341.8999999761581","","","","50","0,1,0","1","countryside","44","probe-55","0.1654524295621927","0.912432903387344","0.3460285839559979","1","","","","","","","",""
"","do_trial","109","713887","0.0-88.0-0.0","951.2000000476837","","","","50","0,1,1","1","countryside","45","probe-177","0.1843203854401282","0.8721977167408328","0.3089948069745805","1","","","","","","","",""
"","do_trial","110","719319","0.0-89.0-0.0","832.1000000238419","","","","50","0,0,0","1","countryside","46","probe-165","0.09478501853067134","0.7446953195979092","0.47121375515296154","0","","","","","","","",""
"","do_trial","111","725016","0.0-90.0-0.0","1106.7999999523163","","","","50","0,1,0","1","countryside","47","probe-236","0.09951716745013013","0.7119576075493902","0.3943245108606246","1","","","","","","","",""
"","do_trial","112","730612","0.0-91.0-0.0","1039.1999999284744","","","","50","1,1,1","1","countryside","48","probe-48","0.051638441393786864","0.7833049079014126","0.4054286140824353","1","","","","","","","",""
"","do_trial","113","736241","0.0-92.0-0.0","1066.3999999761581","","","","50","0,1,1","1","countryside","49","probe-30","0.05766364800315106","0.8850501894876932","0.4370509825079793","1","","","","","","","",""
"","do_trial","114","741746","0.0-93.0-0.0","947.6999999284744","","","","50","0,1,0","1","countryside","50","probe-50","0.06385254533651598","0.6529789778779131","0.5631826180682066","1","","","","","","","",""
"","do_trial","115","747219","0.0-94.0-0.0","912.7000000476837","","","","50","0,1,0","1","countryside","51","probe-219","0.050997526331852186","0.6439640034668297","0.634856590620662","1","","","","","","","",""
"","do_trial","116","752666","0.0-95.0-0.0","858.8999999761581","","","","50","0,0,0","1","countryside","52","probe-141","0.12169181374356723","0.6365686842387929","0.6996787096266234","0","","","","","","","",""
"","do_trial","117","758252","0.0-96.0-0.0","964.2999999523163","","","","51","0,0,1","1","countryside","53","probe-216","0.08295640130499592","0.5399273940812309","0.6916447661894293","1","","","","","","","",""
"","do_trial","118","763767","0.0-97.0-0.0","935.4000000953674","","","","50","0,0,1","1","countryside","54","probe-209","0.19809062542256628","0.5303177154756049","0.6653362494838261","0","","","","","","","",""
"","do_trial","119","769328","0.0-98.0-0.0","986","","","","50","0,0,1","1","countryside","55","probe-117","0.1750852833138617","0.42257799967382365","0.7391581814441095","0","","","","","","","",""
"","do_trial","120","774743","0.0-99.0-0.0","836.3999999761581","","","","49","0,1,0","1","countryside","56","probe-109","0.1299819841933158","0.4908083331914701","0.7884216146787459","0","","","","","","","",""
"","do_trial","121","779332","0.0-100.0-0.0","16.800000071525574","","","","51","0,0,1","1","countryside","57","probe-24","0.09436755167968439","0.5002820121576382","0.9313760834660831","1","","","","","","","",""
"","do_trial","122","784633","0.0-101.0-0.0","735.3999999761581","","","","51","0,0,1","1","countryside","58","probe-227","0.19267762739911276","0.46735393047484125","0.8584333719422392","1","","","","","","","",""
"","do_trial","123","790125","0.0-102.0-0.0","932.8000000715256","","","","51","0,1,1","1","countryside","59","probe-08","0.13167271392656266","0.4485849976310932","0.8167376249003003","1","","","","","","","",""
"","do_trial","124","795909","0.0-103.0-0.0","1224.8000000715256","","","","50","1,0,1","1","countryside","60","probe-191","0.23145465807084467","0.36000727497843765","0.8304530646535065","0","","","","","","","",""
"","do_trial","125","801853","0.0-104.0-0.0","1380.7000000476837","","","","49","0,0,1","1","countryside","61","probe-234","0.1749668185547284","0.23886090361636","0.8007014141571358","0","","","","","","","",""
"","do_trial","126","807229","0.0-105.0-0.0","816","","","","51","1,1,1","1","countryside","62","probe-194","0.1458879806660981","0.22382168500417726","0.8833727600675831","1","","","","","","","",""
"","do_trial","127","813377","0.0-106.0-0.0","1572","","","","51","0,1,1","1","countryside","63","probe-13","0.209139453197509","0.3250466924208878","0.8089973349179118","1","","","","","","","",""
"","do_trial","128","818876","0.0-107.0-0.0","925.6000000238419","","","","51","0,0,1","1","countryside","64","probe-198","0.10023117736401677","0.3468116801254841","0.8880134266117502","1","","","","","","","",""
"","do_trial","129","824359","0.0-108.0-0.0","866.6999999284744","","","","51","0,1,0","1","countryside","65","probe-94","0.08118065836072383","0.41637974602637673","0.851753519256415","0","","","","","","","",""
"","do_trial","130","829813","0.0-109.0-0.0","827.3999999761581","","","","50","0,0,1","1","countryside","66","probe-105","0.17509377250874894","0.2368803250095586","0.8684670680122326","0","","","","","","","",""
"","do_trial","131","835458","0.0-110.0-0.0","1052","","","","51","1,1,1","1","countryside","67","probe-239","0.27286302100162396","0.44596197557666223","0.8794814644868347","1","","","","","","","",""
"","do_trial","132","840914","0.0-111.0-0.0","865.7000000476837","","","","51","1,1,1","1","countryside","68","probe-196","0.2514255730585642","0.5262614883848231","0.8514651599492923","1","","","","","","","",""
"","do_trial","133","846541","0.0-112.0-0.0","1061.6000000238419","","","","51","0,0,1","1","countryside","69","probe-62","0.22515544131489823","0.4217976397512283","0.8357591341324895","1","","","","","","","",""
"","do_trial","134","851792","0.0-113.0-0.0","690","","","","51","0,1,1","1","countryside","70","probe-73","0.13907643661006158","0.3914325378622075","0.832997209077457","1","","","","","","","",""
"","do_trial","135","857072","0.0-114.0-0.0","721.5","","","","51","1,0,1","1","countryside","71","probe-28","0.13840871985218933","0.3788947053515987","0.7978432135508211","1","","","","","","","",""
"","do_trial","136","862408","0.0-115.0-0.0","775.9000000953674","","","","51","1,0,0","1","countryside","72","probe-76","0.19600970035919268","0.3790936276315572","0.6835961974457645","0","","","","","","","",""
"","do_trial","137","867732","0.0-116.0-0.0","745.3000000715256","","","","49","0,0,1","1","countryside","73","probe-148","0.08728477111415826","0.4899557107449616","0.7651723211293778","0","","","","","","","",""
"","do_trial","138","873015","0.0-117.0-0.0","654.4000000953674","","","","50","0,0,1","1","countryside","74","probe-178","0.07738139971057265","0.3742334097890179","0.8521383857794289","0","","","","","","","",""
"","do_trial","139","878229","0.0-118.0-0.0","628.4000000953674","","","","51","0,0,1","1","countryside","75","probe-12","0.1046039387096124","0.40837584057379234","0.8389979231414614","1","","","","","","","",""
"","do_trial","140","883762","0.0-119.0-0.0","877.8999999761581","","","","51","0,0,0","1","countryside","76","probe-154","0.14554520831733472","0.5116910218995576","0.7674862585408299","0","","","","","","","",""
"","do_trial","141","889111","0.0-120.0-0.0","773.6999999284744","","","","51","0,1,1","1","countryside","77","probe-238","0.0825275313778483","0.5014597735116871","0.7678773692205914","1","","","","","","","",""
"","do_trial","142","894465","0.0-121.0-0.0","777.3000000715256","","","","51","0,1,0","1","countryside","78","probe-07","0.10834920771723983","0.5262635172443364","0.8012574116846061","0","","","","","","","",""
"","do_trial","143","899724","0.0-122.0-0.0","659.1000000238419","","","","49","0,0,1","1","countryside","79","probe-21","0.09473063556088435","0.47636885137027823","0.9120426497831876","0","","","","","","","",""
"","do_bye","144","901232","0.0-123.0-0.0","null","","","","null","","","","","","","","","","","","","","","","",""
"","do_travel","145","907235","0.0-124.0-0.0","null","","","","null","","","","","","","","","","","","","","","","",""
"","do_welcome","146","908740","0.0-124.0-1.0","null","","","","null","","","","","","","","","","","","","","","","",""
"","do_trial","147","914783","0.0-125.0-0.0","1485","","","","50","0,0,1","2","forest","80","probe-167","0.07213992017227412","0.3438927700440456","1","0","","","","","","","",""
"","do_trial","148","920280","0.0-126.0-0.0","938","","","","49","0,0,1","2","forest","81","probe-14","0.21931331378609348","0.29734423147698297","1","0","","","","","","","",""
"","do_trial","149","925771","0.0-127.0-0.0","933.6000000238419","","","","51","0,0,1","2","forest","82","probe-69","0.1809760939779327","0.4341736881382397","1","1","","","","","","","",""
"","do_trial","150","931563","0.0-128.0-0.0","1210.3999999761581","","","","51","1,0,1","2","forest","83","probe-47","0.1995145045803811","0.2940003069110129","1","1","","","","","","","",""
"","do_trial","151","936966","0.0-129.0-0.0","769.2999999523163","","","","51","0,1,0","2","forest","84","probe-46","0.23031651292319372","0.393671069900937","0.8350543686708848","0","","","","","","","",""
"","do_trial","152","942649","0.0-130.0-0.0","1095.7000000476837","","","","51","0,0,1","2","forest","85","probe-57","0.14328018164160153","0.44526827188219725","0.9272201188750093","1","","","","","","","",""
"","do_trial","153","948093","0.0-131.0-0.0","815.3999999761581","","","","51","0,0,0","2","forest","86","probe-205","0.08791970764274795","0.37233766666629203","0.7924081810728965","0","","","","","","","",""
"","do_trial","154","953327","0.0-132.0-0.0","626.3000000715256","","","","51","0,0,1","2","forest","87","probe-70","0.08700026198389844","0.39873366370696367","0.7807091484183362","1","","","","","","","",""
"","do_trial","155","958597","0.0-133.0-0.0","685.6000000238419","","","","50","1,0,1","2","forest","88","probe-53","0.08707185602624659","0.3794847784929985","0.7078606108095207","0","","","","","","","",""
"","do_trial","156","964172","0.0-134.0-0.0","986.5","","","","51","0,0,1","2","forest","89","probe-224","0.1497349784707373","0.42949045336999503","0.6787410234870717","1","","","","","","","",""
"","do_trial","157","969335","0.0-135.0-0.0","594.2000000476837","","","","51","0,0,0","2","forest","90","probe-131","0.5834632297202316","0.3710882643071435","0.5589033413977949","0","","","","","","","",""
"","do_trial","158","974855","0.0-136.0-0.0","963","","","","50","1,1,0","2","forest","91","probe-06","0.706765171788943","0.37539340916351016","0.5005870719613813","1","","","","","","","",""
"","do_trial","159","980119","0.0-137.0-0.0","706.5","","","","50","1,0,0","2","forest","92","probe-201","0.7725391736327015","0.2695060382530084","0.4547325509462654","0","","","","","","","",""
"","do_trial","160","985083","0.0-138.0-0.0","407.09999990463257","","","","49","0,0,1","2","forest","93","probe-59","0.7659228451116833","0.07393119893268675","0.48910311042796417","0","","","","","","","",""
"","do_trial","161","990278","0.0-139.0-0.0","609.3999999761581","","","","51","1,0,0","2","forest","94","probe-25","0.7931098239290217","0.14522926125062816","0.5447148784519295","0","","","","","","","",""
"","do_trial","162","995207","0.0-140.0-0.0","300.60000002384186","","","","49","1,0,1","2","forest","95","probe-04","0.8490438329303756","0.1204428058375241","0.5307919232256122","1","","","","","","","",""
"","do_trial","163","1000475","0.0-141.0-0.0","687.7999999523163","","","","49","1,1,0","2","forest","96","probe-81","0.772181306672869","0.13889804956095136","0.42367885361168744","1","","","","","","","",""
"","do_trial","164","1005601","0.0-142.0-0.0","552.6000000238419","","","","49","0,0,1","2","forest","97","probe-214","0.7559972542883395","0.20806359238737357","0.5067097031313739","0","","","","","","","",""
"","do_trial","165","1011657","0.0-143.0-0.0","1474.7999999523163","","","","50","1,0,0","2","forest","98","probe-215","0.838688536527485","0.08585881758407192","0.32514221734738774","0","","","","","","","",""
"","do_trial","166","1017353","0.0-144.0-0.0","1112.6000000238419","","","","51","1,0,0","2","forest","99","probe-202","0.7952885417822048","0.17780937145519307","0.35677865525271407","0","","","","","","","",""
"","do_trial","167","1022466","0.0-145.0-0.0","538","","","","49","1,0,1","2","forest","100","probe-119","0.6565237583042167","0.17783691887710465","0.2946736051717285","1","","","","","","","",""
"","do_trial","168","1027762","0.0-146.0-0.0","738.3000000715256","","","","49","1,0,1","2","forest","101","probe-40","0.7705136069391161","0.2666079358888024","0.34265582172919024","1","","","","","","","",""
"","do_trial","169","1033314","0.0-147.0-0.0","981.5","","","","49","1,0,1","2","forest","102","probe-115","0.8470595192122776","0.1787801062672376","0.4522858491523028","1","","","","","","","",""
"","do_trial","170","1038715","0.0-148.0-0.0","839.7000000476837","","","","49","1,0,0","2","forest","103","probe-35","0.9134123001180899","0.11036125196867934","0.6042094563866843","1","","","","","","","",""
"","do_trial","171","1045731","0.0-149.0-0.0","2457.899999976158","","","","49","1,0,1","2","forest","104","probe-225","0.9369288059022565","0.1434643547985139","0.6086188005243687","1","","","","","","","",""
"","do_trial","172","1051061","0.0-150.0-0.0","759.5","","","","49","1,1,0","2","forest","105","probe-240","0.6896987879013863","0.16447913040917214","0.44232522773671556","1","","","","","","","",""
"","do_trial","173","1055783","0.0-151.0-0.0","137.29999995231628","","","","49","1,0,1","2","forest","106","probe-01","0.8037171875438649","0.060128220738141565","0.451443347086315","1","","","","","","","",""
"","do_trial","174","1061213","0.0-152.0-0.0","842.0999999046326","","","","49","0,0,0","2","forest","107","probe-103","0.9078171094440436","0.17828711055789792","0.4271933255958786","0","","","","","","","",""
"","do_trial","175","1065787","0.0-153.0-0.0","0.20000004768371582","","","","49","1,0,0","2","forest","108","probe-15","0.7770768251391512","0.20272397115159876","0.46477843218563925","1","","","","","","","",""
"","do_trial","176","1070971","0.0-154.0-0.0","569.8000000715256","","","","49","1,0,0","2","forest","109","probe-223","0.8803682636774824","0.07230226519410851","0.5102063224160788","1","","","","","","","",""
"","do_trial","177","1076308","0.0-155.0-0.0","743.5","","","","49","1,0,1","2","forest","110","probe-221","0.922348097429466","0.14010484873168974","0.4468555702321785","1","","","","","","","",""
"","do_trial","178","1081701","0.0-156.0-0.0","752.8999999761581","","","","49","1,0,0","2","forest","111","probe-34","0.84345224156034","0.10237477714634141","0.45820732791959656","1","","","","","","","",""
"","do_trial","179","1086955","0.0-157.0-0.0","693.5","","","","49","1,0,0","2","forest","112","probe-128","0.7863632918892779","0.16872115774933394","0.40408029376174254","1","","","","","","","",""
"","do_trial","180","1091628","0.0-158.0-0.0","107.40000009536743","","","","49","1,0,0","2","forest","113","probe-83","0.8606664491672957","0.06502370334653174","0.4402176298198499","1","","","","","","","",""
"","do_trial","181","1097686","0.0-159.0-0.0","null","","","","null","1,0,1","2","forest","114","probe-31","0.914843847910103","0.1155779167264464","0.4995900206910032","","","","","","","","",""
"","do_trial","182","1103463","0.0-160.0-0.0","1214.6000000238419","","","","49","1,0,0","2","forest","115","probe-11","0.7824412797502361","0.22110581773706103","0.384536891474728","1","","","","","","","",""
"","do_trial","183","1110245","0.0-161.0-0.0","2213","","","","49","1,0,1","2","forest","116","probe-66","0.7885960226829852","0.08973028785837527","0.43498352933785406","1","","","","","","","",""
"","do_trial","184","1116645","0.0-162.0-0.0","1824.9000000953674","","","","49","1,0,0","2","forest","117","probe-228","0.8261137692525877","0.08968038116563495","0.4121524588869183","1","","","","","","","",""
"","do_trial","185","1122719","0.0-163.0-0.0","null","","","","null","1,0,0","2","forest","118","probe-149","0.8178747584010873","0.13611373001494503","0.413131819086311","","","","","","","","",""
"","do_trial","186","1127841","0.0-164.0-0.0","543.3000000715256","","","","49","1,1,1","2","forest","119","probe-169","0.9122286018505307","0.2213692157792413","0.36661394753614873","1","","","","","","","",""
"","do_bye","187","1129357","0.0-165.0-0.0","null","","","","null","","","","","","","","","","","","","","","","",""
"","do_travel","188","1135361","0.0-166.0-0.0","null","","","","null","","","","","","","","","","","","","","","","",""
"","do_welcome","189","1136876","0.0-166.0-1.0","null","","","","null","","","","","","","","","","","","","","","","",""
"","do_trial","190","1142210","0.0-167.0-0.0","761.1999999284744","","","","50","1,1,0","3","city","120","probe-217","1","0.3435940041983227","0.4053393915458615","1","","","","","","","",""
"","do_trial","191","1147464","0.0-168.0-0.0","695.8999999761581","","","","50","1,0,0","3","city","121","probe-174","1","0.240935861848536","0.3746655714734965","0","","","","","","","",""
"","do_trial","192","1152627","0.0-169.0-0.0","599","","","","50","1,0,0","3","city","122","probe-65","1","0.18745055180304226","0.45646059691639645","0","","","","","","","",""
"","do_trial","193","1157603","0.0-170.0-0.0","410.90000009536743","","","","51","1,0,1","3","city","123","probe-183","1","0.14580402103360718","0.44535117776776484","1","","","","","","","",""
"","do_trial","194","1162830","0.0-171.0-0.0","652.8000000715256","","","","51","1,1,0","3","city","124","probe-129","0.9191968498487424","0.26080809822853074","0.4586173334466643","0","","","","","","","",""
"","do_trial","195","1167788","0.0-172.0-0.0","399.90000009536743","","","","49","1,0,0","3","city","125","probe-136","0.8903566874476282","0.09422098572989868","0.3690152033630817","1","","","","","","","",""
"","do_trial","196","1173287","0.0-173.0-0.0","909.7000000476837","","","","51","1,0,1","3","city","126","probe-175","0.9212454462989916","0.1538312811536102","0.35894492776686776","1","","","","","","","",""
"","do_trial","197","1178680","0.0-174.0-0.0","804.8999999761581","","","","50","0,0,1","3","city","127","probe-164","0.9335128616285671","0.2128378835286287","0.4028647830356521","0","","","","","","","",""
"","do_trial","198","1183796","0.0-175.0-0.0","526.7000000476837","","","","51","1,0,0","3","city","128","probe-114","0.9375033419589572","0.0994066081359011","0.41987411889127346","0","","","","","","","",""
"","do_trial","199","1189253","0.0-176.0-0.0","853.6999999284744","","","","51","1,0,0","3","city","129","probe-49","0.9494810585666802","0.18235425009387563","0.3042412745383119","0","","","","","","","",""
"","do_trial","200","1194473","0.0-177.0-0.0","632.3999999761581","","","","49","1,1,0","3","city","130","probe-87","0.7267958290167356","0.46054903273896747","0.19923855682537928","1","","","","","","","",""
"","do_trial","201","1199640","0.0-178.0-0.0","588.1000000238419","","","","49","0,1,0","3","city","131","probe-190","0.6019519983992412","0.7148901632659557","0.13737282943178578","0","","","","","","","",""
"","do_trial","202","1204848","0.0-179.0-0.0","644.6000000238419","","","","50","1,0,1","3","city","132","probe-77","0.6247163880732375","0.7612863369601746","0.1985555309514047","0","","","","","","","",""
"","do_trial","203","1209526","0.0-180.0-0.0","108.90000009536743","","","","49","1,1,0","3","city","133","probe-60","0.566836384913559","0.6581813957701756","0.19604188552102927","1","","","","","","","",""
"","do_trial","204","1214954","0.0-181.0-0.0","869.3000000715256","","","","49","0,1,0","3","city","134","probe-116","0.49076578371414864","0.6916591086371835","0.18061333509539054","0","","","","","","","",""
"","do_trial","205","1220196","0.0-182.0-0.0","683.2999999523163","","","","51","1,0,0","3","city","135","probe-03","0.434294110680148","0.6997507890274848","0.1412319912029096","0","","","","","","","",""
"","do_trial","206","1225446","0.0-183.0-0.0","685.6000000238419","","","","50","1,1,1","3","city","136","probe-16","0.3260596162739558","0.800013008913891","0.07016861397176762","1","","","","","","","",""
"","do_trial","207","1230992","0.0-184.0-0.0","916.1999999284744","","","","50","0,1,0","3","city","137","probe-79","0.5020755108391806","0.7141006737690208","0.0941799772646215","1","","","","","","","",""
"","do_trial","208","1236774","0.0-185.0-0.0","1197","","","","50","0,0,0","3","city","138","probe-212","0.6079323742222353","0.5818274996472771","0.16409338797387135","0","","","","","","","",""
"","do_trial","209","1242272","0.0-186.0-0.0","929.8000000715256","","","","49","1,1,0","3","city","139","probe-153","0.5136283069577035","0.5865811581850369","0.18730222281951214","1","","","","","","","",""
"","do_trial","210","1247905","0.0-187.0-0.0","1006","","","","49","1,1,0","3","city","140","probe-56","0.5452186926848072","0.7014173784674081","0.05381417883048654","1","","","","","","","",""
"","do_trial","211","1253544","0.0-188.0-0.0","1041","","","","49","0,0,1","3","city","141","probe-159","0.45320227647313976","0.7147013970072307","0.1685621104458996","0","","","","","","","",""
"","do_trial","212","1259310","0.0-189.0-0.0","1176.1000000238419","","","","50","0,0,0","3","city","142","probe-166","0.35943231404636067","0.6705240549215735","0.2544101728784154","0","","","","","","","",""
"","do_trial","213","1264406","0.0-190.0-0.0","533.4000000953674","","","","51","0,0,0","3","city","143","probe-100","0.39323884028023515","0.6570131142357721","0.2040864272204711","0","","","","","","","",""
"","do_trial","214","1269400","0.0-191.0-0.0","426.7000000476837","","","","50","0,1,0","3","city","144","probe-61","0.5473141222620994","0.8442414195678716","0.13689382696456057","1","","","","","","","",""
"","do_trial","215","1274840","0.0-192.0-0.0","877.4000000953674","","","","50","0,1,0","3","city","145","probe-162","0.371470193924592","0.7994394580266274","0.1859120651878968","1","","","","","","","",""
"","do_trial","216","1280227","0.0-193.0-0.0","820.5","","","","50","0,1,0","3","city","146","probe-192","0.2668910571695204","0.751443795863684","0.12492603983689936","1","","","","","","","",""
"","do_trial","217","1285810","0.0-194.0-0.0","1019.7000000476837","","","","50","0,1,0","3","city","147","probe-09","0.34014223610201405","0.8847917014681871","0.1968666753642416","1","","","","","","","",""
"","do_trial","218","1290606","0.0-195.0-0.0","223.10000002384186","","","","50","0,1,1","3","city","148","probe-185","0.5187351914271343","0.852978589384037","0.16995691166763494","1","","","","","","","",""
"","do_trial","219","1296683","0.0-196.0-0.0","null","","","","null","0,1,0","3","city","149","probe-157","0.46707347443370995","0.8028275203512347","0.23548169194493973","","","","","","","","",""
"","do_trial","220","1302034","0.0-197.0-0.0","769.3999999761581","","","","50","0,1,0","3","city","150","probe-144","0.5256356698477906","0.6912688447434979","0.2247571850995709","1","","","","","","","",""
"","do_trial","221","1307562","0.0-198.0-0.0","947.8999999761581","","","","49","0,1,0","3","city","151","probe-204","0.40783475777489275","0.6350596717625395","0.1249601289975125","0","","","","","","","",""
"","do_trial","222","1312143","0.0-199.0-0.0","0.19999992847442627","","","","51","0,1,0","3","city","152","probe-184","0.3667457563448262","0.7039043859463128","0.1411427308684878","0","","","","","","","",""
"","do_trial","223","1317324","0.0-200.0-0.0","601.5","","","","50","0,1,0","3","city","153","probe-232","0.39273638036063774","0.7169603054076891","0.05328600388949609","1","","","","","","","",""
"","do_trial","224","1323443","0.0-201.0-0.0","null","","","","null","1,1,1","3","city","154","probe-68","0.46682481738478404","0.752546690023359","0.08237272382464125","","","","","","","","",""
"","do_trial","225","1328628","0.0-202.0-0.0","622.7999999523163","","","","50","0,0,0","3","city","155","probe-145","0.378657649051103","0.6995851311675759","0.1197842361423092","0","","","","","","","",""
"","do_trial","226","1333204","0.0-203.0-0.0","0.10000002384185791","","","","49","0,1,0","3","city","156","probe-89","0.39697585956381404","0.7686235032856233","0.10805674594773895","0","","","","","","","",""
"","do_trial","227","1338238","0.0-204.0-0.0","476.2000000476837","","","","51","0,1,0","3","city","157","probe-146","0.3248305307666486","0.9460311704437038","0.0801518025315436","0","","","","","","","",""
"","do_trial","228","1343362","0.0-205.0-0.0","564.8999999761581","","","","51","1,1,0","3","city","158","probe-42","0.41785347357030084","0.9054855653691456","0.0668730080897299","0","","","","","","","",""
"","do_trial","229","1348637","0.0-206.0-0.0","690.3999999761581","","","","50","1,1,0","3","city","159","probe-86","0.45775738398649246","0.9151918178417815","0.06918440045593706","1","","","","","","","",""
"","do_bye","230","1350149","0.0-207.0-0.0","null","","","","null","","","","","","","","","","","","","","","","",""
"","do_travel","231","1356153","0.0-208.0-0.0","null","","","","null","","","","","","","","","","","","","","","","",""
"","do_welcome","232","1357671","0.0-208.0-1.0","null","","","","null","","","","","","","","","","","","","","","","",""
"","do_trial","233","1363427","0.0-209.0-0.0","1176.5","","","","50","0,1,0","4","coast","160","probe-222","0.3941169935139618","1","0.1767381791501873","1","","","","","","","",""
"","do_trial","234","1368551","0.0-210.0-0.0","538.8999999761581","","","","50","0,1,0","4","coast","161","probe-142","0.34131532157056443","1","0.16831541283896015","1","","","","","","","",""
"","do_trial","235","1373734","0.0-211.0-0.0","597.8999999761581","","","","50","1,1,0","4","coast","162","probe-173","0.5214792300900544","1","0.24740863239027527","1","","","","","","","",""
"","do_trial","236","1378917","0.0-212.0-0.0","597.7000000476837","","","","50","0,1,1","4","coast","163","probe-139","0.38633899470506294","1","0.2331134685593286","1","","","","","","","",""
"","do_trial","237","1383729","0.0-213.0-0.0","248.10000002384186","","","","50","0,1,0","4","coast","164","probe-168","0.3722957018885382","0.9451281694613097","0.08390226603909161","1","","","","","","","",""
"","do_trial","238","1388654","0.0-214.0-0.0","361.39999997615814","","","","50","0,1,0","4","coast","165","probe-203","0.39986302631755727","0.9425773758424407","0.1477389342827204","1","","","","","","","",""
"","do_trial","239","1393870","0.0-215.0-0.0","648.2000000476837","","","","50","1,1,1","4","coast","166","probe-132","0.4202968729108041","0.9168170217425256","0.14841342840288022","1","","","","","","","",""
"","do_trial","240","1399036","0.0-216.0-0.0","607.2999999523163","","","","50","0,1,0","4","coast","167","probe-126","0.31876959944057065","0.7082984594890581","0.08701591548328529","1","","","","","","","",""
"","do_trial","241","1404054","0.0-217.0-0.0","460.89999997615814","","","","50","0,0,0","4","coast","168","probe-133","0.4253639408871882","0.5976624242981796","0.06268055463812224","0","","","","","","","",""
"","do_trial","242","1409061","0.0-218.0-0.0","409.2999999523163","","","","50","1,0,0","4","coast","169","probe-118","0.3945277779482093","0.4858302420226734","0.11967949448197608","0","","","","","","","",""
"","do_trial","243","1414428","0.0-219.0-0.0","780.7999999523163","","","","49","0,0,0","4","coast","170","probe-237","0.25774730366951365","0.3594336909026442","0.5559842379569628","0","","","","","","","",""
"","do_trial","244","1419459","0.0-220.0-0.0","422.89999997615814","","","","51","0,0,1","4","coast","171","probe-130","0.0853722085766737","0.28485848919424667","0.6651363090090442","1","","","","","","","",""
"","do_trial","245","1424577","0.0-221.0-0.0","527.5","","","","51","1,1,1","4","coast","172","probe-112","0.18617828361549552","0.4102726657512516","0.802742423142513","1","","","","","","","",""
"","do_trial","246","1429745","0.0-222.0-0.0","594.7999999523163","","","","51","0,0,1","4","coast","173","probe-206","0.0876907072298196","0.28041896023471574","0.7881589767684407","1","","","","","","","",""
"","do_trial","247","1435022","0.0-223.0-0.0","704.3999999761581","","","","51","0,0,1","4","coast","174","probe-163","0.09401152930051432","0.39579536307562424","0.8525773580197997","1","","","","","","","",""
"","do_trial","248","1440594","0.0-224.0-0.0","979.5","","","","51","0,0,1","4","coast","175","probe-71","0.10840706494606175","0.25975736186837933","0.8783363626056928","1","","","","","","","",""
"","do_trial","249","1446216","0.0-225.0-0.0","1064","","","","51","1,0,1","4","coast","176","probe-26","0.08807426104195148","0.3007496064124769","0.8740367125014893","1","","","","","","","",""
"","do_trial","250","1451804","0.0-226.0-0.0","1025.2999999523163","","","","51","0,0,1","4","coast","177","probe-19","0.12237404924819936","0.27176850513152756","0.7561851668388984","1","","","","","","","",""
"","do_trial","251","1457015","0.0-227.0-0.0","645.1000000238419","","","","51","0,0,1","4","coast","178","probe-97","0.122250668359117","0.44961917368137394","0.8823305323452109","1","","","","","","","",""
"","do_trial","252","1461733","0.0-228.0-0.0","154.89999997615814","","","","51","0,1,0","4","coast","179","probe-134","0.1810167592794446","0.4841455369260371","0.8174517815026409","0","","","","","","","",""
"","do_trial","253","1466931","0.0-229.0-0.0","638.5","","","","51","0,0,1","4","coast","180","probe-52","0.07409016440853186","0.4514838073116539","0.9052134642104577","1","","","","","","","",""
"","do_trial","254","1473082","0.0-230.0-0.0","1567.7999999523163","","","","51","0,1,1","4","coast","181","probe-233","0.05878124306662898","0.520386412443055","0.7347691797873883","1","","","","","","","",""
"","do_trial","255","1478813","0.0-231.0-0.0","1116.3000000715256","","","","51","0,0,1","4","coast","182","probe-17","0.0879744362643116","0.49738527161936147","0.9288261362137169","1","","","","","","","",""
"","do_trial","256","1483990","0.0-232.0-0.0","564.2999999523163","","","","51","0,1,1","4","coast","183","probe-32","0.051204340514859024","0.5161965563228345","0.8742589593507288","1","","","","","","","",""
"","do_trial","257","1489129","0.0-233.0-0.0","548","","","","51","0,0,1","4","coast","184","probe-161","0.07187076318566082","0.4545790784004798","0.7953280226424063","1","","","","","","","",""
"","do_trial","258","1494400","0.0-234.0-0.0","668.5","","","","51","0,0,1","4","coast","185","probe-23","0.12830442913722992","0.4206329124289557","0.8273670584919256","1","","","","","","","",""
"","do_trial","259","1499689","0.0-235.0-0.0","700.5","","","","51","0,1,1","4","coast","186","probe-98","0.17433397209357474","0.42400236030489846","0.8324787638067627","1","","","","","","","",""
"","do_trial","260","1505027","0.0-236.0-0.0","774.3000000715256","","","","51","1,1,1","4","coast","187","probe-38","0.15783748524595165","0.5767097059907609","0.8157316074698477","1","","","","","","","",""
"","do_trial","261","1510170","0.0-237.0-0.0","580","","","","51","0,1,1","4","coast","188","probe-158","0.17966447644165295","0.5466491677548023","0.7949698314566596","1","","","","","","","",""
"","do_trial","262","1515273","0.0-238.0-0.0","544.6000000238419","","","","51","0,1,1","4","coast","189","probe-39","0.1519152772013911","0.4064957238972361","0.8159648236593041","1","","","","","","","",""
"","do_trial","263","1520396","0.0-239.0-0.0","561","","","","51","0,0,1","4","coast","190","probe-181","0.2629890997909972","0.5213857304477615","0.7115990110341985","1","","","","","","","",""
"","do_trial","264","1525518","0.0-240.0-0.0","556.6999999284744","","","","51","0,1,1","4","coast","191","probe-78","0.08910842748187008","0.4733171955949842","0.6543092559470205","1","","","","","","","",""
"","do_trial","265","1530772","0.0-241.0-0.0","671.7999999523163","","","","51","0,0,1","4","coast","192","probe-18","0.07860876319453304","0.5140254798710666","0.749528974258407","1","","","","","","","",""
"","do_trial","266","1535906","0.0-242.0-0.0","537.3000000715256","","","","51","0,1,0","4","coast","193","probe-110","0.05332251427856919","0.5402082087432433","0.7448604117396337","0","","","","","","","",""
"","do_trial","267","1541135","0.0-243.0-0.0","629.7000000476837","","","","51","0,0,1","4","coast","194","probe-05","0.12618889092265617","0.4944693297331649","0.7542153405317413","1","","","","","","","",""
"","do_trial","268","1546413","0.0-244.0-0.0","693","","","","51","0,0,1","4","coast","195","probe-155","0.06643232869678807","0.6439945209936205","0.6121078297467801","1","","","","","","","",""
"","do_trial","269","1551888","0.0-245.0-0.0","895.5","","","","51","0,1,0","4","coast","196","probe-235","0.1092962603793278","0.7022468430647572","0.7414077387830075","0","","","","","","","",""
"","do_trial","270","1557055","0.0-246.0-0.0","568.2000000476837","","","","51","0,1,1","4","coast","197","probe-200","0.05127427363004649","0.599334412679005","0.7841935399195711","1","","","","","","","",""
"","do_trial","271","1562273","0.0-247.0-0.0","631.8999999761581","","","","51","0,0,1","4","coast","198","probe-108","0.10227268230583977","0.5249442356091739","0.8693957833869986","1","","","","","","","",""
"","do_trial","272","1567613","0.0-248.0-0.0","772.1000000238419","","","","51","0,0,0","4","coast","199","probe-64","0.14134457893564084","0.4447160843043432","0.8264683814115363","0","","","","","","","",""
"","do_bye","273","1569118","0.0-249.0-0.0","null","","","","null","","","","","","","","","","","","","","","","",""
"","do_travel","274","1575121","0.0-250.0-0.0","null","","","","null","","","","","","","","","","","","","","","","",""
"","do_welcome","275","1576629","0.0-250.0-1.0","null","","","","null","","","","","","","","","","","","","","","","",""
"","do_trial","276","1582315","0.0-251.0-0.0","1128","","","","50","0,1,1","5","highway","200","probe-99","0.12051373186919408","0.5383505675390459","1","1","","","","","","","",""
"","do_trial","277","1587321","0.0-252.0-0.0","446.2999999523163","","","","50","0,0,1","5","highway","201","probe-207","0.06403701551238855","0.4950883640621955","1","0","","","","","","","",""
"","do_trial","278","1592665","0.0-253.0-0.0","763","","","","50","0,0,1","5","highway","202","probe-187","0.07393126734541954","0.4847063577237076","1","0","","","","","","","",""
"","do_trial","279","1597552","0.0-254.0-0.0","316.10000002384186","","","","49","0,0,1","5","highway","203","probe-213","0.12261636792447175","0.24855710851616838","1","0","","","","","","","",""
"","do_trial","280","1602798","0.0-255.0-0.0","659.0999999046326","","","","51","0,1,1","5","highway","204","probe-180","0.20437373254196664","0.3234488154825234","0.8758485479353677","1","","","","","","","",""
"","do_trial","281","1607856","0.0-256.0-0.0","475.2000000476837","","","","51","1,0,1","5","highway","205","probe-111","0.26143216546323994","0.275757742463466","0.8526936456404736","1","","","","","","","",""
"","do_trial","282","1612898","0.0-257.0-0.0","450.7000000476837","","","","51","0,1,1","5","highway","206","probe-197","0.12192124124636465","0.35340784902053474","0.7575512154774129","1","","","","","","","",""
"","do_trial","283","1618182","0.0-258.0-0.0","703.2999999523163","","","","51","0,0,1","5","highway","207","probe-138","0.08954283748314758","0.4034879815874026","0.6468792110666827","1","","","","","","","",""
"","do_trial","284","1623339","0.0-259.0-0.0","578.6000000238419","","","","51","0,0,0","5","highway","208","probe-135","0.10392009035766961","0.37232972828684757","0.5839426711000758","0","","","","","","","",""
"","do_trial","285","1628792","0.0-260.0-0.0","887.5","","","","51","0,1,1","5","highway","209","probe-176","0.07230685988669204","0.32650184129465437","0.5798419898926522","1","","","","","","","",""
"","do_trial","286","1634100","0.0-261.0-0.0","746.3999999761581","","","","51","0,1,1","5","highway","210","probe-121","0.3947190893774301","0.29850662720915044","0.44004536061082994","1","","","","","","","",""
"","do_trial","287","1639242","0.0-262.0-0.0","574.9000000953674","","","","51","0,0,0","5","highway","211","probe-152","0.5447294504808106","0.2316841404364224","0.36949180522156755","0","","","","","","","",""
"","do_trial","288","1644187","0.0-263.0-0.0","382.2000000476837","","","","50","0,0,0","5","highway","212","probe-95","0.528287577827937","0.2594305565579941","0.25143994019806276","0","","","","","","","",""
"","do_trial","289","1649369","0.0-264.0-0.0","596.8999999761581","","","","50","1,0,0","5","highway","213","probe-140","0.6325029369271328","0.31214089226904795","0.07165882331423597","0","","","","","","","",""
"","do_trial","290","1654402","0.0-265.0-0.0","441.40000009536743","","","","51","0,0,0","5","highway","214","probe-125","0.7062986474570204","0.3903006835528472","0.10117521443347545","0","","","","","","","",""
"","do_trial","291","1659571","0.0-266.0-0.0","591","","","","49","1,1,1","5","highway","215","probe-127","0.6769466306305322","0.38631661170955384","0.18595603456693707","1","","","","","","","",""
"","do_trial","292","1664778","0.0-267.0-0.0","604.7000000476837","","","","49","0,0,0","5","highway","216","probe-189","0.7949869623753141","0.40243585439555396","0.10871068028529851","0","","","","","","","",""
"","do_trial","293","1669947","0.0-268.0-0.0","568.5999999046326","","","","49","1,0,0","5","highway","217","probe-82","0.7246630607532748","0.40110315318362433","0.1700352916289107","1","","","","","","","",""
"","do_trial","294","1675281","0.0-269.0-0.0","752.7999999523163","","","","49","0,0,0","5","highway","218","probe-193","0.6333661887965569","0.3170836735134983","0.10021926262995555","0","","","","","","","",""
"","do_trial","295","1680509","0.0-270.0-0.0","651.7000000476837","","","","51","1,1,0","5","highway","219","probe-41","0.7153838737957682","0.5022265148505101","0.15442271987993508","0","","","","","","","",""
"","do_trial","296","1685739","0.0-271.0-0.0","664.1999999284744","","","","49","1,1,0","5","highway","220","probe-211","0.7393951390739618","0.4994908411760584","0.06455767242097712","1","","","","","","","",""
"","do_trial","297","1691127","0.0-272.0-0.0","828.8999999761581","","","","49","1,0,0","5","highway","221","probe-120","0.7013818774562308","0.5134931353684512","0.05799630002467565","1","","","","","","","",""
"","do_trial","298","1696798","0.0-273.0-0.0","1102.9000000953674","","","","49","1,1,1","5","highway","222","probe-29","0.8303672857028214","0.5644859257172222","0.18910650903269408","1","","","","","","","",""
"","do_trial","299","1702210","0.0-274.0-0.0","842.7999999523163","","","","49","1,0,0","5","highway","223","probe-22","0.9298948572003706","0.48136878308290604","0.2543493096421044","1","","","","","","","",""
"","do_trial","300","1707512","0.0-275.0-0.0","739.3999999761581","","","","49","1,0,0","5","highway","224","probe-10","0.9323657088772924","0.30517649466949975","0.1779176248858351","1","","","","","","","",""
"","do_trial","301","1713015","0.0-276.0-0.0","888.8000000715256","","","","49","1,0,0","5","highway","225","probe-104","0.7777544250001125","0.4420472521106477","0.06547746848584382","1","","","","","","","",""
"","do_trial","302","1718450","0.0-277.0-0.0","851.2000000476837","","","","49","0,0,0","5","highway","226","probe-51","0.7642277921339641","0.5489696241185643","0.07473060008257704","0","","","","","","","",""
"","do_trial","303","1723889","0.0-278.0-0.0","866.5","","","","50","1,1,1","5","highway","227","probe-93","0.9070238207874011","0.48713447725584","0.16573417312098193","1","","","","","","","",""
"","do_trial","304","1729643","0.0-279.0-0.0","1170.3000000715256","","","","50","1,1,0","5","highway","228","probe-195","0.8681007776147717","0.3839919694400598","0.05018900818243603","1","","","","","","","",""
"","do_trial","305","1735397","0.0-280.0-0.0","1158.1000000238419","","","","50","0,0,0","5","highway","229","probe-80","0.9496811158132547","0.4448891203214048","0.062440496496952734","0","","","","","","","",""
"","do_trial","306","1740696","0.0-281.0-0.0","709.2999999523163","","","","50","0,1,0","5","highway","230","probe-88","0.9052421370293567","0.4467915989395714","0.22872075217332957","1","","","","","","","",""
"","do_trial","307","1745952","0.0-282.0-0.0","694.1000000238419","","","","50","1,1,0","5","highway","231","probe-230","0.9393201560090902","0.5325358665625176","0.19909126762332213","1","","","","","","","",""
"","do_trial","308","1751511","0.0-283.0-0.0","1000.2999999523163","","","","50","1,0,0","5","highway","232","probe-58","0.9157084959457066","0.5911012543312062","0.190838560646412","0","","","","","","","",""
"","do_trial","309","1757286","0.0-284.0-0.0","1216.2000000476837","","","","50","1,0,0","5","highway","233","probe-75","0.8509313041871903","0.45817986208569383","0.1300282406572846","0","","","","","","","",""
"","do_trial","310","1762623","0.0-285.0-0.0","775.7000000476837","","","","51","1,0,0","5","highway","234","probe-226","0.8082977671755001","0.4250864795918814","0.10576695196987125","0","","","","","","","",""
"","do_trial","311","1767880","0.0-286.0-0.0","697.2000000476837","","","","51","1,0,0","5","highway","235","probe-160","0.8110055590900055","0.29292511002020005","0.06915277450444376","0","","","","","","","",""
"","do_trial","312","1773446","0.0-287.0-0.0","1004.2999999523163","","","","49","1,1,0","5","highway","236","probe-90","0.8493145903245379","0.3779406029856772","0.07581937675820755","1","","","","","","","",""
"","do_trial","313","1778589","0.0-288.0-0.0","560.6999999284744","","","","49","1,0,0","5","highway","237","probe-123","0.9087398029127347","0.31394091385466644","0.176797936303601","1","","","","","","","",""
"","do_trial","314","1784255","0.0-289.0-0.0","1087","","","","49","0,0,0","5","highway","238","probe-107","0.7561010538257703","0.40052546667214783","0.18027158983939082","0","","","","","","","",""
"","do_trial","315","1790033","0.0-290.0-0.0","1192.3999999761581","","","","50","1,0,0","5","highway","239","probe-229","0.73868090456759","0.37174611342889174","0.05391531996003202","0","","","","","","","",""
"","do_bye","316","1791545","0.0-291.0-0.0","null","","","","null","","","","","","","","","","","","","","","","",""
"","html-keyboard-response","317","1899530","0.0-291.0-1.0","107981.29999995232","<div class='center'>You are all done with the first part of the experiment! Thank you for participating. Tomorrow, you will recieve an invite to participate in the next phase of the experiment which you must complete by the end of the day. <p><b>[Press the space bar to end the experiment]</b></p></div>","32","","","","","","","","","","","","2,1,3,5,0,4","32,73,95,150,105,100,198,43,44,217,36,1,66,142,207,112,136,121,71,185,42,146,170,171,91,123,19,26,101,83,35,155,230,149,178,209,181,84,169,219,90,53,187,62,54,176,164,235,47,29,49,218,140,215,208,116,108,23,226,7,190,233,193,12,197,93,104,238,195,61,72,27,75,147,177,11,153,237,6,20,166,13,68,46,45,56,204,69,52,223,130,5,200,58,24,3,80,213,214,201,118,39,114,34,224,239,0,102,14,222,220,33,127,82,30,10,65,227,148,168,216,173,64,182,128,135,174,163,113,48,86,189,76,59,115,2,15,78,211,152,55,158,165,99,60,161,191,8,184,156,143,203,183,231,67,144,88,145,41,85,221,141,172,138,167,202,131,125,132,117,236,129,111,205,162,70,25,18,96,133,51,232,16,31,160,22,97,37,157,38,180,77,17,109,4,154,234,199,107,63,98,206,186,212,179,110,196,137,134,175,120,151,94,139,124,126,188,81,192,40,210,119,28,21,9,103,50,92,194,79,87,229,57,74,225,159,89,122,106,228","12,14,0,1,11,7,8,16,3,13,10,5,9,17,2,4,18,15,6","1,0.9346593692601295,0.9078965281525663,0.8251832071330759,0.8184767427961006,0.7703582671512335,0.7674173186880144,0.7502233695406407,0.8428188253282676,0.8965018873842777,0.6776443272462168,0.5990081853408505,0.614704413508052,0.6334938718393085,0.720137032240151,0.5507296822742409,0.5225522102114633,0.400370868700344,0.31922951461607246,0.3089045056021529,0.36090883878778457,0.4541532357896458,0.5200745812401563,0.4362451375681085,0.31177727809589406,0.3428458836875969,0.3657565332714133,0.46629250170966996,0.47120874059380563,0.2365093211428644,0.32504192349958855,0.3364780627424698,0.42485854175958254,0.41963246949006455,0.44786068834763704,0.4597379073740126,0.59670433785358,0.4877705363912295,0.45694750896748515,0.5578431566962124,0.7921895543189468,0.8297732472891697,0.8441770335154228,0.8399814722011073,0.856011613290387,0.9093746096139446,0.7397672144215397,0.7473020938424537,0.7400304989249594,0.8315679399661027,0.8025468839748627,0.8640378914173532,0.8592406531618924,0.8208115245025497,0.7830359613500164,0.6815668323535673,0.7158424181296397,0.6834571292374151,0.6986145516696134,0.6509276749898942,1,0.8206134450240719,0.9457098967249417,0.8940091196289478,0.9474212611453584,0.8913245820430415,0.7675269660084592,0.6981672004200502,0.7944812418260334,0.7807838471760489,0.6776399583203941,0.5837879861887083,0.5196100530636502,0.526931708318396,0.3923336585916918,0.3768180162102741,0.44263871561410706,0.264761713745482,0.2986783326211119,0.2103591862615155,0.17872625458120162,0.186751275482599,0.274185820573072,0.24649284767328083,0.4219345729624248,0.29654530356880215,0.31549420665190603,0.3034154949235288,0.24346500566086232,0.28101073482130734,0.3919566593903854,0.46988192485084823,0.34862288016042475,0.4542305024389696,0.5760204461399882,0.555306788406996,0.32890355928286596,0.4034987692947774,0.40713895126474525,0.41508930083062257,0.3577785974474522,0.4478568144238799,0.42569995586683435,0.3403476045689379,0.06323771556090257,0.14969286339406065,0.12308414236542577,0.17828358672877379,0.13303060051710214,0.08015325073754456,0.07630564671954572,0.1477695003643199,0.27771670300223966,0.2381169128219193,0.21993240529988353,0.1443080227490386,0.16078807795091912,0.17829904486383905,0.05188392330267257,0.18694541520158212,0.34243938686827585,0.38972399578397365,0.06815539423527145,0.1044501713793821,0.050297871444358204,0.19855977415370155,0.12165668294774581,0.13670986622375114,0.2057920524138581,0.14019957859257198,0.12317835697472079,0.08254363179149315,0.14869545176770715,0.08688990050383852,0.16018932461516153,0.08275543756410607,0.1076309328689557,0.2336366956567747,0.07534664564863626,0.17159709221452332,0.058223106889707686,0.16004910951214502,0.2521103061209236,0.30463730594445504,0.29460329602067636,0.19247204558900463,0.1672443039033751,0.12478214808360835,0.05186791036226666,0.14161775613469485,0.17217734262800313,0.15252839870509383,0.26672802282576213,0.36214486259586465,0.06313105349810044,0.06248084047858414,0.1440908654427381,0.19196446324104405,0.20830743724270817,0.06034972250647094,0.06527766100048094,0.14728177307852558,0.35818246490952294,0.537222444646228,0.7337869376124152,0.723625663457367,0.8821025560543673,0.8516212018636393,0.8451422866304346,0.8136763212117555,0.7293473972184366,0.7595805273122563,0.8865099232924607,0.8694152116996833,0.8751772629232035,0.941740967329365,0.8968147189291428,0.8875025947842328,0.7669265206753064,0.7351899614042026","0.3694201544324813,0.2709604456794431,0.21345044432026805,0.3385445438470455,0.4082316903755583,0.4507293459280341,0.444593165877969,0.454909877193288,0.388904576214533,0.2801316972389657,0.2798644753948676,0.12396919008170112,0.13281828742942792,0.1879085382954845,0.17156393668126976,0.11275851530139976,0.1713300313335941,0.20325414087687818,0.12632189378852002,0.09319504443902947,0.32606154682409894,0.3202960337687385,0.1682755013457667,0.23200958925056284,0.19552436384591546,0.05994439238633216,0.0544149749430245,0.06545384872950556,0.10780494497682483,0.08591509418586171,0.087121448005649,0.12115794670402621,0.0703199471876107,0.057516458972634014,0.15898615901092433,0.24751140204721123,0.15953613436256592,0.29804697767631666,0.11591785467691185,0.16850429857268837,0.14568065616502487,0.06465465578027933,0.208900032065294,0.2236746220937248,0.2538425312012474,0.19432410342464587,0.18667533421479227,0.10302927054153373,0.288986417385836,0.13054858631669372,0.11383205353750625,0.22027207959754497,0.17530287773566589,0.13342493068743022,0.11794130643316447,0.11618799960296372,0.21679627955050212,0.2470703018461574,0.24138920720762166,0.10651764219359937,0.11379554963781612,0.0856186044114011,0.05307400190538787,0.09028979309587301,0.22365075263573872,0.12873038624662975,0.056630503667440366,0.12723551828087787,0.16453119853960027,0.1791901523530721,0.137251308674653,0.09613128462372833,0.057316676787551306,0.12067956159327332,0.20327881968549613,0.1576149628493779,0.11235201204205074,0.16494906867750456,0.07473565564886013,0.13740714599038584,0.11300899939190752,0.10592613704726755,0.1023195134313869,0.0619506841371069,0.08633415364868136,0.24067963853663973,0.24567713350392748,0.21435396486995426,0.05070773570839446,0.0844187351570921,0.1143689000063064,0.3696963128111129,0.1733548365863148,0.1930350026767369,0.12097384713814953,0.23313193048017142,0.1846910147071452,0.13326278721143459,0.11904679515236172,0.13638633905700276,0.37851863572817734,0.5519240243165447,0.6024988738693299,0.7088168882259483,0.6646306598985668,0.7222183398258417,0.6130830565658374,0.7777136628808677,0.8113536693772749,0.624406930690794,0.6178824341272441,0.5827356536826307,0.6082748074358262,0.6087460667305821,0.7890116633743942,0.8297708891958046,0.8338702341173277,0.9250735494476249,0.8939620670382818,0.8566680352613655,1,0.8984030685463751,0.926294504710192,0.92201058207679,0.8482618540747688,0.7565431639948246,0.7411048317181269,0.8765371763247793,0.8310986693658624,0.7725832037720355,0.9043278356390401,0.9275237607106129,0.8947704815098679,0.8642557729894597,0.6956478434558849,0.6078058296878899,0.6140760488959933,0.5663097493520793,0.7473798932840571,0.6140674120457404,0.7112288561573683,0.6261121080380572,0.4090837421799228,0.40687746593331253,0.23085249669746208,0.24340735398172633,0.30036065281202395,0.374452223466671,0.41878466869378517,0.43556570061669564,0.557731577181231,0.4904419812465208,0.5796666540940499,0.34099808497176226,0.37873691012357136,0.38070714773178355,0.4791740223024955,0.5523988310649715,0.3864121829215074,0.4004480223043334,0.29389301502893767,0.19509416708588312,0.10139938511973781,0.150583204594321,0.20944282025723712,0.1519530274563638,0.23370673118296828,0.17474260963772129,0.15160817373907673,0.2561317332255528,0.16196175707789437,0.05597691144333886,0.13265864173467837,0.16464918817749397,0.11455212296992434,0.052732723915645034,0.0637510156639077,0.10189322571410898,0.19364999290448062,0.07459429093772708","0.14337055400624102,0.17331456532623032,0.21552252712420025,0.08764253109871302,0.11474876303766049,0.21239517814557382,0.07977382084944175,0.06501908856897944,0.33424427107962196,0.21954885578311112,0.48813784655709025,0.6380501815445117,0.7411524591537403,0.7885479946911147,0.7728587190365385,0.7761807813799197,0.9231079384531242,0.8276539258832197,0.8498279325806278,0.8293767471128924,0.7276714471360898,0.8786371621051761,0.9181653580043917,0.7657734290039515,0.6836118327151932,0.6541718632312936,0.7580986261640977,0.5441015216570595,0.602255029982898,0.5326714039591902,1,0.8663799500544573,0.772013157478422,0.8645933299319221,0.7461037994607453,0.7672135901146523,0.8229368748911068,0.8531679602348848,0.8897958483285038,0.7488438482068801,0.7239450305128979,0.6789850795110404,0.5516075190618901,0.4844321268767562,0.37345847584176894,0.4187534644848154,0.5078546645920635,0.585920614503148,0.4799332493052182,0.3746163622108222,0.471775044284316,0.3837397464444646,0.39307709424373855,0.4725332800083346,0.4708532134386618,0.4425771523160056,0.4839141898276882,0.575257918323942,0.615100606278945,0.5328290042309852,0.5396744973093671,0.4374216599403835,0.33832772513163145,0.33029701064225464,0.48371922522840016,0.474584821083658,0.6946033371804785,0.5214669249870226,0.4630337778431808,0.4430721756517584,0.5414769417640904,0.6987427045360078,0.7774241513713724,0.8546561769527589,0.8365894480486168,0.8091288193955792,0.9098010124935928,0.8470193489631865,0.7420271649713419,0.6181488411528087,0.6059827336634093,0.8819723616943967,0.8701534104033185,0.7390430160070176,0.8466376288181257,0.819591737957238,0.8264251115619351,0.8769421007731222,0.8298611311005936,0.8841816633106521,1,0.8301565697785367,0.8514395343883128,0.6686525740461912,0.6243935731765073,0.7290392257890596,0.8186801183146488,0.8470873635259235,0.7089831579660719,0.6510115769921682,0.5057654247530726,0.37817000853221694,0.4180748345176407,0.4622537155820334,0.4480990486952555,0.5943000375730997,0.6829256031945872,0.6377455789547054,0.5533049574354486,0.502208890433088,0.3934830033586452,0.24210149937737413,0.21300841300908743,0.25591580051913715,0.47988222097114197,0.3673086400068179,0.3366652892319238,0.43324703613162285,0.474881756475932,0.5473559932261304,0.5321021066632071,0.538826568776692,0.4811631954620382,0.5001790310557473,0.5909722965587684,0.44832675592167226,0.32891708943153924,0.30868089573346064,0.44313873504644175,0.47166486642481376,0.5039907924309316,0.4118432823925916,0.36215667877750213,0.4157771714229809,0.38981878425751915,0.2098190585047649,0.3132427655752895,0.31139181952839873,0.3777827234525604,0.5852013884509202,0.7067783238144,0.7284104655970564,0.6871416652093901,0.7040802282679788,0.7009707750265599,0.7673224757305674,0.7770587986281348,0.5391021886973013,0.554555428660605,0.6977942749528414,1,0.9071239903636048,0.9376430876690538,0.8751052525840344,0.8354433411309448,0.8800807988881834,0.9235174192841091,0.900277977957058,0.7039379379875501,0.7723004626909559,0.6779541975392084,0.7037761518595059,0.5527302938098226,0.4935931760907076,0.45501161751959224,0.38897812454498826,0.4444450961192483,0.46028165343335803,0.2725386366512365,0.3974188582526144,0.45476334863616014,0.20140608098000684,0.3512994073212229,0.45604980534593426,0.4482468549214773,0.4019900949186544,0.5078891498480083,0.3906119284631865,0.32383097544673234,0.5049608493766111","85,169,127,48,86,205,200,166,164,83,167,202,209,120,126,121,88,161,89,207,128,46,42,163,160,204,203,87,84,81,47,129,45,41,201,40,80,123,162,208,125,44,82,49,124,43,165,168,206,122","4,3,1,2,1,1,1,1,1,1,2,1,1,1,1,1,3,5,1,3,1,1,1,1,6,1,5,1,2,1,6,3,1,1,2,4,2,1,5,1,4,1,3,5,3,1,1,1,1,3,2,1,1,1,3,1,2,2,1,2"
