"success","trial_type","trial_index","time_elapsed","internal_node_id","rt","stimulus","key_press","subject_id","response","choice_outcomes","context_n","context_img_id","trial_n","probe_img_id","pR_red","pR_white","pR_black","outcome","contextArray_ind","validImageProbes","invalidImageProbes","pRew_Red","pRew_White","pRew_Black","availableForMemProbe","choice_blocks"
"true","fullscreen","0","20840","0.0-0.0","","","","","","","","","","","","","","","","","","","","","",""
"","pavlovia","1","20845","0.0-1.0","","","","","","","","","","","","","","","","","","","","","",""
"","html-keyboard-response","2","41002","0.0-2.0","20156","<div class='center'><p>Welcome! This is the first day of the experiment which will last ~30 minutes. In this experiment, you are the head captain of a pirate ship traveling around the world to different places. You will complete several different tasks during this experiment. Here is an overview of these tasks:</p><br><p>Day 1</p><p>1. Tutorial and quiz</p><p>2. Pick a pirate game in 6 different places</p><br><p>Day 2</p><p>3. Pick a pirate game and memory game</p><p>4. Final questions and payment</p><br><p>If you complete the entire experiment, you will receive $15 and a possible bonus payment.</p><p><b>[Press the space bar to begin the tutorial]</b></p></div>","32","58474a9c89af6500017f4cd6","","","","","","","","","","","","","","","","","",""
"","html-keyboard-response","3","48931","0.0-3.0","7926","<div class='center'><p>You’ll stop at these 6 islands on your journey. You'll be able to see them in the distance from your ship.</p><p><img src='run_exp/static/images/contexts/all_contexts.png' height='500'></p><p><b>[Press the space bar to continue]</b></p></div>","32","","","","","","","","","","","","","","","","","","",""
"","html-keyboard-response","4","56489","0.0-4.0","7556","<div class='center'><p> The pirates on your ship will rob other ships as they leave island</p> These ships have just sold their things to the people living on the island, so they will have lots and lots of gold on them.</p><p><img src='run_exp/static/images/tutorial/ship_center.png' height='400'></p><p><b>[Press the space bar to continue]</b></p></div>","32","","","","","","","","","","","","","","","","","","",""
"","html-keyboard-response","5","70497","0.0-5.0","14002","<div class='center'><p>As the head captain, you do not have to rob any ships yourself.</p><p>Another pirate will be doing the robbing for you. </p><p><img src='run_exp/static/images/tutorial/pirates_all_crop.png' height='200'></p><p>If they could rob the ship, then you will get a stack of gold coins like this:</p><p><img src='run_exp/static/images/tutorial/reward.png' height='150'></p><p> If they couldn't rob the ship, then you will get no gold coins and you'll see a big red x like this: </p><p><img src='run_exp/static/images/tutorial/reward_no.png' height='150'></p><p> How much bonus money you make is based on how many gold coins you collect.</p><p><b>[Press the space bar to continue]</b></p><div>","32","","","","","","","","","","","","","","","","","","",""
"","html-keyboard-response","6","82118","0.0-6.0","11618.000000000015","<div class='center'><p>Even the most skilled pirate can not rob EVERY ship.</p><p> Some ships will have very strong defenses against pirate attacks.</p><p> For example, blue beard, here, is very, very good at robbing ships.</p><p> You can press the <b>‘1’</b> button on the keyboard to choose him.</p><p> Try choosing him 10 times to see how often he can rob a ship. </p><p><img src='run_exp/static/images/tutorial/blue.png' height='500'></p></div>","49","","","","","","","","","","","","","","","","","","",""
"","html-keyboard-response","7","83621","0.0-7.0","null","<div class='center'><p><img src='run_exp/static/images/tutorial/blue_win.png' height='500'></p></div>","null","","","","","","","","","","","","","","","","","","",""
"","html-keyboard-response","8","85293","0.0-8.0","1668.9999999999854","<div class='center'><img src='run_exp/static/images/tutorial/blue.png' height='500'></p></div>","49","","","","","","","","","","","","","","","","","","",""
"","html-keyboard-response","9","86796","0.0-9.0","null","<div class='center'><p><img src='run_exp/static/images/tutorial/blue_win.png' height='500'></p></div>","null","","","","","","","","","","","","","","","","","","",""
"","html-keyboard-response","10","87745","0.0-10.0","947","<div class='center'><img src='run_exp/static/images/tutorial/blue.png' height='500'></p></div>","49","","","","","","","","","","","","","","","","","","",""
"","html-keyboard-response","11","89248","0.0-11.0","null","<div class='center'><p><img src='run_exp/static/images/tutorial/blue_win.png' height='500'></p></div>","null","","","","","","","","","","","","","","","","","","",""
"","html-keyboard-response","12","89907","0.0-12.0","656.0000000000146","<div class='center'><img src='run_exp/static/images/tutorial/blue.png' height='500'></p></div>","49","","","","","","","","","","","","","","","","","","",""
"","html-keyboard-response","13","91410","0.0-13.0","null","<div class='center'><p><img src='run_exp/static/images/tutorial/blue_no_win.png' height='500'></p></div>","null","","","","","","","","","","","","","","","","","","",""
"","html-keyboard-response","14","92136","0.0-14.0","724","<div class='center'><img src='run_exp/static/images/tutorial/blue.png' height='500'></p></div>","49","","","","","","","","","","","","","","","","","","",""
"","html-keyboard-response","15","93639","0.0-15.0","null","<div class='center'><p><img src='run_exp/static/images/tutorial/blue_win.png' height='500'></p></div>","null","","","","","","","","","","","","","","","","","","",""
"","html-keyboard-response","16","94154","0.0-16.0","513","<div class='center'><img src='run_exp/static/images/tutorial/blue.png' height='500'></p></div>","49","","","","","","","","","","","","","","","","","","",""
"","html-keyboard-response","17","95658","0.0-17.0","null","<div class='center'><p><img src='run_exp/static/images/tutorial/blue_win.png' height='500'></p></div>","null","","","","","","","","","","","","","","","","","","",""
"","html-keyboard-response","18","96103","0.0-18.0","443","<div class='center'><img src='run_exp/static/images/tutorial/blue.png' height='500'></p></div>","49","","","","","","","","","","","","","","","","","","",""
"","html-keyboard-response","19","97605","0.0-19.0","null","<div class='center'><p><img src='run_exp/static/images/tutorial/blue_win.png' height='500'></p></div>","null","","","","","","","","","","","","","","","","","","",""
"","html-keyboard-response","20","98056","0.0-20.0","449","<div class='center'><img src='run_exp/static/images/tutorial/blue.png' height='500'></p></div>","49","","","","","","","","","","","","","","","","","","",""
"","html-keyboard-response","21","99559","0.0-21.0","null","<div class='center'><p><img src='run_exp/static/images/tutorial/blue_no_win.png' height='500'></p></div>","null","","","","","","","","","","","","","","","","","","",""
"","html-keyboard-response","22","100061","0.0-22.0","500","<div class='center'><img src='run_exp/static/images/tutorial/blue.png' height='500'></p></div>","49","","","","","","","","","","","","","","","","","","",""
"","html-keyboard-response","23","101565","0.0-23.0","null","<div class='center'><p><img src='run_exp/static/images/tutorial/blue_win.png' height='500'></p></div>","null","","","","","","","","","","","","","","","","","","",""
"","html-keyboard-response","24","101960","0.0-24.0","393","<div class='center'><img src='run_exp/static/images/tutorial/blue.png' height='500'></p></div>","49","","","","","","","","","","","","","","","","","","",""
"","html-keyboard-response","25","103463","0.0-25.0","null","<div class='center'><p><img src='run_exp/static/images/tutorial/blue_win.png' height='500'></p></div>","null","","","","","","","","","","","","","","","","","","",""
"","html-keyboard-response","26","106005","0.0-26.0","2540","<div class='center'><p> See, he could rob the ships most of the time but not every time. </p><p><b>[Press the space bar to continue]</b></p></div>","32","","","","","","","","","","","","","","","","","","",""
"","html-keyboard-response","27","113760","0.0-27.0","7752","<div class='center'><p>You will get to choose which of three pirates you want to rob the next ship. <p>Press the <b>‘1’</b> button on your keyboard to pick the pirate with the red beard.</p><p> Press <b>‘2’</b> to pick the pirate with the white beard.</p><p> Press <b>‘3’</b> to pick the pirate with the black beard.</p><p>Try picking a pirate now!</p><p><img src='run_exp/static/images/tutorial/all_pirates.png' height='500'></p></div>","51","","","","","","","","","","","","","","","","","","",""
"","html-keyboard-response","28","117379","0.0-28.0-0.0","3616","<div class='center'><p>This pirate could rob the ship!</p><p><img src='run_exp/static/images/tutorial/black_win.png' height='500'></p><p><b>[Press the space bar to continue]</b></p></div>","32","","","","","","","","","","","","","","","","","","",""
"","html-keyboard-response","29","120023","0.0-28.0-1.0","2643","<div class='center'><p>Now try choosing another</p><p><img src='run_exp/static/images/tutorial/all_pirates.png' height='500'></p></div>","49","","","","","","","","","","","","","","","","","","",""
"","html-keyboard-response","30","122156","0.0-29.0-0.0","2129","<div class='center'><p>This pirate could not rob the ship.</p><p><img src='run_exp/static/images/tutorial/red_no_win.png' height='500'></p><p><b>[Press the space bar to continue]</b></p></div>","32","","","","","","","","","","","","","","","","","","",""
"","html-keyboard-response","31","128000","0.0-30.0-0.0","5842","<div class='center'><p>If you don’t make your choice fast enough, you’ll have to wait a few seconds before you can make another one. </p><p>You can’t collect more gold coins. You just have to sit and wait.</p><p><img src='run_exp/static/images/miscellaneous/hurry_up.png' height='500'></p><p><b>[Press the space bar to continue]</b></p></div>","32","","","","","","","","","","","","","","","","","","",""
"","html-keyboard-response","32","156714","0.0-30.0-1.0","28711.00000000003","<div class='center'><p>Once you choose a pirate, you’ll be shown the ship they are robbing.</p><p>You will never rob the same ship twice.</p><p>Ships can be told apart from one another by the image on them.</p><p> Every time you see a ship, you will have to remember on which island you saw it.</p><p> Remembering correctly will help you win more bonus money!</p><p>A helpful strategy is to try to come up with a story of the object on the ship interacting with the current island scene.</p><p> For example, here, you could imagine a mug full of water in the desert. </p><p>For a ship with an apple on it on the forest island, you could imagine an apple falling from a tree in the forest.</p><p><img src='run_exp/static/images/tutorial/example_probe.png' height='500'></p><p><b>[Press the space bar to continue]</b></p></div>","32","","","","","","","","","","","","","","","","","","",""
"","html-keyboard-response","33","163221","0.0-30.0-2.0","6506","<div class='center'><p>How good a pirate is at robbing ships will depend on the current island.</p><p> A pirate may have visited the island many times before and gained a lot of practice robbing ships there.</p><p>So, they're more likely to bring back gold coins than a pirate who has never visited this island before. </p><p><b>[Press the space bar to continue]</b></p></div>","32","","","","","","","","","","","","","","","","","","",""
"","html-keyboard-response","34","174899","0.0-30.0-3.0","11675.00000000003","<div class='center'><p>How good a pirate is at robbing ships can also change over the time spent on the island<p> Ships may hear from islanders about the pirates coming and will improve their protection against the attack. This may make it harder to rob them.</p><p> Ships may also become lazy and lower their protection. This may make it easier to rob them.</p><br><p>Things are always changing on the high seas! So, try your best to pay attention!</p><p><img src='run_exp/static/images/tutorial/contingency.png' height='500'></p><p><b>[Press the space bar to continue]</b></p></div>","32","","","","","","","","","","","","","","","","","","",""
"","html-keyboard-response","35","192917","0.0-30.0-4.0","18017.00000000003","<div class='center'><p>Let's go over the instructions quickly again.You have two important things to do: </p><b><p> 1. Pick the pirate who is the best at robbing ships on the current island.</p></b><b><p> 2. Remember on which island a ship was robbed.</p> </b><p>How much bonus money you make is based on both. </p><br><p>Let’s try a practice game. The game will start by showing you the pirates. First pick a pirate using the <b> 1, 2, 3 </b> buttons on your keyboard. When you are shown a ship, try to remember the island you’re on by making up a story.</p><p> You only have 3 seconds to pick a pirate, so please make a choice quickly! If you are too slow, you’ll have to wait a bit during the time out.</p><p> Don’t feel rushed, but please do try to make a choice every time.</p><p>This is just a practice game, so you’re not playing for money. </p><p> Good luck, remember press <b>'1'</b> to choose red beard, <b>'2'</b> to choose white beard, and <b>'3'</b> to choose black beard</p><p><b>[Press the space bar to begin the practice game]</b></p></div>","32","","","","","","","","","","","","","","","","","","",""
"","do_welcome","36","194423","0.0-30.0-5.0","null","","","","null","","","","","","","","","","","","","","","","",""
"","do_trial","37","199860","0.0-30.0-6.0","930.0000000000291","","","","49","1,0,0","","","","","","","","","","","","","","","",""
"","html-keyboard-response","38","200862","0.0-31.0-0.0","null","<p></p>","null","","","","","","","","","","","","","","","","","","",""
"","do_trial","39","206439","0.0-31.0-1.0","1071","","","","49","1,1,0","","","","","","","","","","","","","","","",""
"","html-keyboard-response","40","207440","0.0-32.0-0.0","null","<p></p>","null","","","","","","","","","","","","","","","","","","",""
"","do_trial","41","214744","0.0-32.0-1.0","2799","","","","49","1,0,1","","","","","","","","","","","","","","","",""
"","html-keyboard-response","42","215746","0.0-33.0-0.0","null","<p></p>","null","","","","","","","","","","","","","","","","","","",""
"","do_trial","43","221520","0.0-33.0-1.0","1270.000000000029","","","","49","0,1,0","","","","","","","","","","","","","","","",""
"","html-keyboard-response","44","222522","0.0-34.0-0.0","null","<p></p>","null","","","","","","","","","","","","","","","","","","",""
"","do_trial","45","227537","0.0-34.0-1.0","509","","","","49","1,0,0","","","","","","","","","","","","","","","",""
"","do_bye","46","229041","0.0-35.0-0.0","null","","","","null","","","","","","","","","","","","","","","","",""
"","do_travel","47","235043","0.0-35.0-1.0","null","","","","null","","","","","","","","","","","","","","","","",""
"","do_welcome","48","236547","0.0-35.0-2.0","null","","","","null","","","","","","","","","","","","","","","","",""
"","do_trial","49","241815","0.0-35.0-3.0","763.0000000000582","","","","49","1,0,0","","","","","","","","","","","","","","","",""
"","html-keyboard-response","50","242817","0.0-36.0-0.0","null","<p></p>","null","","","","","","","","","","","","","","","","","","",""
"","do_trial","51","248335","0.0-36.0-1.0","1013","","","","49","1,0,1","","","","","","","","","","","","","","","",""
"","html-keyboard-response","52","249336","0.0-37.0-0.0","null","<p></p>","null","","","","","","","","","","","","","","","","","","",""
"","do_trial","53","254596","0.0-37.0-1.0","755","","","","49","1,1,0","","","","","","","","","","","","","","","",""
"","html-keyboard-response","54","255598","0.0-38.0-0.0","null","<p></p>","null","","","","","","","","","","","","","","","","","","",""
"","do_trial","55","260924","0.0-38.0-1.0","822","","","","49","0,0,1","","","","","","","","","","","","","","","",""
"","html-keyboard-response","56","261926","0.0-39.0-0.0","null","<p></p>","null","","","","","","","","","","","","","","","","","","",""
"","do_trial","57","267034","0.0-39.0-1.0","603","","","","49","1,0,1","","","","","","","","","","","","","","","",""
"","html-keyboard-response","58","269384","0.0-40.0-0.0","2346.999999999942","<div class='center'><p><img src='run_exp/static/images/tutorial/prac_best_pirate.png'  height='500'></p></div>","49","","","","","","","","","","","","","","","","","","",""
"","html-keyboard-response","59","271398","0.0-41.0-0.0","2013","<div class='center'><p>That's correct! Red beard was the best.</p><p><b>[Press the space bar to continue]</b></p></div>","32","","","","","","","","","","","","","","","","","","",""
"","html-keyboard-response","60","275242","0.0-41.0-1.0","3842","<div class='center'><p><img src='run_exp/static/images/tutorial/prac_source.png'  height='500'></p></div>","50","","","","","","","","","","","","","","","","","","",""
"","html-keyboard-response","61","276534","0.0-42.0-0.0","1290","<div class='center'><p>That's correct! You saw this ship on the cavern island.</p><p><b>[Press the space bar to continue]</b></p></div>","32","","","","","","","","","","","","","","","","","","",""
"","html-keyboard-response","62","281844","0.0-42.0-1.0","5309","<div class='center'><p>Good job on the practice game! Now, you will be asked you some true or false questions to make sure you really understand the rules of the game.</p><p> Press <b>'1'</b> on the keyboard for true and press <b>'2'</b> for false.</p><p><b>[Press the space bar to begin the quiz]</b></p></div>","32","","","","","","","","","","","","","","","","","","",""
"","html-keyboard-response","63","284507","0.0-42.0-2.0","2662","<div class='center'><p>You win bonus money by making choices as fast as possible.</p><p>Press 1 for true and press  2 for false.</p></div>","50","","","","","","","","","","","","","","","","","","",""
"","html-keyboard-response","64","285539","0.0-43.0-0.0","1031","<div class='center'><p>That's correct!</p> <p><b>[press the space bar to continue with the quiz]</b></p></div>","32","","","","","","","","","","","","","","","","","","",""
"","html-keyboard-response","65","290501","0.0-43.0-1.0","4961.000000000058","<div class='center'><p>You press the <b>‘3’</b> button on the keyboard to choose the red bearded pirate. </p><p>Press 1 for true and press  2 for false.</p></div>","50","","","","","","","","","","","","","","","","","","",""
"","html-keyboard-response","66","291413","0.0-44.0-0.0","911","<div class='center'><p>That's correct!</p> <p><b>[press the space bar to continue with the quiz]</b></p></div>","32","","","","","","","","","","","","","","","","","","",""
"","html-keyboard-response","67","294312","0.0-44.0-1.0","2898","<div class='center'><p>The pirate who is the best at robbing ships on the first island will be the best on every other island.</p><p>Press 1 for true and press  2 for false.</p></div>","50","","","","","","","","","","","","","","","","","","",""
"","html-keyboard-response","68","295102","0.0-45.0-0.0","789","<div class='center'><p>That's correct!</p> <p><b>[press the space bar to continue with the quiz]</b></p></div>","32","","","","","","","","","","","","","","","","","","",""
"","html-keyboard-response","69","298733","0.0-45.0-1.0","3630.999999999942","<div class='center'><p>You should remember the island where a pirate robbed a ship.</p><p>Press 1 for true and press  2 for false.</p></div>","49","","","","","","","","","","","","","","","","","","",""
"","html-keyboard-response","70","299432","0.0-46.0-0.0","693","<div class='center'><p>That's correct!</p> <p><b>[press the space bar to continue with the quiz]</b></p></div>","32","","","","","","","","","","","","","","","","","","",""
"","html-keyboard-response","71","300822","0.0-47.0-0.0","1390","<div class='center'><p>Good job! You’re now ready to move on to the real game!</p> <p><br>[press the space bar to begin!]</br></p></div>","32","","","","","","","","","","","","","","","","","","",""
"","do_welcome","72","302326","0.0-48.0-0.0","null","","","","null","","","","","","","","","","","","","","","","",""
"","do_trial","73","308038","0.0-49.0-0.0","1174","","","","50","0,1,0","0","city","0","probe-96","0.6","0.3","0.1","1","","","","","","","",""
"","html-keyboard-response","74","309040","0.0-49.0-1.0","null","<p></p>","null","","","","","","","","","","","","","","","","","","",""
"","do_trial","75","314113","0.0-50.0-0.0","531.9999999999418","","","","50","1,1,1","0","city","1","probe-102","0.5792197193346006","0.17071475565669686","0.12005801206881718","1","","","","","","","",""
"","html-keyboard-response","76","315115","0.0-50.0-1.0","null","<p></p>","null","","","","","","","","","","","","","","","","","","",""
"","do_trial","77","320494","0.0-51.0-0.0","834","","","","50","0,0,1","0","city","2","probe-190","0.5028067985767373","0.2211503022990976","0.060201880063444006","0","","","","","","","",""
"","html-keyboard-response","78","321497","0.0-51.0-1.0","null","<p></p>","null","","","","","","","","","","","","","","","","","","",""
"","do_trial","79","326681","0.0-52.0-0.0","643","","","","50","1,0,0","0","city","3","probe-164","0.3877293953353032","0.13210482015944","0.07736503343659189","0","","","","","","","",""
"","html-keyboard-response","80","327683","0.0-52.0-1.0","null","<p></p>","null","","","","","","","","","","","","","","","","","","",""
"","do_trial","81","333115","0.0-53.0-0.0","890","","","","49","0,0,0","0","city","4","probe-192","0.46933972091151305","0.23640964008133453","0.13450844904845294","0","","","","","","","",""
"","html-keyboard-response","82","334118","0.0-53.0-1.0","null","<p></p>","null","","","","","","","","","","","","","","","","","","",""
"","do_trial","83","339321","0.0-54.0-0.0","654","","","","49","0,0,0","0","city","5","probe-183","0.44622452743457686","0.18829452431916857","0.11712250525185258","0","","","","","","","",""
"","html-keyboard-response","84","340324","0.0-54.0-1.0","null","<p></p>","null","","","","","","","","","","","","","","","","","","",""
"","do_trial","85","346417","0.0-55.0-0.0","1540","","","","51","1,0,0","0","city","6","probe-41","0.49675675592493457","0.18755902835590094","0.1540170194406276","0","","","","","","","",""
"","html-keyboard-response","86","347420","0.0-55.0-1.0","null","<p></p>","null","","","","","","","","","","","","","","","","","","",""
"","do_trial","87","352487","0.0-56.0-0.0","526","","","","50","0,1,0","0","city","7","probe-94","0.43307384635204677","0.35610464573042755","0.0753748569560774","1","","","","","","","",""
"","html-keyboard-response","88","353489","0.0-56.0-1.0","null","<p></p>","null","","","","","","","","","","","","","","","","","","",""
"","do_trial","89","358543","0.0-57.0-0.0","514","","","","50","1,1,0","0","city","8","probe-32","0.5146682634282869","0.33814412377639796","0.10613304975222178","1","","","","","","","",""
"","html-keyboard-response","90","359545","0.0-57.0-1.0","null","<p></p>","null","","","","","","","","","","","","","","","","","","",""
"","do_trial","91","364698","0.0-58.0-0.0","611","","","","50","0,1,0","0","city","9","probe-18","0.6323419849248016","0.4112892877913932","0.1558685432346167","1","","","","","","","",""
"","html-keyboard-response","92","365700","0.0-58.0-1.0","null","<p></p>","null","","","","","","","","","","","","","","","","","","",""
"","do_trial","93","370992","0.0-59.0-0.0","748.0000000000582","","","","50","1,1,0","0","city","10","probe-02","0.5976958985658124","0.3208653743416943","0.2694528240259391","1","","","","","","","",""
"","html-keyboard-response","94","371994","0.0-59.0-1.0","null","<p></p>","null","","","","","","","","","","","","","","","","","","",""
"","do_trial","95","378958","0.0-60.0-0.0","2422","","","","50","1,0,1","0","city","11","probe-184","0.6027281185305279","0.35955138366516826","0.1739290676684362","0","","","","","","","",""
"","html-keyboard-response","96","379960","0.0-60.0-1.0","null","<p></p>","null","","","","","","","","","","","","","","","","","","",""
"","do_trial","97","386003","0.0-61.0-0.0","null","","","","null","0,0,0","0","city","12","probe-97","0.5542308304037954","0.27553905551193114","0.19394034696748624","","","","","","","","",""
"","html-keyboard-response","98","387005","0.0-61.0-1.0","null","<p></p>","null","","","","","","","","","","","","","","","","","","",""
"","do_trial","99","391881","0.0-62.0-0.0","335.0000000000582","","","","50","1,0,0","0","city","13","probe-223","0.5505156143945847","0.3103564647629364","0.08722791645753677","0","","","","","","","",""
"","html-keyboard-response","100","392883","0.0-62.0-1.0","null","<p></p>","null","","","","","","","","","","","","","","","","","","",""
"","do_trial","101","397878","0.0-63.0-0.0","455","","","","50","0,1,0","0","city","14","probe-209","0.7293673229691966","0.2680737508307582","0.22949862589081704","1","","","","","","","",""
"","html-keyboard-response","102","398880","0.0-63.0-1.0","null","<p></p>","null","","","","","","","","","","","","","","","","","","",""
"","do_trial","103","403966","0.0-64.0-0.0","544.9999999999418","","","","50","1,0,0","0","city","15","probe-122","0.6763896360766252","0.15227003252866683","0.17530589263251134","0","","","","","","","",""
"","html-keyboard-response","104","404970","0.0-64.0-1.0","null","<p></p>","null","","","","","","","","","","","","","","","","","","",""
"","do_trial","105","410059","0.0-65.0-0.0","547","","","","49","1,1,0","0","city","16","probe-210","0.7198881421911577","0.23441327824531222","0.20559004071586168","1","","","","","","","",""
"","html-keyboard-response","106","411062","0.0-65.0-1.0","null","<p></p>","null","","","","","","","","","","","","","","","","","","",""
"","do_trial","107","416284","0.0-66.0-0.0","680","","","","49","0,1,1","0","city","17","probe-56","0.584109589852692","0.24481990963373904","0.10400727061549389","0","","","","","","","",""
"","html-keyboard-response","108","417286","0.0-66.0-1.0","null","<p></p>","null","","","","","","","","","","","","","","","","","","",""
"","do_trial","109","422406","0.0-67.0-0.0","580","","","","49","1,0,0","0","city","18","probe-82","0.48817014005075876","0.36952011526207384","0.11448236661776397","1","","","","","","","",""
"","html-keyboard-response","110","423409","0.0-67.0-1.0","null","<p></p>","null","","","","","","","","","","","","","","","","","","",""
"","do_trial","111","428769","0.0-68.0-0.0","820.0000000000582","","","","49","1,1,1","0","city","19","probe-45","0.49277078778354155","0.3664832759259317","0.26144567806511526","1","","","","","","","",""
"","html-keyboard-response","112","429772","0.0-68.0-1.0","null","<p></p>","null","","","","","","","","","","","","","","","","","","",""
"","do_trial","113","434892","0.0-69.0-0.0","579","","","","49","0,0,1","0","city","20","probe-171","0.5029606831337842","0.3829933244052904","0.16147655385280527","0","","","","","","","",""
"","html-keyboard-response","114","435894","0.0-69.0-1.0","null","<p></p>","null","","","","","","","","","","","","","","","","","","",""
"","do_trial","115","441044","0.0-70.0-0.0","607","","","","49","1,1,0","0","city","21","probe-162","0.5516565264843075","0.4620736470772286","0.0919404522040848","1","","","","","","","",""
"","html-keyboard-response","116","442047","0.0-70.0-1.0","null","<p></p>","null","","","","","","","","","","","","","","","","","","",""
"","do_trial","117","447263","0.0-71.0-0.0","678.0000000000582","","","","49","0,1,0","0","city","22","probe-79","0.6010776782015923","0.4045086448571371","0.06249924938459872","0","","","","","","","",""
"","html-keyboard-response","118","448265","0.0-71.0-1.0","null","<p></p>","null","","","","","","","","","","","","","","","","","","",""
"","do_trial","119","453437","0.0-72.0-0.0","631.9999999999418","","","","51","0,1,0","0","city","23","probe-43","0.556935860779627","0.32056111762913914","0.16216479949478174","0","","","","","","","",""
"","html-keyboard-response","120","454439","0.0-72.0-1.0","null","<p></p>","null","","","","","","","","","","","","","","","","","","",""
"","do_trial","121","459877","0.0-73.0-0.0","894","","","","51","0,0,0","0","city","24","probe-10","0.6127392175372679","0.3949675759859105","0.08943037939724213","0","","","","","","","",""
"","html-keyboard-response","122","460879","0.0-73.0-1.0","null","<p></p>","null","","","","","","","","","","","","","","","","","","",""
"","do_trial","123","465869","0.0-74.0-0.0","449","","","","50","0,0,0","0","city","25","probe-109","0.42336960830148374","0.4147274910733947","0.056221035726669796","0","","","","","","","",""
"","html-keyboard-response","124","466872","0.0-74.0-1.0","null","<p></p>","null","","","","","","","","","","","","","","","","","","",""
"","do_trial","125","472029","0.0-75.0-0.0","619","","","","50","1,0,0","0","city","26","probe-227","0.5095981785467399","0.4365573001292834","0.07595644765865281","0","","","","","","","",""
"","html-keyboard-response","126","473032","0.0-75.0-1.0","null","<p></p>","null","","","","","","","","","","","","","","","","","","",""
"","do_trial","127","477901","0.0-76.0-0.0","327.9999999999418","","","","49","0,0,1","0","city","27","probe-127","0.6690930418819794","0.3840897566927935","0.07570702307456069","0","","","","","","","",""
"","html-keyboard-response","128","478904","0.0-76.0-1.0","null","<p></p>","null","","","","","","","","","","","","","","","","","","",""
"","do_trial","129","484034","0.0-77.0-0.0","591","","","","49","1,1,0","0","city","28","probe-118","0.8486988090150299","0.30343105046813335","0.058118322049079","1","","","","","","","",""
"","html-keyboard-response","130","485036","0.0-77.0-1.0","null","<p></p>","null","","","","","","","","","","","","","","","","","","",""
"","do_trial","131","490154","0.0-78.0-0.0","577","","","","49","1,0,0","0","city","29","probe-207","0.6717848501933219","0.36201530849477365","0.15688368775207948","1","","","","","","","",""
"","html-keyboard-response","132","491155","0.0-78.0-1.0","null","<p></p>","null","","","","","","","","","","","","","","","","","","",""
"","do_bye","133","492659","0.0-79.0-0.0","null","","","","null","","","","","","","","","","","","","","","","",""
"","do_travel","134","498661","0.0-80.0-0.0","null","","","","null","","","","","","","","","","","","","","","","",""
"","do_welcome","135","500166","0.0-80.0-1.0","null","","","","null","","","","","","","","","","","","","","","","",""
"","do_trial","136","505738","0.0-81.0-0.0","1032","","","","49","1,0,0","1","coast","30","probe-182","1","0.37412157386176964","0.16512311975259739","1","","","","","","","",""
"","html-keyboard-response","137","506741","0.0-81.0-1.0","null","<p></p>","null","","","","","","","","","","","","","","","","","","",""
"","do_trial","138","512225","0.0-82.0-0.0","943.0000000001164","","","","49","1,0,0","1","coast","31","probe-138","1","0.49295272797590683","0.11729146194364244","1","","","","","","","",""
"","html-keyboard-response","139","513226","0.0-82.0-1.0","null","<p></p>","null","","","","","","","","","","","","","","","","","","",""
"","do_trial","140","518524","0.0-83.0-0.0","756","","","","49","1,1,0","1","coast","32","probe-61","1","0.3975227437741392","0.1143068149364807","1","","","","","","","",""
"","html-keyboard-response","141","519526","0.0-83.0-1.0","null","<p></p>","null","","","","","","","","","","","","","","","","","","",""
"","do_trial","142","525007","0.0-84.0-0.0","941","","","","49","1,1,0","1","coast","33","probe-70","0.7941742215634924","0.4918954342287946","0.08553865464701114","1","","","","","","","",""
"","html-keyboard-response","143","526009","0.0-84.0-1.0","null","<p></p>","null","","","","","","","","","","","","","","","","","","",""
"","do_trial","144","531182","0.0-85.0-0.0","629","","","","49","1,1,0","1","coast","34","probe-81","0.7208301937934963","0.39833329399931217","0.09704680946878251","1","","","","","","","",""
"","html-keyboard-response","145","532184","0.0-85.0-1.0","null","<p></p>","null","","","","","","","","","","","","","","","","","","",""
"","do_trial","146","537535","0.0-86.0-0.0","810.9999999998836","","","","49","1,1,0","1","coast","35","probe-228","0.562829119234824","0.1752891383928641","0.0908054449022607","1","","","","","","","",""
"","html-keyboard-response","147","538538","0.0-86.0-1.0","null","<p></p>","null","","","","","","","","","","","","","","","","","","",""
"","do_trial","148","544950","0.0-87.0-0.0","1871","","","","49","1,0,0","1","coast","36","probe-124","0.4599579877785696","0.31439224141698363","0.10658354607422652","1","","","","","","","",""
"","html-keyboard-response","149","545951","0.0-87.0-1.0","null","<p></p>","null","","","","","","","","","","","","","","","","","","",""
"","do_trial","150","551497","0.0-88.0-0.0","991","","","","49","0,0,0","1","coast","37","probe-09","0.4245544556735622","0.1277201880777034","0.05089014774144123","0","","","","","","","",""
"","html-keyboard-response","151","552500","0.0-88.0-1.0","null","<p></p>","null","","","","","","","","","","","","","","","","","","",""
"","do_trial","152","558061","0.0-89.0-0.0","1022","","","","49","1,0,0","1","coast","38","probe-46","0.4611778192413379","0.1930797312375949","0.1615295108786117","1","","","","","","","",""
"","html-keyboard-response","153","559066","0.0-89.0-1.0","null","<p></p>","null","","","","","","","","","","","","","","","","","","",""
"","do_trial","154","564703","0.0-90.0-0.0","1095","","","","49","0,1,0","1","coast","39","probe-172","0.39478273432569366","0.3246125799665275","0.07435009338086804","0","","","","","","","",""
"","html-keyboard-response","155","565706","0.0-90.0-1.0","null","<p></p>","null","","","","","","","","","","","","","","","","","","",""
"","do_trial","156","571248","0.0-91.0-0.0","999","","","","49","0,0,0","1","coast","40","probe-28","0.4082671777317034","0.37213026097662344","0.054998091944426016","0","","","","","","","",""
"","html-keyboard-response","157","572249","0.0-91.0-1.0","null","<p></p>","null","","","","","","","","","","","","","","","","","","",""
"","do_trial","158","578707","0.0-92.0-0.0","1917.0000000001164","","","","49","0,0,0","1","coast","41","probe-103","0.4175458752513068","0.16100606090977176","0.07066667230642709","0","","","","","","","",""
"","html-keyboard-response","159","579709","0.0-92.0-1.0","null","<p></p>","null","","","","","","","","","","","","","","","","","","",""
"","do_trial","160","585752","0.0-93.0-0.0","1501.0000000001164","","","","49","0,1,0","1","coast","42","probe-98","0.23920863564483483","0.42154464852007933","0.2177518919114834","0","","","","","","","",""
"","html-keyboard-response","161","586754","0.0-93.0-1.0","null","<p></p>","null","","","","","","","","","","","","","","","","","","",""
"","do_trial","162","591744","0.0-94.0-0.0","449","","","","50","0,1,0","1","coast","43","probe-173","0.18019981625676942","0.5071243221006019","0.19653640997361485","1","","","","","","","",""
"","html-keyboard-response","163","592746","0.0-94.0-1.0","null","<p></p>","null","","","","","","","","","","","","","","","","","","",""
"","do_trial","164","598009","0.0-95.0-0.0","722","","","","50","0,0,0","1","coast","44","probe-37","0.06701797478306003","0.5872727495126675","0.24250395065815894","0","","","","","","","",""
"","html-keyboard-response","165","599011","0.0-95.0-1.0","null","<p></p>","null","","","","","","","","","","","","","","","","","","",""
"","do_trial","166","604548","0.0-96.0-0.0","996","","","","50","0,0,1","1","coast","45","probe-221","0.1445008563210355","0.4930439718540663","0.1855542304183291","0","","","","","","","",""
"","html-keyboard-response","167","605550","0.0-96.0-1.0","null","<p></p>","null","","","","","","","","","","","","","","","","","","",""
"","do_trial","168","611028","0.0-97.0-0.0","937","","","","50","0,1,0","1","coast","46","probe-197","0.06790191001997917","0.45335660039402603","0.23725849353122108","1","","","","","","","",""
"","html-keyboard-response","169","612031","0.0-97.0-1.0","null","<p></p>","null","","","","","","","","","","","","","","","","","","",""
"","do_trial","170","617423","0.0-98.0-0.0","853","","","","50","0,0,0","1","coast","47","probe-151","0.12537906535279644","0.48427771236394185","0.37114408727246206","0","","","","","","","",""
"","html-keyboard-response","171","618424","0.0-98.0-1.0","null","<p></p>","null","","","","","","","","","","","","","","","","","","",""
"","do_trial","172","623595","0.0-99.0-0.0","633","","","","51","0,0,1","1","coast","48","probe-52","0.25493400107496256","0.6087141373492867","0.42843707819947197","1","","","","","","","",""
"","html-keyboard-response","173","624598","0.0-99.0-1.0","null","<p></p>","null","","","","","","","","","","","","","","","","","","",""
"","do_trial","174","630209","0.0-100.0-0.0","1070.0000000001164","","","","51","0,0,0","1","coast","49","probe-153","0.20143718641888586","0.6674339363765441","0.40178144951089495","0","","","","","","","",""
"","html-keyboard-response","175","631211","0.0-100.0-1.0","null","<p></p>","null","","","","","","","","","","","","","","","","","","",""
"","do_trial","176","636125","0.0-101.0-0.0","373.9999999998836","","","","49","1,0,1","1","coast","50","probe-111","0.3059953076038893","0.6011477118078176","0.3149556416724434","1","","","","","","","",""
"","html-keyboard-response","177","637127","0.0-101.0-1.0","null","<p></p>","null","","","","","","","","","","","","","","","","","","",""
"","do_trial","178","642788","0.0-102.0-0.0","1118","","","","49","0,1,0","1","coast","51","probe-73","0.24111960105541866","0.5244364888758795","0.3718918604601144","0","","","","","","","",""
"","html-keyboard-response","179","643790","0.0-102.0-1.0","null","<p></p>","null","","","","","","","","","","","","","","","","","","",""
"","do_trial","180","648925","0.0-103.0-0.0","594","","","","49","0,1,1","1","coast","52","probe-130","0.26252446764044546","0.4394844025581798","0.43704332405231106","0","","","","","","","",""
"","html-keyboard-response","181","649928","0.0-103.0-1.0","null","<p></p>","null","","","","","","","","","","","","","","","","","","",""
"","do_trial","182","655327","0.0-104.0-0.0","860","","","","49","1,0,0","1","coast","53","probe-110","0.2321877985561691","0.5944881680352238","0.3597491775444045","1","","","","","","","",""
"","html-keyboard-response","183","656330","0.0-104.0-1.0","null","<p></p>","null","","","","","","","","","","","","","","","","","","",""
"","do_trial","184","661676","0.0-105.0-0.0","805.0000000001164","","","","49","0,1,1","1","coast","54","probe-200","0.13780171753816922","0.6618592926491611","0.4516181471424735","0","","","","","","","",""
"","html-keyboard-response","185","662677","0.0-105.0-1.0","null","<p></p>","null","","","","","","","","","","","","","","","","","","",""
"","do_trial","186","668157","0.0-106.0-0.0","940.0000000001164","","","","49","0,0,1","1","coast","55","probe-215","0.17346647585322703","0.593461823586048","0.44021056540220527","0","","","","","","","",""
"","html-keyboard-response","187","669159","0.0-106.0-1.0","null","<p></p>","null","","","","","","","","","","","","","","","","","","",""
"","do_trial","188","675747","0.0-107.0-0.0","2046.9999999998836","","","","49","0,1,1","1","coast","56","probe-195","0.11233507656084925","0.6034664774516952","0.4972493699985627","0","","","","","","","",""
"","html-keyboard-response","189","676749","0.0-107.0-1.0","null","<p></p>","null","","","","","","","","","","","","","","","","","","",""
"","do_trial","190","681793","0.0-108.0-0.0","503","","","","50","0,1,0","1","coast","57","probe-13","0.22782849692392948","0.657807739844491","0.368540528906851","1","","","","","","","",""
"","html-keyboard-response","191","682795","0.0-108.0-1.0","null","<p></p>","null","","","","","","","","","","","","","","","","","","",""
"","do_trial","192","688492","0.0-109.0-0.0","1156.9999999998836","","","","50","0,0,0","1","coast","58","probe-194","0.2289923542074676","0.7300458797322409","0.28860482994691683","0","","","","","","","",""
"","html-keyboard-response","193","689494","0.0-109.0-1.0","null","<p></p>","null","","","","","","","","","","","","","","","","","","",""
"","do_trial","194","694876","0.0-110.0-0.0","842","","","","50","0,1,1","1","coast","59","probe-230","0.09768253684948118","0.7496484054325728","0.3613617338546948","1","","","","","","","",""
"","html-keyboard-response","195","695878","0.0-110.0-1.0","null","<p></p>","null","","","","","","","","","","","","","","","","","","",""
"","do_trial","196","701308","0.0-111.0-0.0","888","","","","50","0,1,1","1","coast","60","probe-03","0.06359044726024629","0.6620708942364353","0.3526149581129818","1","","","","","","","",""
"","html-keyboard-response","197","702311","0.0-111.0-1.0","null","<p></p>","null","","","","","","","","","","","","","","","","","","",""
"","do_trial","198","707782","0.0-112.0-0.0","931.9999999998836","","","","50","0,1,0","1","coast","61","probe-156","0.09047197590548081","0.779167962225201","0.3045840771533562","1","","","","","","","",""
"","html-keyboard-response","199","708784","0.0-112.0-1.0","null","<p></p>","null","","","","","","","","","","","","","","","","","","",""
"","do_trial","200","715228","0.0-113.0-0.0","1900.9999999998836","","","","50","0,0,1","1","coast","62","probe-217","0.08366791120068967","0.6104042000045107","0.46155163284455386","0","","","","","","","",""
"","html-keyboard-response","201","716230","0.0-113.0-1.0","null","<p></p>","null","","","","","","","","","","","","","","","","","","",""
"","do_trial","202","722167","0.0-114.0-0.0","1392.9999999998836","","","","50","0,0,0","1","coast","63","probe-129","0.06933596187676058","0.6339293634791201","0.3529863791046688","0","","","","","","","",""
"","html-keyboard-response","203","723169","0.0-114.0-1.0","null","<p></p>","null","","","","","","","","","","","","","","","","","","",""
"","do_trial","204","729159","0.0-115.0-0.0","1451","","","","50","0,0,1","1","coast","64","probe-181","0.10491143306805988","0.6355205924660132","0.340174136950823","0","","","","","","","",""
"","html-keyboard-response","205","730161","0.0-115.0-1.0","null","<p></p>","null","","","","","","","","","","","","","","","","","","",""
"","do_trial","206","735472","0.0-116.0-0.0","768","","","","50","0,0,1","1","coast","65","probe-76","0.11404596235251223","0.5616055508960252","0.2554462779706045","0","","","","","","","",""
"","html-keyboard-response","207","736473","0.0-116.0-1.0","null","<p></p>","null","","","","","","","","","","","","","","","","","","",""
"","do_trial","208","741643","0.0-117.0-0.0","630","","","","50","0,1,1","1","coast","66","probe-47","0.09375307689063384","0.5844820720498161","0.40942860456495395","1","","","","","","","",""
"","html-keyboard-response","209","742645","0.0-117.0-1.0","null","<p></p>","null","","","","","","","","","","","","","","","","","","",""
"","do_trial","210","748924","0.0-118.0-0.0","1739","","","","50","1,1,0","1","coast","67","probe-07","0.08920565238176023","0.37537223808698544","0.46928436221132125","1","","","","","","","",""
"","html-keyboard-response","211","749927","0.0-118.0-1.0","null","<p></p>","null","","","","","","","","","","","","","","","","","","",""
"","do_trial","212","755770","0.0-119.0-0.0","1304","","","","50","0,0,0","1","coast","68","probe-167","0.061313441181273236","0.2538656126272528","0.480081524450365","0","","","","","","","",""
"","html-keyboard-response","213","756773","0.0-119.0-1.0","null","<p></p>","null","","","","","","","","","","","","","","","","","","",""
"","do_trial","214","761755","0.0-120.0-0.0","439.0000000001164","","","","50","1,0,0","1","coast","69","probe-114","0.18682207737114329","0.38691524719034937","0.44790273481903164","0","","","","","","","",""
"","html-keyboard-response","215","762757","0.0-120.0-1.0","null","<p></p>","null","","","","","","","","","","","","","","","","","","",""
"","do_bye","216","764262","0.0-121.0-0.0","null","","","","null","","","","","","","","","","","","","","","","",""
"","do_travel","217","770265","0.0-122.0-0.0","null","","","","null","","","","","","","","","","","","","","","","",""
"","do_welcome","218","771770","0.0-122.0-1.0","null","","","","null","","","","","","","","","","","","","","","","",""
"","do_trial","219","777566","0.0-123.0-0.0","1257.9999999998836","","","","49","0,1,0","2","highway","70","probe-208","0.06700922959958508","1","0.2726486947745721","0","","","","","","","",""
"","html-keyboard-response","220","778568","0.0-123.0-1.0","null","<p></p>","null","","","","","","","","","","","","","","","","","","",""
"","do_trial","221","783777","0.0-124.0-0.0","670","","","","49","0,1,0","2","highway","71","probe-137","0.10927979568314712","1","0.3110996986316906","0","","","","","","","",""
"","html-keyboard-response","222","784779","0.0-124.0-1.0","null","<p></p>","null","","","","","","","","","","","","","","","","","","",""
"","do_trial","223","789495","0.0-125.0-0.0","175","","","","50","0,1,0","2","highway","72","probe-16","0.18800899845143956","0.893471687606758","0.2861243479847563","1","","","","","","","",""
"","html-keyboard-response","224","790497","0.0-125.0-1.0","null","<p></p>","null","","","","","","","","","","","","","","","","","","",""
"","do_trial","225","796194","0.0-126.0-0.0","1157","","","","50","0,1,1","2","highway","73","probe-72","0.05005040306182398","0.8481673387592217","0.41594144844898084","1","","","","","","","",""
"","html-keyboard-response","226","797196","0.0-126.0-1.0","null","<p></p>","null","","","","","","","","","","","","","","","","","","",""
"","do_trial","227","802956","0.0-127.0-0.0","1220","","","","50","1,1,1","2","highway","74","probe-89","0.08524383454966702","0.7374818871822495","0.3257386011151253","1","","","","","","","",""
"","html-keyboard-response","228","803958","0.0-127.0-1.0","null","<p></p>","null","","","","","","","","","","","","","","","","","","",""
"","do_trial","229","809154","0.0-128.0-0.0","654","","","","50","0,0,1","2","highway","75","probe-04","0.10149793080234525","0.6958211084192073","0.260011359752542","0","","","","","","","",""
"","html-keyboard-response","230","810156","0.0-128.0-1.0","null","<p></p>","null","","","","","","","","","","","","","","","","","","",""
"","do_trial","231","815741","0.0-129.0-0.0","1045","","","","50","0,0,0","2","highway","76","probe-83","0.09459284313182792","0.6664835299044997","0.24259773019319217","0","","","","","","","",""
"","html-keyboard-response","232","816743","0.0-129.0-1.0","null","<p></p>","null","","","","","","","","","","","","","","","","","","",""
"","do_trial","233","821945","0.0-130.0-0.0","660","","","","50","0,1,0","2","highway","77","probe-133","0.22442627035204715","0.5216252675831601","0.4009451370123909","1","","","","","","","",""
"","html-keyboard-response","234","822946","0.0-130.0-1.0","null","<p></p>","null","","","","","","","","","","","","","","","","","","",""
"","do_trial","235","828812","0.0-131.0-0.0","1327","","","","50","0,1,0","2","highway","78","probe-66","0.11298445671530344","0.6708387782962549","0.3027711819194727","1","","","","","","","",""
"","html-keyboard-response","236","829815","0.0-131.0-1.0","null","<p></p>","null","","","","","","","","","","","","","","","","","","",""
"","do_trial","237","834827","0.0-132.0-0.0","470","","","","50","0,0,0","2","highway","79","probe-160","0.1376183931363552","0.7354680493625539","0.40224001517964875","0","","","","","","","",""
"","html-keyboard-response","238","835829","0.0-132.0-1.0","null","<p></p>","null","","","","","","","","","","","","","","","","","","",""
"","do_trial","239","841043","0.0-133.0-0.0","674","","","","50","1,1,0","2","highway","80","probe-135","0.12418035780778987","0.6422440833750527","0.35166363600550987","1","","","","","","","",""
"","html-keyboard-response","240","842045","0.0-133.0-1.0","null","<p></p>","null","","","","","","","","","","","","","","","","","","",""
"","do_trial","241","847191","0.0-134.0-0.0","603","","","","50","0,1,0","2","highway","81","probe-36","0.09931831990125936","0.6889274000375072","0.456944545261854","1","","","","","","","",""
"","html-keyboard-response","242","848192","0.0-134.0-1.0","null","<p></p>","null","","","","","","","","","","","","","","","","","","",""
"","do_trial","243","853494","0.0-135.0-0.0","762","","","","50","0,0,1","2","highway","82","probe-14","0.14461705047763748","0.49832347975404284","0.6445042047030493","0","","","","","","","",""
"","html-keyboard-response","244","854495","0.0-135.0-1.0","null","<p></p>","null","","","","","","","","","","","","","","","","","","",""
"","do_trial","245","859717","0.0-136.0-0.0","681","","","","50","0,0,1","2","highway","83","probe-59","0.15819727857142613","0.5170491627420444","0.5055232423492491","0","","","","","","","",""
"","html-keyboard-response","246","860719","0.0-136.0-1.0","null","<p></p>","null","","","","","","","","","","","","","","","","","","",""
"","do_trial","247","866267","0.0-137.0-0.0","1002.9999999998836","","","","51","1,1,1","2","highway","84","probe-105","0.364255046164578","0.2850773263552501","0.5474664199751811","1","","","","","","","",""
"","html-keyboard-response","248","867269","0.0-137.0-1.0","null","<p></p>","null","","","","","","","","","","","","","","","","","","",""
"","do_trial","249","873622","0.0-138.0-0.0","1812","","","","51","0,1,1","2","highway","85","probe-125","0.301852357339548","0.2401066167323042","0.7017419727333135","1","","","","","","","",""
"","html-keyboard-response","250","874623","0.0-138.0-1.0","null","<p></p>","null","","","","","","","","","","","","","","","","","","",""
"","do_trial","251","881335","0.0-139.0-0.0","2170","","","","50","0,1,0","2","highway","86","probe-180","0.26181533966094456","0.25819023837892074","0.5969321576894777","1","","","","","","","",""
"","html-keyboard-response","252","882337","0.0-139.0-1.0","null","<p></p>","null","","","","","","","","","","","","","","","","","","",""
"","do_trial","253","888352","0.0-140.0-0.0","1475","","","","50","0,0,0","2","highway","87","probe-142","0.2137623612295806","0.14630531010093867","0.6374498979672032","0","","","","","","","",""
"","html-keyboard-response","254","889354","0.0-140.0-1.0","null","<p></p>","null","","","","","","","","","","","","","","","","","","",""
"","do_trial","255","894677","0.0-141.0-0.0","783.0000000001164","","","","50","0,0,0","2","highway","88","probe-50","0.2563673015733194","0.19080282187795372","0.6629974591723604","0","","","","","","","",""
"","html-keyboard-response","256","895678","0.0-141.0-1.0","null","<p></p>","null","","","","","","","","","","","","","","","","","","",""
"","do_trial","257","901392","0.0-142.0-0.0","1175","","","","50","1,1,1","2","highway","89","probe-174","0.36500989202300543","0.2557212604218485","0.6786327185480591","1","","","","","","","",""
"","html-keyboard-response","258","902394","0.0-142.0-1.0","null","<p></p>","null","","","","","","","","","","","","","","","","","","",""
"","do_trial","259","907033","0.0-143.0-0.0","97.99999999988358","","","","50","1,0,1","2","highway","90","probe-198","0.3609391863861218","0.3018172156057932","0.5587548782065441","0","","","","","","","",""
"","html-keyboard-response","260","908034","0.0-143.0-1.0","null","<p></p>","null","","","","","","","","","","","","","","","","","","",""
"","do_trial","261","913140","0.0-144.0-0.0","565.0000000001164","","","","49","0,1,1","2","highway","91","probe-60","0.32710799958645886","0.23035709397805812","0.5628942761282906","0","","","","","","","",""
"","html-keyboard-response","262","914142","0.0-144.0-1.0","null","<p></p>","null","","","","","","","","","","","","","","","","","","",""
"","do_trial","263","919715","0.0-145.0-0.0","1026","","","","49","0,0,0","2","highway","92","probe-225","0.15422838985992568","0.18250061052647482","0.5169377288250637","0","","","","","","","",""
"","html-keyboard-response","264","920717","0.0-145.0-1.0","null","<p></p>","null","","","","","","","","","","","","","","","","","","",""
"","do_trial","265","925817","0.0-146.0-0.0","559","","","","49","0,0,0","2","highway","93","probe-193","0.35042251386087797","0.08937425405193641","0.5744390520710885","0","","","","","","","",""
"","html-keyboard-response","266","926819","0.0-146.0-1.0","null","<p></p>","null","","","","","","","","","","","","","","","","","","",""
"","do_trial","267","932611","0.0-147.0-0.0","1252","","","","49","0,0,0","2","highway","94","probe-100","0.23386694919644258","0.06014723799700951","0.6458715691881558","0","","","","","","","",""
"","html-keyboard-response","268","933613","0.0-147.0-1.0","null","<p></p>","null","","","","","","","","","","","","","","","","","","",""
"","do_trial","269","938523","0.0-148.0-0.0","368","","","","50","0,0,0","2","highway","95","probe-55","0.11583232689182754","0.0562195593457818","0.5693945929983235","0","","","","","","","",""
"","html-keyboard-response","270","939526","0.0-148.0-1.0","null","<p></p>","null","","","","","","","","","","","","","","","","","","",""
"","do_trial","271","944650","0.0-149.0-0.0","583.0000000001164","","","","50","0,0,1","2","highway","96","probe-170","0.22498000452052772","0.12868934354928302","0.5866189523048287","0","","","","","","","",""
"","html-keyboard-response","272","945653","0.0-149.0-1.0","null","<p></p>","null","","","","","","","","","","","","","","","","","","",""
"","do_trial","273","952386","0.0-150.0-0.0","2193.0000000001164","","","","50","0,0,0","2","highway","97","probe-12","0.20866159497673614","0.11278142879013908","0.6568519150663573","0","","","","","","","",""
"","html-keyboard-response","274","953389","0.0-150.0-1.0","null","<p></p>","null","","","","","","","","","","","","","","","","","","",""
"","do_trial","275","959196","0.0-151.0-0.0","1264","","","","50","0,0,0","2","highway","98","probe-176","0.32336512076396334","0.11518389151935834","0.5400026718385132","0","","","","","","","",""
"","html-keyboard-response","276","960198","0.0-151.0-1.0","null","<p></p>","null","","","","","","","","","","","","","","","","","","",""
"","do_trial","277","965424","0.0-152.0-0.0","686.0000000001164","","","","50","0,0,1","2","highway","99","probe-93","0.1615569612998433","0.12850015783103175","0.6789431253647773","0","","","","","","","",""
"","html-keyboard-response","278","966426","0.0-152.0-1.0","null","<p></p>","null","","","","","","","","","","","","","","","","","","",""
"","do_trial","279","971829","0.0-153.0-0.0","863.0000000001164","","","","49","0,0,1","2","highway","100","probe-206","0.19720805966134283","0.12928507729265531","0.6955390067855274","0","","","","","","","",""
"","html-keyboard-response","280","972831","0.0-153.0-1.0","null","<p></p>","null","","","","","","","","","","","","","","","","","","",""
"","do_trial","281","978467","0.0-154.0-0.0","1098","","","","49","1,0,1","2","highway","101","probe-212","0.2926683864241341","0.10555586673058578","0.5812668453886393","1","","","","","","","",""
"","html-keyboard-response","282","979469","0.0-154.0-1.0","null","<p></p>","null","","","","","","","","","","","","","","","","","","",""
"","do_trial","283","984847","0.0-155.0-0.0","839","","","","49","1,0,0","2","highway","102","probe-33","0.29335182805416826","0.07394306834604569","0.6592534038218532","1","","","","","","","",""
"","html-keyboard-response","284","985850","0.0-155.0-1.0","null","<p></p>","null","","","","","","","","","","","","","","","","","","",""
"","do_trial","285","991388","0.0-156.0-0.0","997.0000000001164","","","","49","1,0,0","2","highway","103","probe-74","0.33504493831780835","0.13418291575443242","0.6125173203217685","1","","","","","","","",""
"","html-keyboard-response","286","992390","0.0-156.0-1.0","null","<p></p>","null","","","","","","","","","","","","","","","","","","",""
"","do_trial","287","997578","0.0-157.0-0.0","644","","","","49","1,0,0","2","highway","104","probe-101","0.2779795873064068","0.10533062048953387","0.5959633730536562","1","","","","","","","",""
"","html-keyboard-response","288","998580","0.0-157.0-1.0","null","<p></p>","null","","","","","","","","","","","","","","","","","","",""
"","do_trial","289","1004197","0.0-158.0-0.0","1074","","","","49","0,0,1","2","highway","105","probe-64","0.45400666920985133","0.18323930141453176","0.6014834364511716","0","","","","","","","",""
"","html-keyboard-response","290","1005200","0.0-158.0-1.0","null","<p></p>","null","","","","","","","","","","","","","","","","","","",""
"","do_trial","291","1012064","0.0-159.0-0.0","2322.9999999998836","","","","49","0,0,1","2","highway","106","probe-211","0.40695114205075766","0.10414332350296823","0.6620736888728216","0","","","","","","","",""
"","html-keyboard-response","292","1013066","0.0-159.0-1.0","null","<p></p>","null","","","","","","","","","","","","","","","","","","",""
"","do_trial","293","1018802","0.0-160.0-0.0","1192","","","","49","1,0,0","2","highway","107","probe-80","0.49142207532057347","0.09793483863690247","0.6916698002153813","1","","","","","","","",""
"","html-keyboard-response","294","1019805","0.0-160.0-1.0","null","<p></p>","null","","","","","","","","","","","","","","","","","","",""
"","do_trial","295","1024976","0.0-161.0-0.0","1033","","","","49","0,1,1","2","highway","108","probe-216","0.40425355633591636","0.13201378596541674","0.6282847117384364","0","","","","","","","",""
"","html-keyboard-response","296","1025982","0.0-161.0-1.0","null","<p></p>","null","","","","","","","","","","","","","","","","","","",""
"","do_trial","297","1031188","0.0-162.0-0.0","661","","","","49","1,0,1","2","highway","109","probe-196","0.42176775293409735","0.08250669381838192","0.6816214436868291","1","","","","","","","",""
"","html-keyboard-response","298","1032190","0.0-162.0-1.0","null","<p></p>","null","","","","","","","","","","","","","","","","","","",""
"","do_bye","299","1033693","0.0-163.0-0.0","null","","","","null","","","","","","","","","","","","","","","","",""
"","do_travel","300","1039695","0.0-164.0-0.0","null","","","","null","","","","","","","","","","","","","","","","",""
"","do_welcome","301","1041199","0.0-164.0-1.0","null","","","","null","","","","","","","","","","","","","","","","",""
"","do_trial","302","1047326","0.0-165.0-0.0","1584","","","","49","0,1,1","3","countryside","110","probe-23","0.4631729145441149","0.09577800157625359","1","0","","","","","","","",""
"","html-keyboard-response","303","1048328","0.0-165.0-1.0","null","<p></p>","null","","","","","","","","","","","","","","","","","","",""
"","do_trial","304","1053581","0.0-166.0-0.0","714","","","","49","0,0,1","3","countryside","111","probe-01","0.4540203992716447","0.13554849315543865","1","0","","","","","","","",""
"","html-keyboard-response","305","1054583","0.0-166.0-1.0","null","<p></p>","null","","","","","","","","","","","","","","","","","","",""
"","do_trial","306","1059907","0.0-167.0-0.0","782","","","","49","0,0,1","3","countryside","112","probe-203","0.39847917177094616","0.1248483545533782","0.8239409979884705","0","","","","","","","",""
"","html-keyboard-response","307","1060909","0.0-167.0-1.0","null","<p></p>","null","","","","","","","","","","","","","","","","","","",""
"","do_trial","308","1066295","0.0-168.0-0.0","838","","","","49","1,0,1","3","countryside","113","probe-119","0.3652352367594825","0.31541744089907203","0.9141834681422174","1","","","","","","","",""
"","html-keyboard-response","309","1067297","0.0-168.0-1.0","null","<p></p>","null","","","","","","","","","","","","","","","","","","",""
"","do_trial","310","1072421","0.0-169.0-0.0","585","","","","49","1,0,1","3","countryside","114","probe-128","0.43161076796936665","0.1639341033510285","0.86444421805571","1","","","","","","","",""
"","html-keyboard-response","311","1073423","0.0-169.0-1.0","null","<p></p>","null","","","","","","","","","","","","","","","","","","",""
"","do_trial","312","1078619","0.0-170.0-0.0","653","","","","49","0,0,1","3","countryside","115","probe-107","0.3301762776999522","0.06066251661129126","0.5969248480664544","0","","","","","","","",""
"","html-keyboard-response","313","1079622","0.0-170.0-1.0","null","<p></p>","null","","","","","","","","","","","","","","","","","","",""
"","do_trial","314","1084896","0.0-171.0-0.0","732","","","","50","0,0,1","3","countryside","116","probe-84","0.45511716130891466","0.10797359922352887","0.5034251485841266","0","","","","","","","",""
"","html-keyboard-response","315","1085898","0.0-171.0-1.0","null","<p></p>","null","","","","","","","","","","","","","","","","","","",""
"","do_trial","316","1091681","0.0-172.0-0.0","1242","","","","50","1,0,1","3","countryside","117","probe-147","0.4292496036558138","0.14700824320849148","0.6705014208182029","0","","","","","","","",""
"","html-keyboard-response","317","1092683","0.0-172.0-1.0","null","<p></p>","null","","","","","","","","","","","","","","","","","","",""
"","do_trial","318","1097971","0.0-173.0-0.0","747","","","","50","1,0,1","3","countryside","118","probe-201","0.3951944765560327","0.09200972663515394","0.6119488295226683","0","","","","","","","",""
"","html-keyboard-response","319","1098972","0.0-173.0-1.0","null","<p></p>","null","","","","","","","","","","","","","","","","","","",""
"","do_trial","320","1104917","0.0-174.0-0.0","1405","","","","50","0,0,0","3","countryside","119","probe-136","0.30284725544644625","0.07586906351502519","0.5179954859121118","0","","","","","","","",""
"","html-keyboard-response","321","1105919","0.0-174.0-1.0","null","<p></p>","null","","","","","","","","","","","","","","","","","","",""
"","do_trial","322","1112113","0.0-175.0-0.0","1653","","","","50","0,0,0","3","countryside","120","probe-187","0.32924006078552237","0.206160308915501","0.7002598304228639","0","","","","","","","",""
"","html-keyboard-response","323","1113115","0.0-175.0-1.0","null","<p></p>","null","","","","","","","","","","","","","","","","","","",""
"","do_trial","324","1118192","0.0-176.0-0.0","535","","","","51","0,0,0","3","countryside","121","probe-08","0.19768744860543436","0.1339429876010789","0.7908329346220657","0","","","","","","","",""
"","html-keyboard-response","325","1119194","0.0-176.0-1.0","null","<p></p>","null","","","","","","","","","","","","","","","","","","",""
"","do_trial","326","1124364","0.0-177.0-0.0","631","","","","51","0,1,1","3","countryside","122","probe-31","0.4489537481572641","0.3735572299925529","0.5383175173643437","1","","","","","","","",""
"","html-keyboard-response","327","1125367","0.0-177.0-1.0","null","<p></p>","null","","","","","","","","","","","","","","","","","","",""
"","do_trial","328","1131326","0.0-178.0-0.0","1420","","","","51","0,1,0","3","countryside","123","probe-224","0.5477593481739296","0.43528291978857897","0.15530328150989953","0","","","","","","","",""
"","html-keyboard-response","329","1132329","0.0-178.0-1.0","null","<p></p>","null","","","","","","","","","","","","","","","","","","",""
"","do_trial","330","1137801","0.0-179.0-0.0","932","","","","51","1,1,0","3","countryside","124","probe-108","0.6633760080358664","0.39023866868636986","0.07925716104559966","0","","","","","","","",""
"","html-keyboard-response","331","1138802","0.0-179.0-1.0","null","<p></p>","null","","","","","","","","","","","","","","","","","","",""
"","do_trial","332","1144514","0.0-180.0-0.0","1167","","","","51","0,1,1","3","countryside","125","probe-123","0.5886869453247506","0.2646941171373312","0.05364613273638108","1","","","","","","","",""
"","html-keyboard-response","333","1145517","0.0-180.0-1.0","null","<p></p>","null","","","","","","","","","","","","","","","","","","",""
"","do_trial","334","1150514","0.0-181.0-0.0","456","","","","51","0,0,1","3","countryside","126","probe-85","0.6391858441086568","0.3431512359568369","0.08402488069506561","1","","","","","","","",""
"","html-keyboard-response","335","1151516","0.0-181.0-1.0","null","<p></p>","null","","","","","","","","","","","","","","","","","","",""
"","do_trial","336","1157383","0.0-182.0-0.0","1326.0000000002328","","","","51","1,0,0","3","countryside","127","probe-199","0.5165691150649049","0.24422097921790978","0.0783782996791301","0","","","","","","","",""
"","html-keyboard-response","337","1158385","0.0-182.0-1.0","null","<p></p>","null","","","","","","","","","","","","","","","","","","",""
"","do_trial","338","1164151","0.0-183.0-0.0","1223","","","","51","0,0,0","3","countryside","128","probe-25","0.6017953132537129","0.29993955793423793","0.13777967988128312","0","","","","","","","",""
"","html-keyboard-response","339","1165152","0.0-183.0-1.0","null","<p></p>","null","","","","","","","","","","","","","","","","","","",""
"","do_trial","340","1171326","0.0-184.0-0.0","1633","","","","49","1,0,1","3","countryside","129","probe-131","0.6426389077771184","0.201746643062761","0.18008363696551108","1","","","","","","","",""
"","html-keyboard-response","341","1172328","0.0-184.0-1.0","null","<p></p>","null","","","","","","","","","","","","","","","","","","",""
"","do_trial","342","1178785","0.0-185.0-0.0","1917","","","","49","1,0,0","3","countryside","130","probe-214","0.5067941589804008","0.21396152231698634","0.16765250004615154","1","","","","","","","",""
"","html-keyboard-response","343","1179786","0.0-185.0-1.0","null","<p></p>","null","","","","","","","","","","","","","","","","","","",""
"","do_trial","344","1185502","0.0-186.0-0.0","1175","","","","49","0,1,0","3","countryside","131","probe-75","0.5718725927020565","0.08582635965548423","0.08596689581053525","0","","","","","","","",""
"","html-keyboard-response","345","1186504","0.0-186.0-1.0","null","<p></p>","null","","","","","","","","","","","","","","","","","","",""
"","do_trial","346","1192036","0.0-187.0-0.0","983","","","","49","1,0,0","3","countryside","132","probe-57","0.5292634723597182","0.2743709323795604","0.11679848385878948","1","","","","","","","",""
"","html-keyboard-response","347","1193038","0.0-187.0-1.0","null","<p></p>","null","","","","","","","","","","","","","","","","","","",""
"","do_trial","348","1198554","0.0-188.0-0.0","975","","","","49","1,0,1","3","countryside","133","probe-54","0.6648394088123871","0.2807737655538552","0.144288619218521","1","","","","","","","",""
"","html-keyboard-response","349","1199556","0.0-188.0-1.0","null","<p></p>","null","","","","","","","","","","","","","","","","","","",""
"","do_trial","350","1205223","0.0-189.0-0.0","1127.9999999997672","","","","49","1,0,0","3","countryside","134","probe-204","0.7344559062500574","0.22138684190121974","0.05801611038553245","1","","","","","","","",""
"","html-keyboard-response","351","1206225","0.0-189.0-1.0","null","<p></p>","null","","","","","","","","","","","","","","","","","","",""
"","do_trial","352","1211821","0.0-190.0-0.0","1057","","","","49","1,0,0","3","countryside","135","probe-06","0.6776458033425106","0.24058334296847123","0.05545296708825795","1","","","","","","","",""
"","html-keyboard-response","353","1212822","0.0-190.0-1.0","null","<p></p>","null","","","","","","","","","","","","","","","","","","",""
"","do_trial","354","1218911","0.0-191.0-0.0","1546.9999999997672","","","","49","1,0,0","3","countryside","136","probe-24","0.6788511576075775","0.14779384912693996","0.13321129496723919","1","","","","","","","",""
"","html-keyboard-response","355","1219914","0.0-191.0-1.0","null","<p></p>","null","","","","","","","","","","","","","","","","","","",""
"","do_trial","356","1225085","0.0-192.0-0.0","626","","","","49","1,0,0","3","countryside","137","probe-51","0.6290453768013127","0.18738170986505912","0.14598979240009186","1","","","","","","","",""
"","html-keyboard-response","357","1226086","0.0-192.0-1.0","null","<p></p>","null","","","","","","","","","","","","","","","","","","",""
"","do_trial","358","1231213","0.0-193.0-0.0","587","","","","49","1,0,1","3","countryside","138","probe-220","0.6436349906365962","0.33576762008684624","0.15373474476762597","1","","","","","","","",""
"","html-keyboard-response","359","1232215","0.0-193.0-1.0","null","<p></p>","null","","","","","","","","","","","","","","","","","","",""
"","do_trial","360","1237933","0.0-194.0-0.0","1177","","","","49","1,1,0","3","countryside","139","probe-69","0.5876500599277408","0.3875711062173869","0.15631644276107332","1","","","","","","","",""
"","html-keyboard-response","361","1238936","0.0-194.0-1.0","null","<p></p>","null","","","","","","","","","","","","","","","","","","",""
"","do_trial","362","1245438","0.0-195.0-0.0","1962","","","","49","1,1,0","3","countryside","140","probe-143","0.6315870207988278","0.40815253477879937","0.13970147260839014","1","","","","","","","",""
"","html-keyboard-response","363","1246439","0.0-195.0-1.0","null","<p></p>","null","","","","","","","","","","","","","","","","","","",""
"","do_trial","364","1252646","0.0-196.0-0.0","1663","","","","49","1,0,0","3","countryside","141","probe-222","0.7209552961426505","0.3524858179822412","0.0975598016269621","1","","","","","","","",""
"","html-keyboard-response","365","1253648","0.0-196.0-1.0","null","<p></p>","null","","","","","","","","","","","","","","","","","","",""
"","do_trial","366","1258839","0.0-197.0-0.0","649","","","","49","0,0,0","3","countryside","142","probe-229","0.7975636387583259","0.41173139652318064","0.14930020103144237","0","","","","","","","",""
"","html-keyboard-response","367","1259840","0.0-197.0-1.0","null","<p></p>","null","","","","","","","","","","","","","","","","","","",""
"","do_trial","368","1264834","0.0-198.0-0.0","455","","","","50","1,1,0","3","countryside","143","probe-05","0.6428169502841168","0.41370016223399375","0.06532588410414916","1","","","","","","","",""
"","html-keyboard-response","369","1265835","0.0-198.0-1.0","null","<p></p>","null","","","","","","","","","","","","","","","","","","",""
"","do_trial","370","1270798","0.0-199.0-0.0","420.99999999976717","","","","50","0,0,0","3","countryside","144","probe-58","0.4247291234603428","0.4214757900819938","0.10945736173072829","0","","","","","","","",""
"","html-keyboard-response","371","1271800","0.0-199.0-1.0","null","<p></p>","null","","","","","","","","","","","","","","","","","","",""
"","do_trial","372","1276873","0.0-200.0-0.0","534","","","","50","0,0,0","3","countryside","145","probe-186","0.5837560877846425","0.3221456994632833","0.12388077128507426","0","","","","","","","",""
"","html-keyboard-response","373","1277876","0.0-200.0-1.0","null","<p></p>","null","","","","","","","","","","","","","","","","","","",""
"","do_trial","374","1282953","0.0-201.0-0.0","534","","","","50","0,1,0","3","countryside","146","probe-22","0.4779793030030463","0.367259949415479","0.13351344842531207","1","","","","","","","",""
"","html-keyboard-response","375","1283956","0.0-201.0-1.0","null","<p></p>","null","","","","","","","","","","","","","","","","","","",""
"","do_trial","376","1289044","0.0-202.0-0.0","548","","","","50","0,0,0","3","countryside","147","probe-141","0.5890512018156262","0.22594894487099487","0.11470110480945948","0","","","","","","","",""
"","html-keyboard-response","377","1290046","0.0-202.0-1.0","null","<p></p>","null","","","","","","","","","","","","","","","","","","",""
"","do_trial","378","1295842","0.0-203.0-0.0","1254","","","","50","0,0,0","3","countryside","148","probe-106","0.5558301649441976","0.35502075514317855","0.12072644982238362","0","","","","","","","",""
"","html-keyboard-response","379","1296844","0.0-203.0-1.0","null","<p></p>","null","","","","","","","","","","","","","","","","","","",""
"","do_trial","380","1301970","0.0-204.0-0.0","585","","","","49","0,0,0","3","countryside","149","probe-163","0.560320370574458","0.3082562419646641","0.13012716970171614","0","","","","","","","",""
"","html-keyboard-response","381","1302972","0.0-204.0-1.0","null","<p></p>","null","","","","","","","","","","","","","","","","","","",""
"","do_bye","382","1304476","0.0-205.0-0.0","null","","","","null","","","","","","","","","","","","","","","","",""
"","do_travel","383","1310479","0.0-206.0-0.0","null","","","","null","","","","","","","","","","","","","","","","",""
"","do_welcome","384","1311983","0.0-206.0-1.0","null","","","","null","","","","","","","","","","","","","","","","",""
"","do_trial","385","1317226","0.0-207.0-0.0","702","","","","49","1,0,0","4","forest","150","probe-185","1","0.28428626090205084","0.060400146986203114","1","","","","","","","",""
"","html-keyboard-response","386","1318229","0.0-207.0-1.0","null","<p></p>","null","","","","","","","","","","","","","","","","","","",""
"","do_trial","387","1325293","0.0-208.0-0.0","2524","","","","49","1,1,0","4","forest","151","probe-92","1","0.365740096383727","0.05022227908810528","1","","","","","","","",""
"","html-keyboard-response","388","1326297","0.0-208.0-1.0","null","<p></p>","null","","","","","","","","","","","","","","","","","","",""
"","do_trial","389","1331439","0.0-209.0-0.0","599.9999999997672","","","","49","0,0,0","4","forest","152","probe-29","0.8784444688237302","0.3765890173097721","0.05374989018684797","0","","","","","","","",""
"","html-keyboard-response","390","1332441","0.0-209.0-1.0","null","<p></p>","null","","","","","","","","","","","","","","","","","","",""
"","do_trial","391","1337496","0.0-210.0-0.0","515","","","","49","0,1,0","4","forest","153","probe-117","0.6133197132937712","0.22793966739187943","0.07321300839860433","0","","","","","","","",""
"","html-keyboard-response","392","1338499","0.0-210.0-1.0","null","<p></p>","null","","","","","","","","","","","","","","","","","","",""
"","do_trial","393","1343515","0.0-211.0-0.0","475","","","","50","1,1,0","4","forest","154","probe-113","0.47388311236953157","0.24401635236975255","0.09157634218187971","1","","","","","","","",""
"","html-keyboard-response","394","1344517","0.0-211.0-1.0","null","<p></p>","null","","","","","","","","","","","","","","","","","","",""
"","do_trial","395","1350729","0.0-212.0-0.0","1671","","","","50","1,0,0","4","forest","155","probe-126","0.47332102060198267","0.22041680611644596","0.19265214415962376","0","","","","","","","",""
"","html-keyboard-response","396","1351732","0.0-212.0-1.0","null","<p></p>","null","","","","","","","","","","","","","","","","","","",""
"","do_trial","397","1357153","0.0-213.0-0.0","879.9999999997672","","","","50","1,0,0","4","forest","156","probe-158","0.5661691808699695","0.18964400409026438","0.05280524490734086","0","","","","","","","",""
"","html-keyboard-response","398","1358155","0.0-213.0-1.0","null","<p></p>","null","","","","","","","","","","","","","","","","","","",""
"","do_trial","399","1363340","0.0-214.0-0.0","645.0000000002328","","","","51","1,0,0","4","forest","157","probe-40","0.5023700645187151","0.2354299394211844","0.09240305793412812","0","","","","","","","",""
"","html-keyboard-response","400","1364342","0.0-214.0-1.0","null","<p></p>","null","","","","","","","","","","","","","","","","","","",""
"","do_trial","401","1370084","0.0-215.0-0.0","1202","","","","51","0,0,0","4","forest","158","probe-145","0.3862704521349243","0.2807985654895088","0.06929074573254065","0","","","","","","","",""
"","html-keyboard-response","402","1371087","0.0-215.0-1.0","null","<p></p>","null","","","","","","","","","","","","","","","","","","",""
"","do_trial","403","1376164","0.0-216.0-0.0","533","","","","51","1,0,0","4","forest","159","probe-218","0.45429080673234096","0.3160563856221155","0.06596978479931251","0","","","","","","","",""
"","html-keyboard-response","404","1377166","0.0-216.0-1.0","null","<p></p>","null","","","","","","","","","","","","","","","","","","",""
"","do_trial","405","1382494","0.0-217.0-0.0","788","","","","50","1,0,0","4","forest","160","probe-63","0.47739819873118544","0.1498459803679572","0.14962263912803433","0","","","","","","","",""
"","html-keyboard-response","406","1383497","0.0-217.0-1.0","null","<p></p>","null","","","","","","","","","","","","","","","","","","",""
"","do_trial","407","1388477","0.0-218.0-0.0","438.00000000023283","","","","49","0,0,0","4","forest","161","probe-38","0.314045379721012","0.06111327105670565","0.28362974495523113","0","","","","","","","",""
"","html-keyboard-response","408","1389479","0.0-218.0-1.0","null","<p></p>","null","","","","","","","","","","","","","","","","","","",""
"","do_trial","409","1394646","0.0-219.0-0.0","628","","","","49","0,0,0","4","forest","162","probe-175","0.23566041496223433","0.23678336873733316","0.28713903885271924","0","","","","","","","",""
"","html-keyboard-response","410","1395647","0.0-219.0-1.0","null","<p></p>","null","","","","","","","","","","","","","","","","","","",""
"","do_trial","411","1400693","0.0-220.0-0.0","504","","","","49","0,1,0","4","forest","163","probe-168","0.13466017480868148","0.4727754542156798","0.21275949530121","0","","","","","","","",""
"","html-keyboard-response","412","1401695","0.0-220.0-1.0","null","<p></p>","null","","","","","","","","","","","","","","","","","","",""
"","do_trial","413","1406917","0.0-221.0-0.0","681","","","","50","1,1,0","4","forest","164","probe-17","0.14053535868318118","0.37108524917133173","0.19783268274471055","1","","","","","","","",""
"","html-keyboard-response","414","1407919","0.0-221.0-1.0","null","<p></p>","null","","","","","","","","","","","","","","","","","","",""
"","do_trial","415","1413584","0.0-222.0-0.0","1126.9999999997672","","","","50","0,0,0","4","forest","165","probe-35","0.12494077778636083","0.4450940894411926","0.20682742281095784","0","","","","","","","",""
"","html-keyboard-response","416","1414586","0.0-222.0-1.0","null","<p></p>","null","","","","","","","","","","","","","","","","","","",""
"","do_trial","417","1420288","0.0-223.0-0.0","1162","","","","50","0,0,0","4","forest","166","probe-62","0.11718537695326492","0.4787263508273698","0.1761060928079302","0","","","","","","","",""
"","html-keyboard-response","418","1421290","0.0-223.0-1.0","null","<p></p>","null","","","","","","","","","","","","","","","","","","",""
"","do_trial","419","1426756","0.0-224.0-0.0","924","","","","50","0,0,0","4","forest","167","probe-30","0.1438390973226798","0.4332271781464472","0.2440590280277782","0","","","","","","","",""
"","html-keyboard-response","420","1427757","0.0-224.0-1.0","null","<p></p>","null","","","","","","","","","","","","","","","","","","",""
"","do_trial","421","1433171","0.0-225.0-0.0","874","","","","50","1,1,1","4","forest","168","probe-139","0.22594680912219797","0.5683567389986159","0.32811635223907704","1","","","","","","","",""
"","html-keyboard-response","422","1434173","0.0-225.0-1.0","null","<p></p>","null","","","","","","","","","","","","","","","","","","",""
"","do_trial","423","1439977","0.0-226.0-0.0","1264.0000000002328","","","","50","1,0,0","4","forest","169","probe-21","0.28334480614363355","0.46494764971323327","0.3004392905502502","0","","","","","","","",""
"","html-keyboard-response","424","1440979","0.0-226.0-1.0","null","<p></p>","null","","","","","","","","","","","","","","","","","","",""
"","do_trial","425","1447341","0.0-227.0-0.0","1822","","","","50","0,1,0","4","forest","170","probe-121","0.23100030429013174","0.5318180698457999","0.19975971093748754","1","","","","","","","",""
"","html-keyboard-response","426","1448342","0.0-227.0-1.0","null","<p></p>","null","","","","","","","","","","","","","","","","","","",""
"","do_trial","427","1453865","0.0-228.0-0.0","978","","","","50","0,0,1","4","forest","171","probe-78","0.2639864852715173","0.61421672357398","0.2298954020281153","0","","","","","","","",""
"","html-keyboard-response","428","1454868","0.0-228.0-1.0","null","<p></p>","null","","","","","","","","","","","","","","","","","","",""
"","do_trial","429","1460719","0.0-229.0-0.0","1310","","","","50","0,1,0","4","forest","172","probe-191","0.16712642112169893","0.7290553073368694","0.22464183654911465","1","","","","","","","",""
"","html-keyboard-response","430","1461721","0.0-229.0-1.0","null","<p></p>","null","","","","","","","","","","","","","","","","","","",""
"","do_trial","431","1469175","0.0-230.0-0.0","2915","","","","50","1,1,0","4","forest","173","probe-213","0.12252354694323987","0.7309368261180893","0.20648026985859882","1","","","","","","","",""
"","html-keyboard-response","432","1470177","0.0-230.0-1.0","null","<p></p>","null","","","","","","","","","","","","","","","","","","",""
"","do_trial","433","1475482","0.0-231.0-0.0","764","","","","50","0,1,0","4","forest","174","probe-15","0.0822759987914688","0.7786157002363381","0.3614297038261715","1","","","","","","","",""
"","html-keyboard-response","434","1476484","0.0-231.0-1.0","null","<p></p>","null","","","","","","","","","","","","","","","","","","",""
"","do_trial","435","1482461","0.0-232.0-0.0","1437","","","","50","0,1,1","4","forest","175","probe-169","0.09018293877312869","0.6144573145899517","0.4116918174227529","1","","","","","","","",""
"","html-keyboard-response","436","1483463","0.0-232.0-1.0","null","<p></p>","null","","","","","","","","","","","","","","","","","","",""
"","do_trial","437","1489192","0.0-233.0-0.0","1187","","","","50","1,1,0","4","forest","176","probe-99","0.12356763526220295","0.619047864391429","0.3062027542891711","1","","","","","","","",""
"","html-keyboard-response","438","1490194","0.0-233.0-1.0","null","<p></p>","null","","","","","","","","","","","","","","","","","","",""
"","do_trial","439","1497358","0.0-234.0-0.0","2624","","","","50","0,1,0","4","forest","177","probe-53","0.16378031234394222","0.5037473374577291","0.32547014929958645","1","","","","","","","",""
"","html-keyboard-response","440","1498360","0.0-234.0-1.0","null","<p></p>","null","","","","","","","","","","","","","","","","","","",""
"","do_trial","441","1504563","0.0-235.0-0.0","1661","","","","50","0,1,0","4","forest","178","probe-178","0.1458715676608918","0.6689593762547702","0.27606067431079","1","","","","","","","",""
"","html-keyboard-response","442","1505565","0.0-235.0-1.0","null","<p></p>","null","","","","","","","","","","","","","","","","","","",""
"","do_trial","443","1512083","0.0-236.0-0.0","1976.9999999997672","","","","50","0,1,1","4","forest","179","probe-134","0.1094849525828646","0.7236241921167396","0.2850147433234492","1","","","","","","","",""
"","html-keyboard-response","444","1513085","0.0-236.0-1.0","null","<p></p>","null","","","","","","","","","","","","","","","","","","",""
"","do_trial","445","1519270","0.0-237.0-0.0","1643","","","","50","0,1,1","4","forest","180","probe-154","0.18839600529253836","0.7093814531925677","0.4555379681020936","1","","","","","","","",""
"","html-keyboard-response","446","1520272","0.0-237.0-1.0","null","<p></p>","null","","","","","","","","","","","","","","","","","","",""
"","do_trial","447","1525373","0.0-238.0-0.0","559","","","","50","0,1,0","4","forest","181","probe-49","0.07856291991689038","0.6737860128494527","0.31184854988953553","1","","","","","","","",""
"","html-keyboard-response","448","1526374","0.0-238.0-1.0","null","<p></p>","null","","","","","","","","","","","","","","","","","","",""
"","do_trial","449","1531344","0.0-239.0-0.0","429.99999999976717","","","","50","0,0,0","4","forest","182","probe-140","0.14768978030584756","0.5905282666336321","0.36186846305339565","0","","","","","","","",""
"","html-keyboard-response","450","1532346","0.0-239.0-1.0","null","<p></p>","null","","","","","","","","","","","","","","","","","","",""
"","do_trial","451","1537595","0.0-240.0-0.0","709.0000000002328","","","","49","0,1,0","4","forest","183","probe-34","0.08898521647774514","0.6207877352330543","0.3310084039302783","0","","","","","","","",""
"","html-keyboard-response","452","1538599","0.0-240.0-1.0","null","<p></p>","null","","","","","","","","","","","","","","","","","","",""
"","do_trial","453","1543833","0.0-241.0-0.0","692","","","","49","0,0,0","4","forest","184","probe-149","0.1899932509353058","0.6068395050634863","0.25896513120889214","0","","","","","","","",""
"","html-keyboard-response","454","1544835","0.0-241.0-1.0","null","<p></p>","null","","","","","","","","","","","","","","","","","","",""
"","do_trial","455","1551301","0.0-242.0-0.0","1925.9999999997672","","","","49","0,1,0","4","forest","185","probe-157","0.17856406223763052","0.5094924667267593","0.28177213095329995","0","","","","","","","",""
"","html-keyboard-response","456","1552304","0.0-242.0-1.0","null","<p></p>","null","","","","","","","","","","","","","","","","","","",""
"","do_trial","457","1557268","0.0-243.0-0.0","424","","","","49","0,1,0","4","forest","186","probe-27","0.0923518991958127","0.4882603257352596","0.34483070475798094","0","","","","","","","",""
"","html-keyboard-response","458","1558270","0.0-243.0-1.0","null","<p></p>","null","","","","","","","","","","","","","","","","","","",""
"","do_trial","459","1563643","0.0-244.0-0.0","832","","","","49","1,1,0","4","forest","187","probe-77","0.1554275571884237","0.630562449620497","0.302276387057611","1","","","","","","","",""
"","html-keyboard-response","460","1564644","0.0-244.0-1.0","null","<p></p>","null","","","","","","","","","","","","","","","","","","",""
"","do_trial","461","1570674","0.0-245.0-0.0","1490","","","","50","0,1,0","4","forest","188","probe-26","0.17671535969485694","0.767531786669631","0.303745696576155","1","","","","","","","",""
"","html-keyboard-response","462","1571676","0.0-245.0-1.0","null","<p></p>","null","","","","","","","","","","","","","","","","","","",""
"","do_trial","463","1578169","0.0-246.0-0.0","1951","","","","50","0,0,0","4","forest","189","probe-44","0.1689363059107096","0.6636205932788158","0.2728675473981218","0","","","","","","","",""
"","html-keyboard-response","464","1579171","0.0-246.0-1.0","null","<p></p>","null","","","","","","","","","","","","","","","","","","",""
"","do_bye","465","1580676","0.0-247.0-0.0","null","","","","null","","","","","","","","","","","","","","","","",""
"","do_travel","466","1586678","0.0-248.0-0.0","null","","","","null","","","","","","","","","","","","","","","","",""
"","do_welcome","467","1588183","0.0-248.0-1.0","null","","","","null","","","","","","","","","","","","","","","","",""
"","do_trial","468","1594657","0.0-249.0-0.0","1934","","","","50","1,1,0","5","mountain","190","probe-90","0.18621199854481546","1","0.25323140250839016","1","","","","","","","",""
"","html-keyboard-response","469","1595658","0.0-249.0-1.0","null","<p></p>","null","","","","","","","","","","","","","","","","","","",""
"","do_trial","470","1602021","0.0-250.0-0.0","1822","","","","50","0,1,0","5","mountain","191","probe-146","0.08309725842440155","1","0.2933228261371699","1","","","","","","","",""
"","html-keyboard-response","471","1603023","0.0-250.0-1.0","null","<p></p>","null","","","","","","","","","","","","","","","","","","",""
"","do_trial","472","1608239","0.0-251.0-0.0","675","","","","50","0,0,0","5","mountain","192","probe-91","0.23148499545787415","0.7377980545614992","0.2274089498605539","0","","","","","","","",""
"","html-keyboard-response","473","1609240","0.0-251.0-1.0","null","<p></p>","null","","","","","","","","","","","","","","","","","","",""
"","do_trial","474","1615003","0.0-252.0-0.0","1224","","","","50","0,1,0","5","mountain","193","probe-87","0.0611886634274679","0.8157288835906938","0.24117922871238617","1","","","","","","","",""
"","html-keyboard-response","475","1616006","0.0-252.0-1.0","null","<p></p>","null","","","","","","","","","","","","","","","","","","",""
"","do_trial","476","1621063","0.0-253.0-0.0","517","","","","50","1,1,0","5","mountain","194","probe-177","0.2121384558494054","0.8713966587056992","0.2746786732093056","1","","","","","","","",""
"","html-keyboard-response","477","1622065","0.0-253.0-1.0","null","<p></p>","null","","","","","","","","","","","","","","","","","","",""
"","do_trial","478","1627308","0.0-254.0-0.0","702","","","","49","0,1,1","5","mountain","195","probe-95","0.16502975542753373","0.7312573976940655","0.39513984371058486","0","","","","","","","",""
"","html-keyboard-response","479","1628310","0.0-254.0-1.0","null","<p></p>","null","","","","","","","","","","","","","","","","","","",""
"","do_trial","480","1633524","0.0-255.0-0.0","674","","","","50","1,1,1","5","mountain","196","probe-120","0.14907735224673205","0.7763477747072948","0.4367764198204123","1","","","","","","","",""
"","html-keyboard-response","481","1634526","0.0-255.0-1.0","null","<p></p>","null","","","","","","","","","","","","","","","","","","",""
"","do_trial","482","1640620","0.0-256.0-0.0","1554","","","","50","0,0,0","5","mountain","197","probe-11","0.2083982989839365","0.5563723824959411","0.2987237966384398","0","","","","","","","",""
"","html-keyboard-response","483","1641622","0.0-256.0-1.0","null","<p></p>","null","","","","","","","","","","","","","","","","","","",""
"","do_trial","484","1647999","0.0-257.0-0.0","1831","","","","50","0,0,1","5","mountain","198","probe-132","0.3356109206323112","0.6238681563263956","0.3642152316586377","0","","","","","","","",""
"","html-keyboard-response","485","1649001","0.0-257.0-1.0","null","<p></p>","null","","","","","","","","","","","","","","","","","","",""
"","do_trial","486","1654398","0.0-258.0-0.0","855.0000000002328","","","","50","0,1,0","5","mountain","199","probe-20","0.30749089902034854","0.7058775741897249","0.23425425830386176","1","","","","","","","",""
"","html-keyboard-response","487","1655400","0.0-258.0-1.0","null","<p></p>","null","","","","","","","","","","","","","","","","","","",""
"","do_trial","488","1660636","0.0-259.0-0.0","698","","","","49","0,1,0","5","mountain","200","probe-67","0.42098010450089746","0.8344272862821169","0.3690412213472834","0","","","","","","","",""
"","html-keyboard-response","489","1661639","0.0-259.0-1.0","null","<p></p>","null","","","","","","","","","","","","","","","","","","",""
"","do_trial","490","1667371","0.0-260.0-0.0","1193","","","","49","1,1,1","5","mountain","201","probe-48","0.5634179389772721","0.7849806079455017","0.4709833313929949","1","","","","","","","",""
"","html-keyboard-response","491","1668373","0.0-260.0-1.0","null","<p></p>","null","","","","","","","","","","","","","","","","","","",""
"","do_trial","492","1675466","0.0-261.0-0.0","2552","","","","49","1,1,0","5","mountain","202","probe-166","0.5039659472937877","0.4654854945530091","0.6089299969742875","1","","","","","","","",""
"","html-keyboard-response","493","1676469","0.0-261.0-1.0","null","<p></p>","null","","","","","","","","","","","","","","","","","","",""
"","do_trial","494","1682106","0.0-262.0-0.0","1096","","","","49","1,0,1","5","mountain","203","probe-188","0.3062966396214581","0.2856874380859278","0.7213921555369309","1","","","","","","","",""
"","html-keyboard-response","495","1683109","0.0-262.0-1.0","null","<p></p>","null","","","","","","","","","","","","","","","","","","",""
"","do_trial","496","1688120","0.0-263.0-0.0","468.00000000023283","","","","49","0,1,1","5","mountain","204","probe-165","0.06625536577096713","0.12929139261120262","0.8239234858110457","0","","","","","","","",""
"","html-keyboard-response","497","1689122","0.0-263.0-1.0","null","<p></p>","null","","","","","","","","","","","","","","","","","","",""
"","do_trial","498","1694547","0.0-264.0-0.0","883","","","","49","0,0,1","5","mountain","205","probe-148","0.08395314639566397","0.17843495445772284","0.7527675405655014","0","","","","","","","",""
"","html-keyboard-response","499","1695549","0.0-264.0-1.0","null","<p></p>","null","","","","","","","","","","","","","","","","","","",""
"","do_trial","500","1700619","0.0-265.0-0.0","526","","","","49","0,0,1","5","mountain","206","probe-152","0.13886803408752538","0.26236478748516023","0.7494226862643432","0","","","","","","","",""
"","html-keyboard-response","501","1701621","0.0-265.0-1.0","null","<p></p>","null","","","","","","","","","","","","","","","","","","",""
"","do_trial","502","1707200","0.0-266.0-0.0","1039","","","","50","0,1,0","5","mountain","207","probe-159","0.10128997232579359","0.34749628427846035","0.6296233512993452","1","","","","","","","",""
"","html-keyboard-response","503","1708202","0.0-266.0-1.0","null","<p></p>","null","","","","","","","","","","","","","","","","","","",""
"","do_trial","504","1714641","0.0-267.0-0.0","1891","","","","50","0,0,1","5","mountain","208","probe-104","0.05501358321587373","0.16205510387537989","0.5080894924244193","0","","","","","","","",""
"","html-keyboard-response","505","1715643","0.0-267.0-1.0","null","<p></p>","null","","","","","","","","","","","","","","","","","","",""
"","do_trial","506","1720844","0.0-268.0-0.0","661","","","","49","0,1,0","5","mountain","209","probe-179","0.062063275779595285","0.14655367081348303","0.6680100584433056","0","","","","","","","",""
"","html-keyboard-response","507","1721846","0.0-268.0-1.0","null","<p></p>","null","","","","","","","","","","","","","","","","","","",""
"","do_trial","508","1727209","0.0-269.0-0.0","823","","","","50","0,0,1","5","mountain","210","probe-39","0.05388935206901878","0.05898206564512872","0.697509980533955","0","","","","","","","",""
"","html-keyboard-response","509","1728211","0.0-269.0-1.0","null","<p></p>","null","","","","","","","","","","","","","","","","","","",""
"","do_trial","510","1735289","0.0-270.0-0.0","2540","","","","50","0,0,0","5","mountain","211","probe-68","0.14694833292970289","0.24120829437002536","0.7259243800895613","0","","","","","","","",""
"","html-keyboard-response","511","1736292","0.0-270.0-1.0","null","<p></p>","null","","","","","","","","","","","","","","","","","","",""
"","do_trial","512","1742308","0.0-271.0-0.0","1473","","","","50","0,0,1","5","mountain","212","probe-86","0.15490277731949564","0.3258345475363113","0.6990653179584887","0","","","","","","","",""
"","html-keyboard-response","513","1743310","0.0-271.0-1.0","null","<p></p>","null","","","","","","","","","","","","","","","","","","",""
"","do_trial","514","1748911","0.0-272.0-0.0","1058.9999999997672","","","","50","0,0,0","5","mountain","213","probe-19","0.06660898430069359","0.36108580144640684","0.6267245939124383","0","","","","","","","",""
"","html-keyboard-response","515","1749913","0.0-272.0-1.0","null","<p></p>","null","","","","","","","","","","","","","","","","","","",""
"","do_trial","516","1755338","0.0-273.0-0.0","883","","","","49","0,1,1","5","mountain","214","probe-226","0.054327744196449736","0.529932361602619","0.7010895161666982","0","","","","","","","",""
"","html-keyboard-response","517","1756339","0.0-273.0-1.0","null","<p></p>","null","","","","","","","","","","","","","","","","","","",""
"","do_trial","518","1762381","0.0-274.0-0.0","null","","","","null","0,1,1","5","mountain","215","probe-112","0.15622679477753862","0.5015930314775242","0.8069801122592132","","","","","","","","",""
"","html-keyboard-response","519","1763383","0.0-274.0-1.0","null","<p></p>","null","","","","","","","","","","","","","","","","","","",""
"","do_trial","520","1768277","0.0-275.0-0.0","352.00000000023283","","","","49","0,1,1","5","mountain","216","probe-144","0.053902044084399824","0.25475611947080107","0.7898642257628737","0","","","","","","","",""
"","html-keyboard-response","521","1769279","0.0-275.0-1.0","null","<p></p>","null","","","","","","","","","","","","","","","","","","",""
"","do_trial","522","1774970","0.0-276.0-0.0","1149","","","","49","0,1,1","5","mountain","217","probe-202","0.12628170161148233","0.3942032284014947","0.5663195359171078","0","","","","","","","",""
"","html-keyboard-response","523","1775973","0.0-276.0-1.0","null","<p></p>","null","","","","","","","","","","","","","","","","","","",""
"","do_trial","524","1780906","0.0-277.0-0.0","393","","","","50","0,0,1","5","mountain","218","probe-115","0.1494002803492162","0.3136885584263119","0.49995426559570305","0","","","","","","","",""
"","html-keyboard-response","525","1781909","0.0-277.0-1.0","null","<p></p>","null","","","","","","","","","","","","","","","","","","",""
"","do_trial","526","1788608","0.0-278.0-0.0","2158","","","","50","0,0,1","5","mountain","219","probe-161","0.07957933408209017","0.22738143261253377","0.5099350962601668","0","","","","","","","",""
"","html-keyboard-response","527","1789611","0.0-278.0-1.0","null","<p></p>","null","","","","","","","","","","","","","","","","","","",""
"","do_trial","528","1794771","0.0-279.0-0.0","622","","","","50","1,0,0","5","mountain","220","probe-65","0.08683921565023311","0.21375149937739368","0.5372018217159313","0","","","","","","","",""
"","html-keyboard-response","529","1795774","0.0-279.0-1.0","null","<p></p>","null","","","","","","","","","","","","","","","","","","",""
"","do_trial","530","1800857","0.0-280.0-0.0","545","","","","50","0,1,1","5","mountain","221","probe-116","0.07375018847021976","0.17213003779365724","0.5097709116722281","1","","","","","","","",""
"","html-keyboard-response","531","1801859","0.0-280.0-1.0","null","<p></p>","null","","","","","","","","","","","","","","","","","","",""
"","do_trial","532","1807363","0.0-281.0-0.0","965.0000000002328","","","","50","0,0,0","5","mountain","222","probe-88","0.12375684366331419","0.15064795240266668","0.5179560724499421","0","","","","","","","",""
"","html-keyboard-response","533","1808365","0.0-281.0-1.0","null","<p></p>","null","","","","","","","","","","","","","","","","","","",""
"","do_trial","534","1813774","0.0-282.0-0.0","867","","","","49","0,1,1","5","mountain","223","probe-205","0.054710584277329825","0.2864750681395974","0.5833334955156068","0","","","","","","","",""
"","html-keyboard-response","535","1814776","0.0-282.0-1.0","null","<p></p>","null","","","","","","","","","","","","","","","","","","",""
"","do_trial","536","1820287","0.0-283.0-0.0","968","","","","49","0,0,0","5","mountain","224","probe-189","0.13442006374395285","0.27526319365533275","0.4663649320683619","0","","","","","","","",""
"","html-keyboard-response","537","1821289","0.0-283.0-1.0","null","<p></p>","null","","","","","","","","","","","","","","","","","","",""
"","do_trial","538","1827329","0.0-284.0-0.0","null","","","","null","1,1,1","5","mountain","225","probe-219","0.14179456695148035","0.25547107120767293","0.4431696371363523","","","","","","","","",""
"","html-keyboard-response","539","1828331","0.0-284.0-1.0","null","<p></p>","null","","","","","","","","","","","","","","","","","","",""
"","do_trial","540","1833735","0.0-285.0-0.0","864","","","","49","0,0,1","5","mountain","226","probe-150","0.26305585003575516","0.24622092579445198","0.3880488128564089","0","","","","","","","",""
"","html-keyboard-response","541","1834737","0.0-285.0-1.0","null","<p></p>","null","","","","","","","","","","","","","","","","","","",""
"","do_trial","542","1839710","0.0-286.0-0.0","433","","","","49","0,0,1","5","mountain","227","probe-42","0.10386043816729068","0.2605892406146553","0.5142470988616801","0","","","","","","","",""
