"success","trial_type","trial_index","time_elapsed","internal_node_id","rt","stimulus","key_press","subject_id","participant_id","age","gender","prompt","response","choice_outcomes","context_n","context_img_id","trial_n","probe_img_id","pR_red","pR_white","pR_black","outcome","contextArray_ind","validImageProbes","invalidImageProbes","pRew_Red","pRew_White","pRew_Black","availableForMemProbe","choice_blocks"
"true","fullscreen","0","4681","0.0-0.0","","","","","","","","","","","","","","","","","","","","","","","","","",""
"","pavlovia","1","4687","0.0-1.0","","","","","","","","","","","","","","","","","","","","","","","","","",""
"","instruc1","2","60805","0.0-2.0","null","run_exp/static/audio/clip_1_welcome.m4a","null","56","223","9","Male","<div class='center'><p>Welcome! This is the first part of the experiment. It will last ~30 minutes. In this experiment, you are the head captain of a pirate ship traveling around the world to different islands. You will play a few different games during this experiment. Here is an overview of these games:</p><br><p>Part 1 (today)</p><p>1. Instructions, practice game, and quiz</p><p>2. Pick a pirate game on 6 different islands</p><br><p>Part 2 (1 day later)</p><p>3. Pick a pirate game and memory game</p><p>4. Where did I see this ship? game</p><p>5. Which pirate was the best? game</p><br><p>Part 3 (1 week later)</p><p>6. Alien space mining game</p><p>7. Memory game</p></div>","","","","","","","","","","","","","","","","","",""
"","html-keyboard-response","3","61598","0.0-3.0","790.8000000119209","<div class='center'><p>Welcome! This is the first part of the experiment. It will last ~30 minutes. In this experiment, you are the head captain of a pirate ship traveling around the world to different islands. You will play a few different games during this experiment. Here is an overview of these games:</p><br><p>Part 1 (today)</p><p>1. Instructions, practice game, and quiz</p><p>2. Pick a pirate game on 6 different islands</p><br><p>Part 2 (1 day later)</p><p>3. Pick a pirate game and memory game</p><p>4. Where did I see this ship? game</p><p>5. Which pirate was the best? game</p><br><p>Part 3 (1 week later)</p><p>6. Alien space mining game</p><p>7. Memory game</p><p><b>[Press the space bar to continue]</b></p></div>","32","","","","","","","","","","","","","","","","","","","","","","",""
"","instruc2","4","69628","0.0-4.0","null","run_exp/static/audio/clip_2_different_places.m4a","null","","","","","<div class='center'><p>Today, you’ll visit these 6 islands on your journey. You'll be able to see these islands from your ship.</p><p><img src='run_exp/static/images/contexts/all_contexts.png' height='500'></p></div>","","","","","","","","","","","","","","","","","",""
"","html-keyboard-response","5","71510","0.0-5.0","1880.2999999523163","<div class='center'><p>Today, you’ll visit these 6 islands on your journey. You'll be able to see these islands from your ship.</p><p><img src='run_exp/static/images/contexts/all_contexts.png' height='500'></p><p><b>[Press the space bar to continue]</b></p></div>","32","","","","","","","","","","","","","","","","","","","","","","",""
"","instruc3","6","84118","0.0-6.0","null","run_exp/static/audio/clip_3_goal_of_game_1.m4a","null","","","","","<div class='center'><p> The pirates on your ship will rob other ships as they leave the island</p> These ships have just sold their things to people on the island, so they will be filled with lots and lots of gold.</p><p><img src='run_exp/static/images/tutorial/ship_center.png' height='400'></p></div>","","","","","","","","","","","","","","","","","",""
"","html-keyboard-response","7","85368","0.0-7.0","1248.9000000357628","<div class='center'><p> The pirates on your ship will rob other ships as they leave the island</p> These ships have just sold their things to people on the island, so they will be filled with lots and lots of gold.</p><p><img src='run_exp/static/images/tutorial/ship_center.png' height='400'></p><p><b>[Press the space bar to continue]</b></p></div>","32","","","","","","","","","","","","","","","","","","","","","","",""
"","instruc4","8","118624","0.0-8.0","null","run_exp/static/audio/clip_4_goal_of_game_2.m4a","null","","","","","<div class='center'><p>As the head captain, you do not have to rob any ships yourself.</p><p>Another pirate will be doing the robbing for you. </p><p>First, you will  choose a pirate to rob the next ship.</p><p><img src='run_exp/static/images/tutorial/pirates_all_crop.png' height='200'></p><p>Then, you'll see if the pirate successfully robbed the ship of their gold. If they were successful, then you'll  get a stack of gold coins like this:</p><p><img src='run_exp/static/images/tutorial/reward.png' height='150'></p><p> If they were <b>not</b> successful, then you'll get no gold coins, and you'll see a big red x like this: </p><p><img src='run_exp/static/images/tutorial/reward_no.png' height='150'></p><p> How much bonus money you make is based on how many gold coins you collect.</p><div>","","","","","","","","","","","","","","","","","",""
"","html-keyboard-response","9","123759","0.0-9.0","5133.199999988079","<div class='center'><p>As the head captain, you do not have to rob any ships yourself.</p><p>Another pirate will be doing the robbing for you. </p><p>First, you will  choose a pirate to rob the next ship.</p><p><img src='run_exp/static/images/tutorial/pirates_all_crop.png' height='200'></p><p>Then, you'll see if the pirate successfully robbed the ship of their gold. If they were successful, then you'll  get a stack of gold coins like this:</p><p><img src='run_exp/static/images/tutorial/reward.png' height='150'></p><p> If they were <b>not</b> successful, then you'll get no gold coins, and you'll see a big red x like this: </p><p><img src='run_exp/static/images/tutorial/reward_no.png' height='150'></p><p> How much bonus money you make is based on how many gold coins you collect.</p<p><b>[Press the space bar to continue]</b></p></div>","32","","","","","","","","","","","","","","","","","","","","","","",""
"","instruc5","10","151002","0.0-10.0","27239.5","run_exp/static/audio/clip_5_probabilistic.m4a","49","","","","","<div class='center'><p>Even the most skilled pirate can not rob EVERY ship.</p><p> Some ships will have very strong protections against pirate attacks.</p><p> Blue beard, here, is very, very good at robbing ships, but he won't be successful every time he tries to rob one.</p><p> You can press the <b>‘1’</b> key on the keyboard to choose him.</p><p> Try choosing him 10 times to see how often he succeeds at robbing a ship. </p><p><img src='run_exp/static/images/tutorial/blue.png' height='500'></p></div>","","","","","","","","","","","","","","","","","",""
"","html-keyboard-response","11","152509","0.0-11.0","null","<div class='center'><p><img src='run_exp/static/images/tutorial/blue_win.png' height='500'></p></div>","null","","","","","","","","","","","","","","","","","","","","","","",""
"","html-keyboard-response","12","153213","0.0-12.0","703.5","<div class='center'><img src='run_exp/static/images/tutorial/blue.png' height='500'></p></div>","49","","","","","","","","","","","","","","","","","","","","","","",""
"","html-keyboard-response","13","154715","0.0-13.0","null","<div class='center'><p><img src='run_exp/static/images/tutorial/blue_win.png' height='500'></p></div>","null","","","","","","","","","","","","","","","","","","","","","","",""
"","html-keyboard-response","14","155793","0.0-14.0","1076.699999988079","<div class='center'><img src='run_exp/static/images/tutorial/blue.png' height='500'></p></div>","49","","","","","","","","","","","","","","","","","","","","","","",""
"","html-keyboard-response","15","157296","0.0-15.0","null","<div class='center'><p><img src='run_exp/static/images/tutorial/blue_win.png' height='500'></p></div>","null","","","","","","","","","","","","","","","","","","","","","","",""
"","html-keyboard-response","16","157921","0.0-16.0","623.6999999880791","<div class='center'><img src='run_exp/static/images/tutorial/blue.png' height='500'></p></div>","49","","","","","","","","","","","","","","","","","","","","","","",""
"","html-keyboard-response","17","159427","0.0-17.0","null","<div class='center'><p><img src='run_exp/static/images/tutorial/blue_no_win.png' height='500'></p></div>","null","","","","","","","","","","","","","","","","","","","","","","",""
"","html-keyboard-response","18","159968","0.0-18.0","539.6999999880791","<div class='center'><img src='run_exp/static/images/tutorial/blue.png' height='500'></p></div>","49","","","","","","","","","","","","","","","","","","","","","","",""
"","html-keyboard-response","19","161472","0.0-19.0","null","<div class='center'><p><img src='run_exp/static/images/tutorial/blue_win.png' height='500'></p></div>","null","","","","","","","","","","","","","","","","","","","","","","",""
"","html-keyboard-response","20","161874","0.0-20.0","401.4000000357628","<div class='center'><img src='run_exp/static/images/tutorial/blue.png' height='500'></p></div>","49","","","","","","","","","","","","","","","","","","","","","","",""
"","html-keyboard-response","21","163380","0.0-21.0","null","<div class='center'><p><img src='run_exp/static/images/tutorial/blue_win.png' height='500'></p></div>","null","","","","","","","","","","","","","","","","","","","","","","",""
"","html-keyboard-response","22","163776","0.0-22.0","395.39999997615814","<div class='center'><img src='run_exp/static/images/tutorial/blue.png' height='500'></p></div>","49","","","","","","","","","","","","","","","","","","","","","","",""
"","html-keyboard-response","23","165280","0.0-23.0","null","<div class='center'><p><img src='run_exp/static/images/tutorial/blue_win.png' height='500'></p></div>","null","","","","","","","","","","","","","","","","","","","","","","",""
"","html-keyboard-response","24","165684","0.0-24.0","403.4000000357628","<div class='center'><img src='run_exp/static/images/tutorial/blue.png' height='500'></p></div>","49","","","","","","","","","","","","","","","","","","","","","","",""
"","html-keyboard-response","25","167186","0.0-25.0","null","<div class='center'><p><img src='run_exp/static/images/tutorial/blue_no_win.png' height='500'></p></div>","null","","","","","","","","","","","","","","","","","","","","","","",""
"","html-keyboard-response","26","167345","0.0-26.0","158.19999998807907","<div class='center'><img src='run_exp/static/images/tutorial/blue.png' height='500'></p></div>","49","","","","","","","","","","","","","","","","","","","","","","",""
"","html-keyboard-response","27","168847","0.0-27.0","null","<div class='center'><p><img src='run_exp/static/images/tutorial/blue_win.png' height='500'></p></div>","null","","","","","","","","","","","","","","","","","","","","","","",""
"","html-keyboard-response","28","169501","0.0-28.0","653","<div class='center'><img src='run_exp/static/images/tutorial/blue.png' height='500'></p></div>","49","","","","","","","","","","","","","","","","","","","","","","",""
"","html-keyboard-response","29","171005","0.0-29.0","null","<div class='center'><p><img src='run_exp/static/images/tutorial/blue_win.png' height='500'></p></div>","null","","","","","","","","","","","","","","","","","","","","","","",""
"","instruc6","30","177699","0.0-30.0","null","run_exp/static/audio/clip_6_blue_beard_outcome.m4a","null","","","","","<div class='center'><p> See, he succeeded in robbing the ships most of the time but not every time. </p></div>","","","","","","","","","","","","","","","","","",""
"","html-keyboard-response","31","179117","0.0-31.0","1416.4000000357628","<div class='center'><p> See, he succeeded in robbing the ships most of the time but not every time. </p><p><b>[Press the space bar to continue]</b></p></div>","32","","","","","","","","","","","","","","","","","","","","","","",""
"","audio-keyboard-response","32","187477","0.0-32.0","8358.099999964237","run_exp/static/audio/clip_7_pick_pirate.m4a","49","","","","","","","","","","","","","","","","","","","","","","",""
"","audio-keyboard-response","33","189483","0.0-33.0-0.0","2002.5","run_exp/static/audio/clip_8_chosen_pirate_win.m4a","32","","","","","","","","","","","","","","","","","","","","","","",""
"","audio-keyboard-response","34","192053","0.0-33.0-1.0","2568.600000023842","run_exp/static/audio/clip_9_pick_a_pirate_again.m4a","51","","","","","","","","","","","","","","","","","","","","","","",""
"","audio-keyboard-response","35","194012","0.0-34.0-0.0","1946.6000000238419","run_exp/static/audio/clip_10_chosen_pirate_loss.m4a","32","","","","","","","","","","","","","","","","","","","","","","",""
"","instruc9","36","201152","0.0-35.0-0.0","null","run_exp/static/audio/clip_11_time_out.m4a","null","","","","","<div class='center'><p>If you don’t make your choice fast enough, you’ll have to wait a few seconds before you can make another one. </p><p><img src='run_exp/static/images/miscellaneous/hurry_up.png' height='500'></p></div>","","","","","","","","","","","","","","","","","",""
"","html-keyboard-response","37","202400","0.0-35.0-1.0","1246.5","<div class='center'><p>If you don’t make your choice fast enough, you’ll have to wait a few seconds before you can make another one. </p><p><img src='run_exp/static/images/miscellaneous/hurry_up.png' height='500'></p><p><b>[Press the space bar to continue]</b></p></div>","32","","","","","","","","","","","","","","","","","","","","","","",""
"","instruc10","38","251030","0.0-35.0-2.0","null","run_exp/static/audio/clip_12_probe.m4a","null","","","","","<div class='center'><p>Once you've choose a pirate, you’ll be shown the ship they are robbing.</p><p>You will never rob the same ship twice. After all, ships that have already been robbed won’t have gold on them. </p><p>Ships can be told apart from one another by the image on them. See, this one has a travel mug on it. </p><p> You’ll have to remember which island you saw each ship on.You will win more bonus money if you remember correctly! To help you remember, you can imagine a story. For example, here, you could imagine a mug full of water in the desert. Or, as another example, if on the forest island, your pirate robbed a ship with an apple on it, you could imagine an apple falling from a tree in the forest. </p><p><img src='run_exp/static/images/tutorial/example_probe.png' height='500'></p></div>","","","","","","","","","","","","","","","","","",""
"","html-keyboard-response","39","256493","0.0-35.0-3.0","5461.199999988079","<div class='center'><p>Once you've choose a pirate, you’ll be shown the ship they are robbing.</p><p>You will never rob the same ship twice. After all, ships that have already been robbed won’t have gold on them. </p><p>Ships can be told apart from one another by the image on them. See, this one has a travel mug on it. </p><p> You’ll have to remember which island you saw each ship on.You will win more bonus money if you remember correctly! To help you remember, you can imagine a story. For example, here, you could imagine a mug full of water in the desert. Or, as another example, if on the forest island, your pirate robbed a ship with an apple on it, you could imagine an apple falling from a tree in the forest. </p><p><img src='run_exp/static/images/tutorial/example_probe.png' height='500'></p><p><b>[Press the space bar to continue]</b></p></div>","32","","","","","","","","","","","","","","","","","","","","","","",""
"","instruc11","40","277409","0.0-35.0-4.0","null","run_exp/static/audio/clip_13_changepoint.m4a","null","","","","","<div class='center'><p>How successful a pirate is at robbing ships will depend on the island you’re on.</p><p> A pirate may have visited this island many times before and gained a lot of practice robbing ships there.</p><p>So, they’re more likely to be successful than a pirate who has never visited the island before.</p></div>","","","","","","","","","","","","","","","","","",""
"","html-keyboard-response","41","278708","0.0-35.0-5.0","1297.699999988079","<div class='center'><p>How successful a pirate is at robbing ships will depend on the island you’re on.</p><p> A pirate may have visited this island many times before and gained a lot of practice robbing ships there.</p><p>So, they’re more likely to be successful than a pirate who has never visited the island before.</p><p><b>[Press the space bar to continue]</b></p></div>","32","","","","","","","","","","","","","","","","","","","","","","",""
"","instruc12","42","306760","0.0-35.0-6.0","null","run_exp/static/audio/clip_14_drift.m4a","null","","","","","<div class='center'><p>How successful a pirate is at robbing ships can also change over the time spent on the island. </p><p> Ships may hear from islanders about the pirates coming and will improve their protections against the attack. This may make it harder to rob them.</p><p> Ships may also become lazy and weaken the strength of their protections. This may make it easier to rob them.</p><br><p>Things are always changing on the high seas! So, try your best to pay attention!</p><p><img src='run_exp/static/images/tutorial/contingency.png' height='500'></p></div>","","","","","","","","","","","","","","","","","",""
"","html-keyboard-response","43","309541","0.0-35.0-7.0","2779.5","<div class='center'><p>How successful a pirate is at robbing ships can also change over the time spent on the island. </p><p> Ships may hear from islanders about the pirates coming and will improve their protections against the attack. This may make it harder to rob them.</p><p> Ships may also become lazy and weaken the strength of their protections. This may make it easier to rob them.</p><br><p>Things are always changing on the high seas! So, try your best to pay attention!</p><p><img src='run_exp/static/images/tutorial/contingency.png' height='500'></p><p><b>[Press the space bar to continue]</b></p></div>","32","","","","","","","","","","","","","","","","","","","","","","",""
"","instruc13","44","354223","0.0-35.0-8.0","null","run_exp/static/audio/clip_15_summary.m4a","null","","","","","<div class='center'><p>Let's go over the instructions quickly again. You have two important things to do: </p><b><p> 1. Pick the pirate who is the best at robbing ships on the current island. This way you'll collect more gold coins!</p></b><b><p> 2. Remember on which island a ship was robbed.</p> </b><p>The amount of bonus money you can win depends on both.</p><p><br><p>Let’s try a practice game. The game will start by showing you the pirates. First, pick a pirate using the <b> 1, 2, 3 </b> keys on your keyboard. When you are shown a ship, try to remember which island you’re on by making up a story.</p><p>This is just a practice game, so you’re not playing for money. </p><p> Good luck!</p></div>","","","","","","","","","","","","","","","","","",""
"","html-keyboard-response","45","355161","0.0-35.0-9.0","937.5","<div class='center'><p>Let's go over the instructions quickly again. You have two important things to do: </p><b><p> 1. Pick the pirate who is the best at robbing ships on the current island. This way you'll collect more gold coins!</p></b><b><p> 2. Remember on which island a ship was robbed.</p> </b><p>The amount of bonus money you can win depends on both.</p><p><br><p>Let’s try a practice game. The game will start by showing you the pirates. First, pick a pirate using the <b> 1, 2, 3 </b> keys on your keyboard. When you are shown a ship, try to remember which island you’re on by making up a story.</p><p>This is just a practice game, so you’re not playing for money. </p><p> Good luck!</p><p><b>[Press the space bar to continue]</b></p></div>","32","","","","","","","","","","","","","","","","","","","","","","",""
"","do_welcome","46","356671","0.0-35.0-10.0","null","","","","","","","","null","","","","","","","","","","","","","","","","",""
"","do_trial","47","363616","0.0-35.0-11.0","2433.899999976158","","","","","","","","50","1,0,0","","","","","","","","","","","","","","","",""
"","html-keyboard-response","48","364623","0.0-36.0-0.0","null","<p></p>","null","","","","","","","","","","","","","","","","","","","","","","",""
"","do_trial","49","369862","0.0-36.0-1.0","727.5","","","","","","","","49","1,1,0","","","","","","","","","","","","","","","",""
"","html-keyboard-response","50","370867","0.0-37.0-0.0","null","<p></p>","null","","","","","","","","","","","","","","","","","","","","","","",""
"","do_trial","51","376627","0.0-37.0-1.0","1247","","","","","","","","51","1,0,1","","","","","","","","","","","","","","","",""
"","html-keyboard-response","52","377631","0.0-38.0-0.0","null","<p></p>","null","","","","","","","","","","","","","","","","","","","","","","",""
"","do_trial","53","383518","0.0-38.0-1.0","1374.8999999761581","","","","","","","","51","0,1,0","","","","","","","","","","","","","","","",""
"","html-keyboard-response","54","384523","0.0-39.0-0.0","null","<p></p>","null","","","","","","","","","","","","","","","","","","","","","","",""
"","do_trial","55","389581","0.0-39.0-1.0","548","","","","","","","","50","1,0,0","","","","","","","","","","","","","","","",""
"","do_bye","56","391088","0.0-40.0-0.0","null","","","","","","","","null","","","","","","","","","","","","","","","","",""
"","do_travel","57","397095","0.0-40.0-1.0","null","","","","","","","","null","","","","","","","","","","","","","","","","",""
"","do_welcome","58","398603","0.0-40.0-2.0","null","","","","","","","","null","","","","","","","","","","","","","","","","",""
"","do_trial","59","403980","0.0-40.0-3.0","870.6999999880791","","","","","","","","51","1,0,0","","","","","","","","","","","","","","","",""
"","html-keyboard-response","60","404986","0.0-41.0-0.0","null","<p></p>","null","","","","","","","","","","","","","","","","","","","","","","",""
"","do_trial","61","410013","0.0-41.0-1.0","512","","","","","","","","49","1,0,1","","","","","","","","","","","","","","","",""
"","html-keyboard-response","62","411018","0.0-42.0-0.0","null","<p></p>","null","","","","","","","","","","","","","","","","","","","","","","",""
"","do_trial","63","417032","0.0-42.0-1.0","null","","","","","","","","null","1,1,0","","","","","","","","","","","","","","","",""
"","html-keyboard-response","64","418038","0.0-43.0-0.0","null","<p></p>","null","","","","","","","","","","","","","","","","","","","","","","",""
"","do_trial","65","423291","0.0-43.0-1.0","740","","","","","","","","51","1,1,0","","","","","","","","","","","","","","","",""
"","html-keyboard-response","66","424296","0.0-44.0-0.0","null","<p></p>","null","","","","","","","","","","","","","","","","","","","","","","",""
"","do_trial","67","428950","0.0-44.0-1.0","138.60000002384186","","","","","","","","50","0,0,1","","","","","","","","","","","","","","","",""
"","html-keyboard-response","68","429956","0.0-45.0-0.0","null","<p></p>","null","","","","","","","","","","","","","","","","","","","","","","",""
"","do_trial","69","434469","0.0-45.0-1.0","0.19999998807907104","","","","","","","","49","1,0,1","","","","","","","","","","","","","","","",""
"","html-keyboard-response","70","434579","0.0-46.0-0.0","106.10000002384186","<div class='center'><p><img src='run_exp/static/images/tutorial/prac_best_pirate.png'  height='500'></p></div>","49","","","","","","","","","","","","","","","","","","","","","","",""
"","html-keyboard-response","71","436273","0.0-47.0-0.0","1690.800000011921","<div class='center'><p>That's correct! Red beard was the best.</p><p><b>[Press the space bar to continue]</b></p></div>","32","","","","","","","","","","","","","","","","","","","","","","",""
"","html-keyboard-response","72","441210","0.0-47.0-1.0","4933.5","<div class='center'><p><img src='run_exp/static/images/tutorial/prac_source.png'  height='500'></p></div>","50","","","","","","","","","","","","","","","","","","","","","","",""
"","html-keyboard-response","73","442729","0.0-48.0-0.0","1517.300000011921","<div class='center'><p>That's correct! You saw this ship on the cavern island.</p><p><b>[Press the space bar to continue]</b></p></div>","32","","","","","","","","","","","","","","","","","","","","","","",""
"","quiz_beginning","74","456275","0.0-48.0-1.0","null","run_exp/static/audio/clip_16_quiz_intro.m4a","null","","","","","<div class='center'><p>Good job on the practice game! Now, you will be asked some true or false questions to make sure you really understand the rules of the game.</p><p> Press <b>'1'</b> on the keyboard for true and press <b>'2'</b> for false.</p></div>","","","","","","","","","","","","","","","","","",""
"","audio-keyboard-response","75","465251","0.0-48.0-2.0","8973.199999988079","run_exp/static/audio/clip_17_q1.m4a","49","","","","","","","","","","","","","","","","","","","","","","",""
"","q1_err","76","472879","0.0-49.0-0.0","null","run_exp/static/audio/clip_19_wrong_q1.m4a","null","","","","","<div class='center'><p>That’s incorrect! You win bonus money by collecting as many gold coins as possible!</p></div>","","","","","","","","","","","","","","","","","",""
"","html-keyboard-response","77","475007","0.0-49.0-1.0","2127","<div class='center'><p>That’s incorrect! You win bonus money by collecting as many gold coins as possible!</p><p><b>[Press the space bar to continue]</b></p></div>","32","","","","","","","","","","","","","","","","","","","","","","",""
"","audio-keyboard-response","78","481928","0.0-49.0-2.0","6919.399999976158","run_exp/static/audio/clip_20_q2.m4a","50","","","","","","","","","","","","","","","","","","","","","","",""
"","correct","79","484908","0.0-50.0-0.0","null","run_exp/static/audio/clip_18_correct.m4a","null","","","","","<div class='center'><p>That's correct!</p></div>","","","","","","","","","","","","","","","","","",""
"","html-keyboard-response","80","486079","0.0-50.0-1.0","1170.4000000357628","<div class='center'><p>That's correct!</p><p><b>[Press the space bar to continue]</b></p></div>","32","","","","","","","","","","","","","","","","","","","","","","",""
"","audio-keyboard-response","81","492983","0.0-50.0-2.0","6901.600000023842","run_exp/static/audio/clip_22_q3.m4a","50","","","","","","","","","","","","","","","","","","","","","","",""
"","correct","82","495938","0.0-51.0-0.0","null","run_exp/static/audio/clip_18_correct.m4a","null","","","","","<div class='center'><p>That's correct!</p></div>","","","","","","","","","","","","","","","","","",""
"","html-keyboard-response","83","497246","0.0-51.0-1.0","1307.199999988079","<div class='center'><p>That's correct!</p><p><b>[Press the space bar to continue]</b></p></div>","32","","","","","","","","","","","","","","","","","","","","","","",""
"","audio-keyboard-response","84","499546","0.0-51.0-2.0","2298.199999988079","run_exp/static/audio/clip_24_q4.m4a","49","","","","","","","","","","","","","","","","","","","","","","",""
"","correct","85","502509","0.0-52.0-0.0","null","run_exp/static/audio/clip_18_correct.m4a","null","","","","","<div class='center'><p>That's correct!</p></div>","","","","","","","","","","","","","","","","","",""
"","html-keyboard-response","86","504407","0.0-52.0-1.0","1896.8999999761581","<div class='center'><p>That's correct!</p><p><b>[Press the space bar to continue]</b></p></div>","32","","","","","","","","","","","","","","","","","","","","","","",""
"","q_all_err","87","511960","0.0-53.0-0.0","null","run_exp/static/audio/clip_26_quiz_redo.m4a","null","","","","","<div class='center'><p>Oops, you missed some questions. Now that you’ve heard the correct answers. Try the quiz again! </p></div>","","","","","","","","","","","","","","","","","",""
"","html-keyboard-response","88","513708","0.0-53.0-1.0","1746.0999999642372","<div class='center'><p>Oops, you missed some questions. Now that you’ve heard the correct answers. Try the quiz again! </p><p><b>[Press the space bar to continue]</b></p></div>","32","","","","","","","","","","","","","","","","","","","","","","",""
"","audio-keyboard-response","89","515364","0.0-53.0-2.0","1655.6000000238419","run_exp/static/audio/clip_17_q1.m4a","50","","","","","","","","","","","","","","","","","","","","","","",""
"","correct","90","518323","0.0-54.0-0.0","null","run_exp/static/audio/clip_18_correct.m4a","null","","","","","<div class='center'><p>That's correct!</p></div>","","","","","","","","","","","","","","","","","",""
"","html-keyboard-response","91","519327","0.0-54.0-1.0","1003.5","<div class='center'><p>That's correct!</p><p><b>[Press the space bar to continue]</b></p></div>","32","","","","","","","","","","","","","","","","","","","","","","",""
"","audio-keyboard-response","92","522113","0.0-54.0-2.0","2783.699999988079","run_exp/static/audio/clip_20_q2.m4a","50","","","","","","","","","","","","","","","","","","","","","","",""
"","correct","93","525080","0.0-55.0-0.0","null","run_exp/static/audio/clip_18_correct.m4a","null","","","","","<div class='center'><p>That's correct!</p></div>","","","","","","","","","","","","","","","","","",""
"","html-keyboard-response","94","527072","0.0-55.0-1.0","1991.3999999761581","<div class='center'><p>That's correct!</p><p><b>[Press the space bar to continue]</b></p></div>","32","","","","","","","","","","","","","","","","","","","","","","",""
"","audio-keyboard-response","95","529201","0.0-55.0-2.0","2126.699999988079","run_exp/static/audio/clip_22_q3.m4a","50","","","","","","","","","","","","","","","","","","","","","","",""
"","correct","96","532162","0.0-56.0-0.0","null","run_exp/static/audio/clip_18_correct.m4a","null","","","","","<div class='center'><p>That's correct!</p></div>","","","","","","","","","","","","","","","","","",""
"","html-keyboard-response","97","533662","0.0-56.0-1.0","1498.8999999761581","<div class='center'><p>That's correct!</p><p><b>[Press the space bar to continue]</b></p></div>","32","","","","","","","","","","","","","","","","","","","","","","",""
"","audio-keyboard-response","98","536118","0.0-56.0-2.0","2453.599999964237","run_exp/static/audio/clip_24_q4.m4a","49","","","","","","","","","","","","","","","","","","","","","","",""
"","correct","99","539129","0.0-57.0-0.0","null","run_exp/static/audio/clip_18_correct.m4a","null","","","","","<div class='center'><p>That's correct!</p></div>","","","","","","","","","","","","","","","","","",""
"","html-keyboard-response","100","539547","0.0-57.0-1.0","416.89999997615814","<div class='center'><p>That's correct!</p><p><b>[Press the space bar to continue]</b></p></div>","32","","","","","","","","","","","","","","","","","","","","","","",""
"","q_all_corr","101","546559","0.0-58.0-0.0","null","run_exp/static/audio/clip_27_quiz_all_correct.m4a","null","","","","","<div class='center'><p>Good job! You’re now ready to move on to the real game!</p></div>","","","","","","","","","","","","","","","","","",""
"","html-keyboard-response","102","546923","0.0-58.0-1.0","362.30000001192093","<div class='center'><p>Good job! You’re now ready to move on to the real game!</p><p><b>[Press the space bar to continue]</b></p></div>","32","","","","","","","","","","","","","","","","","","","","","","",""
"","do_welcome","103","548429","0.0-59.0-0.0","null","","","","","","","","null","","","","","","","","","","","","","","","","",""
"","do_trial","104","554766","0.0-60.0-0.0","1788.4000000357628","","","","","","","","50","1,0,0","0","countryside","0","probe-35","0.6","0.3","0.1","0","","","","","","","",""
"","html-keyboard-response","105","555774","0.0-60.0-1.0","null","<p></p>","null","","","","","","","","","","","","","","","","","","","","","","",""
"","do_trial","106","560609","0.0-61.0-0.0","287.80000001192093","","","","","","","","49","0,0,0","0","countryside","1","probe-75","0.6672503730198657","0.1592713155001593","0.1780570656107994","0","","","","","","","",""
"","html-keyboard-response","107","561614","0.0-61.0-1.0","null","<p></p>","null","","","","","","","","","","","","","","","","","","","","","","",""
"","do_trial","108","566870","0.0-62.0-0.0","708","","","","","","","","51","1,1,0","0","countryside","2","probe-191","0.5787965740891605","0.28304981284428715","0.0737500052744705","0","","","","","","","",""
"","html-keyboard-response","109","567876","0.0-62.0-1.0","null","<p></p>","null","","","","","","","","","","","","","","","","","","","","","","",""
"","do_trial","110","572934","0.0-63.0-0.0","508.39999997615814","","","","","","","","50","0,0,0","0","countryside","3","probe-26","0.5513655813214071","0.3555695170521091","0.12905509763197867","0","","","","","","","",""
"","html-keyboard-response","111","573939","0.0-63.0-1.0","null","<p></p>","null","","","","","","","","","","","","","","","","","","","","","","",""
"","do_trial","112","578616","0.0-64.0-0.0","127.90000003576279","","","","","","","","51","1,0,0","0","countryside","4","probe-198","0.6710703484425975","0.30563891417638245","0.0624397729272535","0","","","","","","","",""
"","html-keyboard-response","113","579623","0.0-64.0-1.0","null","<p></p>","null","","","","","","","","","","","","","","","","","","","","","","",""
"","do_trial","114","584867","0.0-65.0-0.0","694.1000000238419","","","","","","","","50","1,0,0","0","countryside","5","probe-72","0.6269157234374723","0.31238876070053817","0.06808064564653138","0","","","","","","","",""
"","html-keyboard-response","115","585872","0.0-65.0-1.0","null","<p></p>","null","","","","","","","","","","","","","","","","","","","","","","",""
"","do_trial","116","591923","0.0-66.0-0.0","null","","","","","","","","null","1,0,1","0","countryside","6","probe-98","0.7654288117269927","0.35152140532462356","0.15217413073356617","","","","","","","","",""
"","html-keyboard-response","117","592929","0.0-66.0-1.0","null","<p></p>","null","","","","","","","","","","","","","","","","","","","","","","",""
"","do_trial","118","598473","0.0-67.0-0.0","995.0999999642372","","","","","","","","49","1,0,0","0","countryside","7","probe-189","0.7297641697590946","0.23697279371389435","0.13297004146598007","1","","","","","","","",""
"","html-keyboard-response","119","599480","0.0-67.0-1.0","null","<p></p>","null","","","","","","","","","","","","","","","","","","","","","","",""
"","do_trial","120","604939","0.0-68.0-0.0","909.5","","","","","","","","49","1,1,0","0","countryside","8","probe-39","0.6504796744821123","0.36202934899808314","0.20857860934213748","1","","","","","","","",""
"","html-keyboard-response","121","605944","0.0-68.0-1.0","null","<p></p>","null","","","","","","","","","","","","","","","","","","","","","","",""
"","do_trial","122","610973","0.0-69.0-0.0","481.19999998807907","","","","","","","","49","0,1,1","0","countryside","9","probe-16","0.7335172933814634","0.35887345403912685","0.20575468037756459","0","","","","","","","",""
"","html-keyboard-response","123","611977","0.0-69.0-1.0","null","<p></p>","null","","","","","","","","","","","","","","","","","","","","","","",""
"","do_trial","124","617091","0.0-70.0-0.0","564.4000000357628","","","","","","","","49","1,0,1","0","countryside","10","probe-04","0.8188304441504494","0.35647461303398303","0.26878322138346405","1","","","","","","","",""
"","html-keyboard-response","125","618096","0.0-70.0-1.0","null","<p></p>","null","","","","","","","","","","","","","","","","","","","","","","",""
"","do_trial","126","623148","0.0-71.0-0.0","505.7000000476837","","","","","","","","50","0,1,0","0","countryside","11","probe-132","0.7070216191990797","0.3435693345801489","0.25012411955026576","1","","","","","","","",""
"","html-keyboard-response","127","624153","0.0-71.0-1.0","null","<p></p>","null","","","","","","","","","","","","","","","","","","","","","","",""
"","do_trial","128","629176","0.0-72.0-0.0","476.60000002384186","","","","","","","","49","1,1,0","0","countryside","12","probe-47","0.7110314810155363","0.49554142467806855","0.121325726782046","1","","","","","","","",""
"","html-keyboard-response","129","630182","0.0-72.0-1.0","null","<p></p>","null","","","","","","","","","","","","","","","","","","","","","","",""
"","do_trial","130","636050","0.0-73.0-0.0","1322.4000000357628","","","","","","","","49","1,0,1","0","countryside","13","probe-76","0.5958523987135975","0.299842527256843","0.17892268803593225","1","","","","","","","",""
"","html-keyboard-response","131","637054","0.0-73.0-1.0","null","<p></p>","null","","","","","","","","","","","","","","","","","","","","","","",""
"","do_trial","132","642180","0.0-74.0-0.0","576.8000000119209","","","","","","","","50","1,0,0","0","countryside","14","probe-53","0.6437430161180825","0.2616475677836893","0.21698475009935636","0","","","","","","","",""
"","html-keyboard-response","133","643184","0.0-74.0-1.0","null","<p></p>","null","","","","","","","","","","","","","","","","","","","","","","",""
"","do_trial","134","649234","0.0-75.0-0.0","null","","","","","","","","null","1,1,0","0","countryside","15","probe-213","0.7147573278029159","0.3174707274728661","0.1973951963518161","","","","","","","","",""
"","html-keyboard-response","135","650239","0.0-75.0-1.0","null","<p></p>","null","","","","","","","","","","","","","","","","","","","","","","",""
"","do_trial","136","654952","0.0-76.0-0.0","164.10000002384186","","","","","","","","51","1,0,0","0","countryside","16","probe-58","0.6593902233676526","0.21410715984587123","0.1690766144959234","0","","","","","","","",""
"","html-keyboard-response","137","655954","0.0-76.0-1.0","null","<p></p>","null","","","","","","","","","","","","","","","","","","","","","","",""
"","do_trial","138","660599","0.0-77.0-0.0","96.80000001192093","","","","","","","","49","0,0,1","0","countryside","17","probe-64","0.6793936943825104","0.23165406410584774","0.06332279330620338","0","","","","","","","",""
"","html-keyboard-response","139","661602","0.0-77.0-1.0","null","<p></p>","null","","","","","","","","","","","","","","","","","","","","","","",""
"","do_trial","140","666150","0.0-78.0-0.0","0.09999996423721313","","","","","","","","49","1,0,0","0","countryside","18","probe-154","0.7143955628844032","0.3753245803607293","0.09734222229292348","1","","","","","","","",""
"","html-keyboard-response","141","667153","0.0-78.0-1.0","null","<p></p>","null","","","","","","","","","","","","","","","","","","","","","","",""
"","do_trial","142","671703","0.0-79.0-0.0","0","","","","","","","","49","1,0,0","0","countryside","19","probe-141","0.6934543790107378","0.37249395074707553","0.17770592372211005","1","","","","","","","",""
"","html-keyboard-response","143","672707","0.0-79.0-1.0","null","<p></p>","null","","","","","","","","","","","","","","","","","","","","","","",""
"","do_trial","144","677311","0.0-80.0-0.0","57.5","","","","","","","","49","1,0,0","0","countryside","20","probe-172","0.5818194955393817","0.3821793679923161","0.14047833471046087","1","","","","","","","",""
"","html-keyboard-response","145","678314","0.0-80.0-1.0","null","<p></p>","null","","","","","","","","","","","","","","","","","","","","","","",""
"","do_trial","146","682903","0.0-81.0-0.0","38.40000003576279","","","","","","","","49","1,0,1","0","countryside","21","probe-218","0.4707418557591674","0.278595621105156","0.06686987331944387","1","","","","","","","",""
"","html-keyboard-response","147","683904","0.0-81.0-1.0","null","<p></p>","null","","","","","","","","","","","","","","","","","","","","","","",""
"","do_trial","148","688579","0.0-82.0-0.0","125.10000002384186","","","","","","","","49","0,1,0","0","countryside","22","probe-10","0.4659833272300927","0.33856587460994386","0.07587687248865606","0","","","","","","","",""
"","html-keyboard-response","149","689584","0.0-82.0-1.0","null","<p></p>","null","","","","","","","","","","","","","","","","","","","","","","",""
"","do_trial","150","694144","0.0-83.0-0.0","11.100000023841858","","","","","","","","49","1,0,0","0","countryside","23","probe-89","0.5221253365321686","0.4085474780754909","0.18136890325814617","1","","","","","","","",""
"","html-keyboard-response","151","695149","0.0-83.0-1.0","null","<p></p>","null","","","","","","","","","","","","","","","","","","","","","","",""
"","do_trial","152","699903","0.0-84.0-0.0","204.30000001192093","","","","","","","","49","1,0,0","0","countryside","24","probe-219","0.4471123329885512","0.3673495808900592","0.17976955339803544","1","","","","","","","",""
"","html-keyboard-response","153","700906","0.0-84.0-1.0","null","<p></p>","null","","","","","","","","","","","","","","","","","","","","","","",""
"","do_trial","154","705753","0.0-85.0-0.0","297.60000002384186","","","","","","","","49","1,1,0","0","countryside","25","probe-140","0.4543010760976533","0.42586205949363803","0.08710305725210127","1","","","","","","","",""
"","html-keyboard-response","155","706757","0.0-85.0-1.0","null","<p></p>","null","","","","","","","","","","","","","","","","","","","","","","",""
"","do_trial","156","712807","0.0-86.0-0.0","null","","","","","","","","null","1,1,0","0","countryside","26","probe-228","0.5711779167618335","0.5370673673765112","0.11450854825231929","","","","","","","","",""
"","html-keyboard-response","157","713812","0.0-86.0-1.0","null","<p></p>","null","","","","","","","","","","","","","","","","","","","","","","",""
"","do_trial","158","720278","0.0-87.0-0.0","1920.6000000238419","","","","","","","","49","1,1,0","0","countryside","27","probe-152","0.5152459160121031","0.5167634165105645","0.10015493780124","1","","","","","","","",""
"","html-keyboard-response","159","721282","0.0-87.0-1.0","null","<p></p>","null","","","","","","","","","","","","","","","","","","","","","","",""
"","do_trial","160","727059","0.0-88.0-0.0","1232.1000000238419","","","","","","","","49","0,1,0","0","countryside","28","probe-151","0.5439854266026926","0.3733821667705102","0.08079894439143952","0","","","","","","","",""
"","html-keyboard-response","161","728064","0.0-88.0-1.0","null","<p></p>","null","","","","","","","","","","","","","","","","","","","","","","",""
"","do_trial","162","733097","0.0-89.0-0.0","487.19999998807907","","","","","","","","49","1,0,0","0","countryside","29","probe-24","0.5800595052327588","0.22452474614227597","0.11423370113366463","1","","","","","","","",""
"","html-keyboard-response","163","734102","0.0-89.0-1.0","null","<p></p>","null","","","","","","","","","","","","","","","","","","","","","","",""
"","do_bye","164","735609","0.0-90.0-0.0","null","","","","","","","","null","","","","","","","","","","","","","","","","",""
"","do_travel","165","741616","0.0-91.0-0.0","null","","","","","","","","null","","","","","","","","","","","","","","","","",""
"","do_welcome","166","743126","0.0-91.0-1.0","null","","","","","","","","null","","","","","","","","","","","","","","","","",""
"","do_trial","167","749134","0.0-92.0-0.0","1457.800000011921","","","","","","","","49","1,0,0","1","coast","30","probe-149","1","0.19209272627243884","0.14303642028851213","1","","","","","","","",""
"","html-keyboard-response","168","750139","0.0-92.0-1.0","null","<p></p>","null","","","","","","","","","","","","","","","","","","","","","","",""
"","do_trial","169","755161","0.0-93.0-0.0","473","","","","","","","","50","1,0,0","1","coast","31","probe-161","1","0.21210396780497415","0.05676955491519287","0","","","","","","","",""
"","html-keyboard-response","170","756166","0.0-93.0-1.0","null","<p></p>","null","","","","","","","","","","","","","","","","","","","","","","",""
"","do_trial","171","761043","0.0-94.0-0.0","327.19999998807907","","","","","","","","49","1,0,0","1","coast","32","probe-43","1","0.30324131645871394","0.1167049980181705","1","","","","","","","",""
"","html-keyboard-response","172","762045","0.0-94.0-1.0","null","<p></p>","null","","","","","","","","","","","","","","","","","","","","","","",""
"","do_trial","173","767346","0.0-95.0-0.0","751.6999999880791","","","","","","","","49","1,1,1","1","coast","33","probe-49","0.9175811334053472","0.24391416914493622","0.31343141079073705","1","","","","","","","",""
"","html-keyboard-response","174","768351","0.0-95.0-1.0","null","<p></p>","null","","","","","","","","","","","","","","","","","","","","","","",""
"","do_trial","175","772896","0.0-96.0-0.0","0.09999996423721313","","","","","","","","49","1,1,0","1","coast","34","probe-114","0.9459651957974026","0.25606111199936243","0.23704528968945993","1","","","","","","","",""
"","html-keyboard-response","176","773900","0.0-96.0-1.0","null","<p></p>","null","","","","","","","","","","","","","","","","","","","","","","",""
"","do_trial","177","779041","0.0-97.0-0.0","592.1000000238419","","","","","","","","49","1,0,0","1","coast","35","probe-182","0.8779826406405783","0.06295375450683732","0.15531299841959167","1","","","","","","","",""
"","html-keyboard-response","178","780047","0.0-97.0-1.0","null","<p></p>","null","","","","","","","","","","","","","","","","","","","","","","",""
"","do_trial","179","784617","0.0-98.0-0.0","23.899999976158142","","","","","","","","49","0,0,0","1","coast","36","probe-61","0.7078268770174171","0.11715095865770796","0.1371896587643626","0","","","","","","","",""
"","html-keyboard-response","180","785623","0.0-98.0-1.0","null","<p></p>","null","","","","","","","","","","","","","","","","","","","","","","",""
"","do_trial","181","790173","0.0-99.0-0.0","0.09999996423721313","","","","","","","","49","1,0,1","1","coast","37","probe-156","0.6594940895653142","0.15469084923105514","0.2159749518714593","1","","","","","","","",""
"","html-keyboard-response","182","791175","0.0-99.0-1.0","null","<p></p>","null","","","","","","","","","","","","","","","","","","","","","","",""
"","do_trial","183","795832","0.0-100.0-0.0","111.30000001192093","","","","","","","","49","1,0,0","1","coast","38","probe-229","0.6719771966578668","0.21557539254206448","0.16859020548334258","1","","","","","","","",""
"","html-keyboard-response","184","796837","0.0-100.0-1.0","null","<p></p>","null","","","","","","","","","","","","","","","","","","","","","","",""
"","do_trial","185","801399","0.0-101.0-0.0","12.399999976158142","","","","","","","","49","1,1,0","1","coast","39","probe-204","0.6504982800293506","0.3828520879376038","0.0700674908297664","1","","","","","","","",""
"","html-keyboard-response","186","802404","0.0-101.0-1.0","null","<p></p>","null","","","","","","","","","","","","","","","","","","","","","","",""
"","do_trial","187","807198","0.0-102.0-0.0","246","","","","","","","","49","0,1,0","1","coast","40","probe-197","0.6490202930134953","0.33255332244577884","0.05679110675219501","0","","","","","","","",""
"","html-keyboard-response","188","808200","0.0-102.0-1.0","null","<p></p>","null","","","","","","","","","","","","","","","","","","","","","","",""
"","do_trial","189","812750","0.0-103.0-0.0","0.19999998807907104","","","","","","","","49","1,0,0","1","coast","41","probe-185","0.5078546607432031","0.4401348755475683","0.06427353372471316","1","","","","","","","",""
"","html-keyboard-response","190","813755","0.0-103.0-1.0","null","<p></p>","null","","","","","","","","","","","","","","","","","","","","","","",""
"","do_trial","191","818495","0.0-104.0-0.0","190.69999998807907","","","","","","","","49","0,0,0","1","coast","42","probe-83","0.42687422592229096","0.4089782447553245","0.07656269410023744","0","","","","","","","",""
"","html-keyboard-response","192","819501","0.0-104.0-1.0","null","<p></p>","null","","","","","","","","","","","","","","","","","","","","","","",""
"","do_trial","193","824349","0.0-105.0-0.0","297.4000000357628","","","","","","","","49","0,1,1","1","coast","43","probe-94","0.2544590680180428","0.3933482197784301","0.24054861344670048","0","","","","","","","",""
"","html-keyboard-response","194","825351","0.0-105.0-1.0","null","<p></p>","null","","","","","","","","","","","","","","","","","","","","","","",""
"","do_trial","195","831102","0.0-106.0-0.0","1207.5","","","","","","","","49","1,1,1","1","coast","44","probe-171","0.33011328116177024","0.5953536724218169","0.2522485826464077","1","","","","","","","",""
"","html-keyboard-response","196","832108","0.0-106.0-1.0","null","<p></p>","null","","","","","","","","","","","","","","","","","","","","","","",""
"","do_trial","197","837480","0.0-107.0-0.0","822.9000000357628","","","","","","","","49","0,0,0","1","coast","45","probe-150","0.21710424795523228","0.6717044391715846","0.3869569499713375","0","","","","","","","",""
"","html-keyboard-response","198","838486","0.0-107.0-1.0","null","<p></p>","null","","","","","","","","","","","","","","","","","","","","","","",""
"","do_trial","199","843411","0.0-108.0-0.0","375.9000000357628","","","","","","","","49","0,1,0","1","coast","46","probe-45","0.2903306493360415","0.4847455377652482","0.35966417356183095","0","","","","","","","",""
"","html-keyboard-response","200","844416","0.0-108.0-1.0","null","<p></p>","null","","","","","","","","","","","","","","","","","","","","","","",""
"","do_trial","201","849337","0.0-109.0-0.0","374.4000000357628","","","","","","","","49","1,0,0","1","coast","47","probe-07","0.3097476536320599","0.6667700214387378","0.2855016089704373","1","","","","","","","",""
"","html-keyboard-response","202","850342","0.0-109.0-1.0","null","<p></p>","null","","","","","","","","","","","","","","","","","","","","","","",""
"","do_trial","203","856228","0.0-110.0-0.0","1335.1000000238419","","","","","","","","49","0,1,1","1","coast","48","probe-11","0.286827486734301","0.7561338692049191","0.35146498398132836","0","","","","","","","",""
"","html-keyboard-response","204","857232","0.0-110.0-1.0","null","<p></p>","null","","","","","","","","","","","","","","","","","","","","","","",""
"","do_trial","205","862537","0.0-111.0-0.0","754.7000000476837","","","","","","","","51","0,1,1","1","coast","49","probe-168","0.11377955627959971","0.7136071011845639","0.2711660980932216","1","","","","","","","",""
"","html-keyboard-response","206","863538","0.0-111.0-1.0","null","<p></p>","null","","","","","","","","","","","","","","","","","","","","","","",""
"","do_trial","207","868737","0.0-112.0-0.0","649.2000000476837","","","","","","","","49","0,0,1","1","coast","50","probe-97","0.11200452851712132","0.5179466098532738","0.40160297458952104","0","","","","","","","",""
"","html-keyboard-response","208","869739","0.0-112.0-1.0","null","<p></p>","null","","","","","","","","","","","","","","","","","","","","","","",""
"","do_trial","209","874533","0.0-113.0-0.0","245.19999998807907","","","","","","","","49","0,1,0","1","coast","51","probe-116","0.11070669700959418","0.5155830154543181","0.4114689269851296","0","","","","","","","",""
"","html-keyboard-response","210","875540","0.0-113.0-1.0","null","<p></p>","null","","","","","","","","","","","","","","","","","","","","","","",""
"","do_trial","211","880313","0.0-114.0-0.0","223.39999997615814","","","","","","","","50","0,1,0","1","coast","52","probe-46","0.06459638731854235","0.608831833315025","0.36158172049953985","1","","","","","","","",""
"","html-keyboard-response","212","881317","0.0-114.0-1.0","null","<p></p>","null","","","","","","","","","","","","","","","","","","","","","","",""
"","do_trial","213","886457","0.0-115.0-0.0","589.8000000119209","","","","","","","","49","0,0,1","1","coast","53","probe-69","0.13376241503276237","0.677160474646338","0.3160924353598493","0","","","","","","","",""
"","html-keyboard-response","214","887462","0.0-115.0-1.0","null","<p></p>","null","","","","","","","","","","","","","","","","","","","","","","",""
"","do_trial","215","892675","0.0-116.0-0.0","668.3999999761581","","","","","","","","50","0,1,1","1","coast","54","probe-147","0.10228140421697451","0.6776433272402097","0.3736755935960489","1","","","","","","","",""
"","html-keyboard-response","216","893679","0.0-116.0-1.0","null","<p></p>","null","","","","","","","","","","","","","","","","","","","","","","",""
"","do_trial","217","899375","0.0-117.0-0.0","1149.1000000238419","","","","","","","","51","0,1,0","1","coast","55","probe-193","0.1560686396856536","0.6606372064048275","0.35564338309753274","0","","","","","","","",""
"","html-keyboard-response","218","900380","0.0-117.0-1.0","null","<p></p>","null","","","","","","","","","","","","","","","","","","","","","","",""
"","do_trial","219","905450","0.0-118.0-0.0","520.2999999523163","","","","","","","","49","0,1,0","1","coast","56","probe-108","0.11933312343833379","0.6337648696796582","0.32640993393836537","0","","","","","","","",""
"","html-keyboard-response","220","906454","0.0-118.0-1.0","null","<p></p>","null","","","","","","","","","","","","","","","","","","","","","","",""
"","do_trial","221","911734","0.0-119.0-0.0","733.6000000238419","","","","","","","","50","0,0,0","1","coast","57","probe-12","0.09853088077275966","0.5732787612897033","0.23944746531943323","0","","","","","","","",""
"","html-keyboard-response","222","912738","0.0-119.0-1.0","null","<p></p>","null","","","","","","","","","","","","","","","","","","","","","","",""
"","do_trial","223","918358","0.0-120.0-0.0","1070.0999999642372","","","","","","","","50","0,1,0","1","coast","58","probe-133","0.1651617999116532","0.6193139004905333","0.2887080456956327","1","","","","","","","",""
"","html-keyboard-response","224","919361","0.0-120.0-1.0","null","<p></p>","null","","","","","","","","","","","","","","","","","","","","","","",""
"","do_trial","225","924594","0.0-121.0-0.0","684.6000000238419","","","","","","","","51","0,0,0","1","coast","59","probe-159","0.1456237538163255","0.715505349253402","0.365626508574534","0","","","","","","","",""
"","html-keyboard-response","226","925599","0.0-121.0-1.0","null","<p></p>","null","","","","","","","","","","","","","","","","","","","","","","",""
"","do_trial","227","930562","0.0-122.0-0.0","415.5","","","","","","","","50","0,1,0","1","coast","60","probe-220","0.17799510999202622","0.6042941471793861","0.31416606991366164","1","","","","","","","",""
"","html-keyboard-response","228","931566","0.0-122.0-1.0","null","<p></p>","null","","","","","","","","","","","","","","","","","","","","","","",""
"","do_trial","229","936626","0.0-123.0-0.0","509.9000000357628","","","","","","","","49","0,1,0","1","coast","61","probe-106","0.1546823360557083","0.6632648914076069","0.24174753096014634","0","","","","","","","",""
"","html-keyboard-response","230","937629","0.0-123.0-1.0","null","<p></p>","null","","","","","","","","","","","","","","","","","","","","","","",""
"","do_trial","231","943058","0.0-124.0-0.0","879.6999999880791","","","","","","","","51","1,1,1","1","coast","62","probe-67","0.15750447293227274","0.6927823477324941","0.280463523604125","1","","","","","","","",""
"","html-keyboard-response","232","944063","0.0-124.0-1.0","null","<p></p>","null","","","","","","","","","","","","","","","","","","","","","","",""
"","do_trial","233","948972","0.0-125.0-0.0","360.39999997615814","","","","","","","","51","0,1,0","1","coast","63","probe-01","0.16191218035570898","0.7521675679204133","0.3356066732512015","0","","","","","","","",""
"","html-keyboard-response","234","949977","0.0-125.0-1.0","null","<p></p>","null","","","","","","","","","","","","","","","","","","","","","","",""
"","do_trial","235","954827","0.0-126.0-0.0","300.19999998807907","","","","","","","","51","0,1,0","1","coast","64","probe-90","0.22905534247311074","0.6765878648753454","0.15698117715883075","0","","","","","","","",""
"","html-keyboard-response","236","955831","0.0-126.0-1.0","null","<p></p>","null","","","","","","","","","","","","","","","","","","","","","","",""
"","do_trial","237","960765","0.0-127.0-0.0","389.60000002384186","","","","","","","","50","0,1,1","1","coast","65","probe-208","0.29622841207221146","0.5961939305600147","0.3903750081342217","1","","","","","","","",""
"","html-keyboard-response","238","961769","0.0-127.0-1.0","null","<p></p>","null","","","","","","","","","","","","","","","","","","","","","","",""
"","do_trial","239","966865","0.0-128.0-0.0","548.5999999642372","","","","","","","","49","0,0,1","1","coast","66","probe-107","0.08991349399805114","0.5899885027696414","0.38422464264731226","0","","","","","","","",""
"","html-keyboard-response","240","967870","0.0-128.0-1.0","null","<p></p>","null","","","","","","","","","","","","","","","","","","","","","","",""
"","do_trial","241","973282","0.0-129.0-0.0","862.9000000357628","","","","","","","","50","1,0,1","1","coast","67","probe-25","0.0838020369728545","0.563328530545478","0.3827950638729744","0","","","","","","","",""
"","html-keyboard-response","242","974287","0.0-129.0-1.0","null","<p></p>","null","","","","","","","","","","","","","","","","","","","","","","",""
"","do_trial","243","979209","0.0-130.0-0.0","371.89999997615814","","","","","","","","50","0,0,0","1","coast","68","probe-51","0.2286406705776313","0.688730693749622","0.3587023095813814","0","","","","","","","",""
"","html-keyboard-response","244","980211","0.0-130.0-1.0","null","<p></p>","null","","","","","","","","","","","","","","","","","","","","","","",""
"","do_trial","245","984964","0.0-131.0-0.0","206.10000002384186","","","","","","","","50","0,1,1","1","coast","69","probe-19","0.25958538880503035","0.6182945293530788","0.490615963600189","1","","","","","","","",""
"","html-keyboard-response","246","985967","0.0-131.0-1.0","null","<p></p>","null","","","","","","","","","","","","","","","","","","","","","","",""
"","do_bye","247","987478","0.0-132.0-0.0","null","","","","","","","","null","","","","","","","","","","","","","","","","",""
"","do_travel","248","993484","0.0-133.0-0.0","null","","","","","","","","null","","","","","","","","","","","","","","","","",""
"","do_welcome","249","994995","0.0-133.0-1.0","null","","","","","","","","null","","","","","","","","","","","","","","","","",""
"","do_trial","250","1002402","0.0-134.0-0.0","2859.199999988079","","","","","","","","50","0,1,1","2","forest","70","probe-122","0.17940696816426233","1","0.5293333831653524","1","","","","","","","",""
"","html-keyboard-response","251","1003407","0.0-134.0-1.0","null","<p></p>","null","","","","","","","","","","","","","","","","","","","","","","",""
"","do_trial","252","1009012","0.0-135.0-0.0","1055.699999988079","","","","","","","","49","1,1,0","2","forest","71","probe-88","0.32509038991475214","1","0.3568635450544788","1","","","","","","","",""
"","html-keyboard-response","253","1010017","0.0-135.0-1.0","null","<p></p>","null","","","","","","","","","","","","","","","","","","","","","","",""
"","do_trial","254","1016070","0.0-136.0-0.0","null","","","","","","","","null","1,1,0","2","forest","72","probe-101","0.2326519057280209","0.8778048162462492","0.22593996635418362","","","","","","","","",""
"","html-keyboard-response","255","1017076","0.0-136.0-1.0","null","<p></p>","null","","","","","","","","","","","","","","","","","","","","","","",""
"","do_trial","256","1021949","0.0-137.0-0.0","324.10000002384186","","","","","","","","49","0,1,0","2","forest","73","probe-128","0.1443413118223562","0.7489403522248794","0.13707603652247982","0","","","","","","","",""
"","html-keyboard-response","257","1022954","0.0-137.0-1.0","null","<p></p>","null","","","","","","","","","","","","","","","","","","","","","","",""
"","do_trial","258","1028455","0.0-138.0-0.0","953.1999999880791","","","","","","","","50","0,0,0","2","forest","74","probe-09","0.145599695411372","0.6790421913219088","0.30346532096339734","0","","","","","","","",""
"","html-keyboard-response","259","1029459","0.0-138.0-1.0","null","<p></p>","null","","","","","","","","","","","","","","","","","","","","","","",""
"","do_trial","260","1034878","0.0-139.0-0.0","869.6000000238419","","","","","","","","51","0,1,1","2","forest","75","probe-02","0.13387405822816795","0.5946606929044398","0.30234102213931446","1","","","","","","","",""
"","html-keyboard-response","261","1035883","0.0-139.0-1.0","null","<p></p>","null","","","","","","","","","","","","","","","","","","","","","","",""
"","do_trial","262","1041013","0.0-140.0-0.0","580.1999999880791","","","","","","","","49","0,1,0","2","forest","76","probe-225","0.05655294791474014","0.5130741125644783","0.2618878857829714","0","","","","","","","",""
"","html-keyboard-response","263","1042018","0.0-140.0-1.0","null","<p></p>","null","","","","","","","","","","","","","","","","","","","","","","",""
"","do_trial","264","1047314","0.0-141.0-0.0","747.3999999761581","","","","","","","","50","0,1,1","2","forest","77","probe-100","0.1287448479142953","0.4704407265241564","0.2629828670077249","1","","","","","","","",""
"","html-keyboard-response","265","1048318","0.0-141.0-1.0","null","<p></p>","null","","","","","","","","","","","","","","","","","","","","","","",""
"","do_trial","266","1053588","0.0-142.0-0.0","721","","","","","","","","49","1,1,0","2","forest","78","probe-119","0.05499990269145773","0.5809796514063634","0.21060315939867433","1","","","","","","","",""
"","html-keyboard-response","267","1054590","0.0-142.0-1.0","null","<p></p>","null","","","","","","","","","","","","","","","","","","","","","","",""
"","do_trial","268","1059521","0.0-143.0-0.0","380.60000002384186","","","","","","","","50","0,0,0","2","forest","79","probe-21","0.09594423794000409","0.4275365078523364","0.1529001544674091","0","","","","","","","",""
"","html-keyboard-response","269","1060524","0.0-143.0-1.0","null","<p></p>","null","","","","","","","","","","","","","","","","","","","","","","",""
"","do_trial","270","1065608","0.0-144.0-0.0","538.3000000119209","","","","","","","","49","0,0,0","2","forest","80","probe-124","0.14395570816632128","0.3263624400053429","0.17383488912884087","0","","","","","","","",""
"","html-keyboard-response","271","1066613","0.0-144.0-1.0","null","<p></p>","null","","","","","","","","","","","","","","","","","","","","","","",""
"","do_trial","272","1071920","0.0-145.0-0.0","761.1999999880791","","","","","","","","50","1,0,0","2","forest","81","probe-186","0.2159518981060805","0.3561737132666874","0.3664866240426054","0","","","","","","","",""
"","html-keyboard-response","273","1072926","0.0-145.0-1.0","null","<p></p>","null","","","","","","","","","","","","","","","","","","","","","","",""
"","do_trial","274","1077890","0.0-146.0-0.0","414.69999998807907","","","","","","","","49","0,0,0","2","forest","82","probe-224","0.3859543938016915","0.2447764743382255","0.3318366207182617","0","","","","","","","",""
"","html-keyboard-response","275","1078893","0.0-146.0-1.0","null","<p></p>","null","","","","","","","","","","","","","","","","","","","","","","",""
"","do_trial","276","1083968","0.0-147.0-0.0","526.4000000357628","","","","","","","","49","1,0,0","2","forest","83","probe-65","0.39212030560549105","0.10752495033582768","0.2785150468126154","1","","","","","","","",""
"","html-keyboard-response","277","1084972","0.0-147.0-1.0","null","<p></p>","null","","","","","","","","","","","","","","","","","","","","","","",""
"","do_trial","278","1090025","0.0-148.0-0.0","505.0999999642372","","","","","","","","50","1,0,0","2","forest","84","probe-169","0.4130396765847275","0.11353626111206885","0.31194235695586076","0","","","","","","","",""
"","html-keyboard-response","279","1091029","0.0-148.0-1.0","null","<p></p>","null","","","","","","","","","","","","","","","","","","","","","","",""
"","do_trial","280","1096219","0.0-149.0-0.0","643.8000000119209","","","","","","","","51","0,0,0","2","forest","85","probe-05","0.4916214903929241","0.06789804939952351","0.20702117621530003","0","","","","","","","",""
"","html-keyboard-response","281","1097225","0.0-149.0-1.0","null","<p></p>","null","","","","","","","","","","","","","","","","","","","","","","",""
"","do_trial","282","1101895","0.0-150.0-0.0","124.89999997615814","","","","","","","","50","1,0,0","2","forest","86","probe-28","0.595852269000135","0.11747873333534774","0.22531583786142764","0","","","","","","","",""
"","html-keyboard-response","283","1102900","0.0-150.0-1.0","null","<p></p>","null","","","","","","","","","","","","","","","","","","","","","","",""
"","do_trial","284","1108062","0.0-151.0-0.0","612.8000000119209","","","","","","","","50","1,0,1","2","forest","87","probe-179","0.4988707086228894","0.14013413577678088","0.3155306620488417","0","","","","","","","",""
"","html-keyboard-response","285","1109067","0.0-151.0-1.0","null","<p></p>","null","","","","","","","","","","","","","","","","","","","","","","",""
"","do_trial","286","1113758","0.0-152.0-0.0","141.30000001192093","","","","","","","","50","1,1,0","2","forest","88","probe-175","0.7213632320796365","0.10217209218873732","0.275386127879177","1","","","","","","","",""
"","html-keyboard-response","287","1114763","0.0-152.0-1.0","null","<p></p>","null","","","","","","","","","","","","","","","","","","","","","","",""
"","do_trial","288","1119469","0.0-153.0-0.0","157.0999999642372","","","","","","","","49","1,0,1","2","forest","89","probe-54","0.706540321276199","0.1698054039398084","0.42074572661984105","1","","","","","","","",""
"","html-keyboard-response","289","1120471","0.0-153.0-1.0","null","<p></p>","null","","","","","","","","","","","","","","","","","","","","","","",""
"","do_trial","290","1125638","0.0-154.0-0.0","618.7999999523163","","","","","","","","49","0,0,0","2","forest","90","probe-202","0.725238349793732","0.09538620256369225","0.42234081419631736","0","","","","","","","",""
"","html-keyboard-response","291","1126644","0.0-154.0-1.0","null","<p></p>","null","","","","","","","","","","","","","","","","","","","","","","",""
"","do_trial","292","1131231","0.0-155.0-0.0","39.89999997615814","","","","","","","","49","1,0,1","2","forest","91","probe-129","0.8087889838356762","0.06106812380259717","0.393267690414736","1","","","","","","","",""
"","html-keyboard-response","293","1132236","0.0-155.0-1.0","null","<p></p>","null","","","","","","","","","","","","","","","","","","","","","","",""
"","do_trial","294","1137365","0.0-156.0-0.0","583.3999999761581","","","","","","","","50","1,0,0","2","forest","92","probe-55","0.8014175925100427","0.0854110099209914","0.3876016106902615","0","","","","","","","",""
"","html-keyboard-response","295","1138367","0.0-156.0-1.0","null","<p></p>","null","","","","","","","","","","","","","","","","","","","","","","",""
"","do_trial","296","1143284","0.0-157.0-0.0","369.69999998807907","","","","","","","","51","0,0,1","2","forest","93","probe-180","0.6080655144196616","0.10158882725845722","0.302795114099111","1","","","","","","","",""
"","html-keyboard-response","297","1144289","0.0-157.0-1.0","null","<p></p>","null","","","","","","","","","","","","","","","","","","","","","","",""
"","do_trial","298","1149391","0.0-158.0-0.0","553.1999999880791","","","","","","","","49","0,0,0","2","forest","94","probe-155","0.5198745029834061","0.14820258046838833","0.13993099954000912","0","","","","","","","",""
"","html-keyboard-response","299","1150397","0.0-158.0-1.0","null","<p></p>","null","","","","","","","","","","","","","","","","","","","","","","",""
"","do_trial","300","1155734","0.0-159.0-0.0","787.6999999880791","","","","","","","","50","1,1,0","2","forest","95","probe-222","0.49830425395350086","0.27251027527656346","0.20998191280358508","1","","","","","","","",""
"","html-keyboard-response","301","1156738","0.0-159.0-1.0","null","<p></p>","null","","","","","","","","","","","","","","","","","","","","","","",""
"","do_trial","302","1162101","0.0-160.0-0.0","814.8999999761581","","","","","","","","49","1,1,0","2","forest","96","probe-41","0.5913105932619915","0.19302468863652242","0.12557464773534652","1","","","","","","","",""
"","html-keyboard-response","303","1163106","0.0-160.0-1.0","null","<p></p>","null","","","","","","","","","","","","","","","","","","","","","","",""
"","do_trial","304","1167982","0.0-161.0-0.0","326.39999997615814","","","","","","","","51","1,0,1","2","forest","97","probe-86","0.4377244957282829","0.14362445401225127","0.2604038160184958","1","","","","","","","",""
"","html-keyboard-response","305","1168985","0.0-161.0-1.0","null","<p></p>","null","","","","","","","","","","","","","","","","","","","","","","",""
"","do_trial","306","1173952","0.0-162.0-0.0","420.7999999523163","","","","","","","","49","1,0,0","2","forest","98","probe-206","0.4599792513938658","0.14614849867969232","0.4921488836076128","1","","","","","","","",""
"","html-keyboard-response","307","1174956","0.0-162.0-1.0","null","<p></p>","null","","","","","","","","","","","","","","","","","","","","","","",""
"","do_trial","308","1180003","0.0-163.0-0.0","500.5","","","","","","","","50","1,1,0","2","forest","99","probe-15","0.4010538252684806","0.23954460363170169","0.4765341676670822","1","","","","","","","",""
"","html-keyboard-response","309","1181007","0.0-163.0-1.0","null","<p></p>","null","","","","","","","","","","","","","","","","","","","","","","",""
"","do_trial","310","1186331","0.0-164.0-0.0","774.5","","","","","","","","49","1,0,0","2","forest","100","probe-216","0.5646412723736417","0.09597870307709708","0.22549393495631717","1","","","","","","","",""
"","html-keyboard-response","311","1187337","0.0-164.0-1.0","null","<p></p>","null","","","","","","","","","","","","","","","","","","","","","","",""
"","do_trial","312","1192204","0.0-165.0-0.0","318.80000001192093","","","","","","","","50","1,0,0","2","forest","101","probe-111","0.6288286019217422","0.16012313022903285","0.22237202351236743","0","","","","","","","",""
"","html-keyboard-response","313","1193209","0.0-165.0-1.0","null","<p></p>","null","","","","","","","","","","","","","","","","","","","","","","",""
"","do_trial","314","1198621","0.0-166.0-0.0","863.5","","","","","","","","50","1,0,0","2","forest","102","probe-79","0.6535968237874218","0.08526211768316574","0.17716038318150176","0","","","","","","","",""
"","html-keyboard-response","315","1199626","0.0-166.0-1.0","null","<p></p>","null","","","","","","","","","","","","","","","","","","","","","","",""
"","do_trial","316","1204747","0.0-167.0-0.0","572","","","","","","","","51","0,0,1","2","forest","103","probe-42","0.41792661014051163","0.07783116844389223","0.17903452595882927","1","","","","","","","",""
"","html-keyboard-response","317","1205752","0.0-167.0-1.0","null","<p></p>","null","","","","","","","","","","","","","","","","","","","","","","",""
"","do_trial","318","1212347","0.0-168.0-0.0","2049","","","","","","","","51","1,0,0","2","forest","104","probe-13","0.532104273328605","0.17892097678046157","0.2148913029009821","0","","","","","","","",""
"","html-keyboard-response","319","1213350","0.0-168.0-1.0","null","<p></p>","null","","","","","","","","","","","","","","","","","","","","","","",""
"","do_trial","320","1218722","0.0-169.0-0.0","822.5999999642372","","","","","","","","50","1,0,0","2","forest","105","probe-136","0.5485351726946034","0.16003241172806765","0.23650697374017313","0","","","","","","","",""
"","html-keyboard-response","321","1219727","0.0-169.0-1.0","null","<p></p>","null","","","","","","","","","","","","","","","","","","","","","","",""
"","do_trial","322","1224486","0.0-170.0-0.0","209.79999995231628","","","","","","","","49","1,0,0","2","forest","106","probe-170","0.8073554543340585","0.1670056780879365","0.3294305580104647","1","","","","","","","",""
"","html-keyboard-response","323","1225490","0.0-170.0-1.0","null","<p></p>","null","","","","","","","","","","","","","","","","","","","","","","",""
"","do_trial","324","1230881","0.0-171.0-0.0","841.1999999880791","","","","","","","","49","1,0,0","2","forest","107","probe-173","0.806576417091778","0.09943588096332776","0.36417461180636174","1","","","","","","","",""
"","html-keyboard-response","325","1231886","0.0-171.0-1.0","null","<p></p>","null","","","","","","","","","","","","","","","","","","","","","","",""
"","do_trial","326","1237008","0.0-172.0-0.0","574.3999999761581","","","","","","","","49","1,0,0","2","forest","108","probe-138","0.795429434986318","0.1441591297869255","0.30191428695474615","1","","","","","","","",""
"","html-keyboard-response","327","1238015","0.0-172.0-1.0","null","<p></p>","null","","","","","","","","","","","","","","","","","","","","","","",""
"","do_trial","328","1243121","0.0-173.0-0.0","554.5","","","","","","","","50","1,0,0","2","forest","109","probe-44","0.7317676985201109","0.14635328786342694","0.33174991647061075","0","","","","","","","",""
"","html-keyboard-response","329","1244126","0.0-173.0-1.0","null","<p></p>","null","","","","","","","","","","","","","","","","","","","","","","",""
"","do_bye","330","1245634","0.0-174.0-0.0","null","","","","","","","","null","","","","","","","","","","","","","","","","",""
"","do_travel","331","1251642","0.0-175.0-0.0","null","","","","","","","","null","","","","","","","","","","","","","","","","",""
"","do_welcome","332","1253152","0.0-175.0-1.0","null","","","","","","","","null","","","","","","","","","","","","","","","","",""
"","do_trial","333","1260427","0.0-176.0-0.0","2728","","","","","","","","51","1,0,0","3","city","110","probe-06","1","0.3124537657605126","0.305488669381474","0","","","","","","","",""
"","html-keyboard-response","334","1261432","0.0-176.0-1.0","null","<p></p>","null","","","","","","","","","","","","","","","","","","","","","","",""
"","do_trial","335","1267482","0.0-177.0-0.0","null","","","","","","","","null","1,0,0","3","city","111","probe-211","1","0.24048152372761286","0.2434237307414961","","","","","","","","",""
"","html-keyboard-response","336","1268487","0.0-177.0-1.0","null","<p></p>","null","","","","","","","","","","","","","","","","","","","","","","",""
"","do_trial","337","1274612","0.0-178.0-0.0","1574.6000000238419","","","","","","","","49","1,0,0","3","city","112","probe-192","0.9161699196095147","0.138797468364513","0.2444115130916908","1","","","","","","","",""
"","html-keyboard-response","338","1275619","0.0-178.0-1.0","null","<p></p>","null","","","","","","","","","","","","","","","","","","","","","","",""
"","do_trial","339","1281571","0.0-179.0-0.0","1400.9000000357628","","","","","","","","50","1,0,1","3","city","113","probe-115","0.8744511593636604","0.1467418350508615","0.3598650932159819","0","","","","","","","",""
"","html-keyboard-response","340","1282576","0.0-179.0-1.0","null","<p></p>","null","","","","","","","","","","","","","","","","","","","","","","",""
"","do_trial","341","1288280","0.0-180.0-0.0","1154.7000000476837","","","","","","","","51","0,0,0","3","city","114","probe-121","0.7802948643231303","0.2642367766618078","0.3533545088976704","0","","","","","","","",""
"","html-keyboard-response","342","1289285","0.0-180.0-1.0","null","<p></p>","null","","","","","","","","","","","","","","","","","","","","","","",""
"","do_trial","343","1295674","0.0-181.0-0.0","1839.5999999642372","","","","","","","","50","1,0,0","3","city","115","probe-166","0.7407463067647413","0.1385129608391052","0.23544784619485376","0","","","","","","","",""
"","html-keyboard-response","344","1296679","0.0-181.0-1.0","null","<p></p>","null","","","","","","","","","","","","","","","","","","","","","","",""
"","do_trial","345","1301275","0.0-182.0-0.0","47.19999998807907","","","","","","","","50","1,0,0","3","city","116","probe-131","0.8509959170554463","0.15420404749614525","0.21761038375335764","0","","","","","","","",""
"","html-keyboard-response","346","1302281","0.0-182.0-1.0","null","<p></p>","null","","","","","","","","","","","","","","","","","","","","","","",""
"","do_trial","347","1307355","0.0-183.0-0.0","526.0999999642372","","","","","","","","51","1,0,1","3","city","117","probe-207","0.7836670914097386","0.09339921740884616","0.3409552090637093","1","","","","","","","",""
"","html-keyboard-response","348","1308360","0.0-183.0-1.0","null","<p></p>","null","","","","","","","","","","","","","","","","","","","","","","",""
"","do_trial","349","1313132","0.0-184.0-0.0","221.69999998807907","","","","","","","","50","1,0,0","3","city","118","probe-14","0.7553570629019427","0.09874613295003042","0.37449465445941765","0","","","","","","","",""
"","html-keyboard-response","350","1314136","0.0-184.0-1.0","null","<p></p>","null","","","","","","","","","","","","","","","","","","","","","","",""
"","do_trial","351","1319290","0.0-185.0-0.0","605.4000000357628","","","","","","","","49","0,1,1","3","city","119","probe-56","0.7870580424689433","0.052817183123805685","0.2949778686377282","0","","","","","","","",""
"","html-keyboard-response","352","1320297","0.0-185.0-1.0","null","<p></p>","null","","","","","","","","","","","","","","","","","","","","","","",""
"","do_trial","353","1325200","0.0-186.0-0.0","355.30000001192093","","","","","","","","49","1,0,0","3","city","120","probe-30","0.7722983015263075","0.11604403356778326","0.37053868205353674","1","","","","","","","",""
"","html-keyboard-response","354","1326205","0.0-186.0-1.0","null","<p></p>","null","","","","","","","","","","","","","","","","","","","","","","",""
"","do_trial","355","1331134","0.0-187.0-0.0","383.5","","","","","","","","50","1,0,0","3","city","121","probe-113","0.8450082108662832","0.09445454084087715","0.41708322744871995","0","","","","","","","",""
"","html-keyboard-response","356","1332139","0.0-187.0-1.0","null","<p></p>","null","","","","","","","","","","","","","","","","","","","","","","",""
"","do_trial","357","1337793","0.0-188.0-0.0","1104.5","","","","","","","","51","1,0,1","3","city","122","probe-135","0.8397500044269322","0.17806659315241594","0.3963497597433827","1","","","","","","","",""
"","html-keyboard-response","358","1338798","0.0-188.0-1.0","null","<p></p>","null","","","","","","","","","","","","","","","","","","","","","","",""
"","do_trial","359","1344413","0.0-189.0-0.0","1065.699999988079","","","","","","","","50","1,0,0","3","city","123","probe-57","0.6297259399613266","0.12706900970991777","0.4846055828343011","0","","","","","","","",""
"","html-keyboard-response","360","1345419","0.0-189.0-1.0","null","<p></p>","null","","","","","","","","","","","","","","","","","","","","","","",""
"","do_trial","361","1352419","0.0-190.0-0.0","2452.100000023842","","","","","","","","49","1,0,0","3","city","124","probe-190","0.578416465420033","0.06870702093946865","0.5107146964907411","1","","","","","","","",""
"","html-keyboard-response","362","1353424","0.0-190.0-1.0","null","<p></p>","null","","","","","","","","","","","","","","","","","","","","","","",""
"","do_trial","363","1359470","0.0-191.0-0.0","null","","","","","","","","null","0,0,1","3","city","125","probe-201","0.489018510905632","0.09558747659839988","0.6777206850114982","","","","","","","","",""
"","html-keyboard-response","364","1360477","0.0-191.0-1.0","null","<p></p>","null","","","","","","","","","","","","","","","","","","","","","","",""
"","do_trial","365","1366776","0.0-192.0-0.0","1750","","","","","","","","50","0,1,1","3","city","126","probe-142","0.28982195618529877","0.13871988356061418","0.7473980244173052","1","","","","","","","",""
"","html-keyboard-response","366","1367781","0.0-192.0-1.0","null","<p></p>","null","","","","","","","","","","","","","","","","","","","","","","",""
"","do_trial","367","1373138","0.0-193.0-0.0","806.3999999761581","","","","","","","","51","0,0,0","3","city","127","probe-78","0.3087456764034613","0.15271007711491208","0.4773151115627261","0","","","","","","","",""
"","html-keyboard-response","368","1374143","0.0-193.0-1.0","null","<p></p>","null","","","","","","","","","","","","","","","","","","","","","","",""
"","do_trial","369","1379858","0.0-194.0-0.0","1168.6000000238419","","","","","","","","50","0,0,0","3","city","128","probe-130","0.2812475260650028","0.2857974916586034","0.4282618435941419","0","","","","","","","",""
"","html-keyboard-response","370","1380862","0.0-194.0-1.0","null","<p></p>","null","","","","","","","","","","","","","","","","","","","","","","",""
"","do_trial","371","1386914","0.0-195.0-0.0","null","","","","","","","","null","0,1,0","3","city","129","probe-162","0.25432845757793004","0.27662584751751756","0.410559005971068","","","","","","","","",""
"","html-keyboard-response","372","1387919","0.0-195.0-1.0","null","<p></p>","null","","","","","","","","","","","","","","","","","","","","","","",""
"","do_trial","373","1393190","0.0-196.0-0.0","724.1999999880791","","","","","","","","50","1,1,0","3","city","130","probe-143","0.21375063552862564","0.1978551082603551","0.4493754468716659","1","","","","","","","",""
"","html-keyboard-response","374","1394195","0.0-196.0-1.0","null","<p></p>","null","","","","","","","","","","","","","","","","","","","","","","",""
"","do_trial","375","1399582","0.0-197.0-0.0","841.3999999761581","","","","","","","","49","0,1,1","3","city","131","probe-181","0.24731744490398322","0.2561195555439002","0.5123807694820536","0","","","","","","","",""
"","html-keyboard-response","376","1400587","0.0-197.0-1.0","null","<p></p>","null","","","","","","","","","","","","","","","","","","","","","","",""
"","do_trial","377","1406708","0.0-198.0-0.0","1571.9000000357628","","","","","","","","51","0,0,0","3","city","132","probe-36","0.3466966883232867","0.17238986611145812","0.6114520993847595","0","","","","","","","",""
"","html-keyboard-response","378","1407713","0.0-198.0-1.0","null","<p></p>","null","","","","","","","","","","","","","","","","","","","","","","",""
"","do_trial","379","1413282","0.0-199.0-0.0","1024.7999999523163","","","","","","","","50","1,0,1","3","city","133","probe-73","0.48089016701412","0.1870551682570273","0.6412643445825716","0","","","","","","","",""
"","html-keyboard-response","380","1414287","0.0-199.0-1.0","null","<p></p>","null","","","","","","","","","","","","","","","","","","","","","","",""
"","do_trial","381","1419562","0.0-200.0-0.0","729.8000000119209","","","","","","","","50","0,0,1","3","city","134","probe-139","0.5382206321524402","0.07411233719112004","0.7626157241139409","0","","","","","","","",""
"","html-keyboard-response","382","1420564","0.0-200.0-1.0","null","<p></p>","null","","","","","","","","","","","","","","","","","","","","","","",""
"","do_trial","383","1427027","0.0-201.0-0.0","1914","","","","","","","","50","0,0,1","3","city","135","probe-188","0.41101416990386325","0.26187657171950574","0.768204969401612","0","","","","","","","",""
"","html-keyboard-response","384","1428033","0.0-201.0-1.0","null","<p></p>","null","","","","","","","","","","","","","","","","","","","","","","",""
"","do_trial","385","1434073","0.0-202.0-0.0","1486","","","","","","","","49","1,0,1","3","city","136","probe-93","0.35011201560166927","0.19266251217450112","0.741928123690921","1","","","","","","","",""
"","html-keyboard-response","386","1435078","0.0-202.0-1.0","null","<p></p>","null","","","","","","","","","","","","","","","","","","","","","","",""
"","do_trial","387","1440987","0.0-203.0-0.0","1360.0999999642372","","","","","","","","51","0,0,1","3","city","137","probe-68","0.3819762508476096","0.10201417683692406","0.8405060968111959","1","","","","","","","",""
"","html-keyboard-response","388","1441992","0.0-203.0-1.0","null","<p></p>","null","","","","","","","","","","","","","","","","","","","","","","",""
"","do_trial","389","1448045","0.0-204.0-0.0","null","","","","","","","","null","1,0,1","3","city","138","probe-145","0.3143283356535786","0.20844081606575451","0.8272016273530644","","","","","","","","",""
"","html-keyboard-response","390","1449050","0.0-204.0-1.0","null","<p></p>","null","","","","","","","","","","","","","","","","","","","","","","",""
"","do_trial","391","1455102","0.0-205.0-0.0","null","","","","","","","","null","0,0,0","3","city","139","probe-120","0.23576129430194193","0.1470177640873672","0.760578078122154","","","","","","","","",""
"","html-keyboard-response","392","1456106","0.0-205.0-1.0","null","<p></p>","null","","","","","","","","","","","","","","","","","","","","","","",""
"","do_trial","393","1460870","0.0-206.0-0.0","213.4000000357628","","","","","","","","49","0,0,0","3","city","140","probe-70","0.35995715763954417","0.05674426842935635","0.7191241766598784","0","","","","","","","",""
"","html-keyboard-response","394","1461874","0.0-206.0-1.0","null","<p></p>","null","","","","","","","","","","","","","","","","","","","","","","",""
"","do_trial","395","1466419","0.0-207.0-0.0","0.09999996423721313","","","","","","","","50","1,0,0","3","city","141","probe-153","0.3161407284767195","0.08483418564505872","0.5364640261253858","0","","","","","","","",""
"","html-keyboard-response","396","1467422","0.0-207.0-1.0","null","<p></p>","null","","","","","","","","","","","","","","","","","","","","","","",""
"","do_trial","397","1472045","0.0-208.0-0.0","75.80000001192093","","","","","","","","51","0,1,1","3","city","142","probe-08","0.24643280142149837","0.0876119983710521","0.5631229915702017","1","","","","","","","",""
"","html-keyboard-response","398","1473048","0.0-208.0-1.0","null","<p></p>","null","","","","","","","","","","","","","","","","","","","","","","",""
"","do_trial","399","1478308","0.0-209.0-0.0","710.0999999642372","","","","","","","","49","0,0,0","3","city","143","probe-96","0.31650008753911624","0.24653464919448062","0.5568909203970849","0","","","","","","","",""
"","html-keyboard-response","400","1479313","0.0-209.0-1.0","null","<p></p>","null","","","","","","","","","","","","","","","","","","","","","","",""
"","do_trial","401","1484616","0.0-210.0-0.0","757","","","","","","","","50","1,0,1","3","city","144","probe-183","0.3676623521913346","0.2086144648776645","0.4997355175024554","0","","","","","","","",""
"","html-keyboard-response","402","1485621","0.0-210.0-1.0","null","<p></p>","null","","","","","","","","","","","","","","","","","","","","","","",""
"","do_trial","403","1491050","0.0-211.0-0.0","884.7000000476837","","","","","","","","51","0,0,1","3","city","145","probe-215","0.37653977972317376","0.08482803686326","0.4431086400963357","1","","","","","","","",""
"","html-keyboard-response","404","1492055","0.0-211.0-1.0","null","<p></p>","null","","","","","","","","","","","","","","","","","","","","","","",""
"","do_trial","405","1497830","0.0-212.0-0.0","1226","","","","","","","","49","0,0,0","3","city","146","probe-203","0.38046842911771606","0.07598739985326758","0.5780736004001671","0","","","","","","","",""
"","html-keyboard-response","406","1498834","0.0-212.0-1.0","null","<p></p>","null","","","","","","","","","","","","","","","","","","","","","","",""
"","do_trial","407","1504851","0.0-213.0-0.0","1470.7000000476837","","","","","","","","50","0,0,1","3","city","147","probe-109","0.2007872569280621","0.06709606285241713","0.6424456334703555","0","","","","","","","",""
"","html-keyboard-response","408","1505856","0.0-213.0-1.0","null","<p></p>","null","","","","","","","","","","","","","","","","","","","","","","",""
"","do_trial","409","1513218","0.0-214.0-0.0","2816.699999988079","","","","","","","","51","1,1,1","3","city","148","probe-62","0.2314701633298669","0.08962561857223031","0.5537919875179496","1","","","","","","","",""
"","html-keyboard-response","410","1514223","0.0-214.0-1.0","null","<p></p>","null","","","","","","","","","","","","","","","","","","","","","","",""
"","do_trial","411","1519575","0.0-215.0-0.0","803.6999999880791","","","","","","","","50","0,0,0","3","city","149","probe-164","0.3744826479697595","0.1473732753299469","0.5574861606916359","0","","","","","","","",""
"","html-keyboard-response","412","1520580","0.0-215.0-1.0","null","<p></p>","null","","","","","","","","","","","","","","","","","","","","","","",""
"","do_bye","413","1522086","0.0-216.0-0.0","null","","","","","","","","null","","","","","","","","","","","","","","","","",""
"","do_travel","414","1528093","0.0-217.0-0.0","null","","","","","","","","null","","","","","","","","","","","","","","","","",""
"","do_welcome","415","1529604","0.0-217.0-1.0","null","","","","","","","","null","","","","","","","","","","","","","","","","",""
"","do_trial","416","1535654","0.0-218.0-0.0","null","","","","","","","","null","1,0,1","4","highway","150","probe-27","0.3937064143860397","0.11081254651365724","1","","","","","","","","",""
"","html-keyboard-response","417","1536659","0.0-218.0-1.0","null","<p></p>","null","","","","","","","","","","","","","","","","","","","","","","",""
"","do_trial","418","1543271","0.0-219.0-0.0","2063.900000035763","","","","","","","","51","0,0,1","4","highway","151","probe-196","0.3394052962243259","0.19123637421543432","1","1","","","","","","","",""
"","html-keyboard-response","419","1544276","0.0-219.0-1.0","null","<p></p>","null","","","","","","","","","","","","","","","","","","","","","","",""
"","do_trial","420","1550272","0.0-220.0-0.0","1448.5","","","","","","","","49","0,1,1","4","highway","152","probe-194","0.47533958835698387","0.24250591084776502","0.804961415075854","0","","","","","","","",""
"","html-keyboard-response","421","1551277","0.0-220.0-1.0","null","<p></p>","null","","","","","","","","","","","","","","","","","","","","","","",""
"","do_trial","422","1556430","0.0-221.0-0.0","604","","","","","","","","50","1,0,1","4","highway","153","probe-160","0.49549778351719453","0.1436899120006824","0.8473139270044449","0","","","","","","","",""
"","html-keyboard-response","423","1557435","0.0-221.0-1.0","null","<p></p>","null","","","","","","","","","","","","","","","","","","","","","","",""
"","do_trial","424","1562784","0.0-222.0-0.0","799.5","","","","","","","","51","1,0,1","4","highway","154","probe-31","0.4913897305025872","0.19854134959064826","0.7538776931358588","1","","","","","","","",""
"","html-keyboard-response","425","1563790","0.0-222.0-1.0","null","<p></p>","null","","","","","","","","","","","","","","","","","","","","","","",""
"","do_trial","426","1569014","0.0-223.0-0.0","674.7999999523163","","","","","","","","50","0,0,1","4","highway","155","probe-200","0.3976533879368265","0.11052431506744734","0.5388865739849499","0","","","","","","","",""
"","html-keyboard-response","427","1570019","0.0-223.0-1.0","null","<p></p>","null","","","","","","","","","","","","","","","","","","","","","","",""
"","do_trial","428","1574724","0.0-224.0-0.0","160.30000001192093","","","","","","","","50","1,0,1","4","highway","156","probe-214","0.36881460508357583","0.1626729100344677","0.5055974058652225","0","","","","","","","",""
"","html-keyboard-response","429","1575727","0.0-224.0-1.0","null","<p></p>","null","","","","","","","","","","","","","","","","","","","","","","",""
"","do_trial","430","1580275","0.0-225.0-0.0","0.09999996423721313","","","","","","","","50","0,0,0","4","highway","157","probe-184","0.36190344566520083","0.23653806678542336","0.4033459453262338","0","","","","","","","",""
"","html-keyboard-response","431","1581280","0.0-225.0-1.0","null","<p></p>","null","","","","","","","","","","","","","","","","","","","","","","",""
"","do_trial","432","1586147","0.0-226.0-0.0","322.10000002384186","","","","","","","","50","0,0,1","4","highway","158","probe-63","0.2969247982265991","0.19070992297002312","0.5723228598607585","0","","","","","","","",""
"","html-keyboard-response","433","1587150","0.0-226.0-1.0","null","<p></p>","null","","","","","","","","","","","","","","","","","","","","","","",""
"","do_trial","434","1591843","0.0-227.0-0.0","149.0999999642372","","","","","","","","50","0,0,1","4","highway","159","probe-187","0.31521867479121934","0.23363409400932536","0.38509795638510996","0","","","","","","","",""
"","html-keyboard-response","435","1592845","0.0-227.0-1.0","null","<p></p>","null","","","","","","","","","","","","","","","","","","","","","","",""
"","do_trial","436","1598028","0.0-228.0-0.0","34.19999998807907","","","","","","","","49","0,0,1","4","highway","160","probe-59","0.3609958385964711","0.11173575785382829","0.35801408467664814","0","","","","","","","",""
"","html-keyboard-response","437","1599031","0.0-228.0-1.0","null","<p></p>","null","","","","","","","","","","","","","","","","","","","","","","",""
"","do_trial","438","1605097","0.0-229.0-0.0","null","","","","","","","","null","1,0,0","4","highway","161","probe-146","0.33322987634503376","0.13820596844101263","0.3999688956571494","","","","","","","","",""
"","html-keyboard-response","439","1606104","0.0-229.0-1.0","null","<p></p>","null","","","","","","","","","","","","","","","","","","","","","","",""
"","do_trial","440","1610782","0.0-230.0-0.0","124.89999997615814","","","","","","","","51","0,1,1","4","highway","162","probe-112","0.21654846999499416","0.2467340977222576","0.4337390278503355","1","","","","","","","",""
"","html-keyboard-response","441","1611783","0.0-230.0-1.0","null","<p></p>","null","","","","","","","","","","","","","","","","","","","","","","",""
"","do_trial","442","1616410","0.0-231.0-0.0","83.30000001192093","","","","","","","","50","0,0,0","4","highway","163","probe-210","0.11983918512184978","0.3691786815123968","0.39354183591897623","0","","","","","","","",""
"","html-keyboard-response","443","1617417","0.0-231.0-1.0","null","<p></p>","null","","","","","","","","","","","","","","","","","","","","","","",""
"","do_trial","444","1622142","0.0-232.0-0.0","173.89999997615814","","","","","","","","51","0,1,1","4","highway","164","probe-60","0.2455973153855107","0.514447257693088","0.19588842954836902","1","","","","","","","",""
"","html-keyboard-response","445","1623147","0.0-232.0-1.0","null","<p></p>","null","","","","","","","","","","","","","","","","","","","","","","",""
"","do_trial","446","1630205","0.0-233.0-0.0","2511.5","","","","","","","","50","0,0,1","4","highway","165","probe-82","0.0743609439997606","0.5013713472938803","0.347750230908938","0","","","","","","","",""
"","html-keyboard-response","447","1631211","0.0-233.0-1.0","null","<p></p>","null","","","","","","","","","","","","","","","","","","","","","","",""
"","do_trial","448","1636430","0.0-234.0-0.0","668","","","","","","","","49","0,0,0","4","highway","166","probe-174","0.14234192347179694","0.4566433299821504","0.3507980501837195","0","","","","","","","",""
"","html-keyboard-response","449","1637434","0.0-234.0-1.0","null","<p></p>","null","","","","","","","","","","","","","","","","","","","","","","",""
"","do_trial","450","1642868","0.0-235.0-0.0","885.4000000357628","","","","","","","","51","1,1,0","4","highway","167","probe-50","0.2905669877079012","0.5282736053495382","0.27150544921127023","0","","","","","","","",""
"","html-keyboard-response","451","1643873","0.0-235.0-1.0","null","<p></p>","null","","","","","","","","","","","","","","","","","","","","","","",""
"","do_trial","452","1649364","0.0-236.0-0.0","941.5","","","","","","","","50","0,0,0","4","highway","168","probe-38","0.08431512572000577","0.5389476742987831","0.507698253498374","0","","","","","","","",""
"","html-keyboard-response","453","1650369","0.0-236.0-1.0","null","<p></p>","null","","","","","","","","","","","","","","","","","","","","","","",""
"","do_trial","454","1655594","0.0-237.0-0.0","672.1999999880791","","","","","","","","51","1,0,0","4","highway","169","probe-221","0.08615814643573108","0.39040199350292354","0.3446721961889422","0","","","","","","","",""
"","html-keyboard-response","455","1656601","0.0-237.0-1.0","null","<p></p>","null","","","","","","","","","","","","","","","","","","","","","","",""
"","do_trial","456","1661662","0.0-238.0-0.0","511.19999998807907","","","","","","","","49","0,1,0","4","highway","170","probe-205","0.09218340070688644","0.47458119504254004","0.22459581520526947","0","","","","","","","",""
"","html-keyboard-response","457","1662670","0.0-238.0-1.0","null","<p></p>","null","","","","","","","","","","","","","","","","","","","","","","",""
"","do_trial","458","1667488","0.0-239.0-0.0","270.9000000357628","","","","","","","","50","0,0,1","4","highway","171","probe-165","0.19563709398951631","0.569641707388969","0.25507927707378847","0","","","","","","","",""
"","html-keyboard-response","459","1668493","0.0-239.0-1.0","null","<p></p>","null","","","","","","","","","","","","","","","","","","","","","","",""
"","do_trial","460","1673505","0.0-240.0-0.0","466.69999998807907","","","","","","","","49","0,0,0","4","highway","172","probe-48","0.1775660707202784","0.5685288489376507","0.2301974461214418","0","","","","","","","",""
"","html-keyboard-response","461","1674512","0.0-240.0-1.0","null","<p></p>","null","","","","","","","","","","","","","","","","","","","","","","",""
"","do_trial","462","1680573","0.0-241.0-0.0","1512.699999988079","","","","","","","","50","0,0,0","4","highway","173","probe-71","0.2788801252192956","0.5057649094227603","0.24302330372888875","0","","","","","","","",""
"","html-keyboard-response","463","1681578","0.0-241.0-1.0","null","<p></p>","null","","","","","","","","","","","","","","","","","","","","","","",""
"","do_trial","464","1688750","0.0-242.0-0.0","2622.199999988079","","","","","","","","51","0,0,0","4","highway","174","probe-33","0.2584823085718399","0.5503537145516104","0.31896768356879485","0","","","","","","","",""
"","html-keyboard-response","465","1689756","0.0-242.0-1.0","null","<p></p>","null","","","","","","","","","","","","","","","","","","","","","","",""
"","do_trial","466","1694988","0.0-243.0-0.0","682.7999999523163","","","","","","","","51","1,1,1","4","highway","175","probe-199","0.2552880283330873","0.494920057214286","0.2931578431831535","1","","","","","","","",""
"","html-keyboard-response","467","1695991","0.0-243.0-1.0","null","<p></p>","null","","","","","","","","","","","","","","","","","","","","","","",""
"","do_trial","468","1700616","0.0-244.0-0.0","76.30000001192093","","","","","","","","50","0,0,0","4","highway","176","probe-127","0.2046756199605599","0.48890275298047964","0.4103165931566609","0","","","","","","","",""
"","html-keyboard-response","469","1701623","0.0-244.0-1.0","null","<p></p>","null","","","","","","","","","","","","","","","","","","","","","","",""
"","do_trial","470","1707122","0.0-245.0-0.0","950.8999999761581","","","","","","","","49","0,1,1","4","highway","177","probe-77","0.05324696735149376","0.6707833857856359","0.40532421242801137","0","","","","","","","",""
"","html-keyboard-response","471","1708126","0.0-245.0-1.0","null","<p></p>","null","","","","","","","","","","","","","","","","","","","","","","",""
"","do_trial","472","1712776","0.0-246.0-0.0","103.5","","","","","","","","49","1,0,0","4","highway","178","probe-137","0.30370323598319426","0.6222689352748354","0.27602283657314763","1","","","","","","","",""
"","html-keyboard-response","473","1713780","0.0-246.0-1.0","null","<p></p>","null","","","","","","","","","","","","","","","","","","","","","","",""
