"success","trial_type","trial_index","time_elapsed","internal_node_id","interactions","blur_events","focus_events","fullscreenenter_events","fullscreenexit_events","rt","stimulus","key_press","subject_id","participant_id","age","gender","prompt","response","choice_outcomes","context_n","context_img_id","trial_n","probe_img_id","pR_red","pR_white","pR_black","outcome","contextArray_ind","validImageProbes","invalidImageProbes","pRew_Red","pRew_White","pRew_Black","availableForMemProbe","choice_blocks"
"true","fullscreen","0","3973","0.0-0.0","""event"",""trial"",""time""
""fullscreenenter"",""0"",""2983""
","
","
","""event"",""trial"",""time""
""fullscreenenter"",""0"",""2983""
","
","","","","","","","","","","","","","","","","","","","","","","","","","",""
"","pavlovia","1","3989","0.0-1.0","""event"",""trial"",""time""
""fullscreenenter"",""0"",""2983""
","
","
","""event"",""trial"",""time""
""fullscreenenter"",""0"",""2983""
","
","","","","","","","","","","","","","","","","","","","","","","","","","",""
"","instruc1","2","49251","0.0-2.0","""event"",""trial"",""time""
""fullscreenenter"",""0"",""2983""
","
","
","""event"",""trial"",""time""
""fullscreenenter"",""0"",""2983""
","
","null","run_exp/static/audio/clip_1_welcome.m4a","null","238","229","10","Female","<div class='center'><p>Welcome! This is the first part of the study. It will last ~30 minutes. In part 1 and part 2 of the study, you are the head captain of a pirate ship traveling around the world to different islands. You will play a few different games throughout these two parts. Here is an overview of them:</p><br><p>Part 1 (today)</p><p>1. Instructions, practice game, and quiz</p><p>2. Pick a pirate game on 6 different islands</p><br><p>Part 2 (tomorrow)</p><p>3. Pick a pirate game and memory game</p><p>4. Where did you see this ship? </p></div>","","","","","","","","","","","","","","","","","",""
"","html-keyboard-response","3","51389","0.0-3.0","""event"",""trial"",""time""
""fullscreenenter"",""0"",""2983""
","
","
","""event"",""trial"",""time""
""fullscreenenter"",""0"",""2983""
","
","2129.699999809265","<div class='center'><p>Welcome! This is the first part of the study. It will last ~30 minutes. In part 1 and part 2 of the study, you are the head captain of a pirate ship traveling around the world to different islands. You will play a few different games throughout these two parts. Here is an overview of them:</p><br><p>Part 1 (today)</p><p>1. Instructions, practice game, and quiz</p><p>2. Pick a pirate game on 6 different islands</p><br><p>Part 2 (tomorrow)</p><p>3. Pick a pirate game and memory game</p><p>4. Where did you see this ship? </p><p><b>[Press the space bar to continue]</b></p></div>","32","","","","","","","","","","","","","","","","","","","","","","",""
"","instruc2","4","56727","0.0-4.0","""event"",""trial"",""time""
""fullscreenenter"",""0"",""2983""
","
","
","""event"",""trial"",""time""
""fullscreenenter"",""0"",""2983""
","
","null","run_exp/static/audio/clip_2_different_places.m4a","null","","","","","<div class='center'><p>Today, you’ll visit these 6 islands on your journey. You'll be able to see these islands from your ship.</p><p><img src='run_exp/static/images/contexts/all_contexts.png' height='500'></p></div>","","","","","","","","","","","","","","","","","",""
"","html-keyboard-response","5","64348","0.0-5.0","""event"",""trial"",""time""
""fullscreenenter"",""0"",""2983""
","
","
","""event"",""trial"",""time""
""fullscreenenter"",""0"",""2983""
","
","7618.900000095367","<div class='center'><p>Today, you’ll visit these 6 islands on your journey. You'll be able to see these islands from your ship.</p><p><img src='run_exp/static/images/contexts/all_contexts.png' height='500'></p><p><b>[Press the space bar to continue]</b></p></div>","32","","","","","","","","","","","","","","","","","","","","","","",""
"","instruc3","6","74072","0.0-6.0","""event"",""trial"",""time""
""fullscreenenter"",""0"",""2983""
","
","
","""event"",""trial"",""time""
""fullscreenenter"",""0"",""2983""
","
","null","run_exp/static/audio/clip_3_goal_of_game_1.m4a","null","","","","","<div class='center'><p> The pirates on your ship will rob other ships as they leave the island.</p> These ships have just sold their goods to the islanders, so they will be filled with lots and lots of gold.</p><p><img src='run_exp/static/images/tutorial/ship_center.png' height='400'></p></div>","","","","","","","","","","","","","","","","","",""
"","html-keyboard-response","7","74884","0.0-7.0","""event"",""trial"",""time""
""fullscreenenter"",""0"",""2983""
","
","
","""event"",""trial"",""time""
""fullscreenenter"",""0"",""2983""
","
","810.8000001907349","<div class='center'><p> The pirates on your ship will rob other ships as they leave the island.</p> These ships have just sold their goods to the islanders, so they will be filled with lots and lots of gold.</p><p><img src='run_exp/static/images/tutorial/ship_center.png' height='400'></p><p><b>[Press the space bar to continue]</b></p></div>","32","","","","","","","","","","","","","","","","","","","","","","",""
"","instruc4","8","102911","0.0-8.0","""event"",""trial"",""time""
""fullscreenenter"",""0"",""2983""
","
","
","""event"",""trial"",""time""
""fullscreenenter"",""0"",""2983""
","
","null","run_exp/static/audio/clip_4_goal_of_game_2.m4a","null","","","","","<div class='center'><p>As the head captain, you do not have to rob any ships yourself. Another pirate will be doing the robbing for you. First, you will choose a pirate to rob the next ship.</p><p><img src='run_exp/static/images/tutorial/pirates_all_crop.png' height='200'></p><p>Then, you'll see if the pirate successfully robbed the ship of their gold. If they were successful, then you'll get a stack of gold coins like this:</p><p><img src='run_exp/static/images/tutorial/reward.png' height='150'></p><p> If they were <b>not</b> successful, then you'll get no gold coins, and you'll see a big red x like this: </p><p><img src='run_exp/static/images/tutorial/reward_no.png' height='150'></p><p> How much bonus money you make is based on how many gold coins you collect.</p><div>","","","","","","","","","","","","","","","","","",""
"","html-keyboard-response","9","105911","0.0-9.0","""event"",""trial"",""time""
""fullscreenenter"",""0"",""2983""
","
","
","""event"",""trial"",""time""
""fullscreenenter"",""0"",""2983""
","
","2990.199999809265","<div class='center'><p>As the head captain, you do not have to rob any ships yourself. Another pirate will be doing the robbing for you. First, you will choose a pirate to rob the next ship.</p><p><img src='run_exp/static/images/tutorial/pirates_all_crop.png' height='200'></p><p>Then, you'll see if the pirate successfully robbed the ship of their gold. If they were successful, then you'll get a stack of gold coins like this:</p><p><img src='run_exp/static/images/tutorial/reward.png' height='150'></p><p> If they were <b>not</b> successful, then you'll get no gold coins, and you'll see a big red x like this: </p><p><img src='run_exp/static/images/tutorial/reward_no.png' height='150'></p><p> How much bonus money you make is based on how many gold coins you collect.</p<p><b>[Press the space bar to continue]</b></p></div>","32","","","","","","","","","","","","","","","","","","","","","","",""
"","instruc5","10","126415","0.0-10.0","""event"",""trial"",""time""
""fullscreenenter"",""0"",""2983""
","
","
","""event"",""trial"",""time""
""fullscreenenter"",""0"",""2983""
","
","20501.900000095367","run_exp/static/audio/clip_5_probabilistic.m4a","49","","","","","<div class='center'><p>Even the most skilled pirate can not rob EVERY ship.</p><p> Some ships will have very strong protections against pirate attacks.</p><p> Blue beard, here, is very, very good at robbing ships, but he won't be successful every time he tries to rob one.</p><p> You can press the <b>‘1’</b> key on the keyboard to choose him.</p><p> Try choosing him 10 times to see how often he succeeds at robbing a ship. </p><p><img src='run_exp/static/images/tutorial/blue.png' height='500'></p></div>","","","","","","","","","","","","","","","","","",""
"","html-keyboard-response","11","127919","0.0-11.0","""event"",""trial"",""time""
""fullscreenenter"",""0"",""2983""
","
","
","""event"",""trial"",""time""
""fullscreenenter"",""0"",""2983""
","
","null","<div class='center'><p><img src='run_exp/static/images/tutorial/blue_win.png' height='500'></p></div>","null","","","","","","","","","","","","","","","","","","","","","","",""
"","html-keyboard-response","12","130231","0.0-12.0","""event"",""trial"",""time""
""fullscreenenter"",""0"",""2983""
","
","
","""event"",""trial"",""time""
""fullscreenenter"",""0"",""2983""
","
","2310.5","<div class='center'><img src='run_exp/static/images/tutorial/blue.png' height='500'></p></div>","49","","","","","","","","","","","","","","","","","","","","","","",""
"","html-keyboard-response","13","131737","0.0-13.0","""event"",""trial"",""time""
""fullscreenenter"",""0"",""2983""
","
","
","""event"",""trial"",""time""
""fullscreenenter"",""0"",""2983""
","
","null","<div class='center'><p><img src='run_exp/static/images/tutorial/blue_win.png' height='500'></p></div>","null","","","","","","","","","","","","","","","","","","","","","","",""
"","html-keyboard-response","14","132278","0.0-14.0","""event"",""trial"",""time""
""fullscreenenter"",""0"",""2983""
","
","
","""event"",""trial"",""time""
""fullscreenenter"",""0"",""2983""
","
","540.2000002861023","<div class='center'><img src='run_exp/static/images/tutorial/blue.png' height='500'></p></div>","49","","","","","","","","","","","","","","","","","","","","","","",""
"","html-keyboard-response","15","133782","0.0-15.0","""event"",""trial"",""time""
""fullscreenenter"",""0"",""2983""
","
","
","""event"",""trial"",""time""
""fullscreenenter"",""0"",""2983""
","
","null","<div class='center'><p><img src='run_exp/static/images/tutorial/blue_win.png' height='500'></p></div>","null","","","","","","","","","","","","","","","","","","","","","","",""
"","html-keyboard-response","16","134151","0.0-16.0","""event"",""trial"",""time""
""fullscreenenter"",""0"",""2983""
","
","
","""event"",""trial"",""time""
""fullscreenenter"",""0"",""2983""
","
","368.3999996185303","<div class='center'><img src='run_exp/static/images/tutorial/blue.png' height='500'></p></div>","49","","","","","","","","","","","","","","","","","","","","","","",""
"","html-keyboard-response","17","135653","0.0-17.0","""event"",""trial"",""time""
""fullscreenenter"",""0"",""2983""
","
","
","""event"",""trial"",""time""
""fullscreenenter"",""0"",""2983""
","
","null","<div class='center'><p><img src='run_exp/static/images/tutorial/blue_no_win.png' height='500'></p></div>","null","","","","","","","","","","","","","","","","","","","","","","",""
"","html-keyboard-response","18","135985","0.0-18.0","""event"",""trial"",""time""
""fullscreenenter"",""0"",""2983""
","
","
","""event"",""trial"",""time""
""fullscreenenter"",""0"",""2983""
","
","330.59999990463257","<div class='center'><img src='run_exp/static/images/tutorial/blue.png' height='500'></p></div>","49","","","","","","","","","","","","","","","","","","","","","","",""
"","html-keyboard-response","19","137487","0.0-19.0","""event"",""trial"",""time""
""fullscreenenter"",""0"",""2983""
","
","
","""event"",""trial"",""time""
""fullscreenenter"",""0"",""2983""
","
","null","<div class='center'><p><img src='run_exp/static/images/tutorial/blue_win.png' height='500'></p></div>","null","","","","","","","","","","","","","","","","","","","","","","",""
"","html-keyboard-response","20","138016","0.0-20.0","""event"",""trial"",""time""
""fullscreenenter"",""0"",""2983""
","
","
","""event"",""trial"",""time""
""fullscreenenter"",""0"",""2983""
","
","528.5","<div class='center'><img src='run_exp/static/images/tutorial/blue.png' height='500'></p></div>","49","","","","","","","","","","","","","","","","","","","","","","",""
"","html-keyboard-response","21","139518","0.0-21.0","""event"",""trial"",""time""
""fullscreenenter"",""0"",""2983""
","
","
","""event"",""trial"",""time""
""fullscreenenter"",""0"",""2983""
","
","null","<div class='center'><p><img src='run_exp/static/images/tutorial/blue_win.png' height='500'></p></div>","null","","","","","","","","","","","","","","","","","","","","","","",""
"","html-keyboard-response","22","139880","0.0-22.0","""event"",""trial"",""time""
""fullscreenenter"",""0"",""2983""
","
","
","""event"",""trial"",""time""
""fullscreenenter"",""0"",""2983""
","
","360.90000009536743","<div class='center'><img src='run_exp/static/images/tutorial/blue.png' height='500'></p></div>","49","","","","","","","","","","","","","","","","","","","","","","",""
"","html-keyboard-response","23","141386","0.0-23.0","""event"",""trial"",""time""
""fullscreenenter"",""0"",""2983""
","
","
","""event"",""trial"",""time""
""fullscreenenter"",""0"",""2983""
","
","null","<div class='center'><p><img src='run_exp/static/images/tutorial/blue_win.png' height='500'></p></div>","null","","","","","","","","","","","","","","","","","","","","","","",""
"","html-keyboard-response","24","141722","0.0-24.0","""event"",""trial"",""time""
""fullscreenenter"",""0"",""2983""
","
","
","""event"",""trial"",""time""
""fullscreenenter"",""0"",""2983""
","
","335.2999997138977","<div class='center'><img src='run_exp/static/images/tutorial/blue.png' height='500'></p></div>","49","","","","","","","","","","","","","","","","","","","","","","",""
"","html-keyboard-response","25","143226","0.0-25.0","""event"",""trial"",""time""
""fullscreenenter"",""0"",""2983""
","
","
","""event"",""trial"",""time""
""fullscreenenter"",""0"",""2983""
","
","null","<div class='center'><p><img src='run_exp/static/images/tutorial/blue_no_win.png' height='500'></p></div>","null","","","","","","","","","","","","","","","","","","","","","","",""
"","html-keyboard-response","26","143582","0.0-26.0","""event"",""trial"",""time""
""fullscreenenter"",""0"",""2983""
","
","
","""event"",""trial"",""time""
""fullscreenenter"",""0"",""2983""
","
","355.19999980926514","<div class='center'><img src='run_exp/static/images/tutorial/blue.png' height='500'></p></div>","49","","","","","","","","","","","","","","","","","","","","","","",""
"","html-keyboard-response","27","145084","0.0-27.0","""event"",""trial"",""time""
""fullscreenenter"",""0"",""2983""
","
","
","""event"",""trial"",""time""
""fullscreenenter"",""0"",""2983""
","
","null","<div class='center'><p><img src='run_exp/static/images/tutorial/blue_win.png' height='500'></p></div>","null","","","","","","","","","","","","","","","","","","","","","","",""
"","html-keyboard-response","28","145522","0.0-28.0","""event"",""trial"",""time""
""fullscreenenter"",""0"",""2983""
","
","
","""event"",""trial"",""time""
""fullscreenenter"",""0"",""2983""
","
","436.80000019073486","<div class='center'><img src='run_exp/static/images/tutorial/blue.png' height='500'></p></div>","49","","","","","","","","","","","","","","","","","","","","","","",""
"","html-keyboard-response","29","147023","0.0-29.0","""event"",""trial"",""time""
""fullscreenenter"",""0"",""2983""
","
","
","""event"",""trial"",""time""
""fullscreenenter"",""0"",""2983""
","
","null","<div class='center'><p><img src='run_exp/static/images/tutorial/blue_win.png' height='500'></p></div>","null","","","","","","","","","","","","","","","","","","","","","","",""
"","instruc6","30","152453","0.0-30.0","""event"",""trial"",""time""
""fullscreenenter"",""0"",""2983""
","
","
","""event"",""trial"",""time""
""fullscreenenter"",""0"",""2983""
","
","null","run_exp/static/audio/clip_6_blue_beard_outcome.m4a","null","","","","","<div class='center'><p> See, he succeeded in robbing the ships most of the time but not every time. </p></div>","","","","","","","","","","","","","","","","","",""
"","html-keyboard-response","31","153201","0.0-31.0","""event"",""trial"",""time""
""fullscreenenter"",""0"",""2983""
","
","
","""event"",""trial"",""time""
""fullscreenenter"",""0"",""2983""
","
","747.1999998092651","<div class='center'><p> See, he succeeded in robbing the ships most of the time but not every time. </p><p><b>[Press the space bar to continue]</b></p></div>","32","","","","","","","","","","","","","","","","","","","","","","",""
"","audio-keyboard-response","32","169555","0.0-32.0","""event"",""trial"",""time""
""fullscreenenter"",""0"",""2983""
","
","
","""event"",""trial"",""time""
""fullscreenenter"",""0"",""2983""
","
","16352.599999904633","run_exp/static/audio/clip_7_pick_pirate.m4a","51","","","","","","","","","","","","","","","","","","","","","","",""
"","audio-keyboard-response","33","173876","0.0-33.0-0.0","""event"",""trial"",""time""
""fullscreenenter"",""0"",""2983""
","
","
","""event"",""trial"",""time""
""fullscreenenter"",""0"",""2983""
","
","4318.5","run_exp/static/audio/clip_8_chosen_pirate_win.m4a","32","","","","","","","","","","","","","","","","","","","","","","",""
"","audio-keyboard-response","34","176899","0.0-33.0-1.0","""event"",""trial"",""time""
""fullscreenenter"",""0"",""2983""
","
","
","""event"",""trial"",""time""
""fullscreenenter"",""0"",""2983""
","
","3021","run_exp/static/audio/clip_9_pick_a_pirate_again.m4a","49","","","","","","","","","","","","","","","","","","","","","","",""
"","audio-keyboard-response","35","181354","0.0-34.0-0.0","""event"",""trial"",""time""
""fullscreenenter"",""0"",""2983""
","
","
","""event"",""trial"",""time""
""fullscreenenter"",""0"",""2983""
","
","4452.199999809265","run_exp/static/audio/clip_10_chosen_pirate_loss.m4a","32","","","","","","","","","","","","","","","","","","","","","","",""
"","instruc9","36","186865","0.0-35.0-0.0","""event"",""trial"",""time""
""fullscreenenter"",""0"",""2983""
","
","
","""event"",""trial"",""time""
""fullscreenenter"",""0"",""2983""
","
","null","run_exp/static/audio/clip_11_time_out.m4a","null","","","","","<div class='center'><p>If you don’t make your choice fast enough, you’ll have to wait a few seconds before you can make another one. </p><p><img src='run_exp/static/images/miscellaneous/hurry_up.png' height='500'></p></div>","","","","","","","","","","","","","","","","","",""
"","html-keyboard-response","37","188412","0.0-35.0-1.0","""event"",""trial"",""time""
""fullscreenenter"",""0"",""2983""
","
","
","""event"",""trial"",""time""
""fullscreenenter"",""0"",""2983""
","
","1546","<div class='center'><p>If you don’t make your choice fast enough, you’ll have to wait a few seconds before you can make another one. </p><p><img src='run_exp/static/images/miscellaneous/hurry_up.png' height='500'></p><p><b>[Press the space bar to continue]</b></p></div>","32","","","","","","","","","","","","","","","","","","","","","","",""
"","instruc10","38","227546","0.0-35.0-2.0","""event"",""trial"",""time""
""fullscreenenter"",""0"",""2983""
","
","
","""event"",""trial"",""time""
""fullscreenenter"",""0"",""2983""
","
","null","run_exp/static/audio/clip_12_probe.m4a","null","","","","","<div class='center'><p>Once you've chosen a pirate, you’ll be shown the ship they are robbing. You will never rob the same ship twice. Ships can be told apart from one another by the image on them. These are the goods that they sell. See, this ship has a travel mug on it. </p><p> You’ll have to remember which island you saw each ship on. You will win more gold coins and hence more bonus money if you remember correctly! To help you remember, you can imagine a story. For example, here, you could imagine a mug full of water in the desert. Or, as another example, if on the forest island, your pirate robbed a ship with an apple on it, you could imagine an apple falling from a tree in the forest. </p><p><img src='run_exp/static/images/tutorial/example_probe.png' height='500'></p></div>","","","","","","","","","","","","","","","","","",""
"","html-keyboard-response","39","229472","0.0-35.0-3.0","""event"",""trial"",""time""
""fullscreenenter"",""0"",""2983""
","
","
","""event"",""trial"",""time""
""fullscreenenter"",""0"",""2983""
","
","1914.2000002861023","<div class='center'><p>Once you've chosen a pirate, you’ll be shown the ship they are robbing. You will never rob the same ship twice. Ships can be told apart from one another by the image on them. These are the goods that they sell. See, this ship has a travel mug on it. </p><p> You’ll have to remember which island you saw each ship on. You will win more gold coins and hence more bonus money if you remember correctly! To help you remember, you can imagine a story. For example, here, you could imagine a mug full of water in the desert. Or, as another example, if on the forest island, your pirate robbed a ship with an apple on it, you could imagine an apple falling from a tree in the forest. </p><p><img src='run_exp/static/images/tutorial/example_probe.png' height='500'></p><p><b>[Press the space bar to continue]</b></p></div>","32","","","","","","","","","","","","","","","","","","","","","","",""
"","instruc11","40","245914","0.0-35.0-4.0","""event"",""trial"",""time""
""fullscreenenter"",""0"",""2983""
","
","
","""event"",""trial"",""time""
""fullscreenenter"",""0"",""2983""
","
","null","run_exp/static/audio/clip_13_changepoint.m4a","null","","","","","<div class='center'><p>How successful a pirate is at robbing ships will depend on the island you’re on.</p><p> A pirate may have visited this island many times before and gained a lot of practice robbing ships there.</p><p>So, they’re more likely to be successful than a pirate who has never visited the island before.</p></div>","","","","","","","","","","","","","","","","","",""
"","html-keyboard-response","41","246778","0.0-35.0-5.0","""event"",""trial"",""time""
""fullscreenenter"",""0"",""2983""
","
","
","""event"",""trial"",""time""
""fullscreenenter"",""0"",""2983""
","
","863.4000000953674","<div class='center'><p>How successful a pirate is at robbing ships will depend on the island you’re on.</p><p> A pirate may have visited this island many times before and gained a lot of practice robbing ships there.</p><p>So, they’re more likely to be successful than a pirate who has never visited the island before.</p><p><b>[Press the space bar to continue]</b></p></div>","32","","","","","","","","","","","","","","","","","","","","","","",""
"","instruc12","42","287895","0.0-35.0-6.0","""event"",""trial"",""time""
""fullscreenenter"",""0"",""2983""
","
","
","""event"",""trial"",""time""
""fullscreenenter"",""0"",""2983""
","
","null","run_exp/static/audio/clip_14_drift.m4a","null","","","","","<div class='center'><p>How successful a pirate is at robbing ships can also change over the time spent on the island. </p><p> Ships may hear from islanders about the pirates coming and will improve their protections against the attack. This may make it harder to rob them.</p><p> Ships may also become lazy and weaken the strength of their protections. This may make it easier to rob them.</p><br><p>Things are always changing on the high seas! So, try your best to pay attention!</p><p><img src='run_exp/static/images/tutorial/contingency.png' height='500'></p></div>","","","","","","","","","","","","","","","","","",""
"","html-keyboard-response","43","306429","0.0-35.0-7.0","""event"",""trial"",""time""
""fullscreenenter"",""0"",""2983""
","
","
","""event"",""trial"",""time""
""fullscreenenter"",""0"",""2983""
","
","18531.5","<div class='center'><p>How successful a pirate is at robbing ships can also change over the time spent on the island. </p><p> Ships may hear from islanders about the pirates coming and will improve their protections against the attack. This may make it harder to rob them.</p><p> Ships may also become lazy and weaken the strength of their protections. This may make it easier to rob them.</p><br><p>Things are always changing on the high seas! So, try your best to pay attention!</p><p><img src='run_exp/static/images/tutorial/contingency.png' height='500'></p><p><b>[Press the space bar to continue]</b></p></div>","32","","","","","","","","","","","","","","","","","","","","","","",""
"","instruc13","44","341640","0.0-35.0-8.0","""event"",""trial"",""time""
""fullscreenenter"",""0"",""2983""
","
","
","""event"",""trial"",""time""
""fullscreenenter"",""0"",""2983""
","
","null","run_exp/static/audio/clip_15_summary.m4a","null","","","","","<div class='center'><p>Let's go over the instructions quickly again. You have two important things to do: </p><b><p> 1. Pick the pirate who is the best at robbing ships on the current island. </p></b><b><p> 2. Remember on which island a ship was robbed.</p> </b><p>The amount of bonus money you can win depends on both.</p><p><br><p>Let’s try a practice game. The game will start by showing you the pirates. First, pick a pirate using the <b> 1, 2, 3 </b> keys on your keyboard. When you are shown a ship, try to remember which island you’re on by making up a story.</p><p>This is just a practice game, so you’re not playing for money. </p><p> Good luck! This game will be very difficult but try your best!</p></div>","","","","","","","","","","","","","","","","","",""
"","html-keyboard-response","45","343946","0.0-35.0-9.0","""event"",""trial"",""time""
""fullscreenenter"",""0"",""2983""
","
","
","""event"",""trial"",""time""
""fullscreenenter"",""0"",""2983""
","
","2305","<div class='center'><p>Let's go over the instructions quickly again. You have two important things to do: </p><b><p> 1. Pick the pirate who is the best at robbing ships on the current island. </p></b><b><p> 2. Remember on which island a ship was robbed.</p> </b><p>The amount of bonus money you can win depends on both.</p><p><br><p>Let’s try a practice game. The game will start by showing you the pirates. First, pick a pirate using the <b> 1, 2, 3 </b> keys on your keyboard. When you are shown a ship, try to remember which island you’re on by making up a story.</p><p>This is just a practice game, so you’re not playing for money. </p><p> Good luck! This game will be very difficult but try your best!</p><p><b>[Press the space bar to continue]</b></p></div>","32","","","","","","","","","","","","","","","","","","","","","","",""
"","do_welcome","46","347957","0.0-35.0-10.0","""event"",""trial"",""time""
""fullscreenenter"",""0"",""2983""
","
","
","""event"",""trial"",""time""
""fullscreenenter"",""0"",""2983""
","
","null","","","","","","","","null","","","","","","","","","","","","","","","","",""
"","do_trial","47","353698","0.0-35.0-11.0","""event"",""trial"",""time""
""fullscreenenter"",""0"",""2983""
","
","
","""event"",""trial"",""time""
""fullscreenenter"",""0"",""2983""
","
","1225.8999996185303","","","","","","","","50","1,0,0","","","","","","","","","","","","","","","",""
"","html-keyboard-response","48","354704","0.0-36.0-0.0","""event"",""trial"",""time""
""fullscreenenter"",""0"",""2983""
","
","
","""event"",""trial"",""time""
""fullscreenenter"",""0"",""2983""
","
","null","<p></p>","null","","","","","","","","","","","","","","","","","","","","","","",""
"","do_trial","49","359978","0.0-36.0-1.0","""event"",""trial"",""time""
""fullscreenenter"",""0"",""2983""
","
","
","""event"",""trial"",""time""
""fullscreenenter"",""0"",""2983""
","
","764.1999998092651","","","","","","","","49","1,1,0","","","","","","","","","","","","","","","",""
"","html-keyboard-response","50","360984","0.0-37.0-0.0","""event"",""trial"",""time""
""fullscreenenter"",""0"",""2983""
","
","
","""event"",""trial"",""time""
""fullscreenenter"",""0"",""2983""
","
","null","<p></p>","null","","","","","","","","","","","","","","","","","","","","","","",""
"","do_trial","51","366764","0.0-37.0-1.0","""event"",""trial"",""time""
""fullscreenenter"",""0"",""2983""
","
","
","""event"",""trial"",""time""
""fullscreenenter"",""0"",""2983""
","
","1270.6000003814697","","","","","","","","49","1,0,1","","","","","","","","","","","","","","","",""
"","html-keyboard-response","52","367769","0.0-38.0-0.0","""event"",""trial"",""time""
""fullscreenenter"",""0"",""2983""
","
","
","""event"",""trial"",""time""
""fullscreenenter"",""0"",""2983""
","
","null","<p></p>","null","","","","","","","","","","","","","","","","","","","","","","",""
"","do_trial","53","373467","0.0-38.0-1.0","""event"",""trial"",""time""
""fullscreenenter"",""0"",""2983""
","
","
","""event"",""trial"",""time""
""fullscreenenter"",""0"",""2983""
","
","1184.7000002861023","","","","","","","","51","0,1,0","","","","","","","","","","","","","","","",""
"","html-keyboard-response","54","374473","0.0-39.0-0.0","""event"",""trial"",""time""
""fullscreenenter"",""0"",""2983""
","
","
","""event"",""trial"",""time""
""fullscreenenter"",""0"",""2983""
","
","null","<p></p>","null","","","","","","","","","","","","","","","","","","","","","","",""
"","do_trial","55","379603","0.0-39.0-1.0","""event"",""trial"",""time""
""fullscreenenter"",""0"",""2983""
","
","
","""event"",""trial"",""time""
""fullscreenenter"",""0"",""2983""
","
","621.0999999046326","","","","","","","","49","1,0,0","","","","","","","","","","","","","","","",""
"","do_bye","56","381110","0.0-40.0-0.0","""event"",""trial"",""time""
""fullscreenenter"",""0"",""2983""
","
","
","""event"",""trial"",""time""
""fullscreenenter"",""0"",""2983""
","
","null","","","","","","","","null","","","","","","","","","","","","","","","","",""
"","do_travel","57","390117","0.0-40.0-1.0","""event"",""trial"",""time""
""fullscreenenter"",""0"",""2983""
","
","
","""event"",""trial"",""time""
""fullscreenenter"",""0"",""2983""
","
","null","","","","","","","","null","","","","","","","","","","","","","","","","",""
"","do_welcome","58","394126","0.0-40.0-2.0","""event"",""trial"",""time""
""fullscreenenter"",""0"",""2983""
","
","
","""event"",""trial"",""time""
""fullscreenenter"",""0"",""2983""
","
","null","","","","","","","","null","","","","","","","","","","","","","","","","",""
"","do_trial","59","399627","0.0-40.0-3.0","""event"",""trial"",""time""
""fullscreenenter"",""0"",""2983""
","
","
","""event"",""trial"",""time""
""fullscreenenter"",""0"",""2983""
","
","988.3000001907349","","","","","","","","50","1,0,0","","","","","","","","","","","","","","","",""
"","html-keyboard-response","60","400631","0.0-41.0-0.0","""event"",""trial"",""time""
""fullscreenenter"",""0"",""2983""
","
","
","""event"",""trial"",""time""
""fullscreenenter"",""0"",""2983""
","
","null","<p></p>","null","","","","","","","","","","","","","","","","","","","","","","",""
"","do_trial","61","405614","0.0-41.0-1.0","""event"",""trial"",""time""
""fullscreenenter"",""0"",""2983""
","
","
","""event"",""trial"",""time""
""fullscreenenter"",""0"",""2983""
","
","471.40000009536743","","","","","","","","51","1,0,1","","","","","","","","","","","","","","","",""
"","html-keyboard-response","62","406619","0.0-42.0-0.0","""event"",""trial"",""time""
""fullscreenenter"",""0"",""2983""
","
","
","""event"",""trial"",""time""
""fullscreenenter"",""0"",""2983""
","
","null","<p></p>","null","","","","","","","","","","","","","","","","","","","","","","",""
"","do_trial","63","412109","0.0-42.0-1.0","""event"",""trial"",""time""
""fullscreenenter"",""0"",""2983""
","
","
","""event"",""trial"",""time""
""fullscreenenter"",""0"",""2983""
","
","976.6999998092651","","","","","","","","51","1,1,0","","","","","","","","","","","","","","","",""
"","html-keyboard-response","64","413114","0.0-43.0-0.0","""event"",""trial"",""time""
""fullscreenenter"",""0"",""2983""
","
","
","""event"",""trial"",""time""
""fullscreenenter"",""0"",""2983""
","
","null","<p></p>","null","","","","","","","","","","","","","","","","","","","","","","",""
"","do_trial","65","418341","0.0-43.0-1.0","""event"",""trial"",""time""
""fullscreenenter"",""0"",""2983""
","
","
","""event"",""trial"",""time""
""fullscreenenter"",""0"",""2983""
","
","717.9000000953674","","","","","","","","49","0,0,1","","","","","","","","","","","","","","","",""
"","html-keyboard-response","66","419347","0.0-44.0-0.0","""event"",""trial"",""time""
""fullscreenenter"",""0"",""2983""
","
","
","""event"",""trial"",""time""
""fullscreenenter"",""0"",""2983""
","
","null","<p></p>","null","","","","","","","","","","","","","","","","","","","","","","",""
"","do_trial","67","424233","0.0-44.0-1.0","""event"",""trial"",""time""
""fullscreenenter"",""0"",""2983""
","
","
","""event"",""trial"",""time""
""fullscreenenter"",""0"",""2983""
","
","372.2000002861023","","","","","","","","51","1,0,1","","","","","","","","","","","","","","","",""
"","html-keyboard-response","68","430608","0.0-45.0-0.0","""event"",""trial"",""time""
""fullscreenenter"",""0"",""2983""
","
","
","""event"",""trial"",""time""
""fullscreenenter"",""0"",""2983""
","
","6372.699999809265","<div class='center'><p><img src='run_exp/static/images/tutorial/prac_best_pirate.png'  height='500'></p></div>","51","","","","","","","","","","","","","","","","","","","","","","",""
"","html-keyboard-response","69","434933","0.0-46.0-0.0","""event"",""trial"",""time""
""fullscreenenter"",""0"",""2983""
","
","
","""event"",""trial"",""time""
""fullscreenenter"",""0"",""2983""
","
","4323.200000286102","<div class='center'><p>That's incorrect! Red beard was the best.</p><p><b>[Press the space bar to continue]</b></p></div>","32","","","","","","","","","","","","","","","","","","","","","","",""
"","html-keyboard-response","70","439461","0.0-46.0-1.0","""event"",""trial"",""time""
""fullscreenenter"",""0"",""2983""
","
","
","""event"",""trial"",""time""
""fullscreenenter"",""0"",""2983""
","
","4527.300000190735","<div class='center'><p><img src='run_exp/static/images/tutorial/prac_source.png'  height='500'></p></div>","50","","","","","","","","","","","","","","","","","","","","","","",""
"","html-keyboard-response","71","441202","0.0-47.0-0.0","""event"",""trial"",""time""
""fullscreenenter"",""0"",""2983""
","
","
","""event"",""trial"",""time""
""fullscreenenter"",""0"",""2983""
","
","1739.9000000953674","<div class='center'><p>That's correct! You saw this ship on the cavern island.</p><p><b>[Press the space bar to continue]</b></p></div>","32","","","","","","","","","","","","","","","","","","","","","","",""
"","quiz_beginning","72","452472","0.0-47.0-1.0","""event"",""trial"",""time""
""fullscreenenter"",""0"",""2983""
","
","
","""event"",""trial"",""time""
""fullscreenenter"",""0"",""2983""
","
","null","run_exp/static/audio/clip_16_quiz_intro.m4a","null","","","","","<div class='center'><p>Good job on the practice game! Now, you will be asked some true or false questions to make sure you really understand the rules of the game.</p><p> Press <b>'1'</b> on the keyboard for true and press <b>'2'</b> for false.</p></div>","","","","","","","","","","","","","","","","","",""
"","audio-keyboard-response","73","459817","0.0-47.0-2.0","""event"",""trial"",""time""
""fullscreenenter"",""0"",""2983""
","
","
","""event"",""trial"",""time""
""fullscreenenter"",""0"",""2983""
","
","7343.800000190735","run_exp/static/audio/clip_17_q1.m4a","49","","","","","","","","","","","","","","","","","","","","","","",""
"","correct","74","462224","0.0-48.0-0.0","""event"",""trial"",""time""
""fullscreenenter"",""0"",""2983""
","
","
","""event"",""trial"",""time""
""fullscreenenter"",""0"",""2983""
","
","null","run_exp/static/audio/clip_18_correct.m4a","null","","","","","<div class='center'><p>That's correct!</p></div>","","","","","","","","","","","","","","","","","",""
"","html-keyboard-response","75","463220","0.0-48.0-1.0","""event"",""trial"",""time""
""fullscreenenter"",""0"",""2983""
","
","
","""event"",""trial"",""time""
""fullscreenenter"",""0"",""2983""
","
","995.2000002861023","<div class='center'><p>That's correct!</p><p><b>[Press the space bar to continue]</b></p></div>","32","","","","","","","","","","","","","","","","","","","","","","",""
"","audio-keyboard-response","76","471148","0.0-48.0-2.0","""event"",""trial"",""time""
""fullscreenenter"",""0"",""2983""
","
","
","""event"",""trial"",""time""
""fullscreenenter"",""0"",""2983""
","
","7926.699999809265","run_exp/static/audio/clip_20_q2.m4a","50","","","","","","","","","","","","","","","","","","","","","","",""
"","correct","77","473555","0.0-49.0-0.0","""event"",""trial"",""time""
""fullscreenenter"",""0"",""2983""
","
","
","""event"",""trial"",""time""
""fullscreenenter"",""0"",""2983""
","
","null","run_exp/static/audio/clip_18_correct.m4a","null","","","","","<div class='center'><p>That's correct!</p></div>","","","","","","","","","","","","","","","","","",""
"","html-keyboard-response","78","474174","0.0-49.0-1.0","""event"",""trial"",""time""
""fullscreenenter"",""0"",""2983""
","
","
","""event"",""trial"",""time""
""fullscreenenter"",""0"",""2983""
","
","617.5999999046326","<div class='center'><p>That's correct!</p><p><b>[Press the space bar to continue]</b></p></div>","32","","","","","","","","","","","","","","","","","","","","","","",""
"","audio-keyboard-response","79","481530","0.0-49.0-2.0","""event"",""trial"",""time""
""fullscreenenter"",""0"",""2983""
","
","
","""event"",""trial"",""time""
""fullscreenenter"",""0"",""2983""
","
","7354.900000095367","run_exp/static/audio/clip_22_q3.m4a","50","","","","","","","","","","","","","","","","","","","","","","",""
"","correct","80","483935","0.0-50.0-0.0","""event"",""trial"",""time""
""fullscreenenter"",""0"",""2983""
","
","
","""event"",""trial"",""time""
""fullscreenenter"",""0"",""2983""
","
","null","run_exp/static/audio/clip_18_correct.m4a","null","","","","","<div class='center'><p>That's correct!</p></div>","","","","","","","","","","","","","","","","","",""
"","html-keyboard-response","81","484046","0.0-50.0-1.0","""event"",""trial"",""time""
""fullscreenenter"",""0"",""2983""
","
","
","""event"",""trial"",""time""
""fullscreenenter"",""0"",""2983""
","
","109.90000009536743","<div class='center'><p>That's correct!</p><p><b>[Press the space bar to continue]</b></p></div>","32","","","","","","","","","","","","","","","","","","","","","","",""
"","audio-keyboard-response","82","490923","0.0-50.0-2.0","""event"",""trial"",""time""
""fullscreenenter"",""0"",""2983""
","
","
","""event"",""trial"",""time""
""fullscreenenter"",""0"",""2983""
","
","6876.099999904633","run_exp/static/audio/clip_24_q4.m4a","49","","","","","","","","","","","","","","","","","","","","","","",""
"","correct","83","493386","0.0-51.0-0.0","""event"",""trial"",""time""
""fullscreenenter"",""0"",""2983""
","
","
","""event"",""trial"",""time""
""fullscreenenter"",""0"",""2983""
","
","null","run_exp/static/audio/clip_18_correct.m4a","null","","","","","<div class='center'><p>That's correct!</p></div>","","","","","","","","","","","","","","","","","",""
"","html-keyboard-response","84","493934","0.0-51.0-1.0","""event"",""trial"",""time""
""fullscreenenter"",""0"",""2983""
","
","
","""event"",""trial"",""time""
""fullscreenenter"",""0"",""2983""
","
","547.3000001907349","<div class='center'><p>That's correct!</p><p><b>[Press the space bar to continue]</b></p></div>","32","","","","","","","","","","","","","","","","","","","","","","",""
"","q_all_corr","85","502442","0.0-52.0-0.0","""event"",""trial"",""time""
""fullscreenenter"",""0"",""2983""
","
","
","""event"",""trial"",""time""
""fullscreenenter"",""0"",""2983""
","
","null","run_exp/static/audio/clip_27_quiz_all_correct.m4a","null","","","","","<div class='center'><p>Good job! You’re now ready to move on to the real game! Remember this game will be difficult but don't get discouraged and try your best!</p></div>","","","","","","","","","","","","","","","","","",""
"","html-keyboard-response","86","502969","0.0-52.0-1.0","""event"",""trial"",""time""
""fullscreenenter"",""0"",""2983""
","
","
","""event"",""trial"",""time""
""fullscreenenter"",""0"",""2983""
","
","526.4000000953674","<div class='center'><p>Good job! You’re now ready to move on to the real game! Remember this game will be difficult but don't get discouraged and try your best!</p><p><b>[Press the space bar to continue]</b></p></div>","32","","","","","","","","","","","","","","","","","","","","","","",""
"","do_welcome","87","506980","0.0-53.0-0.0","""event"",""trial"",""time""
""fullscreenenter"",""0"",""2983""
","
","
","""event"",""trial"",""time""
""fullscreenenter"",""0"",""2983""
","
","null","","","","","","","","null","","","","","","","","","","","","","","","","",""
"","do_trial","88","512504","0.0-54.0-0.0","""event"",""trial"",""time""
""fullscreenenter"",""0"",""2983""
","
","
","""event"",""trial"",""time""
""fullscreenenter"",""0"",""2983""
","
","969","","","","","","","","49","1,0,0","0","mountain","0","probe-225","0.6","0.3","0.1","1","","","","","","","",""
"","html-keyboard-response","89","513517","0.0-54.0-1.0","""event"",""trial"",""time""
""fullscreenenter"",""0"",""2983""
","
","
","""event"",""trial"",""time""
""fullscreenenter"",""0"",""2983""
","
","null","<p></p>","null","","","","","","","","","","","","","","","","","","","","","","",""
"","do_trial","90","519044","0.0-55.0-0.0","""event"",""trial"",""time""
""fullscreenenter"",""0"",""2983""
","
","
","""event"",""trial"",""time""
""fullscreenenter"",""0"",""2983""
","
","971.5999999046326","","","","","","","","50","0,0,0","0","mountain","1","probe-172","0.5881108352026206","0.3011442337472971","0.07703944206469791","0","","","","","","","",""
"","html-keyboard-response","91","520051","0.0-55.0-1.0","""event"",""trial"",""time""
""fullscreenenter"",""0"",""2983""
","
","
","""event"",""trial"",""time""
""fullscreenenter"",""0"",""2983""
","
","null","<p></p>","null","","","","","","","","","","","","","","","","","","","","","","",""
"","do_trial","92","525251","0.0-56.0-0.0","""event"",""trial"",""time""
""fullscreenenter"",""0"",""2983""
","
","
","""event"",""trial"",""time""
""fullscreenenter"",""0"",""2983""
","
","632.6999998092651","","","","","","","","49","1,1,1","0","mountain","2","probe-34","0.6453365669593606","0.22360763955844212","0.18794038491200346","1","","","","","","","",""
"","html-keyboard-response","93","526256","0.0-56.0-1.0","""event"",""trial"",""time""
""fullscreenenter"",""0"",""2983""
","
","
","""event"",""trial"",""time""
""fullscreenenter"",""0"",""2983""
","
","null","<p></p>","null","","","","","","","","","","","","","","","","","","","","","","",""
"","do_trial","94","531704","0.0-57.0-0.0","""event"",""trial"",""time""
""fullscreenenter"",""0"",""2983""
","
","
","""event"",""trial"",""time""
""fullscreenenter"",""0"",""2983""
","
","891.4000000953674","","","","","","","","49","0,0,0","0","mountain","3","probe-25","0.6157889341336968","0.21698579265291468","0.17357038398145277","0","","","","","","","",""
"","html-keyboard-response","95","532711","0.0-57.0-1.0","""event"",""trial"",""time""
""fullscreenenter"",""0"",""2983""
","
","
","""event"",""trial"",""time""
""fullscreenenter"",""0"",""2983""
","
","null","<p></p>","null","","","","","","","","","","","","","","","","","","","","","","",""
"","do_trial","96","537944","0.0-58.0-0.0","""event"",""trial"",""time""
""fullscreenenter"",""0"",""2983""
","
","
","""event"",""trial"",""time""
""fullscreenenter"",""0"",""2983""
","
","680.7999997138977","","","","","","","","51","0,0,0","0","mountain","4","probe-208","0.5486983332786214","0.2387821564604628","0.09032441040579207","0","","","","","","","",""
"","html-keyboard-response","97","538949","0.0-58.0-1.0","""event"",""trial"",""time""
""fullscreenenter"",""0"",""2983""
","
","
","""event"",""trial"",""time""
""fullscreenenter"",""0"",""2983""
","
","null","<p></p>","null","","","","","","","","","","","","","","","","","","","","","","",""
"","do_trial","98","544150","0.0-59.0-0.0","""event"",""trial"",""time""
""fullscreenenter"",""0"",""2983""
","
","
","""event"",""trial"",""time""
""fullscreenenter"",""0"",""2983""
","
","648.3000001907349","","","","","","","","49","1,0,0","0","mountain","5","probe-191","0.6147672439029965","0.3154057884157136","0.06634510900458308","1","","","","","","","",""
"","html-keyboard-response","99","545153","0.0-59.0-1.0","""event"",""trial"",""time""
""fullscreenenter"",""0"",""2983""
","
","
","""event"",""trial"",""time""
""fullscreenenter"",""0"",""2983""
","
","null","<p></p>","null","","","","","","","","","","","","","","","","","","","","","","",""
"","do_trial","100","550039","0.0-60.0-0.0","""event"",""trial"",""time""
""fullscreenenter"",""0"",""2983""
","
","
","""event"",""trial"",""time""
""fullscreenenter"",""0"",""2983""
","
","326.90000009536743","","","","","","","","49","1,0,1","0","mountain","6","probe-91","0.6321427557311055","0.20585759100029344","0.22228119792549264","1","","","","","","","",""
"","html-keyboard-response","101","551043","0.0-60.0-1.0","""event"",""trial"",""time""
""fullscreenenter"",""0"",""2983""
","
","
","""event"",""trial"",""time""
""fullscreenenter"",""0"",""2983""
","
","null","<p></p>","null","","","","","","","","","","","","","","","","","","","","","","",""
"","do_trial","102","556605","0.0-61.0-0.0","""event"",""trial"",""time""
""fullscreenenter"",""0"",""2983""
","
","
","""event"",""trial"",""time""
""fullscreenenter"",""0"",""2983""
","
","1011","","","","","","","","49","0,0,0","0","mountain","7","probe-170","0.7278701771342716","0.09560329070667328","0.08555192623214865","0","","","","","","","",""
"","html-keyboard-response","103","557611","0.0-61.0-1.0","""event"",""trial"",""time""
""fullscreenenter"",""0"",""2983""
","
","
","""event"",""trial"",""time""
""fullscreenenter"",""0"",""2983""
","
","null","<p></p>","null","","","","","","","","","","","","","","","","","","","","","","",""
"","do_trial","104","563739","0.0-62.0-0.0","""event"",""trial"",""time""
""fullscreenenter"",""0"",""2983""
","
","
","""event"",""trial"",""time""
""fullscreenenter"",""0"",""2983""
","
","1574.7999997138977","","","","","","","","49","1,1,0","0","mountain","8","probe-159","0.897253637099011","0.10008848713793521","0.10077328251621115","1","","","","","","","",""
"","html-keyboard-response","105","564745","0.0-62.0-1.0","""event"",""trial"",""time""
""fullscreenenter"",""0"",""2983""
","
","
","""event"",""trial"",""time""
""fullscreenenter"",""0"",""2983""
","
","null","<p></p>","null","","","","","","","","","","","","","","","","","","","","","","",""
"","do_trial","106","569959","0.0-63.0-0.0","""event"",""trial"",""time""
""fullscreenenter"",""0"",""2983""
","
","
","""event"",""trial"",""time""
""fullscreenenter"",""0"",""2983""
","
","657.8000001907349","","","","","","","","49","0,0,0","0","mountain","9","probe-125","0.6182895698820611","0.05908237586826649","0.1269476453793021","0","","","","","","","",""
"","html-keyboard-response","107","570965","0.0-63.0-1.0","""event"",""trial"",""time""
""fullscreenenter"",""0"",""2983""
","
","
","""event"",""trial"",""time""
""fullscreenenter"",""0"",""2983""
","
","null","<p></p>","null","","","","","","","","","","","","","","","","","","","","","","",""
"","do_trial","108","576678","0.0-64.0-0.0","""event"",""trial"",""time""
""fullscreenenter"",""0"",""2983""
","
","
","""event"",""trial"",""time""
""fullscreenenter"",""0"",""2983""
","
","1161.4000000953674","","","","","","","","50","1,0,0","0","mountain","10","probe-36","0.7431621647725092","0.10913480734475059","0.0639860182126175","0","","","","","","","",""
"","html-keyboard-response","109","577684","0.0-64.0-1.0","""event"",""trial"",""time""
""fullscreenenter"",""0"",""2983""
","
","
","""event"",""trial"",""time""
""fullscreenenter"",""0"",""2983""
","
","null","<p></p>","null","","","","","","","","","","","","","","","","","","","","","","",""
"","do_trial","110","583412","0.0-65.0-0.0","""event"",""trial"",""time""
""fullscreenenter"",""0"",""2983""
","
","
","""event"",""trial"",""time""
""fullscreenenter"",""0"",""2983""
","
","1176.1000003814697","","","","","","","","49","1,0,0","0","mountain","11","probe-182","0.7462218184353786","0.1253256383874231","0.21335294336349012","1","","","","","","","",""
"","html-keyboard-response","111","584417","0.0-65.0-1.0","""event"",""trial"",""time""
""fullscreenenter"",""0"",""2983""
","
","
","""event"",""trial"",""time""
""fullscreenenter"",""0"",""2983""
","
","null","<p></p>","null","","","","","","","","","","","","","","","","","","","","","","",""
"","do_trial","112","589731","0.0-66.0-0.0","""event"",""trial"",""time""
""fullscreenenter"",""0"",""2983""
","
","
","""event"",""trial"",""time""
""fullscreenenter"",""0"",""2983""
","
","759.8000001907349","","","","","","","","49","1,0,0","0","mountain","12","probe-217","0.7599557561587849","0.07385488740862016","0.06124831036656586","1","","","","","","","",""
"","html-keyboard-response","113","590736","0.0-66.0-1.0","""event"",""trial"",""time""
""fullscreenenter"",""0"",""2983""
","
","
","""event"",""trial"",""time""
""fullscreenenter"",""0"",""2983""
","
","null","<p></p>","null","","","","","","","","","","","","","","","","","","","","","","",""
"","do_trial","114","596510","0.0-67.0-0.0","""event"",""trial"",""time""
""fullscreenenter"",""0"",""2983""
","
","
","""event"",""trial"",""time""
""fullscreenenter"",""0"",""2983""
","
","1219.1999998092651","","","","","","","","49","0,0,0","0","mountain","13","probe-135","0.7249931177261858","0.07236008382402657","0.13663842712586996","0","","","","","","","",""
"","html-keyboard-response","115","597515","0.0-67.0-1.0","""event"",""trial"",""time""
""fullscreenenter"",""0"",""2983""
","
","
","""event"",""trial"",""time""
""fullscreenenter"",""0"",""2983""
","
","null","<p></p>","null","","","","","","","","","","","","","","","","","","","","","","",""
"","do_trial","116","602454","0.0-68.0-0.0","""event"",""trial"",""time""
""fullscreenenter"",""0"",""2983""
","
","
","""event"",""trial"",""time""
""fullscreenenter"",""0"",""2983""
","
","384.90000009536743","","","","","","","","49","1,0,0","0","mountain","14","probe-15","0.5990141196683321","0.257307428875515","0.21039815853892424","1","","","","","","","",""
"","html-keyboard-response","117","603456","0.0-68.0-1.0","""event"",""trial"",""time""
""fullscreenenter"",""0"",""2983""
","
","
","""event"",""trial"",""time""
""fullscreenenter"",""0"",""2983""
","
","null","<p></p>","null","","","","","","","","","","","","","","","","","","","","","","",""
"","do_trial","118","609878","0.0-69.0-0.0","""event"",""trial"",""time""
""fullscreenenter"",""0"",""2983""
","
","
","""event"",""trial"",""time""
""fullscreenenter"",""0"",""2983""
","
","1869.7999997138977","","","","","","","","51","1,0,0","0","mountain","15","probe-05","0.6567318094446756","0.20040888451883654","0.1467771555364817","0","","","","","","","",""
"","html-keyboard-response","119","610884","0.0-69.0-1.0","""event"",""trial"",""time""
""fullscreenenter"",""0"",""2983""
","
","
","""event"",""trial"",""time""
""fullscreenenter"",""0"",""2983""
","
","null","<p></p>","null","","","","","","","","","","","","","","","","","","","","","","",""
"","do_trial","120","616086","0.0-70.0-0.0","""event"",""trial"",""time""
""fullscreenenter"",""0"",""2983""
","
","
","""event"",""trial"",""time""
""fullscreenenter"",""0"",""2983""
","
","648.4000000953674","","","","","","","","49","0,0,0","0","mountain","16","probe-74","0.7724251412040504","0.2908489060205299","0.1831135424678397","0","","","","","","","",""
"","html-keyboard-response","121","617089","0.0-70.0-1.0","""event"",""trial"",""time""
""fullscreenenter"",""0"",""2983""
","
","
","""event"",""trial"",""time""
""fullscreenenter"",""0"",""2983""
","
","null","<p></p>","null","","","","","","","","","","","","","","","","","","","","","","",""
"","do_trial","122","621984","0.0-71.0-0.0","""event"",""trial"",""time""
""fullscreenenter"",""0"",""2983""
","
","
","""event"",""trial"",""time""
""fullscreenenter"",""0"",""2983""
","
","344.19999980926514","","","","","","","","49","1,0,0","0","mountain","17","probe-142","0.7929705175660666","0.3693046006681233","0.1635982328069502","1","","","","","","","",""
"","html-keyboard-response","123","622989","0.0-71.0-1.0","""event"",""trial"",""time""
""fullscreenenter"",""0"",""2983""
","
","
","""event"",""trial"",""time""
""fullscreenenter"",""0"",""2983""
","
","null","<p></p>","null","","","","","","","","","","","","","","","","","","","","","","",""
"","do_trial","124","627987","0.0-72.0-0.0","""event"",""trial"",""time""
""fullscreenenter"",""0"",""2983""
","
","
","""event"",""trial"",""time""
""fullscreenenter"",""0"",""2983""
","
","436","","","","","","","","49","1,1,0","0","mountain","18","probe-116","0.8303188831847238","0.3071711535731214","0.20246983235299332","1","","","","","","","",""
"","html-keyboard-response","125","628992","0.0-72.0-1.0","""event"",""trial"",""time""
""fullscreenenter"",""0"",""2983""
","
","
","""event"",""trial"",""time""
""fullscreenenter"",""0"",""2983""
","
","null","<p></p>","null","","","","","","","","","","","","","","","","","","","","","","",""
"","do_trial","126","634106","0.0-73.0-0.0","""event"",""trial"",""time""
""fullscreenenter"",""0"",""2983""
","
","
","""event"",""trial"",""time""
""fullscreenenter"",""0"",""2983""
","
","562.8000001907349","","","","","","","","49","1,1,0","0","mountain","19","probe-221","0.7830442372590416","0.46821716079346554","0.3307975074985486","1","","","","","","","",""
"","html-keyboard-response","127","635112","0.0-73.0-1.0","""event"",""trial"",""time""
""fullscreenenter"",""0"",""2983""
","
","
","""event"",""trial"",""time""
""fullscreenenter"",""0"",""2983""
","
","null","<p></p>","null","","","","","","","","","","","","","","","","","","","","","","",""
"","do_trial","128","640188","0.0-74.0-0.0","""event"",""trial"",""time""
""fullscreenenter"",""0"",""2983""
","
","
","""event"",""trial"",""time""
""fullscreenenter"",""0"",""2983""
","
","524.5","","","","","","","","49","1,0,0","0","mountain","20","probe-101","0.7635124845022334","0.4269790717976803","0.12309920916106178","1","","","","","","","",""
"","html-keyboard-response","129","641194","0.0-74.0-1.0","""event"",""trial"",""time""
""fullscreenenter"",""0"",""2983""
","
","
","""event"",""trial"",""time""
""fullscreenenter"",""0"",""2983""
","
","null","<p></p>","null","","","","","","","","","","","","","","","","","","","","","","",""
"","do_trial","130","646156","0.0-75.0-0.0","""event"",""trial"",""time""
""fullscreenenter"",""0"",""2983""
","
","
","""event"",""trial"",""time""
""fullscreenenter"",""0"",""2983""
","
","408.2999997138977","","","","","","","","49","1,1,0","0","mountain","21","probe-183","0.7851865862898728","0.4607761492409065","0.08495968533175467","1","","","","","","","",""
"","html-keyboard-response","131","647162","0.0-75.0-1.0","""event"",""trial"",""time""
""fullscreenenter"",""0"",""2983""
","
","
","""event"",""trial"",""time""
""fullscreenenter"",""0"",""2983""
","
","null","<p></p>","null","","","","","","","","","","","","","","","","","","","","","","",""
"","do_trial","132","652088","0.0-76.0-0.0","""event"",""trial"",""time""
""fullscreenenter"",""0"",""2983""
","
","
","""event"",""trial"",""time""
""fullscreenenter"",""0"",""2983""
","
","376.2999997138977","","","","","","","","49","1,1,0","0","mountain","22","probe-151","0.807900544932823","0.5026794223816593","0.10207856239538914","1","","","","","","","",""
"","html-keyboard-response","133","653093","0.0-76.0-1.0","""event"",""trial"",""time""
""fullscreenenter"",""0"",""2983""
","
","
","""event"",""trial"",""time""
""fullscreenenter"",""0"",""2983""
","
","null","<p></p>","null","","","","","","","","","","","","","","","","","","","","","","",""
"","do_trial","134","658382","0.0-77.0-0.0","""event"",""trial"",""time""
""fullscreenenter"",""0"",""2983""
","
","
","""event"",""trial"",""time""
""fullscreenenter"",""0"",""2983""
","
","737.5","","","","","","","","49","1,0,0","0","mountain","23","probe-197","0.6557367678152405","0.5020849730657674","0.17369573755597273","1","","","","","","","",""
"","html-keyboard-response","135","659388","0.0-77.0-1.0","""event"",""trial"",""time""
""fullscreenenter"",""0"",""2983""
","
","
","""event"",""trial"",""time""
""fullscreenenter"",""0"",""2983""
","
","null","<p></p>","null","","","","","","","","","","","","","","","","","","","","","","",""
"","do_trial","136","664464","0.0-78.0-0.0","""event"",""trial"",""time""
""fullscreenenter"",""0"",""2983""
","
","
","""event"",""trial"",""time""
""fullscreenenter"",""0"",""2983""
","
","521.6999998092651","","","","","","","","49","1,0,0","0","mountain","24","probe-66","0.8525582778838978","0.32504209399551715","0.15191372289436483","1","","","","","","","",""
"","html-keyboard-response","137","665468","0.0-78.0-1.0","""event"",""trial"",""time""
""fullscreenenter"",""0"",""2983""
","
","
","""event"",""trial"",""time""
""fullscreenenter"",""0"",""2983""
","
","null","<p></p>","null","","","","","","","","","","","","","","","","","","","","","","",""
"","do_trial","138","670442","0.0-79.0-0.0","""event"",""trial"",""time""
""fullscreenenter"",""0"",""2983""
","
","
","""event"",""trial"",""time""
""fullscreenenter"",""0"",""2983""
","
","414.69999980926514","","","","","","","","49","1,1,0","0","mountain","25","probe-150","0.723426547922839","0.3535916954617801","0.10971974204686227","1","","","","","","","",""
"","html-keyboard-response","139","671447","0.0-79.0-1.0","""event"",""trial"",""time""
""fullscreenenter"",""0"",""2983""
","
","
","""event"",""trial"",""time""
""fullscreenenter"",""0"",""2983""
","
","null","<p></p>","null","","","","","","","","","","","","","","","","","","","","","","",""
"","do_trial","140","676821","0.0-80.0-0.0","""event"",""trial"",""time""
""fullscreenenter"",""0"",""2983""
","
","
","""event"",""trial"",""time""
""fullscreenenter"",""0"",""2983""
","
","821.4000000953674","","","","","","","","49","1,1,0","0","mountain","26","probe-07","0.6774525153577311","0.20017658792667292","0.05374411156349401","1","","","","","","","",""
"","html-keyboard-response","141","677827","0.0-80.0-1.0","""event"",""trial"",""time""
""fullscreenenter"",""0"",""2983""
","
","
","""event"",""trial"",""time""
""fullscreenenter"",""0"",""2983""
","
","null","<p></p>","null","","","","","","","","","","","","","","","","","","","","","","",""
"","do_trial","142","682908","0.0-81.0-0.0","""event"",""trial"",""time""
""fullscreenenter"",""0"",""2983""
","
","
","""event"",""trial"",""time""
""fullscreenenter"",""0"",""2983""
","
","525.6000003814697","","","","","","","","49","0,0,0","0","mountain","27","probe-175","0.6206968872295414","0.18369662118988017","0.2104936109783995","0","","","","","","","",""
"","html-keyboard-response","143","683914","0.0-81.0-1.0","""event"",""trial"",""time""
""fullscreenenter"",""0"",""2983""
","
","
","""event"",""trial"",""time""
""fullscreenenter"",""0"",""2983""
","
","null","<p></p>","null","","","","","","","","","","","","","","","","","","","","","","",""
"","do_trial","144","688968","0.0-82.0-0.0","""event"",""trial"",""time""
""fullscreenenter"",""0"",""2983""
","
","
","""event"",""trial"",""time""
""fullscreenenter"",""0"",""2983""
","
","500.90000009536743","","","","","","","","49","0,1,0","0","mountain","28","probe-75","0.6118317218164855","0.21255432363221297","0.11964287835022624","0","","","","","","","",""
"","html-keyboard-response","145","689973","0.0-82.0-1.0","""event"",""trial"",""time""
""fullscreenenter"",""0"",""2983""
","
","
","""event"",""trial"",""time""
""fullscreenenter"",""0"",""2983""
","
","null","<p></p>","null","","","","","","","","","","","","","","","","","","","","","","",""
"","do_trial","146","695332","0.0-83.0-0.0","""event"",""trial"",""time""
""fullscreenenter"",""0"",""2983""
","
","
","""event"",""trial"",""time""
""fullscreenenter"",""0"",""2983""
","
","806","","","","","","","","49","0,0,0","0","mountain","29","probe-213","0.7277403489161717","0.2134480435983614","0.11537685537102514","0","","","","","","","",""
"","html-keyboard-response","147","696336","0.0-83.0-1.0","""event"",""trial"",""time""
""fullscreenenter"",""0"",""2983""
","
","
","""event"",""trial"",""time""
""fullscreenenter"",""0"",""2983""
","
","null","<p></p>","null","","","","","","","","","","","","","","","","","","","","","","",""
"","do_bye","148","697844","0.0-84.0-0.0","""event"",""trial"",""time""
""fullscreenenter"",""0"",""2983""
","
","
","""event"",""trial"",""time""
""fullscreenenter"",""0"",""2983""
","
","null","","","","","","","","null","","","","","","","","","","","","","","","","",""
"","break","149","702933","0.0-84.0-1.0","""event"",""trial"",""time""
""fullscreenenter"",""0"",""2983""
","
","
","""event"",""trial"",""time""
""fullscreenenter"",""0"",""2983""
","
","5087.5","<div class='center'><p>Time to take a quick break! You have 2 minutes to rest, but you can move on sooner if you'd like.</p><p> Press the <b>space bar</b> to continue.</p></div>","32","","","","","","","","","","","","","","","","","","","","","","",""
"","do_travel","150","711937","0.0-85.0-0.0","""event"",""trial"",""time""
""fullscreenenter"",""0"",""2983""
","
","
","""event"",""trial"",""time""
""fullscreenenter"",""0"",""2983""
","
","null","","","","","","","","null","","","","","","","","","","","","","","","","",""
"","do_welcome","151","715948","0.0-85.0-1.0","""event"",""trial"",""time""
""fullscreenenter"",""0"",""2983""
","
","
","""event"",""trial"",""time""
""fullscreenenter"",""0"",""2983""
","
","null","","","","","","","","null","","","","","","","","","","","","","","","","",""
"","do_trial","152","721679","0.0-86.0-0.0","""event"",""trial"",""time""
""fullscreenenter"",""0"",""2983""
","
","
","""event"",""trial"",""time""
""fullscreenenter"",""0"",""2983""
","
","1175","","","","","","","","50","1,0,0","1","city","30","probe-87","1","0.1752741126181688","0.2364921576036432","0","","","","","","","",""
"","html-keyboard-response","153","722682","0.0-86.0-1.0","""event"",""trial"",""time""
""fullscreenenter"",""0"",""2983""
","
","
","""event"",""trial"",""time""
""fullscreenenter"",""0"",""2983""
","
","null","<p></p>","null","","","","","","","","","","","","","","","","","","","","","","",""
"","do_trial","154","728627","0.0-87.0-0.0","""event"",""trial"",""time""
""fullscreenenter"",""0"",""2983""
","
","
","""event"",""trial"",""time""
""fullscreenenter"",""0"",""2983""
","
","1391.3000001907349","","","","","","","","51","1,1,0","1","city","31","probe-73","1","0.20409658042255696","0.2961658141827288","0","","","","","","","",""
"","html-keyboard-response","155","729633","0.0-87.0-1.0","""event"",""trial"",""time""
""fullscreenenter"",""0"",""2983""
","
","
","""event"",""trial"",""time""
""fullscreenenter"",""0"",""2983""
","
","null","<p></p>","null","","","","","","","","","","","","","","","","","","","","","","",""
"","do_trial","156","734554","0.0-88.0-0.0","""event"",""trial"",""time""
""fullscreenenter"",""0"",""2983""
","
","
","""event"",""trial"",""time""
""fullscreenenter"",""0"",""2983""
","
","370.30000019073486","","","","","","","","49","1,1,0","1","city","32","probe-178","1","0.3300054114968707","0.2501377397331227","1","","","","","","","",""
"","html-keyboard-response","157","735560","0.0-88.0-1.0","""event"",""trial"",""time""
""fullscreenenter"",""0"",""2983""
","
","
","""event"",""trial"",""time""
""fullscreenenter"",""0"",""2983""
","
","null","<p></p>","null","","","","","","","","","","","","","","","","","","","","","","",""
"","do_trial","158","740390","0.0-89.0-0.0","""event"",""trial"",""time""
""fullscreenenter"",""0"",""2983""
","
","
","""event"",""trial"",""time""
""fullscreenenter"",""0"",""2983""
","
","277.3999996185303","","","","","","","","49","1,1,0","1","city","33","probe-179","0.9048372755282117","0.29819090337686455","0.21191346648322623","1","","","","","","","",""
"","html-keyboard-response","159","741396","0.0-89.0-1.0","""event"",""trial"",""time""
""fullscreenenter"",""0"",""2983""
","
","
","""event"",""trial"",""time""
""fullscreenenter"",""0"",""2983""
","
","null","<p></p>","null","","","","","","","","","","","","","","","","","","","","","","",""
"","do_trial","160","746281","0.0-90.0-0.0","""event"",""trial"",""time""
""fullscreenenter"",""0"",""2983""
","
","
","""event"",""trial"",""time""
""fullscreenenter"",""0"",""2983""
","
","329.30000019073486","","","","","","","","49","1,0,0","1","city","34","probe-80","0.8344143060116507","0.30633612482407213","0.19817759129449214","1","","","","","","","",""
"","html-keyboard-response","161","747287","0.0-90.0-1.0","""event"",""trial"",""time""
""fullscreenenter"",""0"",""2983""
","
","
","""event"",""trial"",""time""
""fullscreenenter"",""0"",""2983""
","
","null","<p></p>","null","","","","","","","","","","","","","","","","","","","","","","",""
"","do_trial","162","752173","0.0-91.0-0.0","""event"",""trial"",""time""
""fullscreenenter"",""0"",""2983""
","
","
","""event"",""trial"",""time""
""fullscreenenter"",""0"",""2983""
","
","333.7000002861023","","","","","","","","49","0,1,0","1","city","35","probe-107","0.7183319527889586","0.2885209523775396","0.11350466695180046","0","","","","","","","",""
"","html-keyboard-response","163","753175","0.0-91.0-1.0","""event"",""trial"",""time""
""fullscreenenter"",""0"",""2983""
","
","
","""event"",""trial"",""time""
""fullscreenenter"",""0"",""2983""
","
","null","<p></p>","null","","","","","","","","","","","","","","","","","","","","","","",""
"","do_trial","164","758147","0.0-92.0-0.0","""event"",""trial"",""time""
""fullscreenenter"",""0"",""2983""
","
","
","""event"",""trial"",""time""
""fullscreenenter"",""0"",""2983""
","
","418.90000009536743","","","","","","","","49","1,1,0","1","city","36","probe-54","0.7284664625711141","0.313790990263075","0.09304470815841741","1","","","","","","","",""
"","html-keyboard-response","165","759152","0.0-92.0-1.0","""event"",""trial"",""time""
""fullscreenenter"",""0"",""2983""
","
","
","""event"",""trial"",""time""
""fullscreenenter"",""0"",""2983""
","
","null","<p></p>","null","","","","","","","","","","","","","","","","","","","","","","",""
"","do_trial","166","764168","0.0-93.0-0.0","""event"",""trial"",""time""
""fullscreenenter"",""0"",""2983""
","
","
","""event"",""trial"",""time""
""fullscreenenter"",""0"",""2983""
","
","462.09999990463257","","","","","","","","49","1,0,0","1","city","37","probe-123","0.7282911072233845","0.25998951500412304","0.08558049172241532","1","","","","","","","",""
"","html-keyboard-response","167","765174","0.0-93.0-1.0","""event"",""trial"",""time""
""fullscreenenter"",""0"",""2983""
","
","
","""event"",""trial"",""time""
""fullscreenenter"",""0"",""2983""
","
","null","<p></p>","null","","","","","","","","","","","","","","","","","","","","","","",""
"","do_trial","168","770553","0.0-94.0-0.0","""event"",""trial"",""time""
""fullscreenenter"",""0"",""2983""
","
","
","""event"",""trial"",""time""
""fullscreenenter"",""0"",""2983""
","
","825.2000002861023","","","","","","","","49","1,1,0","1","city","38","probe-77","0.6881629917398976","0.3703895930690564","0.1321562700091277","1","","","","","","","",""
"","html-keyboard-response","169","771559","0.0-94.0-1.0","""event"",""trial"",""time""
""fullscreenenter"",""0"",""2983""
","
","
","""event"",""trial"",""time""
""fullscreenenter"",""0"",""2983""
","
","null","<p></p>","null","","","","","","","","","","","","","","","","","","","","","","",""
"","do_trial","170","776467","0.0-95.0-0.0","""event"",""trial"",""time""
""fullscreenenter"",""0"",""2983""
","
","
","""event"",""trial"",""time""
""fullscreenenter"",""0"",""2983""
","
","353.5","","","","","","","","49","0,0,0","1","city","39","probe-155","0.5770768102545265","0.28030001370035285","0.26996415508822824","0","","","","","","","",""
"","html-keyboard-response","171","777471","0.0-95.0-1.0","""event"",""trial"",""time""
""fullscreenenter"",""0"",""2983""
","
","
","""event"",""trial"",""time""
""fullscreenenter"",""0"",""2983""
","
","null","<p></p>","null","","","","","","","","","","","","","","","","","","","","","","",""
"","do_trial","172","782274","0.0-96.0-0.0","""event"",""trial"",""time""
""fullscreenenter"",""0"",""2983""
","
","
","""event"",""trial"",""time""
""fullscreenenter"",""0"",""2983""
","
","251.40000009536743","","","","","","","","49","0,1,0","1","city","40","probe-100","0.4115434965913186","0.2551287885644566","0.2871938802297937","0","","","","","","","",""
"","html-keyboard-response","173","783279","0.0-96.0-1.0","""event"",""trial"",""time""
""fullscreenenter"",""0"",""2983""
","
","
","""event"",""trial"",""time""
""fullscreenenter"",""0"",""2983""
","
","null","<p></p>","null","","","","","","","","","","","","","","","","","","","","","","",""
"","do_trial","174","788219","0.0-97.0-0.0","""event"",""trial"",""time""
""fullscreenenter"",""0"",""2983""
","
","
","""event"",""trial"",""time""
""fullscreenenter"",""0"",""2983""
","
","377.7000002861023","","","","","","","","50","0,0,0","1","city","41","probe-224","0.32623210622250043","0.30004682496212753","0.22089165354624876","0","","","","","","","",""
"","html-keyboard-response","175","789225","0.0-97.0-1.0","""event"",""trial"",""time""
""fullscreenenter"",""0"",""2983""
","
","
","""event"",""trial"",""time""
""fullscreenenter"",""0"",""2983""
","
","null","<p></p>","null","","","","","","","","","","","","","","","","","","","","","","",""
"","do_trial","176","794108","0.0-98.0-0.0","""event"",""trial"",""time""
""fullscreenenter"",""0"",""2983""
","
","
","""event"",""trial"",""time""
""fullscreenenter"",""0"",""2983""
","
","320.40000009536743","","","","","","","","49","0,0,0","1","city","42","probe-177","0.13675494265301516","0.30053647825094076","0.1565990179944756","0","","","","","","","",""
"","html-keyboard-response","177","795111","0.0-98.0-1.0","""event"",""trial"",""time""
""fullscreenenter"",""0"",""2983""
","
","
","""event"",""trial"",""time""
""fullscreenenter"",""0"",""2983""
","
","null","<p></p>","null","","","","","","","","","","","","","","","","","","","","","","",""
"","do_trial","178","800031","0.0-99.0-0.0","""event"",""trial"",""time""
""fullscreenenter"",""0"",""2983""
","
","
","""event"",""trial"",""time""
""fullscreenenter"",""0"",""2983""
","
","364.80000019073486","","","","","","","","49","0,0,0","1","city","43","probe-136","0.1175543484673042","0.3713481732694166","0.21001095231781414","0","","","","","","","",""
"","html-keyboard-response","179","801036","0.0-99.0-1.0","""event"",""trial"",""time""
""fullscreenenter"",""0"",""2983""
","
","
","""event"",""trial"",""time""
""fullscreenenter"",""0"",""2983""
","
","null","<p></p>","null","","","","","","","","","","","","","","","","","","","","","","",""
"","do_trial","180","805924","0.0-100.0-0.0","""event"",""trial"",""time""
""fullscreenenter"",""0"",""2983""
","
","
","""event"",""trial"",""time""
""fullscreenenter"",""0"",""2983""
","
","334.19999980926514","","","","","","","","49","0,0,0","1","city","44","probe-105","0.09779023262542187","0.2961547896404481","0.22548103902535918","0","","","","","","","",""
"","html-keyboard-response","181","806926","0.0-100.0-1.0","""event"",""trial"",""time""
""fullscreenenter"",""0"",""2983""
","
","
","""event"",""trial"",""time""
""fullscreenenter"",""0"",""2983""
","
","null","<p></p>","null","","","","","","","","","","","","","","","","","","","","","","",""
"","do_trial","182","811764","0.0-101.0-0.0","""event"",""trial"",""time""
""fullscreenenter"",""0"",""2983""
","
","
","""event"",""trial"",""time""
""fullscreenenter"",""0"",""2983""
","
","282.5","","","","","","","","51","0,0,0","1","city","45","probe-63","0.20606252209937861","0.3120664234735958","0.2889980612213382","0","","","","","","","",""
"","html-keyboard-response","183","812771","0.0-101.0-1.0","""event"",""trial"",""time""
""fullscreenenter"",""0"",""2983""
","
","
","""event"",""trial"",""time""
""fullscreenenter"",""0"",""2983""
","
","null","<p></p>","null","","","","","","","","","","","","","","","","","","","","","","",""
"","do_trial","184","818252","0.0-102.0-0.0","""event"",""trial"",""time""
""fullscreenenter"",""0"",""2983""
","
","
","""event"",""trial"",""time""
""fullscreenenter"",""0"",""2983""
","
","927.1999998092651","","","","","","","","49","1,0,0","1","city","46","probe-180","0.25827151960995176","0.39457790321014297","0.3188607979430217","1","","","","","","","",""
"","html-keyboard-response","185","819258","0.0-102.0-1.0","""event"",""trial"",""time""
""fullscreenenter"",""0"",""2983""
","
","
","""event"",""trial"",""time""
""fullscreenenter"",""0"",""2983""
","
","null","<p></p>","null","","","","","","","","","","","","","","","","","","","","","","",""
"","do_trial","186","824319","0.0-103.0-0.0","""event"",""trial"",""time""
""fullscreenenter"",""0"",""2983""
","
","
","""event"",""trial"",""time""
""fullscreenenter"",""0"",""2983""
","
","507.90000009536743","","","","","","","","49","1,0,0","1","city","47","probe-103","0.28075758653779015","0.5032912680478087","0.2809076858403761","1","","","","","","","",""
"","html-keyboard-response","187","825321","0.0-103.0-1.0","""event"",""trial"",""time""
""fullscreenenter"",""0"",""2983""
","
","
","""event"",""trial"",""time""
""fullscreenenter"",""0"",""2983""
","
","null","<p></p>","null","","","","","","","","","","","","","","","","","","","","","","",""
"","do_trial","188","830814","0.0-104.0-0.0","""event"",""trial"",""time""
""fullscreenenter"",""0"",""2983""
","
","
","""event"",""trial"",""time""
""fullscreenenter"",""0"",""2983""
","
","936.6999998092651","","","","","","","","49","0,1,1","1","city","48","probe-64","0.4302189184640517","0.4842303739938275","0.3210300020593678","0","","","","","","","",""
"","html-keyboard-response","189","831819","0.0-104.0-1.0","""event"",""trial"",""time""
""fullscreenenter"",""0"",""2983""
","
","
","""event"",""trial"",""time""
""fullscreenenter"",""0"",""2983""
","
","null","<p></p>","null","","","","","","","","","","","","","","","","","","","","","","",""
"","do_trial","190","836639","0.0-105.0-0.0","""event"",""trial"",""time""
""fullscreenenter"",""0"",""2983""
","
","
","""event"",""trial"",""time""
""fullscreenenter"",""0"",""2983""
","
","267.5","","","","","","","","49","0,1,0","1","city","49","probe-201","0.3987401693992984","0.6609248171495318","0.11061744447799957","0","","","","","","","",""
"","html-keyboard-response","191","837646","0.0-105.0-1.0","""event"",""trial"",""time""
""fullscreenenter"",""0"",""2983""
","
","
","""event"",""trial"",""time""
""fullscreenenter"",""0"",""2983""
","
","null","<p></p>","null","","","","","","","","","","","","","","","","","","","","","","",""
"","do_trial","192","842615","0.0-106.0-0.0","""event"",""trial"",""time""
""fullscreenenter"",""0"",""2983""
","
","
","""event"",""trial"",""time""
""fullscreenenter"",""0"",""2983""
","
","418.3999996185303","","","","","","","","49","1,0,1","1","city","50","probe-61","0.2678527547527705","0.6652266082504744","0.392132268888917","1","","","","","","","",""
"","html-keyboard-response","193","843621","0.0-106.0-1.0","""event"",""trial"",""time""
""fullscreenenter"",""0"",""2983""
","
","
","""event"",""trial"",""time""
""fullscreenenter"",""0"",""2983""
","
","null","<p></p>","null","","","","","","","","","","","","","","","","","","","","","","",""
"","do_trial","194","849327","0.0-107.0-0.0","""event"",""trial"",""time""
""fullscreenenter"",""0"",""2983""
","
","
","""event"",""trial"",""time""
""fullscreenenter"",""0"",""2983""
","
","1155.8999996185303","","","","","","","","49","0,1,0","1","city","51","probe-37","0.26868337158184186","0.5132726395489643","0.30364667409010987","0","","","","","","","",""
"","html-keyboard-response","195","850332","0.0-107.0-1.0","""event"",""trial"",""time""
""fullscreenenter"",""0"",""2983""
","
","
","""event"",""trial"",""time""
""fullscreenenter"",""0"",""2983""
","
","null","<p></p>","null","","","","","","","","","","","","","","","","","","","","","","",""
"","do_trial","196","855626","0.0-108.0-0.0","""event"",""trial"",""time""
""fullscreenenter"",""0"",""2983""
","
","
","""event"",""trial"",""time""
""fullscreenenter"",""0"",""2983""
","
","741.0999999046326","","","","","","","","49","0,1,1","1","city","52","probe-187","0.22826909681805052","0.7095412297804877","0.5560862945895793","0","","","","","","","",""
"","html-keyboard-response","197","856630","0.0-108.0-1.0","""event"",""trial"",""time""
""fullscreenenter"",""0"",""2983""
","
","
","""event"",""trial"",""time""
""fullscreenenter"",""0"",""2983""
","
","null","<p></p>","null","","","","","","","","","","","","","","","","","","","","","","",""
"","do_trial","198","861501","0.0-109.0-0.0","""event"",""trial"",""time""
""fullscreenenter"",""0"",""2983""
","
","
","""event"",""trial"",""time""
""fullscreenenter"",""0"",""2983""
","
","317.5","","","","","","","","49","0,0,1","1","city","53","probe-78","0.1707724350536113","0.631439518076994","0.40519443100867913","0","","","","","","","",""
"","html-keyboard-response","199","862503","0.0-109.0-1.0","""event"",""trial"",""time""
""fullscreenenter"",""0"",""2983""
","
","
","""event"",""trial"",""time""
""fullscreenenter"",""0"",""2983""
","
","null","<p></p>","null","","","","","","","","","","","","","","","","","","","","","","",""
"","do_trial","200","868061","0.0-110.0-0.0","""event"",""trial"",""time""
""fullscreenenter"",""0"",""2983""
","
","
","""event"",""trial"",""time""
""fullscreenenter"",""0"",""2983""
","
","1006.7999997138977","","","","","","","","50","1,0,0","1","city","54","probe-17","0.08672376331651485","0.6096189264291936","0.4262836654771225","0","","","","","","","",""
"","html-keyboard-response","201","869067","0.0-110.0-1.0","""event"",""trial"",""time""
""fullscreenenter"",""0"",""2983""
","
","
","""event"",""trial"",""time""
""fullscreenenter"",""0"",""2983""
","
","null","<p></p>","null","","","","","","","","","","","","","","","","","","","","","","",""
"","do_trial","202","873992","0.0-111.0-0.0","""event"",""trial"",""time""
""fullscreenenter"",""0"",""2983""
","
","
","""event"",""trial"",""time""
""fullscreenenter"",""0"",""2983""
","
","373.8999996185303","","","","","","","","49","0,0,0","1","city","55","probe-121","0.17238807154391098","0.47697038795264257","0.5203855533988836","0","","","","","","","",""
"","html-keyboard-response","203","874998","0.0-111.0-1.0","""event"",""trial"",""time""
""fullscreenenter"",""0"",""2983""
","
","
","""event"",""trial"",""time""
""fullscreenenter"",""0"",""2983""
","
","null","<p></p>","null","","","","","","","","","","","","","","","","","","","","","","",""
"","do_trial","204","880128","0.0-112.0-0.0","""event"",""trial"",""time""
""fullscreenenter"",""0"",""2983""
","
","
","""event"",""trial"",""time""
""fullscreenenter"",""0"",""2983""
","
","579.5999999046326","","","","","","","","49","0,1,1","1","city","56","probe-27","0.08669884695436478","0.52982994318759","0.6828172631230655","0","","","","","","","",""
"","html-keyboard-response","205","881134","0.0-112.0-1.0","""event"",""trial"",""time""
""fullscreenenter"",""0"",""2983""
","
","
","""event"",""trial"",""time""
""fullscreenenter"",""0"",""2983""
","
","null","<p></p>","null","","","","","","","","","","","","","","","","","","","","","","",""
"","do_trial","206","886094","0.0-113.0-0.0","""event"",""trial"",""time""
""fullscreenenter"",""0"",""2983""
","
","
","""event"",""trial"",""time""
""fullscreenenter"",""0"",""2983""
","
","407.09999990463257","","","","","","","","49","0,1,0","1","city","57","probe-47","0.1474492066160561","0.6405938321467004","0.5792771196181816","0","","","","","","","",""
"","html-keyboard-response","207","887100","0.0-113.0-1.0","""event"",""trial"",""time""
""fullscreenenter"",""0"",""2983""
","
","
","""event"",""trial"",""time""
""fullscreenenter"",""0"",""2983""
","
","null","<p></p>","null","","","","","","","","","","","","","","","","","","","","","","",""
"","do_trial","208","892013","0.0-114.0-0.0","""event"",""trial"",""time""
""fullscreenenter"",""0"",""2983""
","
","
","""event"",""trial"",""time""
""fullscreenenter"",""0"",""2983""
","
","356.40000009536743","","","","","","","","51","0,1,0","1","city","58","probe-162","0.20703968114511953","0.5631322350497404","0.5241846964424574","0","","","","","","","",""
"","html-keyboard-response","209","893017","0.0-114.0-1.0","""event"",""trial"",""time""
""fullscreenenter"",""0"",""2983""
","
","
","""event"",""trial"",""time""
""fullscreenenter"",""0"",""2983""
","
","null","<p></p>","null","","","","","","","","","","","","","","","","","","","","","","",""
"","do_trial","210","898983","0.0-115.0-0.0","""event"",""trial"",""time""
""fullscreenenter"",""0"",""2983""
","
","
","""event"",""trial"",""time""
""fullscreenenter"",""0"",""2983""
","
","1412.7999997138977","","","","","","","","51","0,1,0","1","city","59","probe-228","0.10335654577396192","0.48344552709338423","0.5501186893312559","0","","","","","","","",""
"","html-keyboard-response","211","899988","0.0-115.0-1.0","""event"",""trial"",""time""
""fullscreenenter"",""0"",""2983""
","
","
","""event"",""trial"",""time""
""fullscreenenter"",""0"",""2983""
","
","null","<p></p>","null","","","","","","","","","","","","","","","","","","","","","","",""
"","do_trial","212","905005","0.0-116.0-0.0","""event"",""trial"",""time""
""fullscreenenter"",""0"",""2983""
","
","
","""event"",""trial"",""time""
""fullscreenenter"",""0"",""2983""
","
","463.3999996185303","","","","","","","","50","1,0,0","1","city","60","probe-186","0.1606483809429861","0.5683495137421247","0.44012744430186623","0","","","","","","","",""
"","html-keyboard-response","213","906010","0.0-116.0-1.0","""event"",""trial"",""time""
""fullscreenenter"",""0"",""2983""
","
","
","""event"",""trial"",""time""
""fullscreenenter"",""0"",""2983""
","
","null","<p></p>","null","","","","","","","","","","","","","","","","","","","","","","",""
"","do_trial","214","910928","0.0-117.0-0.0","""event"",""trial"",""time""
""fullscreenenter"",""0"",""2983""
","
","
","""event"",""trial"",""time""
""fullscreenenter"",""0"",""2983""
","
","362.30000019073486","","","","","","","","49","0,0,1","1","city","61","probe-184","0.23786647983634815","0.5486859558498494","0.39936332415280695","0","","","","","","","",""
"","html-keyboard-response","215","911934","0.0-117.0-1.0","""event"",""trial"",""time""
""fullscreenenter"",""0"",""2983""
","
","
","""event"",""trial"",""time""
""fullscreenenter"",""0"",""2983""
","
","null","<p></p>","null","","","","","","","","","","","","","","","","","","","","","","",""
"","do_trial","216","916708","0.0-118.0-0.0","""event"",""trial"",""time""
""fullscreenenter"",""0"",""2983""
","
","
","""event"",""trial"",""time""
""fullscreenenter"",""0"",""2983""
","
","217.80000019073486","","","","","","","","49","1,1,0","1","city","62","probe-72","0.21581690727069355","0.5389073492352149","0.49911618269497626","1","","","","","","","",""
"","html-keyboard-response","217","917713","0.0-118.0-1.0","""event"",""trial"",""time""
""fullscreenenter"",""0"",""2983""
","
","
","""event"",""trial"",""time""
""fullscreenenter"",""0"",""2983""
","
","null","<p></p>","null","","","","","","","","","","","","","","","","","","","","","","",""
"","do_trial","218","922785","0.0-119.0-0.0","""event"",""trial"",""time""
""fullscreenenter"",""0"",""2983""
","
","
","""event"",""trial"",""time""
""fullscreenenter"",""0"",""2983""
","
","520.7000002861023","","","","","","","","49","0,1,0","1","city","63","probe-207","0.19803797611555726","0.6767373022991509","0.33129602074731473","0","","","","","","","",""
"","html-keyboard-response","219","923791","0.0-119.0-1.0","""event"",""trial"",""time""
""fullscreenenter"",""0"",""2983""
","
","
","""event"",""trial"",""time""
""fullscreenenter"",""0"",""2983""
","
","null","<p></p>","null","","","","","","","","","","","","","","","","","","","","","","",""
"","do_trial","220","928770","0.0-120.0-0.0","""event"",""trial"",""time""
""fullscreenenter"",""0"",""2983""
","
","
","""event"",""trial"",""time""
""fullscreenenter"",""0"",""2983""
","
","423.5","","","","","","","","49","1,1,1","1","city","64","probe-01","0.2326712868014771","0.5985594215883236","0.431675469278032","1","","","","","","","",""
"","html-keyboard-response","221","929775","0.0-120.0-1.0","""event"",""trial"",""time""
""fullscreenenter"",""0"",""2983""
","
","
","""event"",""trial"",""time""
""fullscreenenter"",""0"",""2983""
","
","null","<p></p>","null","","","","","","","","","","","","","","","","","","","","","","",""
"","do_trial","222","934807","0.0-121.0-0.0","""event"",""trial"",""time""
""fullscreenenter"",""0"",""2983""
","
","
","""event"",""trial"",""time""
""fullscreenenter"",""0"",""2983""
","
","476.7999997138977","","","","","","","","49","0,1,0","1","city","65","probe-168","0.16328381958973498","0.6557777653630814","0.36992590500603567","0","","","","","","","",""
"","html-keyboard-response","223","935812","0.0-121.0-1.0","""event"",""trial"",""time""
""fullscreenenter"",""0"",""2983""
","
","
","""event"",""trial"",""time""
""fullscreenenter"",""0"",""2983""
","
","null","<p></p>","null","","","","","","","","","","","","","","","","","","","","","","",""
"","do_trial","224","941452","0.0-122.0-0.0","""event"",""trial"",""time""
""fullscreenenter"",""0"",""2983""
","
","
","""event"",""trial"",""time""
""fullscreenenter"",""0"",""2983""
","
","1087.1000003814697","","","","","","","","49","0,1,1","1","city","66","probe-190","0.057221553845562795","0.6719346804129276","0.4797485477368309","0","","","","","","","",""
"","html-keyboard-response","225","942458","0.0-122.0-1.0","""event"",""trial"",""time""
""fullscreenenter"",""0"",""2983""
","
","
","""event"",""trial"",""time""
""fullscreenenter"",""0"",""2983""
","
","null","<p></p>","null","","","","","","","","","","","","","","","","","","","","","","",""
"","do_trial","226","948319","0.0-123.0-0.0","""event"",""trial"",""time""
""fullscreenenter"",""0"",""2983""
","
","
","""event"",""trial"",""time""
""fullscreenenter"",""0"",""2983""
","
","1311.2000002861023","","","","","","","","49","1,0,0","1","city","67","probe-97","0.1567466138253635","0.661185756234306","0.5146189780403007","1","","","","","","","",""
"","html-keyboard-response","227","949325","0.0-123.0-1.0","""event"",""trial"",""time""
""fullscreenenter"",""0"",""2983""
","
","
","""event"",""trial"",""time""
""fullscreenenter"",""0"",""2983""
","
","null","<p></p>","null","","","","","","","","","","","","","","","","","","","","","","",""
"","do_trial","228","954944","0.0-124.0-0.0","""event"",""trial"",""time""
""fullscreenenter"",""0"",""2983""
","
","
","""event"",""trial"",""time""
""fullscreenenter"",""0"",""2983""
","
","1068.7999997138977","","","","","","","","49","0,0,1","1","city","68","probe-200","0.15217438592203675","0.7238532166737242","0.4196635094660995","0","","","","","","","",""
"","html-keyboard-response","229","955949","0.0-124.0-1.0","""event"",""trial"",""time""
""fullscreenenter"",""0"",""2983""
","
","
","""event"",""trial"",""time""
""fullscreenenter"",""0"",""2983""
","
","null","<p></p>","null","","","","","","","","","","","","","","","","","","","","","","",""
"","do_trial","230","961488","0.0-125.0-0.0","""event"",""trial"",""time""
""fullscreenenter"",""0"",""2983""
","
","
","""event"",""trial"",""time""
""fullscreenenter"",""0"",""2983""
","
","988.3000001907349","","","","","","","","49","0,1,1","1","city","69","probe-29","0.10020357860443309","0.7273523961497689","0.37009759357608074","0","","","","","","","",""
"","html-keyboard-response","231","962492","0.0-125.0-1.0","""event"",""trial"",""time""
""fullscreenenter"",""0"",""2983""
","
","
","""event"",""trial"",""time""
""fullscreenenter"",""0"",""2983""
","
","null","<p></p>","null","","","","","","","","","","","","","","","","","","","","","","",""
"","do_bye","232","963999","0.0-126.0-0.0","""event"",""trial"",""time""
""fullscreenenter"",""0"",""2983""
","
","
","""event"",""trial"",""time""
""fullscreenenter"",""0"",""2983""
","
","null","","","","","","","","null","","","","","","","","","","","","","","","","",""
"","break","233","971059","0.0-126.0-1.0","""event"",""trial"",""time""
""fullscreenenter"",""0"",""2983""
","
","
","""event"",""trial"",""time""
""fullscreenenter"",""0"",""2983""
","
","7058.39999961853","<div class='center'><p>Time to take a quick break! You have 2 minutes to rest, but you can move on sooner if you'd like.</p><p> Press the <b>space bar</b> to continue.</p></div>","32","","","","","","","","","","","","","","","","","","","","","","",""
"","do_travel","234","980066","0.0-127.0-0.0","""event"",""trial"",""time""
""fullscreenenter"",""0"",""2983""
","
","
","""event"",""trial"",""time""
""fullscreenenter"",""0"",""2983""
","
","null","","","","","","","","null","","","","","","","","","","","","","","","","",""
"","do_welcome","235","984074","0.0-127.0-1.0","""event"",""trial"",""time""
""fullscreenenter"",""0"",""2983""
","
","
","""event"",""trial"",""time""
""fullscreenenter"",""0"",""2983""
","
","null","","","","","","","","null","","","","","","","","","","","","","","","","",""
"","do_trial","236","990028","0.0-128.0-0.0","""event"",""trial"",""time""
""fullscreenenter"",""0"",""2983""
","
","
","""event"",""trial"",""time""
""fullscreenenter"",""0"",""2983""
","
","1401.7000002861023","","","","","","","","50","0,1,0","2","highway","70","probe-09","0.06105953353360072","1","0.30231489797060457","1","","","","","","","",""
"","html-keyboard-response","237","991033","0.0-128.0-1.0","""event"",""trial"",""time""
""fullscreenenter"",""0"",""2983""
","
","
","""event"",""trial"",""time""
""fullscreenenter"",""0"",""2983""
","
","null","<p></p>","null","","","","","","","","","","","","","","","","","","","","","","",""
"","do_trial","238","996002","0.0-129.0-0.0","""event"",""trial"",""time""
""fullscreenenter"",""0"",""2983""
","
","
","""event"",""trial"",""time""
""fullscreenenter"",""0"",""2983""
","
","402.80000019073486","","","","","","","","50","0,1,1","2","highway","71","probe-98","0.11404706931991022","1","0.3217584494506685","1","","","","","","","",""
"","html-keyboard-response","239","997009","0.0-129.0-1.0","""event"",""trial"",""time""
""fullscreenenter"",""0"",""2983""
","
","
","""event"",""trial"",""time""
""fullscreenenter"",""0"",""2983""
","
","null","<p></p>","null","","","","","","","","","","","","","","","","","","","","","","",""
"","do_trial","240","1002045","0.0-130.0-0.0","""event"",""trial"",""time""
""fullscreenenter"",""0"",""2983""
","
","
","""event"",""trial"",""time""
""fullscreenenter"",""0"",""2983""
","
","485.19999980926514","","","","","","","","50","0,1,0","2","highway","72","probe-22","0.08108453240612969","0.771414281786704","0.25898651455890176","1","","","","","","","",""
"","html-keyboard-response","241","1003048","0.0-130.0-1.0","""event"",""trial"",""time""
""fullscreenenter"",""0"",""2983""
","
","
","""event"",""trial"",""time""
""fullscreenenter"",""0"",""2983""
","
","null","<p></p>","null","","","","","","","","","","","","","","","","","","","","","","",""
"","do_trial","242","1007961","0.0-131.0-0.0","""event"",""trial"",""time""
""fullscreenenter"",""0"",""2983""
","
","
","""event"",""trial"",""time""
""fullscreenenter"",""0"",""2983""
","
","361.7000002861023","","","","","","","","50","0,1,0","2","highway","73","probe-104","0.21331770644788872","0.6879882717605394","0.30020288513250676","1","","","","","","","",""
"","html-keyboard-response","243","1008967","0.0-131.0-1.0","""event"",""trial"",""time""
""fullscreenenter"",""0"",""2983""
","
","
","""event"",""trial"",""time""
""fullscreenenter"",""0"",""2983""
","
","null","<p></p>","null","","","","","","","","","","","","","","","","","","","","","","",""
"","do_trial","244","1014345","0.0-132.0-0.0","""event"",""trial"",""time""
""fullscreenenter"",""0"",""2983""
","
","
","""event"",""trial"",""time""
""fullscreenenter"",""0"",""2983""
","
","822.6000003814697","","","","","","","","50","1,1,0","2","highway","74","probe-53","0.31017089850515017","0.5514286104369032","0.32747731072141184","1","","","","","","","",""
"","html-keyboard-response","245","1015348","0.0-132.0-1.0","""event"",""trial"",""time""
""fullscreenenter"",""0"",""2983""
","
","
","""event"",""trial"",""time""
""fullscreenenter"",""0"",""2983""
","
","null","<p></p>","null","","","","","","","","","","","","","","","","","","","","","","",""
"","do_trial","246","1020202","0.0-133.0-0.0","""event"",""trial"",""time""
""fullscreenenter"",""0"",""2983""
","
","
","""event"",""trial"",""time""
""fullscreenenter"",""0"",""2983""
","
","296.80000019073486","","","","","","","","50","0,0,1","2","highway","75","probe-139","0.39137087138468274","0.5390387408984918","0.25767094618914443","0","","","","","","","",""
"","html-keyboard-response","247","1021208","0.0-133.0-1.0","""event"",""trial"",""time""
""fullscreenenter"",""0"",""2983""
","
","
","""event"",""trial"",""time""
""fullscreenenter"",""0"",""2983""
","
","null","<p></p>","null","","","","","","","","","","","","","","","","","","","","","","",""
"","do_trial","248","1026195","0.0-134.0-0.0","""event"",""trial"",""time""
""fullscreenenter"",""0"",""2983""
","
","
","""event"",""trial"",""time""
""fullscreenenter"",""0"",""2983""
","
","434.19999980926514","","","","","","","","50","0,1,0","2","highway","76","probe-35","0.2526986028732942","0.6867643923720462","0.14508142506959812","1","","","","","","","",""
"","html-keyboard-response","249","1027200","0.0-134.0-1.0","""event"",""trial"",""time""
""fullscreenenter"",""0"",""2983""
","
","
","""event"",""trial"",""time""
""fullscreenenter"",""0"",""2983""
","
","null","<p></p>","null","","","","","","","","","","","","","","","","","","","","","","",""
"","do_trial","250","1032420","0.0-135.0-0.0","""event"",""trial"",""time""
""fullscreenenter"",""0"",""2983""
","
","
","""event"",""trial"",""time""
""fullscreenenter"",""0"",""2983""
","
","663.9000000953674","","","","","","","","50","0,1,1","2","highway","77","probe-94","0.1888695668730359","0.7096236040645656","0.3948906106057234","1","","","","","","","",""
"","html-keyboard-response","251","1033425","0.0-135.0-1.0","""event"",""trial"",""time""
""fullscreenenter"",""0"",""2983""
","
","
","""event"",""trial"",""time""
""fullscreenenter"",""0"",""2983""
","
","null","<p></p>","null","","","","","","","","","","","","","","","","","","","","","","",""
"","do_trial","252","1039301","0.0-136.0-0.0","""event"",""trial"",""time""
""fullscreenenter"",""0"",""2983""
","
","
","""event"",""trial"",""time""
""fullscreenenter"",""0"",""2983""
","
","1324.0999999046326","","","","","","","","50","0,1,0","2","highway","78","probe-167","0.11202546340368974","0.7575562708702757","0.22334310608792327","1","","","","","","","",""
"","html-keyboard-response","253","1040306","0.0-136.0-1.0","""event"",""trial"",""time""
""fullscreenenter"",""0"",""2983""
","
","
","""event"",""trial"",""time""
""fullscreenenter"",""0"",""2983""
","
","null","<p></p>","null","","","","","","","","","","","","","","","","","","","","","","",""
"","do_trial","254","1045373","0.0-137.0-0.0","""event"",""trial"",""time""
""fullscreenenter"",""0"",""2983""
","
","
","""event"",""trial"",""time""
""fullscreenenter"",""0"",""2983""
","
","515","","","","","","","","50","0,0,0","2","highway","79","probe-209","0.10819008661623049","0.7190151017686701","0.10579843064107854","0","","","","","","","",""
"","html-keyboard-response","255","1046375","0.0-137.0-1.0","""event"",""trial"",""time""
""fullscreenenter"",""0"",""2983""
","
","
","""event"",""trial"",""time""
""fullscreenenter"",""0"",""2983""
","
","null","<p></p>","null","","","","","","","","","","","","","","","","","","","","","","",""
"","do_trial","256","1051595","0.0-138.0-0.0","""event"",""trial"",""time""
""fullscreenenter"",""0"",""2983""
","
","
","""event"",""trial"",""time""
""fullscreenenter"",""0"",""2983""
","
","666.8000001907349","","","","","","","","50","1,1,0","2","highway","80","probe-185","0.1448491520957043","0.6492547825618271","0.1756543945887745","1","","","","","","","",""
"","html-keyboard-response","257","1052600","0.0-138.0-1.0","""event"",""trial"",""time""
""fullscreenenter"",""0"",""2983""
","
","
","""event"",""trial"",""time""
""fullscreenenter"",""0"",""2983""
","
","null","<p></p>","null","","","","","","","","","","","","","","","","","","","","","","",""
"","do_trial","258","1057493","0.0-139.0-0.0","""event"",""trial"",""time""
""fullscreenenter"",""0"",""2983""
","
","
","""event"",""trial"",""time""
""fullscreenenter"",""0"",""2983""
","
","338.5","","","","","","","","50","0,1,0","2","highway","81","probe-89","0.08496901054116238","0.5423461554464722","0.26750014597650185","1","","","","","","","",""
"","html-keyboard-response","259","1058498","0.0-139.0-1.0","""event"",""trial"",""time""
""fullscreenenter"",""0"",""2983""
","
","
","""event"",""trial"",""time""
""fullscreenenter"",""0"",""2983""
","
","null","<p></p>","null","","","","","","","","","","","","","","","","","","","","","","",""
"","do_trial","260","1063392","0.0-140.0-0.0","""event"",""trial"",""time""
""fullscreenenter"",""0"",""2983""
","
","
","""event"",""trial"",""time""
""fullscreenenter"",""0"",""2983""
","
","336.09999990463257","","","","","","","","50","0,0,1","2","highway","82","probe-85","0.24674179965274473","0.36980699398830785","0.29208427927331776","0","","","","","","","",""
"","html-keyboard-response","261","1064394","0.0-140.0-1.0","""event"",""trial"",""time""
""fullscreenenter"",""0"",""2983""
","
","
","""event"",""trial"",""time""
