"success","trial_type","trial_index","time_elapsed","internal_node_id","interactions","blur_events","focus_events","fullscreenenter_events","fullscreenexit_events","rt","stimulus","key_press","subject_id","participant_id","age","gender","prompt","response","choice_outcomes","context_n","context_img_id","trial_n","probe_img_id","pR_red","pR_white","pR_black","outcome","contextArray_ind","validImageProbes","invalidImageProbes","pRew_Red","pRew_White","pRew_Black","availableForMemProbe","choice_blocks"
"true","fullscreen","0","7843","0.0-0.0","""event"",""trial"",""time""
""fullscreenenter"",""0"",""6871""
","
","
","""event"",""trial"",""time""
""fullscreenenter"",""0"",""6871""
","
","","","","","","","","","","","","","","","","","","","","","","","","","",""
"","pavlovia","1","7853","0.0-1.0","""event"",""trial"",""time""
""fullscreenenter"",""0"",""6871""
","
","
","""event"",""trial"",""time""
""fullscreenenter"",""0"",""6871""
","
","","","","","","","","","","","","","","","","","","","","","","","","","",""
"","instruc1","2","52996","0.0-2.0","""event"",""trial"",""time""
""fullscreenenter"",""0"",""6871""
","
","
","""event"",""trial"",""time""
""fullscreenenter"",""0"",""6871""
","
","null","run_exp/static/audio/clip_1_welcome.m4a","null","914","139","12","Female","<div class='center'><p>Welcome! This is the first part of the study. It will last ~30 minutes. In part 1 and part 2 of the study, you are the head captain of a pirate ship traveling around the world to different islands. You will play a few different games throughout these two parts. Here is an overview of them:</p><br><p>Part 1 (today)</p><p>1. Instructions, practice game, and quiz</p><p>2. Pick a pirate game on 6 different islands</p><br><p>Part 2 (tomorrow)</p><p>3. Pick a pirate game and memory game</p><p>4. Where did you see this ship? </p></div>","","","","","","","","","","","","","","","","","",""
"","html-keyboard-response","3","68065","0.0-3.0","""event"",""trial"",""time""
""fullscreenenter"",""0"",""6871""
","
","
","""event"",""trial"",""time""
""fullscreenenter"",""0"",""6871""
","
","15066.900000095367","<div class='center'><p>Welcome! This is the first part of the study. It will last ~30 minutes. In part 1 and part 2 of the study, you are the head captain of a pirate ship traveling around the world to different islands. You will play a few different games throughout these two parts. Here is an overview of them:</p><br><p>Part 1 (today)</p><p>1. Instructions, practice game, and quiz</p><p>2. Pick a pirate game on 6 different islands</p><br><p>Part 2 (tomorrow)</p><p>3. Pick a pirate game and memory game</p><p>4. Where did you see this ship? </p><p><b>[Press the space bar to continue]</b></p></div>","32","","","","","","","","","","","","","","","","","","","","","","",""
"","instruc2","4","73408","0.0-4.0","""event"",""trial"",""time""
""fullscreenenter"",""0"",""6871""
","
","
","""event"",""trial"",""time""
""fullscreenenter"",""0"",""6871""
","
","null","run_exp/static/audio/clip_2_different_places.m4a","null","","","","","<div class='center'><p>Today, you’ll visit these 6 islands on your journey. You'll be able to see these islands from your ship.</p><p><img src='run_exp/static/images/contexts/all_contexts.png' height='500'></p></div>","","","","","","","","","","","","","","","","","",""
"","html-keyboard-response","5","79256","0.0-5.0","""event"",""trial"",""time""
""fullscreenenter"",""0"",""6871""
","
","
","""event"",""trial"",""time""
""fullscreenenter"",""0"",""6871""
","
","5834.900000095367","<div class='center'><p>Today, you’ll visit these 6 islands on your journey. You'll be able to see these islands from your ship.</p><p><img src='run_exp/static/images/contexts/all_contexts.png' height='500'></p><p><b>[Press the space bar to continue]</b></p></div>","32","","","","","","","","","","","","","","","","","","","","","","",""
"","instruc3","6","88959","0.0-6.0","""event"",""trial"",""time""
""fullscreenenter"",""0"",""6871""
","
","
","""event"",""trial"",""time""
""fullscreenenter"",""0"",""6871""
","
","null","run_exp/static/audio/clip_3_goal_of_game_1.m4a","null","","","","","<div class='center'><p> The pirates on your ship will rob other ships as they leave the island.</p> These ships have just sold their goods to the islanders, so they will be filled with lots and lots of gold.</p><p><img src='run_exp/static/images/tutorial/ship_center.png' height='400'></p></div>","","","","","","","","","","","","","","","","","",""
"","html-keyboard-response","7","92256","0.0-7.0","""event"",""trial"",""time""
""fullscreenenter"",""0"",""6871""
","
","
","""event"",""trial"",""time""
""fullscreenenter"",""0"",""6871""
","
","3286.800000190735","<div class='center'><p> The pirates on your ship will rob other ships as they leave the island.</p> These ships have just sold their goods to the islanders, so they will be filled with lots and lots of gold.</p><p><img src='run_exp/static/images/tutorial/ship_center.png' height='400'></p><p><b>[Press the space bar to continue]</b></p></div>","32","","","","","","","","","","","","","","","","","","","","","","",""
"","instruc4","8","120262","0.0-8.0","""event"",""trial"",""time""
""fullscreenenter"",""0"",""6871""
","
","
","""event"",""trial"",""time""
""fullscreenenter"",""0"",""6871""
","
","null","run_exp/static/audio/clip_4_goal_of_game_2.m4a","null","","","","","<div class='center'><p>As the head captain, you do not have to rob any ships yourself. Another pirate will be doing the robbing for you. First, you will choose a pirate to rob the next ship.</p><p><img src='run_exp/static/images/tutorial/pirates_all_crop.png' height='200'></p><p>Then, you'll see if the pirate successfully robbed the ship of their gold. If they were successful, then you'll get a stack of gold coins like this:</p><p><img src='run_exp/static/images/tutorial/reward.png' height='150'></p><p> If they were <b>not</b> successful, then you'll get no gold coins, and you'll see a big red x like this: </p><p><img src='run_exp/static/images/tutorial/reward_no.png' height='150'></p><p> How much bonus money you make is based on how many gold coins you collect.</p><div>","","","","","","","","","","","","","","","","","",""
"","html-keyboard-response","9","122963","0.0-9.0","""event"",""trial"",""time""
""fullscreenenter"",""0"",""6871""
","
","
","""event"",""trial"",""time""
""fullscreenenter"",""0"",""6871""
","
","2688.300000190735","<div class='center'><p>As the head captain, you do not have to rob any ships yourself. Another pirate will be doing the robbing for you. First, you will choose a pirate to rob the next ship.</p><p><img src='run_exp/static/images/tutorial/pirates_all_crop.png' height='200'></p><p>Then, you'll see if the pirate successfully robbed the ship of their gold. If they were successful, then you'll get a stack of gold coins like this:</p><p><img src='run_exp/static/images/tutorial/reward.png' height='150'></p><p> If they were <b>not</b> successful, then you'll get no gold coins, and you'll see a big red x like this: </p><p><img src='run_exp/static/images/tutorial/reward_no.png' height='150'></p><p> How much bonus money you make is based on how many gold coins you collect.</p<p><b>[Press the space bar to continue]</b></p></div>","32","","","","","","","","","","","","","","","","","","","","","","",""
"","instruc5","10","144599","0.0-10.0","""event"",""trial"",""time""
""fullscreenenter"",""0"",""6871""
","
","
","""event"",""trial"",""time""
""fullscreenenter"",""0"",""6871""
","
","21633.300000190735","run_exp/static/audio/clip_5_probabilistic.m4a","49","","","","","<div class='center'><p>Even the most skilled pirate can not rob EVERY ship.</p><p> Some ships will have very strong protections against pirate attacks.</p><p> Blue beard, here, is very, very good at robbing ships, but he won't be successful every time he tries to rob one.</p><p> You can press the <b>‘1’</b> key on the keyboard to choose him.</p><p> Try choosing him 10 times to see how often he succeeds at robbing a ship. </p><p><img src='run_exp/static/images/tutorial/blue.png' height='500'></p></div>","","","","","","","","","","","","","","","","","",""
"","html-keyboard-response","11","146103","0.0-11.0","""event"",""trial"",""time""
""fullscreenenter"",""0"",""6871""
","
","
","""event"",""trial"",""time""
""fullscreenenter"",""0"",""6871""
","
","null","<div class='center'><p><img src='run_exp/static/images/tutorial/blue_win.png' height='500'></p></div>","null","","","","","","","","","","","","","","","","","","","","","","",""
"","html-keyboard-response","12","147098","0.0-12.0","""event"",""trial"",""time""
""fullscreenenter"",""0"",""6871""
","
","
","""event"",""trial"",""time""
""fullscreenenter"",""0"",""6871""
","
","993.5","<div class='center'><img src='run_exp/static/images/tutorial/blue.png' height='500'></p></div>","49","","","","","","","","","","","","","","","","","","","","","","",""
"","html-keyboard-response","13","148602","0.0-13.0","""event"",""trial"",""time""
""fullscreenenter"",""0"",""6871""
","
","
","""event"",""trial"",""time""
""fullscreenenter"",""0"",""6871""
","
","null","<div class='center'><p><img src='run_exp/static/images/tutorial/blue_win.png' height='500'></p></div>","null","","","","","","","","","","","","","","","","","","","","","","",""
"","html-keyboard-response","14","149006","0.0-14.0","""event"",""trial"",""time""
""fullscreenenter"",""0"",""6871""
","
","
","""event"",""trial"",""time""
""fullscreenenter"",""0"",""6871""
","
","402.59999990463257","<div class='center'><img src='run_exp/static/images/tutorial/blue.png' height='500'></p></div>","49","","","","","","","","","","","","","","","","","","","","","","",""
"","html-keyboard-response","15","150509","0.0-15.0","""event"",""trial"",""time""
""fullscreenenter"",""0"",""6871""
","
","
","""event"",""trial"",""time""
""fullscreenenter"",""0"",""6871""
","
","null","<div class='center'><p><img src='run_exp/static/images/tutorial/blue_win.png' height='500'></p></div>","null","","","","","","","","","","","","","","","","","","","","","","",""
"","html-keyboard-response","16","150872","0.0-16.0","""event"",""trial"",""time""
""fullscreenenter"",""0"",""6871""
","
","
","""event"",""trial"",""time""
""fullscreenenter"",""0"",""6871""
","
","362.5","<div class='center'><img src='run_exp/static/images/tutorial/blue.png' height='500'></p></div>","49","","","","","","","","","","","","","","","","","","","","","","",""
"","html-keyboard-response","17","152378","0.0-17.0","""event"",""trial"",""time""
""fullscreenenter"",""0"",""6871""
","
","
","""event"",""trial"",""time""
""fullscreenenter"",""0"",""6871""
","
","null","<div class='center'><p><img src='run_exp/static/images/tutorial/blue_no_win.png' height='500'></p></div>","null","","","","","","","","","","","","","","","","","","","","","","",""
"","html-keyboard-response","18","152739","0.0-18.0","""event"",""trial"",""time""
""fullscreenenter"",""0"",""6871""
","
","
","""event"",""trial"",""time""
""fullscreenenter"",""0"",""6871""
","
","359.90000009536743","<div class='center'><img src='run_exp/static/images/tutorial/blue.png' height='500'></p></div>","49","","","","","","","","","","","","","","","","","","","","","","",""
"","html-keyboard-response","19","154244","0.0-19.0","""event"",""trial"",""time""
""fullscreenenter"",""0"",""6871""
","
","
","""event"",""trial"",""time""
""fullscreenenter"",""0"",""6871""
","
","null","<div class='center'><p><img src='run_exp/static/images/tutorial/blue_win.png' height='500'></p></div>","null","","","","","","","","","","","","","","","","","","","","","","",""
"","html-keyboard-response","20","154608","0.0-20.0","""event"",""trial"",""time""
""fullscreenenter"",""0"",""6871""
","
","
","""event"",""trial"",""time""
""fullscreenenter"",""0"",""6871""
","
","363.59999990463257","<div class='center'><img src='run_exp/static/images/tutorial/blue.png' height='500'></p></div>","49","","","","","","","","","","","","","","","","","","","","","","",""
"","html-keyboard-response","21","156116","0.0-21.0","""event"",""trial"",""time""
""fullscreenenter"",""0"",""6871""
","
","
","""event"",""trial"",""time""
""fullscreenenter"",""0"",""6871""
","
","null","<div class='center'><p><img src='run_exp/static/images/tutorial/blue_win.png' height='500'></p></div>","null","","","","","","","","","","","","","","","","","","","","","","",""
"","html-keyboard-response","22","156458","0.0-22.0","""event"",""trial"",""time""
""fullscreenenter"",""0"",""6871""
","
","
","""event"",""trial"",""time""
""fullscreenenter"",""0"",""6871""
","
","333.69999980926514","<div class='center'><img src='run_exp/static/images/tutorial/blue.png' height='500'></p></div>","49","","","","","","","","","","","","","","","","","","","","","","",""
"","html-keyboard-response","23","157960","0.0-23.0","""event"",""trial"",""time""
""fullscreenenter"",""0"",""6871""
","
","
","""event"",""trial"",""time""
""fullscreenenter"",""0"",""6871""
","
","null","<div class='center'><p><img src='run_exp/static/images/tutorial/blue_win.png' height='500'></p></div>","null","","","","","","","","","","","","","","","","","","","","","","",""
"","html-keyboard-response","24","158278","0.0-24.0","""event"",""trial"",""time""
""fullscreenenter"",""0"",""6871""
","
","
","""event"",""trial"",""time""
""fullscreenenter"",""0"",""6871""
","
","315.90000009536743","<div class='center'><img src='run_exp/static/images/tutorial/blue.png' height='500'></p></div>","49","","","","","","","","","","","","","","","","","","","","","","",""
"","html-keyboard-response","25","159788","0.0-25.0","""event"",""trial"",""time""
""fullscreenenter"",""0"",""6871""
","
","
","""event"",""trial"",""time""
""fullscreenenter"",""0"",""6871""
","
","null","<div class='center'><p><img src='run_exp/static/images/tutorial/blue_no_win.png' height='500'></p></div>","null","","","","","","","","","","","","","","","","","","","","","","",""
"","html-keyboard-response","26","160201","0.0-26.0","""event"",""trial"",""time""
""fullscreenenter"",""0"",""6871""
","
","
","""event"",""trial"",""time""
""fullscreenenter"",""0"",""6871""
","
","409.90000009536743","<div class='center'><img src='run_exp/static/images/tutorial/blue.png' height='500'></p></div>","49","","","","","","","","","","","","","","","","","","","","","","",""
"","html-keyboard-response","27","161706","0.0-27.0","""event"",""trial"",""time""
""fullscreenenter"",""0"",""6871""
","
","
","""event"",""trial"",""time""
""fullscreenenter"",""0"",""6871""
","
","null","<div class='center'><p><img src='run_exp/static/images/tutorial/blue_win.png' height='500'></p></div>","null","","","","","","","","","","","","","","","","","","","","","","",""
"","html-keyboard-response","28","162039","0.0-28.0","""event"",""trial"",""time""
""fullscreenenter"",""0"",""6871""
","
","
","""event"",""trial"",""time""
""fullscreenenter"",""0"",""6871""
","
","327.5","<div class='center'><img src='run_exp/static/images/tutorial/blue.png' height='500'></p></div>","49","","","","","","","","","","","","","","","","","","","","","","",""
"","html-keyboard-response","29","163543","0.0-29.0","""event"",""trial"",""time""
""fullscreenenter"",""0"",""6871""
","
","
","""event"",""trial"",""time""
""fullscreenenter"",""0"",""6871""
","
","null","<div class='center'><p><img src='run_exp/static/images/tutorial/blue_win.png' height='500'></p></div>","null","","","","","","","","","","","","","","","","","","","","","","",""
"","instruc6","30","168980","0.0-30.0","""event"",""trial"",""time""
""fullscreenenter"",""0"",""6871""
","
","
","""event"",""trial"",""time""
""fullscreenenter"",""0"",""6871""
","
","null","run_exp/static/audio/clip_6_blue_beard_outcome.m4a","null","","","","","<div class='center'><p> See, he succeeded in robbing the ships most of the time but not every time. </p></div>","","","","","","","","","","","","","","","","","",""
"","html-keyboard-response","31","170681","0.0-31.0","""event"",""trial"",""time""
""fullscreenenter"",""0"",""6871""
","
","
","""event"",""trial"",""time""
""fullscreenenter"",""0"",""6871""
","
","1698.6999998092651","<div class='center'><p> See, he succeeded in robbing the ships most of the time but not every time. </p><p><b>[Press the space bar to continue]</b></p></div>","32","","","","","","","","","","","","","","","","","","","","","","",""
"","audio-keyboard-response","32","187655","0.0-32.0","""event"",""trial"",""time""
""fullscreenenter"",""0"",""6871""
","
","
","""event"",""trial"",""time""
""fullscreenenter"",""0"",""6871""
","
","16969.599999904633","run_exp/static/audio/clip_7_pick_pirate.m4a","49","","","","","","","","","","","","","","","","","","","","","","",""
"","audio-keyboard-response","33","191956","0.0-33.0-0.0","""event"",""trial"",""time""
""fullscreenenter"",""0"",""6871""
","
","
","""event"",""trial"",""time""
""fullscreenenter"",""0"",""6871""
","
","4298","run_exp/static/audio/clip_8_chosen_pirate_win.m4a","32","","","","","","","","","","","","","","","","","","","","","","",""
"","audio-keyboard-response","34","194914","0.0-33.0-1.0","""event"",""trial"",""time""
""fullscreenenter"",""0"",""6871""
","
","
","""event"",""trial"",""time""
""fullscreenenter"",""0"",""6871""
","
","2953.4000000953674","run_exp/static/audio/clip_9_pick_a_pirate_again.m4a","49","","","","","","","","","","","","","","","","","","","","","","",""
"","audio-keyboard-response","35","197954","0.0-34.0-0.0","""event"",""trial"",""time""
""fullscreenenter"",""0"",""6871""
","
","
","""event"",""trial"",""time""
""fullscreenenter"",""0"",""6871""
","
","3038.0999999046326","run_exp/static/audio/clip_10_chosen_pirate_loss.m4a","32","","","","","","","","","","","","","","","","","","","","","","",""
"","instruc9","36","203451","0.0-35.0-0.0","""event"",""trial"",""time""
""fullscreenenter"",""0"",""6871""
","
","
","""event"",""trial"",""time""
""fullscreenenter"",""0"",""6871""
","
","null","run_exp/static/audio/clip_11_time_out.m4a","null","","","","","<div class='center'><p>If you don’t make your choice fast enough, you’ll have to wait a few seconds before you can make another one. </p><p><img src='run_exp/static/images/miscellaneous/hurry_up.png' height='500'></p></div>","","","","","","","","","","","","","","","","","",""
"","html-keyboard-response","37","204955","0.0-35.0-1.0","""event"",""trial"",""time""
""fullscreenenter"",""0"",""6871""
","
","
","""event"",""trial"",""time""
""fullscreenenter"",""0"",""6871""
","
","1493.8000001907349","<div class='center'><p>If you don’t make your choice fast enough, you’ll have to wait a few seconds before you can make another one. </p><p><img src='run_exp/static/images/miscellaneous/hurry_up.png' height='500'></p><p><b>[Press the space bar to continue]</b></p></div>","32","","","","","","","","","","","","","","","","","","","","","","",""
"","instruc10","38","244054","0.0-35.0-2.0","""event"",""trial"",""time""
""fullscreenenter"",""0"",""6871""
","
","
","""event"",""trial"",""time""
""fullscreenenter"",""0"",""6871""
","
","null","run_exp/static/audio/clip_12_probe.m4a","null","","","","","<div class='center'><p>Once you've chosen a pirate, you’ll be shown the ship they are robbing. You will never rob the same ship twice. Ships can be told apart from one another by the image on them. These are the goods that they sell. See, this ship has a travel mug on it. </p><p> You’ll have to remember which island you saw each ship on. You will win more gold coins and hence more bonus money if you remember correctly! To help you remember, you can imagine a story. For example, here, you could imagine a mug full of water in the desert. Or, as another example, if on the forest island, your pirate robbed a ship with an apple on it, you could imagine an apple falling from a tree in the forest. </p><p><img src='run_exp/static/images/tutorial/example_probe.png' height='500'></p></div>","","","","","","","","","","","","","","","","","",""
"","html-keyboard-response","39","245940","0.0-35.0-3.0","""event"",""trial"",""time""
""fullscreenenter"",""0"",""6871""
","
","
","""event"",""trial"",""time""
""fullscreenenter"",""0"",""6871""
","
","1864","<div class='center'><p>Once you've chosen a pirate, you’ll be shown the ship they are robbing. You will never rob the same ship twice. Ships can be told apart from one another by the image on them. These are the goods that they sell. See, this ship has a travel mug on it. </p><p> You’ll have to remember which island you saw each ship on. You will win more gold coins and hence more bonus money if you remember correctly! To help you remember, you can imagine a story. For example, here, you could imagine a mug full of water in the desert. Or, as another example, if on the forest island, your pirate robbed a ship with an apple on it, you could imagine an apple falling from a tree in the forest. </p><p><img src='run_exp/static/images/tutorial/example_probe.png' height='500'></p><p><b>[Press the space bar to continue]</b></p></div>","32","","","","","","","","","","","","","","","","","","","","","","",""
"","instruc11","40","262352","0.0-35.0-4.0","""event"",""trial"",""time""
""fullscreenenter"",""0"",""6871""
","
","
","""event"",""trial"",""time""
""fullscreenenter"",""0"",""6871""
","
","null","run_exp/static/audio/clip_13_changepoint.m4a","null","","","","","<div class='center'><p>How successful a pirate is at robbing ships will depend on the island you’re on.</p><p> A pirate may have visited this island many times before and gained a lot of practice robbing ships there.</p><p>So, they’re more likely to be successful than a pirate who has never visited the island before.</p></div>","","","","","","","","","","","","","","","","","",""
"","html-keyboard-response","41","263163","0.0-35.0-5.0","""event"",""trial"",""time""
""fullscreenenter"",""0"",""6871""
","
","
","""event"",""trial"",""time""
""fullscreenenter"",""0"",""6871""
","
","797.5","<div class='center'><p>How successful a pirate is at robbing ships will depend on the island you’re on.</p><p> A pirate may have visited this island many times before and gained a lot of practice robbing ships there.</p><p>So, they’re more likely to be successful than a pirate who has never visited the island before.</p><p><b>[Press the space bar to continue]</b></p></div>","32","","","","","","","","","","","","","","","","","","","","","","",""
"","instruc12","42","304255","0.0-35.0-6.0","""event"",""trial"",""time""
""fullscreenenter"",""0"",""6871""
","
","
","""event"",""trial"",""time""
""fullscreenenter"",""0"",""6871""
","
","null","run_exp/static/audio/clip_14_drift.m4a","null","","","","","<div class='center'><p>How successful a pirate is at robbing ships can also change over the time spent on the island. </p><p> Ships may hear from islanders about the pirates coming and will improve their protections against the attack. This may make it harder to rob them.</p><p> Ships may also become lazy and weaken the strength of their protections. This may make it easier to rob them.</p><br><p>Things are always changing on the high seas! So, try your best to pay attention!</p><p><img src='run_exp/static/images/tutorial/contingency.png' height='500'></p></div>","","","","","","","","","","","","","","","","","",""
"","html-keyboard-response","43","387913","0.0-35.0-7.0","""event"",""trial"",""time""
""fullscreenenter"",""0"",""6871""
","
","
","""event"",""trial"",""time""
""fullscreenenter"",""0"",""6871""
","
","83650.30000019073","<div class='center'><p>How successful a pirate is at robbing ships can also change over the time spent on the island. </p><p> Ships may hear from islanders about the pirates coming and will improve their protections against the attack. This may make it harder to rob them.</p><p> Ships may also become lazy and weaken the strength of their protections. This may make it easier to rob them.</p><br><p>Things are always changing on the high seas! So, try your best to pay attention!</p><p><img src='run_exp/static/images/tutorial/contingency.png' height='500'></p><p><b>[Press the space bar to continue]</b></p></div>","32","","","","","","","","","","","","","","","","","","","","","","",""
"","instruc13","44","423150","0.0-35.0-8.0","""event"",""trial"",""time""
""fullscreenenter"",""0"",""6871""
","
","
","""event"",""trial"",""time""
""fullscreenenter"",""0"",""6871""
","
","null","run_exp/static/audio/clip_15_summary.m4a","null","","","","","<div class='center'><p>Let's go over the instructions quickly again. You have two important things to do: </p><b><p> 1. Pick the pirate who is the best at robbing ships on the current island. </p></b><b><p> 2. Remember on which island a ship was robbed.</p> </b><p>The amount of bonus money you can win depends on both.</p><p><br><p>Let’s try a practice game. The game will start by showing you the pirates. First, pick a pirate using the <b> 1, 2, 3 </b> keys on your keyboard. When you are shown a ship, try to remember which island you’re on by making up a story.</p><p>This is just a practice game, so you’re not playing for money. </p><p> Good luck! This game will be very difficult but try your best!</p></div>","","","","","","","","","","","","","","","","","",""
"","html-keyboard-response","45","424357","0.0-35.0-9.0","""event"",""trial"",""time""
""fullscreenenter"",""0"",""6871""
","
","
","""event"",""trial"",""time""
""fullscreenenter"",""0"",""6871""
","
","1206.0999999046326","<div class='center'><p>Let's go over the instructions quickly again. You have two important things to do: </p><b><p> 1. Pick the pirate who is the best at robbing ships on the current island. </p></b><b><p> 2. Remember on which island a ship was robbed.</p> </b><p>The amount of bonus money you can win depends on both.</p><p><br><p>Let’s try a practice game. The game will start by showing you the pirates. First, pick a pirate using the <b> 1, 2, 3 </b> keys on your keyboard. When you are shown a ship, try to remember which island you’re on by making up a story.</p><p>This is just a practice game, so you’re not playing for money. </p><p> Good luck! This game will be very difficult but try your best!</p><p><b>[Press the space bar to continue]</b></p></div>","32","","","","","","","","","","","","","","","","","","","","","","",""
"","do_welcome","46","428368","0.0-35.0-10.0","""event"",""trial"",""time""
""fullscreenenter"",""0"",""6871""
","
","
","""event"",""trial"",""time""
""fullscreenenter"",""0"",""6871""
","
","null","","","","","","","","null","","","","","","","","","","","","","","","","",""
"","do_trial","47","434383","0.0-35.0-11.0","""event"",""trial"",""time""
""fullscreenenter"",""0"",""6871""
","
","
","""event"",""trial"",""time""
""fullscreenenter"",""0"",""6871""
","
","null","","","","","","","","null","1,0,0","","","","","","","","","","","","","","","",""
"","html-keyboard-response","48","435390","0.0-36.0-0.0","""event"",""trial"",""time""
""fullscreenenter"",""0"",""6871""
","
","
","""event"",""trial"",""time""
""fullscreenenter"",""0"",""6871""
","
","null","<p></p>","null","","","","","","","","","","","","","","","","","","","","","","",""
"","do_trial","49","441767","0.0-36.0-1.0","""event"",""trial"",""time""
""fullscreenenter"",""0"",""6871""
","
","
","""event"",""trial"",""time""
""fullscreenenter"",""0"",""6871""
","
","1868.6999998092651","","","","","","","","51","1,0,0","","","","","","","","","","","","","","","",""
"","html-keyboard-response","50","442773","0.0-37.0-0.0","""event"",""trial"",""time""
""fullscreenenter"",""0"",""6871""
","
","
","""event"",""trial"",""time""
""fullscreenenter"",""0"",""6871""
","
","null","<p></p>","null","","","","","","","","","","","","","","","","","","","","","","",""
"","do_trial","51","448022","0.0-37.0-1.0","""event"",""trial"",""time""
""fullscreenenter"",""0"",""6871""
","
","
","""event"",""trial"",""time""
""fullscreenenter"",""0"",""6871""
","
","735.1999998092651","","","","","","","","50","1,1,0","","","","","","","","","","","","","","","",""
"","html-keyboard-response","52","449029","0.0-38.0-0.0","""event"",""trial"",""time""
""fullscreenenter"",""0"",""6871""
","
","
","""event"",""trial"",""time""
""fullscreenenter"",""0"",""6871""
","
","null","<p></p>","null","","","","","","","","","","","","","","","","","","","","","","",""
"","do_trial","53","454179","0.0-38.0-1.0","""event"",""trial"",""time""
""fullscreenenter"",""0"",""6871""
","
","
","""event"",""trial"",""time""
""fullscreenenter"",""0"",""6871""
","
","635.5","","","","","","","","50","1,0,1","","","","","","","","","","","","","","","",""
"","html-keyboard-response","54","455187","0.0-39.0-0.0","""event"",""trial"",""time""
""fullscreenenter"",""0"",""6871""
","
","
","""event"",""trial"",""time""
""fullscreenenter"",""0"",""6871""
","
","null","<p></p>","null","","","","","","","","","","","","","","","","","","","","","","",""
"","do_trial","55","460262","0.0-39.0-1.0","""event"",""trial"",""time""
""fullscreenenter"",""0"",""6871""
","
","
","""event"",""trial"",""time""
""fullscreenenter"",""0"",""6871""
","
","567.8999996185303","","","","","","","","49","0,1,0","","","","","","","","","","","","","","","",""
"","html-keyboard-response","56","461269","0.0-40.0-0.0","""event"",""trial"",""time""
""fullscreenenter"",""0"",""6871""
","
","
","""event"",""trial"",""time""
""fullscreenenter"",""0"",""6871""
","
","null","<p></p>","null","","","","","","","","","","","","","","","","","","","","","","",""
"","do_trial","57","467048","0.0-40.0-1.0","""event"",""trial"",""time""
""fullscreenenter"",""0"",""6871""
","
","
","""event"",""trial"",""time""
""fullscreenenter"",""0"",""6871""
","
","1265.3999996185303","","","","","","","","50","1,0,0","","","","","","","","","","","","","","","",""
"","do_bye","58","468562","0.0-41.0-0.0","""event"",""trial"",""time""
""fullscreenenter"",""0"",""6871""
","
","
","""event"",""trial"",""time""
""fullscreenenter"",""0"",""6871""
","
","null","","","","","","","","null","","","","","","","","","","","","","","","","",""
"","do_travel","59","477572","0.0-41.0-1.0","""event"",""trial"",""time""
""fullscreenenter"",""0"",""6871""
","
","
","""event"",""trial"",""time""
""fullscreenenter"",""0"",""6871""
","
","null","","","","","","","","null","","","","","","","","","","","","","","","","",""
"","do_welcome","60","481588","0.0-41.0-2.0","""event"",""trial"",""time""
""fullscreenenter"",""0"",""6871""
","
","
","""event"",""trial"",""time""
""fullscreenenter"",""0"",""6871""
","
","null","","","","","","","","null","","","","","","","","","","","","","","","","",""
"","do_trial","61","486969","0.0-41.0-3.0","""event"",""trial"",""time""
""fullscreenenter"",""0"",""6871""
","
","
","""event"",""trial"",""time""
""fullscreenenter"",""0"",""6871""
","
","865.9000000953674","","","","","","","","51","1,0,0","","","","","","","","","","","","","","","",""
"","html-keyboard-response","62","487977","0.0-42.0-0.0","""event"",""trial"",""time""
""fullscreenenter"",""0"",""6871""
","
","
","""event"",""trial"",""time""
""fullscreenenter"",""0"",""6871""
","
","null","<p></p>","null","","","","","","","","","","","","","","","","","","","","","","",""
"","do_trial","63","493914","0.0-42.0-1.0","""event"",""trial"",""time""
""fullscreenenter"",""0"",""6871""
","
","
","""event"",""trial"",""time""
""fullscreenenter"",""0"",""6871""
","
","1427.5999999046326","","","","","","","","51","1,0,1","","","","","","","","","","","","","","","",""
"","html-keyboard-response","64","494921","0.0-43.0-0.0","""event"",""trial"",""time""
""fullscreenenter"",""0"",""6871""
","
","
","""event"",""trial"",""time""
""fullscreenenter"",""0"",""6871""
","
","null","<p></p>","null","","","","","","","","","","","","","","","","","","","","","","",""
"","do_trial","65","500159","0.0-43.0-1.0","""event"",""trial"",""time""
""fullscreenenter"",""0"",""6871""
","
","
","""event"",""trial"",""time""
""fullscreenenter"",""0"",""6871""
","
","722.1000003814697","","","","","","","","51","1,1,0","","","","","","","","","","","","","","","",""
"","html-keyboard-response","66","501172","0.0-44.0-0.0","""event"",""trial"",""time""
""fullscreenenter"",""0"",""6871""
","
","
","""event"",""trial"",""time""
""fullscreenenter"",""0"",""6871""
","
","null","<p></p>","null","","","","","","","","","","","","","","","","","","","","","","",""
"","do_trial","67","506261","0.0-44.0-1.0","""event"",""trial"",""time""
""fullscreenenter"",""0"",""6871""
","
","
","""event"",""trial"",""time""
""fullscreenenter"",""0"",""6871""
","
","577","","","","","","","","50","0,0,1","","","","","","","","","","","","","","","",""
"","html-keyboard-response","68","507267","0.0-45.0-0.0","""event"",""trial"",""time""
""fullscreenenter"",""0"",""6871""
","
","
","""event"",""trial"",""time""
""fullscreenenter"",""0"",""6871""
","
","null","<p></p>","null","","","","","","","","","","","","","","","","","","","","","","",""
"","do_trial","69","512208","0.0-45.0-1.0","""event"",""trial"",""time""
""fullscreenenter"",""0"",""6871""
","
","
","""event"",""trial"",""time""
""fullscreenenter"",""0"",""6871""
","
","429","","","","","","","","50","1,0,1","","","","","","","","","","","","","","","",""
"","html-keyboard-response","70","521676","0.0-46.0-0.0","""event"",""trial"",""time""
""fullscreenenter"",""0"",""6871""
","
","
","""event"",""trial"",""time""
""fullscreenenter"",""0"",""6871""
","
","9459.599999904633","<div class='center'><p><img src='run_exp/static/images/tutorial/prac_best_pirate.png'  height='500'></p></div>","51","","","","","","","","","","","","","","","","","","","","","","",""
"","html-keyboard-response","71","526166","0.0-47.0-0.0","""event"",""trial"",""time""
""fullscreenenter"",""0"",""6871""
","
","
","""event"",""trial"",""time""
""fullscreenenter"",""0"",""6871""
","
","4488.60000038147","<div class='center'><p>That's incorrect! Red beard was the best.</p><p><b>[Press the space bar to continue]</b></p></div>","32","","","","","","","","","","","","","","","","","","","","","","",""
"","html-keyboard-response","72","531840","0.0-47.0-1.0","""event"",""trial"",""time""
""fullscreenenter"",""0"",""6871""
","
","
","""event"",""trial"",""time""
""fullscreenenter"",""0"",""6871""
","
","5672.300000190735","<div class='center'><p><img src='run_exp/static/images/tutorial/prac_source.png'  height='500'></p></div>","50","","","","","","","","","","","","","","","","","","","","","","",""
"","html-keyboard-response","73","534112","0.0-48.0-0.0","""event"",""trial"",""time""
""fullscreenenter"",""0"",""6871""
","
","
","""event"",""trial"",""time""
""fullscreenenter"",""0"",""6871""
","
","2271.199999809265","<div class='center'><p>That's correct! You saw this ship on the cavern island.</p><p><b>[Press the space bar to continue]</b></p></div>","32","","","","","","","","","","","","","","","","","","","","","","",""
"","quiz_beginning","74","545337","0.0-48.0-1.0","""event"",""trial"",""time""
""fullscreenenter"",""0"",""6871""
","
","
","""event"",""trial"",""time""
""fullscreenenter"",""0"",""6871""
","
","null","run_exp/static/audio/clip_16_quiz_intro.m4a","null","","","","","<div class='center'><p>Good job on the practice game! Now, you will be asked some true or false questions to make sure you really understand the rules of the game.</p><p> Press <b>'1'</b> on the keyboard for true and press <b>'2'</b> for false.</p></div>","","","","","","","","","","","","","","","","","",""
"","audio-keyboard-response","75","553683","0.0-48.0-2.0","""event"",""trial"",""time""
""fullscreenenter"",""0"",""6871""
","
","
","""event"",""trial"",""time""
""fullscreenenter"",""0"",""6871""
","
","8339.699999809265","run_exp/static/audio/clip_17_q1.m4a","49","","","","","","","","","","","","","","","","","","","","","","",""
"","correct","76","556066","0.0-49.0-0.0","""event"",""trial"",""time""
""fullscreenenter"",""0"",""6871""
","
","
","""event"",""trial"",""time""
""fullscreenenter"",""0"",""6871""
","
","null","run_exp/static/audio/clip_18_correct.m4a","null","","","","","<div class='center'><p>That's correct!</p></div>","","","","","","","","","","","","","","","","","",""
"","html-keyboard-response","77","557482","0.0-49.0-1.0","""event"",""trial"",""time""
""fullscreenenter"",""0"",""6871""
","
","
","""event"",""trial"",""time""
""fullscreenenter"",""0"",""6871""
","
","1415.0999999046326","<div class='center'><p>That's correct!</p><p><b>[Press the space bar to continue]</b></p></div>","32","","","","","","","","","","","","","","","","","","","","","","",""
"","audio-keyboard-response","78","566075","0.0-49.0-2.0","""event"",""trial"",""time""
""fullscreenenter"",""0"",""6871""
","
","
","""event"",""trial"",""time""
""fullscreenenter"",""0"",""6871""
","
","8591.200000286102","run_exp/static/audio/clip_20_q2.m4a","50","","","","","","","","","","","","","","","","","","","","","","",""
"","correct","79","568461","0.0-50.0-0.0","""event"",""trial"",""time""
""fullscreenenter"",""0"",""6871""
","
","
","""event"",""trial"",""time""
""fullscreenenter"",""0"",""6871""
","
","null","run_exp/static/audio/clip_18_correct.m4a","null","","","","","<div class='center'><p>That's correct!</p></div>","","","","","","","","","","","","","","","","","",""
"","html-keyboard-response","80","569891","0.0-50.0-1.0","""event"",""trial"",""time""
""fullscreenenter"",""0"",""6871""
","
","
","""event"",""trial"",""time""
""fullscreenenter"",""0"",""6871""
","
","1428.5999999046326","<div class='center'><p>That's correct!</p><p><b>[Press the space bar to continue]</b></p></div>","32","","","","","","","","","","","","","","","","","","","","","","",""
"","audio-keyboard-response","81","576327","0.0-50.0-2.0","""event"",""trial"",""time""
""fullscreenenter"",""0"",""6871""
","
","
","""event"",""trial"",""time""
""fullscreenenter"",""0"",""6871""
","
","6434.400000095367","run_exp/static/audio/clip_22_q3.m4a","50","","","","","","","","","","","","","","","","","","","","","","",""
"","correct","82","578700","0.0-51.0-0.0","""event"",""trial"",""time""
""fullscreenenter"",""0"",""6871""
","
","
","""event"",""trial"",""time""
""fullscreenenter"",""0"",""6871""
","
","null","run_exp/static/audio/clip_18_correct.m4a","null","","","","","<div class='center'><p>That's correct!</p></div>","","","","","","","","","","","","","","","","","",""
"","html-keyboard-response","83","579715","0.0-51.0-1.0","""event"",""trial"",""time""
""fullscreenenter"",""0"",""6871""
","
","
","""event"",""trial"",""time""
""fullscreenenter"",""0"",""6871""
","
","1013.5999999046326","<div class='center'><p>That's correct!</p><p><b>[Press the space bar to continue]</b></p></div>","32","","","","","","","","","","","","","","","","","","","","","","",""
"","audio-keyboard-response","84","590548","0.0-51.0-2.0","""event"",""trial"",""time""
""fullscreenenter"",""0"",""6871""
","
","
","""event"",""trial"",""time""
""fullscreenenter"",""0"",""6871""
","
","10832.300000190735","run_exp/static/audio/clip_24_q4.m4a","49","","","","","","","","","","","","","","","","","","","","","","",""
"","correct","85","592951","0.0-52.0-0.0","""event"",""trial"",""time""
""fullscreenenter"",""0"",""6871""
","
","
","""event"",""trial"",""time""
""fullscreenenter"",""0"",""6871""
","
","null","run_exp/static/audio/clip_18_correct.m4a","null","","","","","<div class='center'><p>That's correct!</p></div>","","","","","","","","","","","","","","","","","",""
"","html-keyboard-response","86","593796","0.0-52.0-1.0","""event"",""trial"",""time""
""fullscreenenter"",""0"",""6871""
","
","
","""event"",""trial"",""time""
""fullscreenenter"",""0"",""6871""
","
","843.5999999046326","<div class='center'><p>That's correct!</p><p><b>[Press the space bar to continue]</b></p></div>","32","","","","","","","","","","","","","","","","","","","","","","",""
"","q_all_corr","87","602280","0.0-53.0-0.0","""event"",""trial"",""time""
""fullscreenenter"",""0"",""6871""
","
","
","""event"",""trial"",""time""
""fullscreenenter"",""0"",""6871""
","
","null","run_exp/static/audio/clip_27_quiz_all_correct.m4a","null","","","","","<div class='center'><p>Good job! You’re now ready to move on to the real game! Remember this game will be difficult but don't get discouraged and try your best!</p></div>","","","","","","","","","","","","","","","","","",""
"","html-keyboard-response","88","602833","0.0-53.0-1.0","""event"",""trial"",""time""
""fullscreenenter"",""0"",""6871""
","
","
","""event"",""trial"",""time""
""fullscreenenter"",""0"",""6871""
","
","549.4000000953674","<div class='center'><p>Good job! You’re now ready to move on to the real game! Remember this game will be difficult but don't get discouraged and try your best!</p><p><b>[Press the space bar to continue]</b></p></div>","32","","","","","","","","","","","","","","","","","","","","","","",""
"","do_welcome","89","606841","0.0-54.0-0.0","""event"",""trial"",""time""
""fullscreenenter"",""0"",""6871""
","
","
","""event"",""trial"",""time""
""fullscreenenter"",""0"",""6871""
","
","null","","","","","","","","null","","","","","","","","","","","","","","","","",""
"","do_trial","90","612335","0.0-55.0-0.0","""event"",""trial"",""time""
""fullscreenenter"",""0"",""6871""
","
","
","""event"",""trial"",""time""
""fullscreenenter"",""0"",""6871""
","
","959.8999996185303","","","","","","","","50","1,0,0","0","coast","0","probe-26","0.6","0.3","0.1","0","","","","","","","",""
"","html-keyboard-response","91","613347","0.0-55.0-1.0","""event"",""trial"",""time""
""fullscreenenter"",""0"",""6871""
","
","
","""event"",""trial"",""time""
""fullscreenenter"",""0"",""6871""
","
","null","<p></p>","null","","","","","","","","","","","","","","","","","","","","","","",""
"","do_trial","92","618515","0.0-56.0-0.0","""event"",""trial"",""time""
""fullscreenenter"",""0"",""6871""
","
","
","""event"",""trial"",""time""
""fullscreenenter"",""0"",""6871""
","
","637.5","","","","","","","","50","1,0,0","0","coast","1","probe-122","0.6832877830169312","0.21741241539237408","0.1613880205857957","0","","","","","","","",""
"","html-keyboard-response","93","619520","0.0-56.0-1.0","""event"",""trial"",""time""
""fullscreenenter"",""0"",""6871""
","
","
","""event"",""trial"",""time""
""fullscreenenter"",""0"",""6871""
","
","null","<p></p>","null","","","","","","","","","","","","","","","","","","","","","","",""
"","do_trial","94","624666","0.0-57.0-0.0","""event"",""trial"",""time""
""fullscreenenter"",""0"",""6871""
","
","
","""event"",""trial"",""time""
""fullscreenenter"",""0"",""6871""
","
","613.5999999046326","","","","","","","","49","1,0,0","0","coast","2","probe-72","0.5273461941155666","0.2270974915447248","0.13791111282342394","1","","","","","","","",""
"","html-keyboard-response","95","625675","0.0-57.0-1.0","""event"",""trial"",""time""
""fullscreenenter"",""0"",""6871""
","
","
","""event"",""trial"",""time""
""fullscreenenter"",""0"",""6871""
","
","null","<p></p>","null","","","","","","","","","","","","","","","","","","","","","","",""
"","do_trial","96","630787","0.0-58.0-0.0","""event"",""trial"",""time""
""fullscreenenter"",""0"",""6871""
","
","
","""event"",""trial"",""time""
""fullscreenenter"",""0"",""6871""
","
","586","","","","","","","","49","0,0,0","0","coast","3","probe-172","0.5402873168010432","0.25439035517312525","0.14309006637541916","0","","","","","","","",""
"","html-keyboard-response","97","631791","0.0-58.0-1.0","""event"",""trial"",""time""
""fullscreenenter"",""0"",""6871""
","
","
","""event"",""trial"",""time""
""fullscreenenter"",""0"",""6871""
","
","null","<p></p>","null","","","","","","","","","","","","","","","","","","","","","","",""
"","do_trial","98","636802","0.0-59.0-0.0","""event"",""trial"",""time""
""fullscreenenter"",""0"",""6871""
","
","
","""event"",""trial"",""time""
""fullscreenenter"",""0"",""6871""
","
","483.09999990463257","","","","","","","","49","0,0,0","0","coast","4","probe-206","0.6178844064894538","0.2284783649636845","0.15011827943379388","0","","","","","","","",""
"","html-keyboard-response","99","637809","0.0-59.0-1.0","""event"",""trial"",""time""
""fullscreenenter"",""0"",""6871""
","
","
","""event"",""trial"",""time""
""fullscreenenter"",""0"",""6871""
","
","null","<p></p>","null","","","","","","","","","","","","","","","","","","","","","","",""
"","do_trial","100","642658","0.0-60.0-0.0","""event"",""trial"",""time""
""fullscreenenter"",""0"",""6871""
","
","
","""event"",""trial"",""time""
""fullscreenenter"",""0"",""6871""
","
","320.40000009536743","","","","","","","","51","1,1,0","0","coast","5","probe-46","0.6700991331171642","0.2887464242334517","0.25788545939177804","0","","","","","","","",""
"","html-keyboard-response","101","643665","0.0-60.0-1.0","""event"",""trial"",""time""
""fullscreenenter"",""0"",""6871""
","
","
","""event"",""trial"",""time""
""fullscreenenter"",""0"",""6871""
","
","null","<p></p>","null","","","","","","","","","","","","","","","","","","","","","","",""
"","do_trial","102","648611","0.0-61.0-0.0","""event"",""trial"",""time""
""fullscreenenter"",""0"",""6871""
","
","
","""event"",""trial"",""time""
""fullscreenenter"",""0"",""6871""
","
","414.7999997138977","","","","","","","","51","0,0,0","0","coast","6","probe-57","0.5695523967576108","0.26183494946639885","0.22743485505356734","0","","","","","","","",""
"","html-keyboard-response","103","649615","0.0-61.0-1.0","""event"",""trial"",""time""
""fullscreenenter"",""0"",""6871""
","
","
","""event"",""trial"",""time""
""fullscreenenter"",""0"",""6871""
","
","null","<p></p>","null","","","","","","","","","","","","","","","","","","","","","","",""
"","do_trial","104","654518","0.0-62.0-0.0","""event"",""trial"",""time""
""fullscreenenter"",""0"",""6871""
","
","
","""event"",""trial"",""time""
""fullscreenenter"",""0"",""6871""
","
","369.40000009536743","","","","","","","","49","1,0,0","0","coast","7","probe-205","0.47001711520547446","0.38124804562391473","0.2168059646825671","1","","","","","","","",""
"","html-keyboard-response","105","655522","0.0-62.0-1.0","""event"",""trial"",""time""
""fullscreenenter"",""0"",""6871""
","
","
","""event"",""trial"",""time""
""fullscreenenter"",""0"",""6871""
","
","null","<p></p>","null","","","","","","","","","","","","","","","","","","","","","","",""
"","do_trial","106","660673","0.0-63.0-0.0","""event"",""trial"",""time""
""fullscreenenter"",""0"",""6871""
","
","
","""event"",""trial"",""time""
""fullscreenenter"",""0"",""6871""
","
","622.8000001907349","","","","","","","","49","1,1,0","0","coast","8","probe-96","0.5675789801633011","0.5159835433863961","0.22129687531901762","1","","","","","","","",""
"","html-keyboard-response","107","661680","0.0-63.0-1.0","""event"",""trial"",""time""
""fullscreenenter"",""0"",""6871""
","
","
","""event"",""trial"",""time""
""fullscreenenter"",""0"",""6871""
","
","null","<p></p>","null","","","","","","","","","","","","","","","","","","","","","","",""
"","do_trial","108","666737","0.0-64.0-0.0","""event"",""trial"",""time""
""fullscreenenter"",""0"",""6871""
","
","
","""event"",""trial"",""time""
""fullscreenenter"",""0"",""6871""
","
","525.8000001907349","","","","","","","","49","1,1,0","0","coast","9","probe-191","0.5790698928748759","0.3772422836282292","0.20824942802969681","1","","","","","","","",""
"","html-keyboard-response","109","667743","0.0-64.0-1.0","""event"",""trial"",""time""
""fullscreenenter"",""0"",""6871""
","
","
","""event"",""trial"",""time""
""fullscreenenter"",""0"",""6871""
","
","null","<p></p>","null","","","","","","","","","","","","","","","","","","","","","","",""
"","do_trial","110","673691","0.0-65.0-0.0","""event"",""trial"",""time""
""fullscreenenter"",""0"",""6871""
","
","
","""event"",""trial"",""time""
""fullscreenenter"",""0"",""6871""
","
","1412.4000000953674","","","","","","","","49","1,0,0","0","coast","10","probe-59","0.5118103637846112","0.20447157725284443","0.19377977953592104","1","","","","","","","",""
"","html-keyboard-response","111","674698","0.0-65.0-1.0","""event"",""trial"",""time""
""fullscreenenter"",""0"",""6871""
","
","
","""event"",""trial"",""time""
""fullscreenenter"",""0"",""6871""
","
","null","<p></p>","null","","","","","","","","","","","","","","","","","","","","","","",""
"","do_trial","112","679830","0.0-66.0-0.0","""event"",""trial"",""time""
""fullscreenenter"",""0"",""6871""
","
","
","""event"",""trial"",""time""
""fullscreenenter"",""0"",""6871""
","
","600.6999998092651","","","","","","","","49","0,0,0","0","coast","11","probe-48","0.4688166869436523","0.29849710735773693","0.16835675060811398","0","","","","","","","",""
"","html-keyboard-response","113","680834","0.0-66.0-1.0","""event"",""trial"",""time""
""fullscreenenter"",""0"",""6871""
","
","
","""event"",""trial"",""time""
""fullscreenenter"",""0"",""6871""
","
","null","<p></p>","null","","","","","","","","","","","","","","","","","","","","","","",""
"","do_trial","114","685750","0.0-67.0-0.0","""event"",""trial"",""time""
""fullscreenenter"",""0"",""6871""
","
","
","""event"",""trial"",""time""
""fullscreenenter"",""0"",""6871""
","
","386.40000009536743","","","","","","","","49","1,0,0","0","coast","12","probe-86","0.6998875906962132","0.1892059873939137","0.12478185604278676","1","","","","","","","",""
"","html-keyboard-response","115","686753","0.0-67.0-1.0","""event"",""trial"",""time""
""fullscreenenter"",""0"",""6871""
","
","
","""event"",""trial"",""time""
""fullscreenenter"",""0"",""6871""
","
","null","<p></p>","null","","","","","","","","","","","","","","","","","","","","","","",""
"","do_trial","116","692273","0.0-68.0-0.0","""event"",""trial"",""time""
""fullscreenenter"",""0"",""6871""
","
","
","""event"",""trial"",""time""
""fullscreenenter"",""0"",""6871""
","
","992.6999998092651","","","","","","","","49","1,0,0","0","coast","13","probe-49","0.6141111935224951","0.2267521928165815","0.05856851121659605","1","","","","","","","",""
"","html-keyboard-response","117","693280","0.0-68.0-1.0","""event"",""trial"",""time""
""fullscreenenter"",""0"",""6871""
","
","
","""event"",""trial"",""time""
""fullscreenenter"",""0"",""6871""
","
","null","<p></p>","null","","","","","","","","","","","","","","","","","","","","","","",""
"","do_trial","118","698693","0.0-69.0-0.0","""event"",""trial"",""time""
""fullscreenenter"",""0"",""6871""
","
","
","""event"",""trial"",""time""
""fullscreenenter"",""0"",""6871""
","
","878.3999996185303","","","","","","","","49","1,0,0","0","coast","14","probe-144","0.7345614673699504","0.3145932689868119","0.1160876690368233","1","","","","","","","",""
"","html-keyboard-response","119","699699","0.0-69.0-1.0","""event"",""trial"",""time""
""fullscreenenter"",""0"",""6871""
","
","
","""event"",""trial"",""time""
""fullscreenenter"",""0"",""6871""
","
","null","<p></p>","null","","","","","","","","","","","","","","","","","","","","","","",""
"","do_trial","120","704832","0.0-70.0-0.0","""event"",""trial"",""time""
""fullscreenenter"",""0"",""6871""
","
","
","""event"",""trial"",""time""
""fullscreenenter"",""0"",""6871""
","
","603.5","","","","","","","","49","1,0,0","0","coast","15","probe-101","0.7480407364160404","0.2543164415876152","0.14104549115040482","1","","","","","","","",""
"","html-keyboard-response","121","705838","0.0-70.0-1.0","""event"",""trial"",""time""
""fullscreenenter"",""0"",""6871""
","
","
","""event"",""trial"",""time""
""fullscreenenter"",""0"",""6871""
","
","null","<p></p>","null","","","","","","","","","","","","","","","","","","","","","","",""
"","do_trial","122","710694","0.0-71.0-0.0","""event"",""trial"",""time""
""fullscreenenter"",""0"",""6871""
","
","
","""event"",""trial"",""time""
""fullscreenenter"",""0"",""6871""
","
","322.2000002861023","","","","","","","","49","1,0,1","0","coast","16","probe-118","0.6311596155688772","0.21795306800624473","0.1146535867961663","1","","","","","","","",""
"","html-keyboard-response","123","711698","0.0-71.0-1.0","""event"",""trial"",""time""
""fullscreenenter"",""0"",""6871""
","
","
","""event"",""trial"",""time""
""fullscreenenter"",""0"",""6871""
","
","null","<p></p>","null","","","","","","","","","","","","","","","","","","","","","","",""
"","do_trial","124","716923","0.0-72.0-0.0","""event"",""trial"",""time""
""fullscreenenter"",""0"",""6871""
","
","
","""event"",""trial"",""time""
""fullscreenenter"",""0"",""6871""
","
","689.5999999046326","","","","","","","","49","1,0,0","0","coast","17","probe-110","0.5962246675836073","0.2621562869201472","0.13435123045721","1","","","","","","","",""
"","html-keyboard-response","125","717925","0.0-72.0-1.0","""event"",""trial"",""time""
""fullscreenenter"",""0"",""6871""
","
","
","""event"",""trial"",""time""
""fullscreenenter"",""0"",""6871""
","
","null","<p></p>","null","","","","","","","","","","","","","","","","","","","","","","",""
"","do_trial","126","723082","0.0-73.0-0.0","""event"",""trial"",""time""
""fullscreenenter"",""0"",""6871""
","
","
","""event"",""trial"",""time""
""fullscreenenter"",""0"",""6871""
","
","627.9000000953674","","","","","","","","49","1,0,0","0","coast","18","probe-56","0.5716781991466566","0.1881449416388619","0.22554261716458868","1","","","","","","","",""
"","html-keyboard-response","127","724088","0.0-73.0-1.0","""event"",""trial"",""time""
""fullscreenenter"",""0"",""6871""
","
","
","""event"",""trial"",""time""
""fullscreenenter"",""0"",""6871""
","
","null","<p></p>","null","","","","","","","","","","","","","","","","","","","","","","",""
"","do_trial","128","729207","0.0-74.0-0.0","""event"",""trial"",""time""
""fullscreenenter"",""0"",""6871""
","
","
","""event"",""trial"",""time""
""fullscreenenter"",""0"",""6871""
","
","585.2000002861023","","","","","","","","49","0,0,0","0","coast","19","probe-152","0.4903969731369675","0.16828317763743642","0.09413015515831909","0","","","","","","","",""
"","html-keyboard-response","129","730212","0.0-74.0-1.0","""event"",""trial"",""time""
""fullscreenenter"",""0"",""6871""
","
","
","""event"",""trial"",""time""
""fullscreenenter"",""0"",""6871""
","
","null","<p></p>","null","","","","","","","","","","","","","","","","","","","","","","",""
"","do_trial","130","735310","0.0-75.0-0.0","""event"",""trial"",""time""
""fullscreenenter"",""0"",""6871""
","
","
","""event"",""trial"",""time""
""fullscreenenter"",""0"",""6871""
","
","569.5","","","","","","","","49","0,1,0","0","coast","20","probe-100","0.6409610174793554","0.2388929979949116","0.12193401287958262","0","","","","","","","",""
"","html-keyboard-response","131","736316","0.0-75.0-1.0","""event"",""trial"",""time""
""fullscreenenter"",""0"",""6871""
","
","
","""event"",""trial"",""time""
""fullscreenenter"",""0"",""6871""
","
","null","<p></p>","null","","","","","","","","","","","","","","","","","","","","","","",""
"","do_trial","132","741336","0.0-76.0-0.0","""event"",""trial"",""time""
""fullscreenenter"",""0"",""6871""
","
","
","""event"",""trial"",""time""
""fullscreenenter"",""0"",""6871""
","
","489.7000002861023","","","","","","","","49","1,0,0","0","coast","21","probe-76","0.6881039682055962","0.12709358290133083","0.09594001417356543","1","","","","","","","",""
"","html-keyboard-response","133","742342","0.0-76.0-1.0","""event"",""trial"",""time""
""fullscreenenter"",""0"",""6871""
","
","
","""event"",""trial"",""time""
""fullscreenenter"",""0"",""6871""
","
","null","<p></p>","null","","","","","","","","","","","","","","","","","","","","","","",""
"","do_trial","134","747371","0.0-77.0-0.0","""event"",""trial"",""time""
""fullscreenenter"",""0"",""6871""
","
","
","""event"",""trial"",""time""
""fullscreenenter"",""0"",""6871""
","
","499.30000019073486","","","","","","","","49","0,0,0","0","coast","22","probe-80","0.6710412536286964","0.09006885233648584","0.1735405832967863","0","","","","","","","",""
"","html-keyboard-response","135","748374","0.0-77.0-1.0","""event"",""trial"",""time""
""fullscreenenter"",""0"",""6871""
","
","
","""event"",""trial"",""time""
""fullscreenenter"",""0"",""6871""
","
","null","<p></p>","null","","","","","","","","","","","","","","","","","","","","","","",""
"","do_trial","136","753391","0.0-78.0-0.0","""event"",""trial"",""time""
""fullscreenenter"",""0"",""6871""
","
","
","""event"",""trial"",""time""
""fullscreenenter"",""0"",""6871""
","
","486.30000019073486","","","","","","","","49","1,1,0","0","coast","23","probe-171","0.6177521982332548","0.20228218987057706","0.22603331309565433","1","","","","","","","",""
"","html-keyboard-response","137","754394","0.0-78.0-1.0","""event"",""trial"",""time""
""fullscreenenter"",""0"",""6871""
","
","
","""event"",""trial"",""time""
""fullscreenenter"",""0"",""6871""
","
","null","<p></p>","null","","","","","","","","","","","","","","","","","","","","","","",""
"","do_trial","138","759429","0.0-79.0-0.0","""event"",""trial"",""time""
""fullscreenenter"",""0"",""6871""
","
","
","""event"",""trial"",""time""
""fullscreenenter"",""0"",""6871""
","
","503.7999997138977","","","","","","","","49","0,1,0","0","coast","24","probe-58","0.5831207947594242","0.17037893855872313","0.3285973220647732","0","","","","","","","",""
"","html-keyboard-response","139","760436","0.0-79.0-1.0","""event"",""trial"",""time""
""fullscreenenter"",""0"",""6871""
","
","
","""event"",""trial"",""time""
""fullscreenenter"",""0"",""6871""
","
","null","<p></p>","null","","","","","","","","","","","","","","","","","","","","","","",""
"","do_trial","140","765510","0.0-80.0-0.0","""event"",""trial"",""time""
""fullscreenenter"",""0"",""6871""
","
","
","""event"",""trial"",""time""
""fullscreenenter"",""0"",""6871""
","
","543.2999997138977","","","","","","","","49","0,0,0","0","coast","25","probe-31","0.49980694749235827","0.15181560745071415","0.25374035462303624","0","","","","","","","",""
"","html-keyboard-response","141","766518","0.0-80.0-1.0","""event"",""trial"",""time""
""fullscreenenter"",""0"",""6871""
","
","
","""event"",""trial"",""time""
""fullscreenenter"",""0"",""6871""
","
","null","<p></p>","null","","","","","","","","","","","","","","","","","","","","","","",""
"","do_trial","142","771716","0.0-81.0-0.0","""event"",""trial"",""time""
""fullscreenenter"",""0"",""6871""
","
","
","""event"",""trial"",""time""
""fullscreenenter"",""0"",""6871""
","
","665.0999999046326","","","","","","","","50","1,0,1","0","coast","26","probe-166","0.4699094905862218","0.2556114250084051","0.07776599001961795","0","","","","","","","",""
"","html-keyboard-response","143","772725","0.0-81.0-1.0","""event"",""trial"",""time""
""fullscreenenter"",""0"",""6871""
","
","
","""event"",""trial"",""time""
""fullscreenenter"",""0"",""6871""
","
","null","<p></p>","null","","","","","","","","","","","","","","","","","","","","","","",""
"","do_trial","144","777743","0.0-82.0-0.0","""event"",""trial"",""time""
""fullscreenenter"",""0"",""6871""
","
","
","""event"",""trial"",""time""
""fullscreenenter"",""0"",""6871""
","
","486.30000019073486","","","","","","","","49","0,0,0","0","coast","27","probe-223","0.4892509958697893","0.31786706113570307","0.08486552788233642","0","","","","","","","",""
"","html-keyboard-response","145","778751","0.0-82.0-1.0","""event"",""trial"",""time""
""fullscreenenter"",""0"",""6871""
","
","
","""event"",""trial"",""time""
""fullscreenenter"",""0"",""6871""
","
","null","<p></p>","null","","","","","","","","","","","","","","","","","","","","","","",""
"","do_trial","146","783681","0.0-83.0-0.0","""event"",""trial"",""time""
""fullscreenenter"",""0"",""6871""
","
","
","""event"",""trial"",""time""
""fullscreenenter"",""0"",""6871""
","
","400.5","","","","","","","","49","0,1,1","0","coast","28","probe-64","0.4345795433277661","0.3180890903779081","0.104399543391424","0","","","","","","","",""
"","html-keyboard-response","147","784689","0.0-83.0-1.0","""event"",""trial"",""time""
""fullscreenenter"",""0"",""6871""
","
","
","""event"",""trial"",""time""
""fullscreenenter"",""0"",""6871""
","
","null","<p></p>","null","","","","","","","","","","","","","","","","","","","","","","",""
"","do_trial","148","789740","0.0-84.0-0.0","""event"",""trial"",""time""
""fullscreenenter"",""0"",""6871""
","
","
","""event"",""trial"",""time""
""fullscreenenter"",""0"",""6871""
","
","517.9000000953674","","","","","","","","49","0,1,0","0","coast","29","probe-13","0.6021232378022227","0.3622761518758885","0.15173338036211376","0","","","","","","","",""
"","html-keyboard-response","149","790743","0.0-84.0-1.0","""event"",""trial"",""time""
""fullscreenenter"",""0"",""6871""
","
","
","""event"",""trial"",""time""
""fullscreenenter"",""0"",""6871""
","
","null","<p></p>","null","","","","","","","","","","","","","","","","","","","","","","",""
"","do_bye","150","792252","0.0-85.0-0.0","""event"",""trial"",""time""
""fullscreenenter"",""0"",""6871""
","
","
","""event"",""trial"",""time""
""fullscreenenter"",""0"",""6871""
","
","null","","","","","","","","null","","","","","","","","","","","","","","","","",""
"","break","151","798902","0.0-85.0-1.0","""event"",""trial"",""time""
""fullscreenenter"",""0"",""6871""
","
","
","""event"",""trial"",""time""
""fullscreenenter"",""0"",""6871""
","
","6648.099999904633","<div class='center'><p>Time to take a quick break! You have 2 minutes to rest, but you can move on sooner if you'd like.</p><p> Press the <b>space bar</b> to continue.</p></div>","32","","","","","","","","","","","","","","","","","","","","","","",""
"","do_travel","152","807910","0.0-86.0-0.0","""event"",""trial"",""time""
""fullscreenenter"",""0"",""6871""
","
","
","""event"",""trial"",""time""
""fullscreenenter"",""0"",""6871""
","
","null","","","","","","","","null","","","","","","","","","","","","","","","","",""
"","do_welcome","153","811922","0.0-86.0-1.0","""event"",""trial"",""time""
""fullscreenenter"",""0"",""6871""
","
","
","""event"",""trial"",""time""
""fullscreenenter"",""0"",""6871""
","
","null","","","","","","","","null","","","","","","","","","","","","","","","","",""
"","do_trial","154","818324","0.0-87.0-0.0","""event"",""trial"",""time""
""fullscreenenter"",""0"",""6871""
","
","
","""event"",""trial"",""time""
""fullscreenenter"",""0"",""6871""
","
","1868","","","","","","","","51","1,1,0","1","city","30","probe-34","1","0.32686136598158444","0.07221549074568552","0","","","","","","","",""
"","html-keyboard-response","155","819331","0.0-87.0-1.0","""event"",""trial"",""time""
""fullscreenenter"",""0"",""6871""
","
","
","""event"",""trial"",""time""
""fullscreenenter"",""0"",""6871""
","
","null","<p></p>","null","","","","","","","","","","","","","","","","","","","","","","",""
"","do_trial","156","824395","0.0-88.0-0.0","""event"",""trial"",""time""
""fullscreenenter"",""0"",""6871""
","
","
","""event"",""trial"",""time""
""fullscreenenter"",""0"",""6871""
","
","532.9000000953674","","","","","","","","51","1,0,0","1","city","31","probe-121","1","0.35929733243958495","0.10982427359762588","0","","","","","","","",""
"","html-keyboard-response","157","825399","0.0-88.0-1.0","""event"",""trial"",""time""
""fullscreenenter"",""0"",""6871""
","
","
","""event"",""trial"",""time""
""fullscreenenter"",""0"",""6871""
","
","null","<p></p>","null","","","","","","","","","","","","","","","","","","","","","","",""
"","do_trial","158","830316","0.0-89.0-0.0","""event"",""trial"",""time""
""fullscreenenter"",""0"",""6871""
","
","
","""event"",""trial"",""time""
""fullscreenenter"",""0"",""6871""
","
","383","","","","","","","","51","1,0,0","1","city","32","probe-190","1","0.3749540539850478","0.07511021783685826","0","","","","","","","",""
"","html-keyboard-response","159","831325","0.0-89.0-1.0","""event"",""trial"",""time""
""fullscreenenter"",""0"",""6871""
","
","
","""event"",""trial"",""time""
""fullscreenenter"",""0"",""6871""
","
","null","<p></p>","null","","","","","","","","","","","","","","","","","","","","","","",""
"","do_trial","160","836380","0.0-90.0-0.0","""event"",""trial"",""time""
""fullscreenenter"",""0"",""6871""
","
","
","""event"",""trial"",""time""
""fullscreenenter"",""0"",""6871""
","
","522.4000000953674","","","","","","","","50","1,0,0","1","city","33","probe-54","0.9204891386853838","0.36436244776266363","0.10326329338481603","0","","","","","","","",""
"","html-keyboard-response","161","837388","0.0-90.0-1.0","""event"",""trial"",""time""
""fullscreenenter"",""0"",""6871""
","
","
","""event"",""trial"",""time""
""fullscreenenter"",""0"",""6871""
","
","null","<p></p>","null","","","","","","","","","","","","","","","","","","","","","","",""
"","do_trial","162","842271","0.0-91.0-0.0","""event"",""trial"",""time""
""fullscreenenter"",""0"",""6871""
","
","
","""event"",""trial"",""time""
""fullscreenenter"",""0"",""6871""
","
","350.30000019073486","","","","","","","","50","1,0,1","1","city","34","probe-60","0.879155853289613","0.3044071079732378","0.15382195147689856","0","","","","","","","",""
"","html-keyboard-response","163","843276","0.0-91.0-1.0","""event"",""trial"",""time""
""fullscreenenter"",""0"",""6871""
","
","
","""event"",""trial"",""time""
""fullscreenenter"",""0"",""6871""
","
","null","<p></p>","null","","","","","","","","","","","","","","","","","","","","","","",""
"","do_trial","164","848164","0.0-92.0-0.0","""event"",""trial"",""time""
""fullscreenenter"",""0"",""6871""
","
","
","""event"",""trial"",""time""
""fullscreenenter"",""0"",""6871""
","
","358.40000009536743","","","","","","","","50","0,0,0","1","city","35","probe-218","0.641644138179699","0.24770018738644914","0.14735998685392018","0","","","","","","","",""
"","html-keyboard-response","165","849171","0.0-92.0-1.0","""event"",""trial"",""time""
""fullscreenenter"",""0"",""6871""
","
","
","""event"",""trial"",""time""
""fullscreenenter"",""0"",""6871""
","
","null","<p></p>","null","","","","","","","","","","","","","","","","","","","","","","",""
"","do_trial","166","854100","0.0-93.0-0.0","""event"",""trial"",""time""
""fullscreenenter"",""0"",""6871""
","
","
","""event"",""trial"",""time""
""fullscreenenter"",""0"",""6871""
","
","398.7999997138977","","","","","","","","49","1,0,0","1","city","36","probe-161","0.6489031953552646","0.13815888553538908","0.17323369558957125","1","","","","","","","",""
"","html-keyboard-response","167","855106","0.0-93.0-1.0","""event"",""trial"",""time""
""fullscreenenter"",""0"",""6871""
","
","
","""event"",""trial"",""time""
""fullscreenenter"",""0"",""6871""
","
","null","<p></p>","null","","","","","","","","","","","","","","","","","","","","","","",""
"","do_trial","168","860114","0.0-94.0-0.0","""event"",""trial"",""time""
""fullscreenenter"",""0"",""6871""
","
","
","""event"",""trial"",""time""
""fullscreenenter"",""0"",""6871""
","
","479.80000019073486","","","","","","","","49","0,1,0","1","city","37","probe-95","0.7001294720272212","0.19059391957342475","0.08729745144653894","0","","","","","","","",""
"","html-keyboard-response","169","861120","0.0-94.0-1.0","""event"",""trial"",""time""
""fullscreenenter"",""0"",""6871""
","
","
","""event"",""trial"",""time""
""fullscreenenter"",""0"",""6871""
","
","null","<p></p>","null","","","","","","","","","","","","","","","","","","","","","","",""
"","do_trial","170","866212","0.0-95.0-0.0","""event"",""trial"",""time""
""fullscreenenter"",""0"",""6871""
","
","
","""event"",""trial"",""time""
""fullscreenenter"",""0"",""6871""
","
","558.1999998092651","","","","","","","","49","1,0,0","1","city","38","probe-109","0.6444005029047764","0.27373496428211896","0.119643934298728","1","","","","","","","",""
"","html-keyboard-response","171","867219","0.0-95.0-1.0","""event"",""trial"",""time""
""fullscreenenter"",""0"",""6871""
","
","
","""event"",""trial"",""time""
""fullscreenenter"",""0"",""6871""
","
","null","<p></p>","null","","","","","","","","","","","","","","","","","","","","","","",""
"","do_trial","172","872414","0.0-96.0-0.0","""event"",""trial"",""time""
""fullscreenenter"",""0"",""6871""
","
","
","""event"",""trial"",""time""
""fullscreenenter"",""0"",""6871""
","
","666.5","","","","","","","","49","0,0,0","1","city","39","probe-32","0.6154863736334582","0.43101933696866623","0.06230574989046036","0","","","","","","","",""
"","html-keyboard-response","173","873422","0.0-96.0-1.0","""event"",""trial"",""time""
""fullscreenenter"",""0"",""6871""
","
","
","""event"",""trial"",""time""
""fullscreenenter"",""0"",""6871""
","
","null","<p></p>","null","","","","","","","","","","","","","","","","","","","","","","",""
"","do_trial","174","878469","0.0-97.0-0.0","""event"",""trial"",""time""
""fullscreenenter"",""0"",""6871""
","
","
","""event"",""trial"",""time""
""fullscreenenter"",""0"",""6871""
","
","517.0999999046326","","","","","","","","49","1,0,0","1","city","40","probe-112","0.5410652761132065","0.4548768383702824","0.14376870810661008","1","","","","","","","",""
"","html-keyboard-response","175","879477","0.0-97.0-1.0","""event"",""trial"",""time""
""fullscreenenter"",""0"",""6871""
","
","
","""event"",""trial"",""time""
""fullscreenenter"",""0"",""6871""
","
","null","<p></p>","null","","","","","","","","","","","","","","","","","","","","","","",""
"","do_trial","176","884369","0.0-98.0-0.0","""event"",""trial"",""time""
""fullscreenenter"",""0"",""6871""
","
","
","""event"",""trial"",""time""
""fullscreenenter"",""0"",""6871""
","
","357.2999997138977","","","","","","","","49","1,0,0","1","city","41","probe-85","0.5336219243910716","0.5021297135312941","0.1152868969884383","1","","","","","","","",""
"","html-keyboard-response","177","885375","0.0-98.0-1.0","""event"",""trial"",""time""
""fullscreenenter"",""0"",""6871""
","
","
","""event"",""trial"",""time""
""fullscreenenter"",""0"",""6871""
","
","null","<p></p>","null","","","","","","","","","","","","","","","","","","","","","","",""
"","do_trial","178","890459","0.0-99.0-0.0","""event"",""trial"",""time""
""fullscreenenter"",""0"",""6871""
","
","
","""event"",""trial"",""time""
""fullscreenenter"",""0"",""6871""
","
","549.9000000953674","","","","","","","","49","0,0,0","1","city","42","probe-169","0.38023161559267876","0.34732519764573083","0.2785375996527947","0","","","","","","","",""
"","html-keyboard-response","179","891464","0.0-99.0-1.0","""event"",""trial"",""time""
""fullscreenenter"",""0"",""6871""
","
","
","""event"",""trial"",""time""
""fullscreenenter"",""0"",""6871""
","
","null","<p></p>","null","","","","","","","","","","","","","","","","","","","","","","",""
"","do_trial","180","896425","0.0-100.0-0.0","""event"",""trial"",""time""
""fullscreenenter"",""0"",""6871""
","
","
","""event"",""trial"",""time""
""fullscreenenter"",""0"",""6871""
","
","429.90000009536743","","","","","","","","49","0,1,0","1","city","43","probe-154","0.4009885634099241","0.2415596118143844","0.36159916958208094","0","","","","","","","",""
"","html-keyboard-response","181","897432","0.0-100.0-1.0","""event"",""trial"",""time""
""fullscreenenter"",""0"",""6871""
","
","
","""event"",""trial"",""time""
""fullscreenenter"",""0"",""6871""
","
","null","<p></p>","null","","","","","","","","","","","","","","","","","","","","","","",""
"","do_trial","182","902390","0.0-101.0-0.0","""event"",""trial"",""time""
""fullscreenenter"",""0"",""6871""
","
","
","""event"",""trial"",""time""
""fullscreenenter"",""0"",""6871""
","
","428.80000019073486","","","","","","","","49","0,0,1","1","city","44","probe-199","0.4248342275210438","0.19827359209664622","0.4139586949360976","0","","","","","","","",""
"","html-keyboard-response","183","903396","0.0-101.0-1.0","""event"",""trial"",""time""
""fullscreenenter"",""0"",""6871""
","
","
","""event"",""trial"",""time""
""fullscreenenter"",""0"",""6871""
","
","null","<p></p>","null","","","","","","","","","","","","","","","","","","","","","","",""
"","do_trial","184","908408","0.0-102.0-0.0","""event"",""trial"",""time""
""fullscreenenter"",""0"",""6871""
","
","
","""event"",""trial"",""time""
""fullscreenenter"",""0"",""6871""
","
","477.69999980926514","","","","","","","","49","1,0,0","1","city","45","probe-11","0.3591200120445413","0.2011125026273432","0.5102461544499556","1","","","","","","","",""
"","html-keyboard-response","185","909415","0.0-102.0-1.0","""event"",""trial"",""time""
""fullscreenenter"",""0"",""6871""
","
","
","""event"",""trial"",""time""
""fullscreenenter"",""0"",""6871""
","
","null","<p></p>","null","","","","","","","","","","","","","","","","","","","","","","",""
"","do_trial","186","914354","0.0-103.0-0.0","""event"",""trial"",""time""
""fullscreenenter"",""0"",""6871""
","
","
","""event"",""trial"",""time""
""fullscreenenter"",""0"",""6871""
","
","409.09999990463257","","","","","","","","49","0,0,1","1","city","46","probe-23","0.3421974907576371","0.19264781130189995","0.6478933338071897","0","","","","","","","",""
"","html-keyboard-response","187","915361","0.0-103.0-1.0","""event"",""trial"",""time""
""fullscreenenter"",""0"",""6871""
","
","
","""event"",""trial"",""time""
""fullscreenenter"",""0"",""6871""
","
","null","<p></p>","null","","","","","","","","","","","","","","","","","","","","","","",""
"","do_trial","188","920237","0.0-104.0-0.0","""event"",""trial"",""time""
""fullscreenenter"",""0"",""6871""
","
","
","""event"",""trial"",""time""
""fullscreenenter"",""0"",""6871""
","
","345.90000009536743","","","","","","","","50","0,0,0","1","city","47","probe-133","0.3747567065276594","0.0975222422831763","0.586337682636285","0","","","","","","","",""
"","html-keyboard-response","189","921243","0.0-104.0-1.0","""event"",""trial"",""time""
""fullscreenenter"",""0"",""6871""
","
","
","""event"",""trial"",""time""
""fullscreenenter"",""0"",""6871""
","
","null","<p></p>","null","","","","","","","","","","","","","","","","","","","","","","",""
"","do_trial","190","926163","0.0-105.0-0.0","""event"",""trial"",""time""
""fullscreenenter"",""0"",""6871""
","
","
","""event"",""trial"",""time""
""fullscreenenter"",""0"",""6871""
","
","387.80000019073486","","","","","","","","51","0,0,0","1","city","48","probe-213","0.3374173881662745","0.053760864602274305","0.6778895176545572","0","","","","","","","",""
"","html-keyboard-response","191","927168","0.0-105.0-1.0","""event"",""trial"",""time""
""fullscreenenter"",""0"",""6871""
","
","
","""event"",""trial"",""time""
""fullscreenenter"",""0"",""6871""
","
","null","<p></p>","null","","","","","","","","","","","","","","","","","","","","","","",""
"","do_trial","192","932227","0.0-106.0-0.0","""event"",""trial"",""time""
""fullscreenenter"",""0"",""6871""
","
","
","""event"",""trial"",""time""
""fullscreenenter"",""0"",""6871""
","
","525.5","","","","","","","","49","1,1,1","1","city","49","probe-197","0.3025520486539851","0.10932240233605427","0.5961714610675865","1","","","","","","","",""
"","html-keyboard-response","193","933235","0.0-106.0-1.0","""event"",""trial"",""time""
""fullscreenenter"",""0"",""6871""
","
","
","""event"",""trial"",""time""
""fullscreenenter"",""0"",""6871""
","
","null","<p></p>","null","","","","","","","","","","","","","","","","","","","","","","",""
"","do_trial","194","938354","0.0-107.0-0.0","""event"",""trial"",""time""
""fullscreenenter"",""0"",""6871""
","
","
","""event"",""trial"",""time""
""fullscreenenter"",""0"",""6871""
","
","583.0999999046326","","","","","","","","49","0,0,1","1","city","50","probe-24","0.315395680382668","0.10687939624590907","0.6082400022570961","0","","","","","","","",""
"","html-keyboard-response","195","939363","0.0-107.0-1.0","""event"",""trial"",""time""
""fullscreenenter"",""0"",""6871""
","
","
","""event"",""trial"",""time""
""fullscreenenter"",""0"",""6871""
","
","null","<p></p>","null","","","","","","","","","","","","","","","","","","","","","","",""
"","do_trial","196","944402","0.0-108.0-0.0","""event"",""trial"",""time""
""fullscreenenter"",""0"",""6871""
","
","
","""event"",""trial"",""time""
""fullscreenenter"",""0"",""6871""
","
","505.59999990463257","","","","","","","","49","1,0,0","1","city","51","probe-210","0.4236468026027653","0.07456028510152499","0.6135011596044633","1","","","","","","","",""
"","html-keyboard-response","197","945406","0.0-108.0-1.0","""event"",""trial"",""time""
""fullscreenenter"",""0"",""6871""
","
","
","""event"",""trial"",""time""
""fullscreenenter"",""0"",""6871""
","
","null","<p></p>","null","","","","","","","","","","","","","","","","","","","","","","",""
"","do_trial","198","950469","0.0-109.0-0.0","""event"",""trial"",""time""
""fullscreenenter"",""0"",""6871""
","
","
","""event"",""trial"",""time""
""fullscreenenter"",""0"",""6871""
","
","533","","","","","","","","49","1,0,1","1","city","52","probe-82","0.246851465874331","0.10831948450134746","0.6186068402868904","1","","","","","","","",""
"","html-keyboard-response","199","951474","0.0-109.0-1.0","""event"",""trial"",""time""
""fullscreenenter"",""0"",""6871""
","
","
","""event"",""trial"",""time""
""fullscreenenter"",""0"",""6871""
","
","null","<p></p>","null","","","","","","","","","","","","","","","","","","","","","","",""
"","do_trial","200","956529","0.0-110.0-0.0","""event"",""trial"",""time""
""fullscreenenter"",""0"",""6871""
","
","
","""event"",""trial"",""time""
""fullscreenenter"",""0"",""6871""
","
","524.8000001907349","","","","","","","","49","1,0,0","1","city","53","probe-92","0.33369897277051325","0.35612420153486685","0.5838613375772495","1","","","","","","","",""
"","html-keyboard-response","201","957536","0.0-110.0-1.0","""event"",""trial"",""time""
""fullscreenenter"",""0"",""6871""
","
","
","""event"",""trial"",""time""
""fullscreenenter"",""0"",""6871""
","
","null","<p></p>","null","","","","","","","","","","","","","","","","","","","","","","",""
"","do_trial","202","962662","0.0-111.0-0.0","""event"",""trial"",""time""
""fullscreenenter"",""0"",""6871""
","
","
","""event"",""trial"",""time""
""fullscreenenter"",""0"",""6871""
","
","594.5999999046326","","","","","","","","49","0,0,0","1","city","54","probe-178","0.2639758423112987","0.3198440815348262","0.5773252531426932","0","","","","","","","",""
"","html-keyboard-response","203","963669","0.0-111.0-1.0","""event"",""trial"",""time""
""fullscreenenter"",""0"",""6871""
","
","
","""event"",""trial"",""time""
""fullscreenenter"",""0"",""6871""
","
","null","<p></p>","null","","","","","","","","","","","","","","","","","","","","","","",""
"","do_trial","204","968679","0.0-112.0-0.0","""event"",""trial"",""time""
""fullscreenenter"",""0"",""6871""
","
","
","""event"",""trial"",""time""
""fullscreenenter"",""0"",""6871""
","
","480.59999990463257","","","","","","","","49","1,1,0","1","city","55","probe-81","0.3649129355697201","0.4261678158563305","0.5976544653566085","1","","","","","","","",""
"","html-keyboard-response","205","969683","0.0-112.0-1.0","""event"",""trial"",""time""
""fullscreenenter"",""0"",""6871""
","
","
","""event"",""trial"",""time""
""fullscreenenter"",""0"",""6871""
","
","null","<p></p>","null","","","","","","","","","","","","","","","","","","","","","","",""
"","do_trial","206","974694","0.0-113.0-0.0","""event"",""trial"",""time""
""fullscreenenter"",""0"",""6871""
","
","
","""event"",""trial"",""time""
""fullscreenenter"",""0"",""6871""
","
","478.40000009536743","","","","","","","","49","0,0,0","1","city","56","probe-194","0.31921838814661263","0.28876126554053455","0.6264839549089869","0","","","","","","","",""
"","html-keyboard-response","207","975701","0.0-113.0-1.0","""event"",""trial"",""time""
""fullscreenenter"",""0"",""6871""
","
","
","""event"",""trial"",""time""
""fullscreenenter"",""0"",""6871""
","
","null","<p></p>","null","","","","","","","","","","","","","","","","","","","","","","",""
"","do_trial","208","980929","0.0-114.0-0.0","""event"",""trial"",""time""
""fullscreenenter"",""0"",""6871""
","
","
","""event"",""trial"",""time""
""fullscreenenter"",""0"",""6871""
","
","692.2999997138977","","","","","","","","49","1,0,1","1","city","57","probe-137","0.21117573280981014","0.1929808181400007","0.5970579626124765","1","","","","","","","",""
"","html-keyboard-response","209","981937","0.0-114.0-1.0","""event"",""trial"",""time""
""fullscreenenter"",""0"",""6871""
","
","
","""event"",""trial"",""time""
""fullscreenenter"",""0"",""6871""
","
","null","<p></p>","null","","","","","","","","","","","","","","","","","","","","","","",""
"","do_trial","210","986941","0.0-115.0-0.0","""event"",""trial"",""time""
""fullscreenenter"",""0"",""6871""
","
","
","""event"",""trial"",""time""
""fullscreenenter"",""0"",""6871""
","
","472.7000002861023","","","","","","","","49","0,0,1","1","city","58","probe-91","0.281140995792694","0.1648707142435682","0.7136457565440767","0","","","","","","","",""
"","html-keyboard-response","211","987948","0.0-115.0-1.0","""event"",""trial"",""time""
""fullscreenenter"",""0"",""6871""
","
","
","""event"",""trial"",""time""
""fullscreenenter"",""0"",""6871""
","
","null","<p></p>","null","","","","","","","","","","","","","","","","","","","","","","",""
"","do_trial","212","994847","0.0-116.0-0.0","""event"",""trial"",""time""
""fullscreenenter"",""0"",""6871""
","
","
","""event"",""trial"",""time""
""fullscreenenter"",""0"",""6871""
","
","2365.199999809265","","","","","","","","49","0,0,0","1","city","59","probe-176","0.28520252633228743","0.12055438359512258","0.6107273513299586","0","","","","","","","",""
"","html-keyboard-response","213","995850","0.0-116.0-1.0","""event"",""trial"",""time""
""fullscreenenter"",""0"",""6871""
","
","
","""event"",""trial"",""time""
""fullscreenenter"",""0"",""6871""
","
","null","<p></p>","null","","","","","","","","","","","","","","","","","","","","","","",""
"","do_trial","214","1000908","0.0-117.0-0.0","""event"",""trial"",""time""
""fullscreenenter"",""0"",""6871""
","
","
","""event"",""trial"",""time""
""fullscreenenter"",""0"",""6871""
","
","527.9000000953674","","","","","","","","49","0,0,0","1","city","60","probe-135","0.3325111334416444","0.13828123744558848","0.5353871802949175","0","","","","","","","",""
"","html-keyboard-response","215","1001911","0.0-117.0-1.0","""event"",""trial"",""time""
""fullscreenenter"",""0"",""6871""
","
","
","""event"",""trial"",""time""
""fullscreenenter"",""0"",""6871""
","
","null","<p></p>","null","","","","","","","","","","","","","","","","","","","","","","",""
"","do_trial","216","1006978","0.0-118.0-0.0","""event"",""trial"",""time""
""fullscreenenter"",""0"",""6871""
","
","
","""event"",""trial"",""time""
""fullscreenenter"",""0"",""6871""
","
","536.6000003814697","","","","","","","","49","1,0,0","1","city","61","probe-94","0.27790538275908633","0.0683016514941559","0.6498943981788553","1","","","","","","","",""
"","html-keyboard-response","217","1007985","0.0-118.0-1.0","""event"",""trial"",""time""
""fullscreenenter"",""0"",""6871""
","
","
","""event"",""trial"",""time""
""fullscreenenter"",""0"",""6871""
","
","null","<p></p>","null","","","","","","","","","","","","","","","","","","","","","","",""
"","do_trial","218","1013101","0.0-119.0-0.0","""event"",""trial"",""time""
""fullscreenenter"",""0"",""6871""
","
","
","""event"",""trial"",""time""
""fullscreenenter"",""0"",""6871""
","
","584","","","","","","","","49","1,1,1","1","city","62","probe-87","0.2841568373364328","0.19917512306549567","0.6595906384345915","1","","","","","","","",""
"","html-keyboard-response","219","1014107","0.0-119.0-1.0","""event"",""trial"",""time""
""fullscreenenter"",""0"",""6871""
","
","
","""event"",""trial"",""time""
""fullscreenenter"",""0"",""6871""
","
","null","<p></p>","null","","","","","","","","","","","","","","","","","","","","","","",""
"","do_trial","220","1019285","0.0-120.0-0.0","""event"",""trial"",""time""
""fullscreenenter"",""0"",""6871""
","
","
","""event"",""trial"",""time""
""fullscreenenter"",""0"",""6871""
","
","647","","","","","","","","49","0,0,0","1","city","63","probe-184","0.2355932160213116","0.3703000264836281","0.4586216298775028","0","","","","","","","",""
"","html-keyboard-response","221","1020287","0.0-120.0-1.0","""event"",""trial"",""time""
""fullscreenenter"",""0"",""6871""
","
","
","""event"",""trial"",""time""
""fullscreenenter"",""0"",""6871""
","
","null","<p></p>","null","","","","","","","","","","","","","","","","","","","","","","",""
"","do_trial","222","1025319","0.0-121.0-0.0","""event"",""trial"",""time""
""fullscreenenter"",""0"",""6871""
","
","
","""event"",""trial"",""time""
""fullscreenenter"",""0"",""6871""
","
","500.90000009536743","","","","","","","","49","0,0,0","1","city","64","probe-17","0.22213636241680362","0.17642759902227176","0.5043182489743093","0","","","","","","","",""
"","html-keyboard-response","223","1026323","0.0-121.0-1.0","""event"",""trial"",""time""
""fullscreenenter"",""0"",""6871""
","
","
","""event"",""trial"",""time""
""fullscreenenter"",""0"",""6871""
","
","null","<p></p>","null","","","","","","","","","","","","","","","","","","","","","","",""
"","do_trial","224","1031368","0.0-122.0-0.0","""event"",""trial"",""time""
""fullscreenenter"",""0"",""6871""
","
","
","""event"",""trial"",""time""
""fullscreenenter"",""0"",""6871""
","
","512.3000001907349","","","","","","","","49","0,0,1","1","city","65","probe-93","0.3647098219502854","0.1901577065690125","0.6650540271583901","0","","","","","","","",""
"","html-keyboard-response","225","1032374","0.0-122.0-1.0","""event"",""trial"",""time""
""fullscreenenter"",""0"",""6871""
","
","
","""event"",""trial"",""time""
""fullscreenenter"",""0"",""6871""
","
","null","<p></p>","null","","","","","","","","","","","","","","","","","","","","","","",""
"","do_trial","226","1037512","0.0-123.0-0.0","""event"",""trial"",""time""
""fullscreenenter"",""0"",""6871""
","
","
","""event"",""trial"",""time""
""fullscreenenter"",""0"",""6871""
","
","607.4000000953674","","","","","","","","49","0,0,0","1","city","66","probe-103","0.3970678467091001","0.18877783222362132","0.7391524412300085","0","","","","","","","",""
"","html-keyboard-response","227","1038521","0.0-123.0-1.0","""event"",""trial"",""time""
""fullscreenenter"",""0"",""6871""
","
","
","""event"",""trial"",""time""
""fullscreenenter"",""0"",""6871""
","
","null","<p></p>","null","","","","","","","","","","","","","","","","","","","","","","",""
"","do_trial","228","1043919","0.0-124.0-0.0","""event"",""trial"",""time""
""fullscreenenter"",""0"",""6871""
","
","
","""event"",""trial"",""time""
""fullscreenenter"",""0"",""6871""
","
","863.5999999046326","","","","","","","","49","0,0,1","1","city","67","probe-216","0.2755347313657361","0.11675788315884664","0.6189711959561203","0","","","","","","","",""
"","html-keyboard-response","229","1044925","0.0-124.0-1.0","""event"",""trial"",""time""
""fullscreenenter"",""0"",""6871""
","
","
","""event"",""trial"",""time""
""fullscreenenter"",""0"",""6871""
","
","null","<p></p>","null","","","","","","","","","","","","","","","","","","","","","","",""
"","do_trial","230","1050060","0.0-125.0-0.0","""event"",""trial"",""time""
""fullscreenenter"",""0"",""6871""
","
","
","""event"",""trial"",""time""
""fullscreenenter"",""0"",""6871""
","
","599.7999997138977","","","","","","","","49","1,0,1","1","city","68","probe-37","0.40829014481947945","0.1856756119667099","0.5442448680416726","1","","","","","","","",""
"","html-keyboard-response","231","1051067","0.0-125.0-1.0","""event"",""trial"",""time""
""fullscreenenter"",""0"",""6871""
","
","
","""event"",""trial"",""time""
""fullscreenenter"",""0"",""6871""
","
","null","<p></p>","null","","","","","","","","","","","","","","","","","","","","","","",""
"","do_trial","232","1056150","0.0-126.0-0.0","""event"",""trial"",""time""
""fullscreenenter"",""0"",""6871""
","
","
","""event"",""trial"",""time""
""fullscreenenter"",""0"",""6871""
","
","553.7999997138977","","","","","","","","49","1,0,0","1","city","69","probe-127","0.3002900980275134","0.11345486454573359","0.628557599012025","1","","","","","","","",""
"","html-keyboard-response","233","1057155","0.0-126.0-1.0","""event"",""trial"",""time""
""fullscreenenter"",""0"",""6871""
","
","
","""event"",""trial"",""time""
""fullscreenenter"",""0"",""6871""
","
","null","<p></p>","null","","","","","","","","","","","","","","","","","","","","","","",""
"","do_bye","234","1058666","0.0-127.0-0.0","""event"",""trial"",""time""
""fullscreenenter"",""0"",""6871""
","
","
","""event"",""trial"",""time""
""fullscreenenter"",""0"",""6871""
","
","null","","","","","","","","null","","","","","","","","","","","","","","","","",""
"","break","235","1070478","0.0-127.0-1.0","""event"",""trial"",""time""
""fullscreenenter"",""0"",""6871""
","
","
","""event"",""trial"",""time""
""fullscreenenter"",""0"",""6871""
","
","11810","<div class='center'><p>Time to take a quick break! You have 2 minutes to rest, but you can move on sooner if you'd like.</p><p> Press the <b>space bar</b> to continue.</p></div>","32","","","","","","","","","","","","","","","","","","","","","","",""
"","do_travel","236","1079483","0.0-128.0-0.0","""event"",""trial"",""time""
""fullscreenenter"",""0"",""6871""
","
","
","""event"",""trial"",""time""
""fullscreenenter"",""0"",""6871""
","
","null","","","","","","","","null","","","","","","","","","","","","","","","","",""
"","do_welcome","237","1083496","0.0-128.0-1.0","""event"",""trial"",""time""
""fullscreenenter"",""0"",""6871""
","
","
","""event"",""trial"",""time""
""fullscreenenter"",""0"",""6871""
","
","null","","","","","","","","null","","","","","","","","","","","","","","","","",""
"","do_trial","238","1089349","0.0-129.0-0.0","""event"",""trial"",""time""
""fullscreenenter"",""0"",""6871""
","
","
","""event"",""trial"",""time""
""fullscreenenter"",""0"",""6871""
","
","1316.9000000953674","","","","","","","","49","0,0,1","2","forest","70","probe-229","0.45655485570920407","0.08645836946092325","1","0","","","","","","","",""
"","html-keyboard-response","239","1090355","0.0-129.0-1.0","""event"",""trial"",""time""
""fullscreenenter"",""0"",""6871""
","
","
","""event"",""trial"",""time""
""fullscreenenter"",""0"",""6871""
","
","null","<p></p>","null","","","","","","","","","","","","","","","","","","","","","","",""
"","do_trial","240","1095527","0.0-130.0-0.0","""event"",""trial"",""time""
""fullscreenenter"",""0"",""6871""
","
","
","""event"",""trial"",""time""
""fullscreenenter"",""0"",""6871""
","
","643.9000000953674","","","","","","","","49","1,1,1","2","forest","71","probe-77","0.3283530285405661","0.13595654620827818","1","1","","","","","","","",""
"","html-keyboard-response","241","1096530","0.0-130.0-1.0","""event"",""trial"",""time""
""fullscreenenter"",""0"",""6871""
","
","
","""event"",""trial"",""time""
""fullscreenenter"",""0"",""6871""
","
","null","<p></p>","null","","","","","","","","","","","","","","","","","","","","","","",""
"","do_trial","242","1101547","0.0-131.0-0.0","""event"",""trial"",""time""
""fullscreenenter"",""0"",""6871""
","
","
","""event"",""trial"",""time""
""fullscreenenter"",""0"",""6871""
","
","486.5","","","","","","","","49","1,0,1","2","forest","72","probe-164","0.3918705775902199","0.09185436228576883","0.85158914671539","1","","","","","","","",""
"","html-keyboard-response","243","1102549","0.0-131.0-1.0","""event"",""trial"",""time""
""fullscreenenter"",""0"",""6871""
","
","
","""event"",""trial"",""time""
""fullscreenenter"",""0"",""6871""
","
","null","<p></p>","null","","","","","","","","","","","","","","","","","","","","","","",""
"","do_trial","244","1107819","0.0-132.0-0.0","""event"",""trial"",""time""
""fullscreenenter"",""0"",""6871""
","
","
","""event"",""trial"",""time""
""fullscreenenter"",""0"",""6871""
","
","738.0999999046326","","","","","","","","49","0,0,0","2","forest","73","probe-53","0.48485379493072744","0.073864222450544","0.599598358120854","0","","","","","","","",""
"","html-keyboard-response","245","1108826","0.0-132.0-1.0","""event"",""trial"",""time""
""fullscreenenter"",""0"",""6871""
","
","
","""event"",""trial"",""time""
""fullscreenenter"",""0"",""6871""
","
","null","<p></p>","null","","","","","","","","","","","","","","","","","","","","","","",""
"","do_trial","246","1113904","0.0-133.0-0.0","""event"",""trial"",""time""
""fullscreenenter"",""0"",""6871""
","
","
","""event"",""trial"",""time""
""fullscreenenter"",""0"",""6871""
","
","542.9000000953674","","","","","","","","49","0,0,0","2","forest","74","probe-116","0.34431725297282706","0.07080242064206169","0.6204113293153862","0","","","","","","","",""
"","html-keyboard-response","247","1114908","0.0-133.0-1.0","""event"",""trial"",""time""
""fullscreenenter"",""0"",""6871""
","
","
","""event"",""trial"",""time""
""fullscreenenter"",""0"",""6871""
","
","null","<p></p>","null","","","","","","","","","","","","","","","","","","","","","","",""
"","do_trial","248","1119778","0.0-134.0-0.0","""event"",""trial"",""time""
""fullscreenenter"",""0"",""6871""
","
","
","""event"",""trial"",""time""
""fullscreenenter"",""0"",""6871""
","
","337","","","","","","","","50","1,0,1","2","forest","75","probe-04","0.48702435725892884","0.15439253332126263","0.7229430193379907","0","","","","","","","",""
"","html-keyboard-response","249","1120786","0.0-134.0-1.0","""event"",""trial"",""time""
""fullscreenenter"",""0"",""6871""
","
","
","""event"",""trial"",""time""
""fullscreenenter"",""0"",""6871""
","
","null","<p></p>","null","","","","","","","","","","","","","","","","","","","","","","",""
"","do_trial","250","1125677","0.0-135.0-0.0","""event"",""trial"",""time""
""fullscreenenter"",""0"",""6871""
","
","
","""event"",""trial"",""time""
""fullscreenenter"",""0"",""6871""
","
","361.30000019073486","","","","","","","","50","1,0,1","2","forest","76","probe-180","0.347256412704737","0.19789435294701377","0.717893419620796","0","","","","","","","",""
"","html-keyboard-response","251","1126686","0.0-135.0-1.0","""event"",""trial"",""time""
""fullscreenenter"",""0"",""6871""
","
","
","""event"",""trial"",""time""
""fullscreenenter"",""0"",""6871""
","
","null","<p></p>","null","","","","","","","","","","","","","","","","","","","","","","",""
"","do_trial","252","1131710","0.0-136.0-0.0","""event"",""trial"",""time""
""fullscreenenter"",""0"",""6871""
","
","
","""event"",""trial"",""time""
""fullscreenenter"",""0"",""6871""
","
","490.40000009536743","","","","","","","","50","0,0,1","2","forest","77","probe-99","0.19939396750496735","0.1300057578805454","0.6739927142605214","0","","","","","","","",""
"","html-keyboard-response","253","1132717","0.0-136.0-1.0","""event"",""trial"",""time""
""fullscreenenter"",""0"",""6871""
","
","
","""event"",""trial"",""time""
""fullscreenenter"",""0"",""6871""
","
","null","<p></p>","null","","","","","","","","","","","","","","","","","","","","","","",""
"","do_trial","254","1137621","0.0-137.0-0.0","""event"",""trial"",""time""
""fullscreenenter"",""0"",""6871""
","
","
","""event"",""trial"",""time""
""fullscreenenter"",""0"",""6871""
","
","371.7999997138977","","","","","","","","51","0,1,0","2","forest","78","probe-02","0.3700865489271963","0.22961852961701895","0.5961895566806806","0","","","","","","","",""
"","html-keyboard-response","255","1138640","0.0-137.0-1.0","""event"",""trial"",""time""
""fullscreenenter"",""0"",""6871""
","
","
","""event"",""trial"",""time""
""fullscreenenter"",""0"",""6871""
","
","null","<p></p>","null","","","","","","","","","","","","","","","","","","","","","","",""
"","do_trial","256","1143531","0.0-138.0-0.0","""event"",""trial"",""time""
""fullscreenenter"",""0"",""6871""
","
","
","""event"",""trial"",""time""
""fullscreenenter"",""0"",""6871""
","
","358.40000009536743","","","","","","","","51","1,0,1","2","forest","79","probe-89","0.50715331208724","0.18548191091697938","0.6103197178419457","1","","","","","","","",""
"","html-keyboard-response","257","1144537","0.0-138.0-1.0","""event"",""trial"",""time""
""fullscreenenter"",""0"",""6871""
","
","
","""event"",""trial"",""time""
""fullscreenenter"",""0"",""6871""
","
","null","<p></p>","null","","","","","","","","","","","","","","","","","","","","","","",""
"","do_trial","258","1149619","0.0-139.0-0.0","""event"",""trial"",""time""
""fullscreenenter"",""0"",""6871""
","
","
","""event"",""trial"",""time""
""fullscreenenter"",""0"",""6871""
","
","547.7999997138977","","","","","","","","51","1,1,1","2","forest","80","probe-111","0.6091445872583223","0.2341995903130945","0.7291512732573187","1","","","","","","","",""
"","html-keyboard-response","259","1150623","0.0-139.0-1.0","""event"",""trial"",""time""
""fullscreenenter"",""0"",""6871""
","
","
","""event"",""trial"",""time""
""fullscreenenter"",""0"",""6871""
","
","null","<p></p>","null","","","","","","","","","","","","","","","","","","","","","","",""
"","do_trial","260","1156188","0.0-140.0-0.0","""event"",""trial"",""time""
""fullscreenenter"",""0"",""6871""
","
","
","""event"",""trial"",""time""
""fullscreenenter"",""0"",""6871""
","
","1033.4000000953674","","","","","","","","51","1,0,1","2","forest","81","probe-148","0.5369824254061771","0.1849641607453117","0.7398704075902229","1","","","","","","","",""
"","html-keyboard-response","261","1157192","0.0-140.0-1.0","""event"",""trial"",""time""
""fullscreenenter"",""0"",""6871""
","
","
","""event"",""trial"",""time""
""fullscreenenter"",""0"",""6871""
","
","null","<p></p>","null","","","","","","","","","","","","","","","","","","","","","","",""
"","do_trial","262","1162243","0.0-141.0-0.0","""event"",""trial"",""time""
""fullscreenenter"",""0"",""6871""
","
