"success","trial_type","trial_index","time_elapsed","internal_node_id","interactions","blur_events","focus_events","fullscreenenter_events","fullscreenexit_events","rt","stimulus","key_press","subject_id","participant_id","age","gender","prompt","response","choice_outcomes","context_n","context_img_id","trial_n","probe_img_id","pR_red","pR_white","pR_black","outcome","contextArray_ind","validImageProbes","invalidImageProbes","pRew_Red","pRew_White","pRew_Black","availableForMemProbe","choice_blocks"
"true","fullscreen","0","4511","0.0-0.0","""event"",""trial"",""time""
""fullscreenenter"",""0"",""3561""
","
","
","""event"",""trial"",""time""
""fullscreenenter"",""0"",""3561""
","
","","","","","","","","","","","","","","","","","","","","","","","","","",""
"","pavlovia","1","4516","0.0-1.0","""event"",""trial"",""time""
""fullscreenenter"",""0"",""3561""
","
","
","""event"",""trial"",""time""
""fullscreenenter"",""0"",""3561""
","
","","","","","","","","","","","","","","","","","","","","","","","","","",""
"","instruc1","2","49671","0.0-2.0","""event"",""trial"",""time""
""fullscreenenter"",""0"",""3561""
","
","
","""event"",""trial"",""time""
""fullscreenenter"",""0"",""3561""
","
","null","run_exp/static/audio/clip_1_welcome.m4a","null","868","1183","15","Female","<div class='center'><p>Welcome! This is the first part of the study. It will last ~30 minutes. In part 1 and part 2 of the study, you are the head captain of a pirate ship traveling around the world to different islands. You will play a few different games throughout these two parts. Here is an overview of them:</p><br><p>Part 1 (today)</p><p>1. Instructions, practice game, and quiz</p><p>2. Pick a pirate game on 6 different islands</p><br><p>Part 2 (tomorrow)</p><p>3. Pick a pirate game and memory game</p><p>4. Where did you see this ship? </p></div>","","","","","","","","","","","","","","","","","",""
"","html-keyboard-response","3","49926","0.0-3.0","""event"",""trial"",""time""
""fullscreenenter"",""0"",""3561""
","
","
","""event"",""trial"",""time""
""fullscreenenter"",""0"",""3561""
","
","252.60000000149012","<div class='center'><p>Welcome! This is the first part of the study. It will last ~30 minutes. In part 1 and part 2 of the study, you are the head captain of a pirate ship traveling around the world to different islands. You will play a few different games throughout these two parts. Here is an overview of them:</p><br><p>Part 1 (today)</p><p>1. Instructions, practice game, and quiz</p><p>2. Pick a pirate game on 6 different islands</p><br><p>Part 2 (tomorrow)</p><p>3. Pick a pirate game and memory game</p><p>4. Where did you see this ship? </p><p><b>[Press the space bar to continue]</b></p></div>","32","","","","","","","","","","","","","","","","","","","","","","",""
"","instruc2","4","55428","0.0-4.0","""event"",""trial"",""time""
""fullscreenenter"",""0"",""3561""
","
","
","""event"",""trial"",""time""
""fullscreenenter"",""0"",""3561""
","
","null","run_exp/static/audio/clip_2_different_places.m4a","null","","","","","<div class='center'><p>Today, you’ll visit these 6 islands on your journey. You'll be able to see these islands from your ship.</p><p><img src='run_exp/static/images/contexts/all_contexts.png' height='500'></p></div>","","","","","","","","","","","","","","","","","",""
"","html-keyboard-response","5","56502","0.0-5.0","""event"",""trial"",""time""
""fullscreenenter"",""0"",""3561""
","
","
","""event"",""trial"",""time""
""fullscreenenter"",""0"",""3561""
","
","1072.2000000011176","<div class='center'><p>Today, you’ll visit these 6 islands on your journey. You'll be able to see these islands from your ship.</p><p><img src='run_exp/static/images/contexts/all_contexts.png' height='500'></p><p><b>[Press the space bar to continue]</b></p></div>","32","","","","","","","","","","","","","","","","","","","","","","",""
"","instruc3","6","66388","0.0-6.0","""event"",""trial"",""time""
""fullscreenenter"",""0"",""3561""
","
","
","""event"",""trial"",""time""
""fullscreenenter"",""0"",""3561""
","
","null","run_exp/static/audio/clip_3_goal_of_game_1.m4a","null","","","","","<div class='center'><p> The pirates on your ship will rob other ships as they leave the island.</p> These ships have just sold their goods to the islanders, so they will be filled with lots and lots of gold.</p><p><img src='run_exp/static/images/tutorial/ship_center.png' height='400'></p></div>","","","","","","","","","","","","","","","","","",""
"","html-keyboard-response","7","67292","0.0-7.0","""event"",""trial"",""time""
""fullscreenenter"",""0"",""3561""
","
","
","""event"",""trial"",""time""
""fullscreenenter"",""0"",""3561""
","
","901.9000000003725","<div class='center'><p> The pirates on your ship will rob other ships as they leave the island.</p> These ships have just sold their goods to the islanders, so they will be filled with lots and lots of gold.</p><p><img src='run_exp/static/images/tutorial/ship_center.png' height='400'></p><p><b>[Press the space bar to continue]</b></p></div>","32","","","","","","","","","","","","","","","","","","","","","","",""
"","instruc4","8","95459","0.0-8.0","""event"",""trial"",""time""
""fullscreenenter"",""0"",""3561""
","
","
","""event"",""trial"",""time""
""fullscreenenter"",""0"",""3561""
","
","null","run_exp/static/audio/clip_4_goal_of_game_2.m4a","null","","","","","<div class='center'><p>As the head captain, you do not have to rob any ships yourself. Another pirate will be doing the robbing for you. First, you will choose a pirate to rob the next ship.</p><p><img src='run_exp/static/images/tutorial/pirates_all_crop.png' height='200'></p><p>Then, you'll see if the pirate successfully robbed the ship of their gold. If they were successful, then you'll get a stack of gold coins like this:</p><p><img src='run_exp/static/images/tutorial/reward.png' height='150'></p><p> If they were <b>not</b> successful, then you'll get no gold coins, and you'll see a big red x like this: </p><p><img src='run_exp/static/images/tutorial/reward_no.png' height='150'></p><p> How much bonus money you make is based on how many gold coins you collect.</p><div>","","","","","","","","","","","","","","","","","",""
"","html-keyboard-response","9","96236","0.0-9.0","""event"",""trial"",""time""
""fullscreenenter"",""0"",""3561""
","
","
","""event"",""trial"",""time""
""fullscreenenter"",""0"",""3561""
","
","774.5999999996275","<div class='center'><p>As the head captain, you do not have to rob any ships yourself. Another pirate will be doing the robbing for you. First, you will choose a pirate to rob the next ship.</p><p><img src='run_exp/static/images/tutorial/pirates_all_crop.png' height='200'></p><p>Then, you'll see if the pirate successfully robbed the ship of their gold. If they were successful, then you'll get a stack of gold coins like this:</p><p><img src='run_exp/static/images/tutorial/reward.png' height='150'></p><p> If they were <b>not</b> successful, then you'll get no gold coins, and you'll see a big red x like this: </p><p><img src='run_exp/static/images/tutorial/reward_no.png' height='150'></p><p> How much bonus money you make is based on how many gold coins you collect.</p<p><b>[Press the space bar to continue]</b></p></div>","32","","","","","","","","","","","","","","","","","","","","","","",""
"","instruc5","10","117976","0.0-10.0","""event"",""trial"",""time""
""fullscreenenter"",""0"",""3561""
","
","
","""event"",""trial"",""time""
""fullscreenenter"",""0"",""3561""
","
","21737.599999999627","run_exp/static/audio/clip_5_probabilistic.m4a","49","","","","","<div class='center'><p>Even the most skilled pirate can not rob EVERY ship.</p><p> Some ships will have very strong protections against pirate attacks.</p><p> Blue beard, here, is very, very good at robbing ships, but he won't be successful every time he tries to rob one.</p><p> You can press the <b>‘1’</b> key on the keyboard to choose him.</p><p> Try choosing him 10 times to see how often he succeeds at robbing a ship. </p><p><img src='run_exp/static/images/tutorial/blue.png' height='500'></p></div>","","","","","","","","","","","","","","","","","",""
"","html-keyboard-response","11","119478","0.0-11.0","""event"",""trial"",""time""
""fullscreenenter"",""0"",""3561""
","
","
","""event"",""trial"",""time""
""fullscreenenter"",""0"",""3561""
","
","null","<div class='center'><p><img src='run_exp/static/images/tutorial/blue_win.png' height='500'></p></div>","null","","","","","","","","","","","","","","","","","","","","","","",""
"","html-keyboard-response","12","120869","0.0-12.0","""event"",""trial"",""time""
""fullscreenenter"",""0"",""3561""
","
","
","""event"",""trial"",""time""
""fullscreenenter"",""0"",""3561""
","
","1388.9000000003725","<div class='center'><img src='run_exp/static/images/tutorial/blue.png' height='500'></p></div>","49","","","","","","","","","","","","","","","","","","","","","","",""
"","html-keyboard-response","13","122371","0.0-13.0","""event"",""trial"",""time""
""fullscreenenter"",""0"",""3561""
","
","
","""event"",""trial"",""time""
""fullscreenenter"",""0"",""3561""
","
","null","<div class='center'><p><img src='run_exp/static/images/tutorial/blue_win.png' height='500'></p></div>","null","","","","","","","","","","","","","","","","","","","","","","",""
"","html-keyboard-response","14","122905","0.0-14.0","""event"",""trial"",""time""
""fullscreenenter"",""0"",""3561""
","
","
","""event"",""trial"",""time""
""fullscreenenter"",""0"",""3561""
","
","532.6000000014901","<div class='center'><img src='run_exp/static/images/tutorial/blue.png' height='500'></p></div>","49","","","","","","","","","","","","","","","","","","","","","","",""
"","html-keyboard-response","15","124406","0.0-15.0","""event"",""trial"",""time""
""fullscreenenter"",""0"",""3561""
","
","
","""event"",""trial"",""time""
""fullscreenenter"",""0"",""3561""
","
","null","<div class='center'><p><img src='run_exp/static/images/tutorial/blue_win.png' height='500'></p></div>","null","","","","","","","","","","","","","","","","","","","","","","",""
"","html-keyboard-response","16","124653","0.0-16.0","""event"",""trial"",""time""
""fullscreenenter"",""0"",""3561""
","
","
","""event"",""trial"",""time""
""fullscreenenter"",""0"",""3561""
","
","245.10000000149012","<div class='center'><img src='run_exp/static/images/tutorial/blue.png' height='500'></p></div>","49","","","","","","","","","","","","","","","","","","","","","","",""
"","html-keyboard-response","17","126155","0.0-17.0","""event"",""trial"",""time""
""fullscreenenter"",""0"",""3561""
","
","
","""event"",""trial"",""time""
""fullscreenenter"",""0"",""3561""
","
","null","<div class='center'><p><img src='run_exp/static/images/tutorial/blue_no_win.png' height='500'></p></div>","null","","","","","","","","","","","","","","","","","","","","","","",""
"","html-keyboard-response","18","126491","0.0-18.0","""event"",""trial"",""time""
""fullscreenenter"",""0"",""3561""
","
","
","""event"",""trial"",""time""
""fullscreenenter"",""0"",""3561""
","
","334.90000000037253","<div class='center'><img src='run_exp/static/images/tutorial/blue.png' height='500'></p></div>","49","","","","","","","","","","","","","","","","","","","","","","",""
"","html-keyboard-response","19","127993","0.0-19.0","""event"",""trial"",""time""
""fullscreenenter"",""0"",""3561""
","
","
","""event"",""trial"",""time""
""fullscreenenter"",""0"",""3561""
","
","null","<div class='center'><p><img src='run_exp/static/images/tutorial/blue_win.png' height='500'></p></div>","null","","","","","","","","","","","","","","","","","","","","","","",""
"","html-keyboard-response","20","128306","0.0-20.0","""event"",""trial"",""time""
""fullscreenenter"",""0"",""3561""
","
","
","""event"",""trial"",""time""
""fullscreenenter"",""0"",""3561""
","
","310.69999999925494","<div class='center'><img src='run_exp/static/images/tutorial/blue.png' height='500'></p></div>","49","","","","","","","","","","","","","","","","","","","","","","",""
"","html-keyboard-response","21","129808","0.0-21.0","""event"",""trial"",""time""
""fullscreenenter"",""0"",""3561""
","
","
","""event"",""trial"",""time""
""fullscreenenter"",""0"",""3561""
","
","null","<div class='center'><p><img src='run_exp/static/images/tutorial/blue_win.png' height='500'></p></div>","null","","","","","","","","","","","","","","","","","","","","","","",""
"","html-keyboard-response","22","130146","0.0-22.0","""event"",""trial"",""time""
""fullscreenenter"",""0"",""3561""
","
","
","""event"",""trial"",""time""
""fullscreenenter"",""0"",""3561""
","
","336.7000000011176","<div class='center'><img src='run_exp/static/images/tutorial/blue.png' height='500'></p></div>","49","","","","","","","","","","","","","","","","","","","","","","",""
"","html-keyboard-response","23","131648","0.0-23.0","""event"",""trial"",""time""
""fullscreenenter"",""0"",""3561""
","
","
","""event"",""trial"",""time""
""fullscreenenter"",""0"",""3561""
","
","null","<div class='center'><p><img src='run_exp/static/images/tutorial/blue_win.png' height='500'></p></div>","null","","","","","","","","","","","","","","","","","","","","","","",""
"","html-keyboard-response","24","131883","0.0-24.0","""event"",""trial"",""time""
""fullscreenenter"",""0"",""3561""
","
","
","""event"",""trial"",""time""
""fullscreenenter"",""0"",""3561""
","
","232.90000000037253","<div class='center'><img src='run_exp/static/images/tutorial/blue.png' height='500'></p></div>","49","","","","","","","","","","","","","","","","","","","","","","",""
"","html-keyboard-response","25","133384","0.0-25.0","""event"",""trial"",""time""
""fullscreenenter"",""0"",""3561""
","
","
","""event"",""trial"",""time""
""fullscreenenter"",""0"",""3561""
","
","null","<div class='center'><p><img src='run_exp/static/images/tutorial/blue_no_win.png' height='500'></p></div>","null","","","","","","","","","","","","","","","","","","","","","","",""
"","html-keyboard-response","26","133764","0.0-26.0","""event"",""trial"",""time""
""fullscreenenter"",""0"",""3561""
","
","
","""event"",""trial"",""time""
""fullscreenenter"",""0"",""3561""
","
","377.80000000074506","<div class='center'><img src='run_exp/static/images/tutorial/blue.png' height='500'></p></div>","49","","","","","","","","","","","","","","","","","","","","","","",""
"","html-keyboard-response","27","135266","0.0-27.0","""event"",""trial"",""time""
""fullscreenenter"",""0"",""3561""
","
","
","""event"",""trial"",""time""
""fullscreenenter"",""0"",""3561""
","
","null","<div class='center'><p><img src='run_exp/static/images/tutorial/blue_win.png' height='500'></p></div>","null","","","","","","","","","","","","","","","","","","","","","","",""
"","html-keyboard-response","28","135637","0.0-28.0","""event"",""trial"",""time""
""fullscreenenter"",""0"",""3561""
","
","
","""event"",""trial"",""time""
""fullscreenenter"",""0"",""3561""
","
","369.2999999988824","<div class='center'><img src='run_exp/static/images/tutorial/blue.png' height='500'></p></div>","49","","","","","","","","","","","","","","","","","","","","","","",""
"","html-keyboard-response","29","137138","0.0-29.0","""event"",""trial"",""time""
""fullscreenenter"",""0"",""3561""
","
","
","""event"",""trial"",""time""
""fullscreenenter"",""0"",""3561""
","
","null","<div class='center'><p><img src='run_exp/static/images/tutorial/blue_win.png' height='500'></p></div>","null","","","","","","","","","","","","","","","","","","","","","","",""
"","instruc6","30","142634","0.0-30.0","""event"",""trial"",""time""
""fullscreenenter"",""0"",""3561""
","
","
","""event"",""trial"",""time""
""fullscreenenter"",""0"",""3561""
","
","null","run_exp/static/audio/clip_6_blue_beard_outcome.m4a","null","","","","","<div class='center'><p> See, he succeeded in robbing the ships most of the time but not every time. </p></div>","","","","","","","","","","","","","","","","","",""
"","html-keyboard-response","31","143445","0.0-31.0","""event"",""trial"",""time""
""fullscreenenter"",""0"",""3561""
","
","
","""event"",""trial"",""time""
""fullscreenenter"",""0"",""3561""
","
","809.9000000003725","<div class='center'><p> See, he succeeded in robbing the ships most of the time but not every time. </p><p><b>[Press the space bar to continue]</b></p></div>","32","","","","","","","","","","","","","","","","","","","","","","",""
"","audio-keyboard-response","32","159661","0.0-32.0","""event"",""trial"",""time""
""fullscreenenter"",""0"",""3561""
","
","
","""event"",""trial"",""time""
""fullscreenenter"",""0"",""3561""
","
","16201.700000001118","run_exp/static/audio/clip_7_pick_pirate.m4a","50","","","","","","","","","","","","","","","","","","","","","","",""
"","audio-keyboard-response","33","164230","0.0-33.0-0.0","""event"",""trial"",""time""
""fullscreenenter"",""0"",""3561""
","
","
","""event"",""trial"",""time""
""fullscreenenter"",""0"",""3561""
","
","4566.0999999996275","run_exp/static/audio/clip_8_chosen_pirate_win.m4a","32","","","","","","","","","","","","","","","","","","","","","","",""
"","audio-keyboard-response","34","166924","0.0-33.0-1.0","""event"",""trial"",""time""
""fullscreenenter"",""0"",""3561""
","
","
","""event"",""trial"",""time""
""fullscreenenter"",""0"",""3561""
","
","2691.0999999996275","run_exp/static/audio/clip_9_pick_a_pirate_again.m4a","49","","","","","","","","","","","","","","","","","","","","","","",""
"","audio-keyboard-response","35","171629","0.0-34.0-0.0","""event"",""trial"",""time""
""fullscreenenter"",""0"",""3561""
","
","
","""event"",""trial"",""time""
""fullscreenenter"",""0"",""3561""
","
","4701.4000000003725","run_exp/static/audio/clip_10_chosen_pirate_loss.m4a","32","","","","","","","","","","","","","","","","","","","","","","",""
"","instruc9","36","177372","0.0-35.0-0.0","""event"",""trial"",""time""
""fullscreenenter"",""0"",""3561""
","
","
","""event"",""trial"",""time""
""fullscreenenter"",""0"",""3561""
","
","null","run_exp/static/audio/clip_11_time_out.m4a","null","","","","","<div class='center'><p>If you don’t make your choice fast enough, you’ll have to wait a few seconds before you can make another one. </p><p><img src='run_exp/static/images/miscellaneous/hurry_up.png' height='500'></p></div>","","","","","","","","","","","","","","","","","",""
"","html-keyboard-response","37","178003","0.0-35.0-1.0","""event"",""trial"",""time""
""fullscreenenter"",""0"",""3561""
","
","
","""event"",""trial"",""time""
""fullscreenenter"",""0"",""3561""
","
","628","<div class='center'><p>If you don’t make your choice fast enough, you’ll have to wait a few seconds before you can make another one. </p><p><img src='run_exp/static/images/miscellaneous/hurry_up.png' height='500'></p><p><b>[Press the space bar to continue]</b></p></div>","32","","","","","","","","","","","","","","","","","","","","","","",""
"","instruc10","38","217309","0.0-35.0-2.0","""event"",""trial"",""time""
""fullscreenenter"",""0"",""3561""
","
","
","""event"",""trial"",""time""
""fullscreenenter"",""0"",""3561""
","
","null","run_exp/static/audio/clip_12_probe.m4a","null","","","","","<div class='center'><p>Once you've chosen a pirate, you’ll be shown the ship they are robbing. You will never rob the same ship twice. Ships can be told apart from one another by the image on them. These are the goods that they sell. See, this ship has a travel mug on it. </p><p> You’ll have to remember which island you saw each ship on. You will win more gold coins and hence more bonus money if you remember correctly! To help you remember, you can imagine a story. For example, here, you could imagine a mug full of water in the desert. Or, as another example, if on the forest island, your pirate robbed a ship with an apple on it, you could imagine an apple falling from a tree in the forest. </p><p><img src='run_exp/static/images/tutorial/example_probe.png' height='500'></p></div>","","","","","","","","","","","","","","","","","",""
"","html-keyboard-response","39","218811","0.0-35.0-3.0","""event"",""trial"",""time""
""fullscreenenter"",""0"",""3561""
","
","
","""event"",""trial"",""time""
""fullscreenenter"",""0"",""3561""
","
","1499.5999999996275","<div class='center'><p>Once you've chosen a pirate, you’ll be shown the ship they are robbing. You will never rob the same ship twice. Ships can be told apart from one another by the image on them. These are the goods that they sell. See, this ship has a travel mug on it. </p><p> You’ll have to remember which island you saw each ship on. You will win more gold coins and hence more bonus money if you remember correctly! To help you remember, you can imagine a story. For example, here, you could imagine a mug full of water in the desert. Or, as another example, if on the forest island, your pirate robbed a ship with an apple on it, you could imagine an apple falling from a tree in the forest. </p><p><img src='run_exp/static/images/tutorial/example_probe.png' height='500'></p><p><b>[Press the space bar to continue]</b></p></div>","32","","","","","","","","","","","","","","","","","","","","","","",""
"","instruc11","40","235421","0.0-35.0-4.0","""event"",""trial"",""time""
""fullscreenenter"",""0"",""3561""
","
","
","""event"",""trial"",""time""
""fullscreenenter"",""0"",""3561""
","
","null","run_exp/static/audio/clip_13_changepoint.m4a","null","","","","","<div class='center'><p>How successful a pirate is at robbing ships will depend on the island you’re on.</p><p> A pirate may have visited this island many times before and gained a lot of practice robbing ships there.</p><p>So, they’re more likely to be successful than a pirate who has never visited the island before.</p></div>","","","","","","","","","","","","","","","","","",""
"","html-keyboard-response","41","237597","0.0-35.0-5.0","""event"",""trial"",""time""
""fullscreenenter"",""0"",""3561""
","
","
","""event"",""trial"",""time""
""fullscreenenter"",""0"",""3561""
","
","2173.9000000003725","<div class='center'><p>How successful a pirate is at robbing ships will depend on the island you’re on.</p><p> A pirate may have visited this island many times before and gained a lot of practice robbing ships there.</p><p>So, they’re more likely to be successful than a pirate who has never visited the island before.</p><p><b>[Press the space bar to continue]</b></p></div>","32","","","","","","","","","","","","","","","","","","","","","","",""
"","instruc12","42","278889","0.0-35.0-6.0","""event"",""trial"",""time""
""fullscreenenter"",""0"",""3561""
","
","
","""event"",""trial"",""time""
""fullscreenenter"",""0"",""3561""
","
","null","run_exp/static/audio/clip_14_drift.m4a","null","","","","","<div class='center'><p>How successful a pirate is at robbing ships can also change over the time spent on the island. </p><p> Ships may hear from islanders about the pirates coming and will improve their protections against the attack. This may make it harder to rob them.</p><p> Ships may also become lazy and weaken the strength of their protections. This may make it easier to rob them.</p><br><p>Things are always changing on the high seas! So, try your best to pay attention!</p><p><img src='run_exp/static/images/tutorial/contingency.png' height='500'></p></div>","","","","","","","","","","","","","","","","","",""
"","html-keyboard-response","43","280287","0.0-35.0-7.0","""event"",""trial"",""time""
""fullscreenenter"",""0"",""3561""
","
","
","""event"",""trial"",""time""
""fullscreenenter"",""0"",""3561""
","
","1396.6000000014901","<div class='center'><p>How successful a pirate is at robbing ships can also change over the time spent on the island. </p><p> Ships may hear from islanders about the pirates coming and will improve their protections against the attack. This may make it harder to rob them.</p><p> Ships may also become lazy and weaken the strength of their protections. This may make it easier to rob them.</p><br><p>Things are always changing on the high seas! So, try your best to pay attention!</p><p><img src='run_exp/static/images/tutorial/contingency.png' height='500'></p><p><b>[Press the space bar to continue]</b></p></div>","32","","","","","","","","","","","","","","","","","","","","","","",""
"","instruc13","44","315762","0.0-35.0-8.0","""event"",""trial"",""time""
""fullscreenenter"",""0"",""3561""
","
","
","""event"",""trial"",""time""
""fullscreenenter"",""0"",""3561""
","
","null","run_exp/static/audio/clip_15_summary.m4a","null","","","","","<div class='center'><p>Let's go over the instructions quickly again. You have two important things to do: </p><b><p> 1. Pick the pirate who is the best at robbing ships on the current island. </p></b><b><p> 2. Remember on which island a ship was robbed.</p> </b><p>The amount of bonus money you can win depends on both.</p><p><br><p>Let’s try a practice game. The game will start by showing you the pirates. First, pick a pirate using the <b> 1, 2, 3 </b> keys on your keyboard. When you are shown a ship, try to remember which island you’re on by making up a story.</p><p>This is just a practice game, so you’re not playing for money. </p><p> Good luck! This game will be very difficult but try your best!</p></div>","","","","","","","","","","","","","","","","","",""
"","html-keyboard-response","45","316326","0.0-35.0-9.0","""event"",""trial"",""time""
""fullscreenenter"",""0"",""3561""
","
","
","""event"",""trial"",""time""
""fullscreenenter"",""0"",""3561""
","
","562","<div class='center'><p>Let's go over the instructions quickly again. You have two important things to do: </p><b><p> 1. Pick the pirate who is the best at robbing ships on the current island. </p></b><b><p> 2. Remember on which island a ship was robbed.</p> </b><p>The amount of bonus money you can win depends on both.</p><p><br><p>Let’s try a practice game. The game will start by showing you the pirates. First, pick a pirate using the <b> 1, 2, 3 </b> keys on your keyboard. When you are shown a ship, try to remember which island you’re on by making up a story.</p><p>This is just a practice game, so you’re not playing for money. </p><p> Good luck! This game will be very difficult but try your best!</p><p><b>[Press the space bar to continue]</b></p></div>","32","","","","","","","","","","","","","","","","","","","","","","",""
"","do_welcome","46","320338","0.0-35.0-10.0","""event"",""trial"",""time""
""fullscreenenter"",""0"",""3561""
","
","
","""event"",""trial"",""time""
""fullscreenenter"",""0"",""3561""
","
","null","","","","","","","","null","","","","","","","","","","","","","","","","",""
"","do_trial","47","326311","0.0-35.0-11.0","""event"",""trial"",""time""
""fullscreenenter"",""0"",""3561""
","
","
","""event"",""trial"",""time""
""fullscreenenter"",""0"",""3561""
","
","1464.199999999255","","","","","","","","50","1,0,0","","","","","","","","","","","","","","","",""
"","html-keyboard-response","48","327314","0.0-36.0-0.0","""event"",""trial"",""time""
""fullscreenenter"",""0"",""3561""
","
","
","""event"",""trial"",""time""
""fullscreenenter"",""0"",""3561""
","
","null","<p></p>","null","","","","","","","","","","","","","","","","","","","","","","",""
"","do_trial","49","333592","0.0-36.0-1.0","""event"",""trial"",""time""
""fullscreenenter"",""0"",""3561""
","
","
","""event"",""trial"",""time""
""fullscreenenter"",""0"",""3561""
","
","1770.5","","","","","","","","50","1,1,0","","","","","","","","","","","","","","","",""
"","html-keyboard-response","50","334594","0.0-37.0-0.0","""event"",""trial"",""time""
""fullscreenenter"",""0"",""3561""
","
","
","""event"",""trial"",""time""
""fullscreenenter"",""0"",""3561""
","
","null","<p></p>","null","","","","","","","","","","","","","","","","","","","","","","",""
"","do_trial","51","340987","0.0-37.0-1.0","""event"",""trial"",""time""
""fullscreenenter"",""0"",""3561""
","
","
","""event"",""trial"",""time""
""fullscreenenter"",""0"",""3561""
","
","1885.199999999255","","","","","","","","49","1,0,1","","","","","","","","","","","","","","","",""
"","html-keyboard-response","52","341989","0.0-38.0-0.0","""event"",""trial"",""time""
""fullscreenenter"",""0"",""3561""
","
","
","""event"",""trial"",""time""
""fullscreenenter"",""0"",""3561""
","
","null","<p></p>","null","","","","","","","","","","","","","","","","","","","","","","",""
"","do_trial","53","347484","0.0-38.0-1.0","""event"",""trial"",""time""
""fullscreenenter"",""0"",""3561""
","
","
","""event"",""trial"",""time""
""fullscreenenter"",""0"",""3561""
","
","986.3000000007451","","","","","","","","51","0,1,0","","","","","","","","","","","","","","","",""
"","html-keyboard-response","54","348486","0.0-39.0-0.0","""event"",""trial"",""time""
""fullscreenenter"",""0"",""3561""
","
","
","""event"",""trial"",""time""
""fullscreenenter"",""0"",""3561""
","
","null","<p></p>","null","","","","","","","","","","","","","","","","","","","","","","",""
"","do_trial","55","354030","0.0-39.0-1.0","""event"",""trial"",""time""
""fullscreenenter"",""0"",""3561""
","
","
","""event"",""trial"",""time""
""fullscreenenter"",""0"",""3561""
","
","1036.1000000014901","","","","","","","","50","1,0,0","","","","","","","","","","","","","","","",""
"","do_bye","56","355537","0.0-40.0-0.0","""event"",""trial"",""time""
""fullscreenenter"",""0"",""3561""
","
","
","""event"",""trial"",""time""
""fullscreenenter"",""0"",""3561""
","
","null","","","","","","","","null","","","","","","","","","","","","","","","","",""
"","do_travel","57","364541","0.0-40.0-1.0","""event"",""trial"",""time""
""fullscreenenter"",""0"",""3561""
","
","
","""event"",""trial"",""time""
""fullscreenenter"",""0"",""3561""
","
","null","","","","","","","","null","","","","","","","","","","","","","","","","",""
"","do_welcome","58","368549","0.0-40.0-2.0","""event"",""trial"",""time""
""fullscreenenter"",""0"",""3561""
","
","
","""event"",""trial"",""time""
""fullscreenenter"",""0"",""3561""
","
","null","","","","","","","","null","","","","","","","","","","","","","","","","",""
"","do_trial","59","375447","0.0-40.0-3.0","""event"",""trial"",""time""
""fullscreenenter"",""0"",""3561""
","
","
","""event"",""trial"",""time""
""fullscreenenter"",""0"",""3561""
","
","2388.9000000003725","","","","","","","","51","1,0,0","","","","","","","","","","","","","","","",""
"","html-keyboard-response","60","376449","0.0-41.0-0.0","""event"",""trial"",""time""
""fullscreenenter"",""0"",""3561""
","
","
","""event"",""trial"",""time""
""fullscreenenter"",""0"",""3561""
","
","null","<p></p>","null","","","","","","","","","","","","","","","","","","","","","","",""
"","do_trial","61","382460","0.0-41.0-1.0","""event"",""trial"",""time""
""fullscreenenter"",""0"",""3561""
","
","
","""event"",""trial"",""time""
""fullscreenenter"",""0"",""3561""
","
","null","","","","","","","","null","1,0,1","","","","","","","","","","","","","","","",""
"","html-keyboard-response","62","383461","0.0-42.0-0.0","""event"",""trial"",""time""
""fullscreenenter"",""0"",""3561""
","
","
","""event"",""trial"",""time""
""fullscreenenter"",""0"",""3561""
","
","null","<p></p>","null","","","","","","","","","","","","","","","","","","","","","","",""
"","do_trial","63","388807","0.0-42.0-1.0","""event"",""trial"",""time""
""fullscreenenter"",""0"",""3561""
","
","
","""event"",""trial"",""time""
""fullscreenenter"",""0"",""3561""
","
","835.4000000003725","","","","","","","","49","1,0,1","","","","","","","","","","","","","","","",""
"","html-keyboard-response","64","389808","0.0-43.0-0.0","""event"",""trial"",""time""
""fullscreenenter"",""0"",""3561""
","
","
","""event"",""trial"",""time""
""fullscreenenter"",""0"",""3561""
","
","null","<p></p>","null","","","","","","","","","","","","","","","","","","","","","","",""
"","do_trial","65","394771","0.0-43.0-1.0","""event"",""trial"",""time""
""fullscreenenter"",""0"",""3561""
","
","
","""event"",""trial"",""time""
""fullscreenenter"",""0"",""3561""
","
","454.5","","","","","","","","50","1,1,0","","","","","","","","","","","","","","","",""
"","html-keyboard-response","66","395773","0.0-44.0-0.0","""event"",""trial"",""time""
""fullscreenenter"",""0"",""3561""
","
","
","""event"",""trial"",""time""
""fullscreenenter"",""0"",""3561""
","
","null","<p></p>","null","","","","","","","","","","","","","","","","","","","","","","",""
"","do_trial","67","400878","0.0-44.0-1.0","""event"",""trial"",""time""
""fullscreenenter"",""0"",""3561""
","
","
","""event"",""trial"",""time""
""fullscreenenter"",""0"",""3561""
","
","596.5","","","","","","","","50","0,0,1","","","","","","","","","","","","","","","",""
"","html-keyboard-response","68","401880","0.0-45.0-0.0","""event"",""trial"",""time""
""fullscreenenter"",""0"",""3561""
","
","
","""event"",""trial"",""time""
""fullscreenenter"",""0"",""3561""
","
","null","<p></p>","null","","","","","","","","","","","","","","","","","","","","","","",""
"","do_trial","69","407162","0.0-45.0-1.0","""event"",""trial"",""time""
""fullscreenenter"",""0"",""3561""
","
","
","""event"",""trial"",""time""
""fullscreenenter"",""0"",""3561""
","
","772.8999999985099","","","","","","","","51","1,0,1","","","","","","","","","","","","","","","",""
"","html-keyboard-response","70","412484","0.0-46.0-0.0","""event"",""trial"",""time""
""fullscreenenter"",""0"",""3561""
","
","
","""event"",""trial"",""time""
""fullscreenenter"",""0"",""3561""
","
","5318.5999999996275","<div class='center'><p><img src='run_exp/static/images/tutorial/prac_best_pirate.png'  height='500'></p></div>","50","","","","","","","","","","","","","","","","","","","","","","",""
"","html-keyboard-response","71","414837","0.0-47.0-0.0","""event"",""trial"",""time""
""fullscreenenter"",""0"",""3561""
","
","
","""event"",""trial"",""time""
""fullscreenenter"",""0"",""3561""
","
","2351","<div class='center'><p>That's incorrect! Red beard was the best.</p><p><b>[Press the space bar to continue]</b></p></div>","32","","","","","","","","","","","","","","","","","","","","","","",""
"","html-keyboard-response","72","434339","0.0-47.0-1.0","""event"",""trial"",""time""
""fullscreenenter"",""0"",""3561""
","
","
","""event"",""trial"",""time""
""fullscreenenter"",""0"",""3561""
","
","19500.799999998882","<div class='center'><p><img src='run_exp/static/images/tutorial/prac_source.png'  height='500'></p></div>","49","","","","","","","","","","","","","","","","","","","","","","",""
"","html-keyboard-response","73","435683","0.0-48.0-0.0","""event"",""trial"",""time""
""fullscreenenter"",""0"",""3561""
","
","
","""event"",""trial"",""time""
""fullscreenenter"",""0"",""3561""
","
","1341.199999999255","<div class='center'><p>That's incorrect! You saw this ship on the cavern island</p><p><b>[Press the space bar to continue]</b></p></div>","32","","","","","","","","","","","","","","","","","","","","","","",""
"","quiz_beginning","74","447026","0.0-48.0-1.0","""event"",""trial"",""time""
""fullscreenenter"",""0"",""3561""
","
","
","""event"",""trial"",""time""
""fullscreenenter"",""0"",""3561""
","
","null","run_exp/static/audio/clip_16_quiz_intro.m4a","null","","","","","<div class='center'><p>Good job on the practice game! Now, you will be asked some true or false questions to make sure you really understand the rules of the game.</p><p> Press <b>'1'</b> on the keyboard for true and press <b>'2'</b> for false.</p></div>","","","","","","","","","","","","","","","","","",""
"","audio-keyboard-response","75","458280","0.0-48.0-2.0","""event"",""trial"",""time""
""fullscreenenter"",""0"",""3561""
","
","
","""event"",""trial"",""time""
""fullscreenenter"",""0"",""3561""
","
","11252.200000001118","run_exp/static/audio/clip_17_q1.m4a","49","","","","","","","","","","","","","","","","","","","","","","",""
"","correct","76","460957","0.0-49.0-0.0","""event"",""trial"",""time""
""fullscreenenter"",""0"",""3561""
","
","
","""event"",""trial"",""time""
""fullscreenenter"",""0"",""3561""
","
","null","run_exp/static/audio/clip_18_correct.m4a","null","","","","","<div class='center'><p>That's correct!</p></div>","","","","","","","","","","","","","","","","","",""
"","html-keyboard-response","77","461864","0.0-49.0-1.0","""event"",""trial"",""time""
""fullscreenenter"",""0"",""3561""
","
","
","""event"",""trial"",""time""
""fullscreenenter"",""0"",""3561""
","
","905.9000000003725","<div class='center'><p>That's correct!</p><p><b>[Press the space bar to continue]</b></p></div>","32","","","","","","","","","","","","","","","","","","","","","","",""
"","audio-keyboard-response","78","477583","0.0-49.0-2.0","""event"",""trial"",""time""
""fullscreenenter"",""0"",""3561""
","
","
","""event"",""trial"",""time""
""fullscreenenter"",""0"",""3561""
","
","15715","run_exp/static/audio/clip_20_q2.m4a","50","","","","","","","","","","","","","","","","","","","","","","",""
"","correct","79","480276","0.0-50.0-0.0","""event"",""trial"",""time""
""fullscreenenter"",""0"",""3561""
","
","
","""event"",""trial"",""time""
""fullscreenenter"",""0"",""3561""
","
","null","run_exp/static/audio/clip_18_correct.m4a","null","","","","","<div class='center'><p>That's correct!</p></div>","","","","","","","","","","","","","","","","","",""
"","html-keyboard-response","80","481654","0.0-50.0-1.0","""event"",""trial"",""time""
""fullscreenenter"",""0"",""3561""
","
","
","""event"",""trial"",""time""
""fullscreenenter"",""0"",""3561""
","
","1376.1000000014901","<div class='center'><p>That's correct!</p><p><b>[Press the space bar to continue]</b></p></div>","32","","","","","","","","","","","","","","","","","","","","","","",""
"","audio-keyboard-response","81","486707","0.0-50.0-2.0","""event"",""trial"",""time""
""fullscreenenter"",""0"",""3561""
","
","
","""event"",""trial"",""time""
""fullscreenenter"",""0"",""3561""
","
","5050.699999999255","run_exp/static/audio/clip_22_q3.m4a","50","","","","","","","","","","","","","","","","","","","","","","",""
"","correct","82","489380","0.0-51.0-0.0","""event"",""trial"",""time""
""fullscreenenter"",""0"",""3561""
","
","
","""event"",""trial"",""time""
""fullscreenenter"",""0"",""3561""
","
","null","run_exp/static/audio/clip_18_correct.m4a","null","","","","","<div class='center'><p>That's correct!</p></div>","","","","","","","","","","","","","","","","","",""
"","html-keyboard-response","83","490142","0.0-51.0-1.0","""event"",""trial"",""time""
""fullscreenenter"",""0"",""3561""
","
","
","""event"",""trial"",""time""
""fullscreenenter"",""0"",""3561""
","
","761.4000000003725","<div class='center'><p>That's correct!</p><p><b>[Press the space bar to continue]</b></p></div>","32","","","","","","","","","","","","","","","","","","","","","","",""
"","audio-keyboard-response","84","493185","0.0-51.0-2.0","""event"",""trial"",""time""
""fullscreenenter"",""0"",""3561""
","
","
","""event"",""trial"",""time""
""fullscreenenter"",""0"",""3561""
","
","3040.5","run_exp/static/audio/clip_24_q4.m4a","49","","","","","","","","","","","","","","","","","","","","","","",""
"","correct","85","495881","0.0-52.0-0.0","""event"",""trial"",""time""
""fullscreenenter"",""0"",""3561""
","
","
","""event"",""trial"",""time""
""fullscreenenter"",""0"",""3561""
","
","null","run_exp/static/audio/clip_18_correct.m4a","null","","","","","<div class='center'><p>That's correct!</p></div>","","","","","","","","","","","","","","","","","",""
"","html-keyboard-response","86","497129","0.0-52.0-1.0","""event"",""trial"",""time""
""fullscreenenter"",""0"",""3561""
","
","
","""event"",""trial"",""time""
""fullscreenenter"",""0"",""3561""
","
","1246.199999999255","<div class='center'><p>That's correct!</p><p><b>[Press the space bar to continue]</b></p></div>","32","","","","","","","","","","","","","","","","","","","","","","",""
"","q_all_corr","87","505818","0.0-53.0-0.0","""event"",""trial"",""time""
""fullscreenenter"",""0"",""3561""
","
","
","""event"",""trial"",""time""
""fullscreenenter"",""0"",""3561""
","
","null","run_exp/static/audio/clip_27_quiz_all_correct.m4a","null","","","","","<div class='center'><p>Good job! You’re now ready to move on to the real game! Remember this game will be difficult but don't get discouraged and try your best!</p></div>","","","","","","","","","","","","","","","","","",""
"","html-keyboard-response","88","506748","0.0-53.0-1.0","""event"",""trial"",""time""
""fullscreenenter"",""0"",""3561""
","
","
","""event"",""trial"",""time""
""fullscreenenter"",""0"",""3561""
","
","926.0999999996275","<div class='center'><p>Good job! You’re now ready to move on to the real game! Remember this game will be difficult but don't get discouraged and try your best!</p><p><b>[Press the space bar to continue]</b></p></div>","32","","","","","","","","","","","","","","","","","","","","","","",""
"","do_welcome","89","510755","0.0-54.0-0.0","""event"",""trial"",""time""
""fullscreenenter"",""0"",""3561""
","
","
","""event"",""trial"",""time""
""fullscreenenter"",""0"",""3561""
","
","null","","","","","","","","null","","","","","","","","","","","","","","","","",""
"","do_trial","90","516287","0.0-55.0-0.0","""event"",""trial"",""time""
""fullscreenenter"",""0"",""3561""
","
","
","""event"",""trial"",""time""
""fullscreenenter"",""0"",""3561""
","
","955.1999999992549","","","","","","","","49","1,0,0","0","countryside","0","probe-28","0.6","0.3","0.1","1","","","","","","","",""
"","html-keyboard-response","91","517289","0.0-55.0-1.0","""event"",""trial"",""time""
""fullscreenenter"",""0"",""3561""
","
","
","""event"",""trial"",""time""
""fullscreenenter"",""0"",""3561""
","
","null","<p></p>","null","","","","","","","","","","","","","","","","","","","","","","",""
"","do_trial","92","522969","0.0-56.0-0.0","""event"",""trial"",""time""
""fullscreenenter"",""0"",""3561""
","
","
","""event"",""trial"",""time""
""fullscreenenter"",""0"",""3561""
","
","1105.4000000003725","","","","","","","","49","1,0,0","0","countryside","1","probe-101","0.6420922605244712","0.24285123148532894","0.11181017662772057","1","","","","","","","",""
"","html-keyboard-response","93","523972","0.0-56.0-1.0","""event"",""trial"",""time""
""fullscreenenter"",""0"",""3561""
","
","
","""event"",""trial"",""time""
""fullscreenenter"",""0"",""3561""
","
","null","<p></p>","null","","","","","","","","","","","","","","","","","","","","","","",""
"","do_trial","94","528978","0.0-57.0-0.0","""event"",""trial"",""time""
""fullscreenenter"",""0"",""3561""
","
","
","""event"",""trial"",""time""
""fullscreenenter"",""0"",""3561""
","
","433.30000000074506","","","","","","","","50","0,0,0","0","countryside","2","probe-224","0.6202903495369175","0.15544194393685415","0.06679971017669019","0","","","","","","","",""
"","html-keyboard-response","95","529981","0.0-57.0-1.0","""event"",""trial"",""time""
""fullscreenenter"",""0"",""3561""
","
","
","""event"",""trial"",""time""
""fullscreenenter"",""0"",""3561""
","
","null","<p></p>","null","","","","","","","","","","","","","","","","","","","","","","",""
"","do_trial","96","534587","0.0-58.0-0.0","""event"",""trial"",""time""
""fullscreenenter"",""0"",""3561""
","
","
","""event"",""trial"",""time""
""fullscreenenter"",""0"",""3561""
","
","31.90000000037253","","","","","","","","50","0,1,0","0","countryside","3","probe-198","0.5565914386377516","0.22335495599063765","0.1478961511922556","1","","","","","","","",""
"","html-keyboard-response","97","535590","0.0-58.0-1.0","""event"",""trial"",""time""
""fullscreenenter"",""0"",""3561""
","
","
","""event"",""trial"",""time""
""fullscreenenter"",""0"",""3561""
","
","null","<p></p>","null","","","","","","","","","","","","","","","","","","","","","","",""
"","do_trial","98","540732","0.0-59.0-0.0","""event"",""trial"",""time""
""fullscreenenter"",""0"",""3561""
","
","
","""event"",""trial"",""time""
""fullscreenenter"",""0"",""3561""
","
","566.4000000003725","","","","","","","","51","1,1,0","0","countryside","4","probe-89","0.5550616140239032","0.18913743571847025","0.16816897424274102","0","","","","","","","",""
"","html-keyboard-response","99","541734","0.0-59.0-1.0","""event"",""trial"",""time""
""fullscreenenter"",""0"",""3561""
","
","
","""event"",""trial"",""time""
""fullscreenenter"",""0"",""3561""
","
","null","<p></p>","null","","","","","","","","","","","","","","","","","","","","","","",""
"","do_trial","100","546677","0.0-60.0-0.0","""event"",""trial"",""time""
""fullscreenenter"",""0"",""3561""
","
","
","""event"",""trial"",""time""
""fullscreenenter"",""0"",""3561""
","
","367.80000000074506","","","","","","","","50","0,0,0","0","countryside","5","probe-60","0.6313074766351074","0.223358573838598","0.12847605193017875","0","","","","","","","",""
"","html-keyboard-response","101","547679","0.0-60.0-1.0","""event"",""trial"",""time""
""fullscreenenter"",""0"",""3561""
","
","
","""event"",""trial"",""time""
""fullscreenenter"",""0"",""3561""
","
","null","<p></p>","null","","","","","","","","","","","","","","","","","","","","","","",""
"","do_trial","102","552296","0.0-61.0-0.0","""event"",""trial"",""time""
""fullscreenenter"",""0"",""3561""
","
","
","""event"",""trial"",""time""
""fullscreenenter"",""0"",""3561""
","
","43","","","","","","","","49","0,0,0","0","countryside","6","probe-94","0.7789190327951159","0.13053699609554242","0.1738809336320552","0","","","","","","","",""
"","html-keyboard-response","103","553298","0.0-61.0-1.0","""event"",""trial"",""time""
""fullscreenenter"",""0"",""3561""
","
","
","""event"",""trial"",""time""
""fullscreenenter"",""0"",""3561""
","
","null","<p></p>","null","","","","","","","","","","","","","","","","","","","","","","",""
"","do_trial","104","557873","0.0-62.0-0.0","""event"",""trial"",""time""
""fullscreenenter"",""0"",""3561""
","
","
","""event"",""trial"",""time""
""fullscreenenter"",""0"",""3561""
","
","0.3999999985098839","","","","","","","","51","1,0,0","0","countryside","7","probe-83","0.7103582990099198","0.17773346367645043","0.1943434298007061","0","","","","","","","",""
"","html-keyboard-response","105","558875","0.0-62.0-1.0","""event"",""trial"",""time""
""fullscreenenter"",""0"",""3561""
","
","
","""event"",""trial"",""time""
""fullscreenenter"",""0"",""3561""
","
","null","<p></p>","null","","","","","","","","","","","","","","","","","","","","","","",""
"","do_trial","106","563466","0.0-63.0-0.0","""event"",""trial"",""time""
""fullscreenenter"",""0"",""3561""
","
","
","""event"",""trial"",""time""
""fullscreenenter"",""0"",""3561""
","
","0.19999999925494194","","","","","","","","49","1,0,0","0","countryside","8","probe-48","0.6719265696239658","0.28925252499867227","0.20701113353815928","1","","","","","","","",""
"","html-keyboard-response","107","564469","0.0-63.0-1.0","""event"",""trial"",""time""
""fullscreenenter"",""0"",""3561""
","
","
","""event"",""trial"",""time""
""fullscreenenter"",""0"",""3561""
","
","null","<p></p>","null","","","","","","","","","","","","","","","","","","","","","","",""
"","do_trial","108","569545","0.0-64.0-0.0","""event"",""trial"",""time""
""fullscreenenter"",""0"",""3561""
","
","
","""event"",""trial"",""time""
""fullscreenenter"",""0"",""3561""
","
","502.90000000037253","","","","","","","","49","1,0,0","0","countryside","9","probe-71","0.7346560525128308","0.48872509474588227","0.09861392155784743","1","","","","","","","",""
"","html-keyboard-response","109","570548","0.0-64.0-1.0","""event"",""trial"",""time""
""fullscreenenter"",""0"",""3561""
","
","
","""event"",""trial"",""time""
""fullscreenenter"",""0"",""3561""
","
","null","<p></p>","null","","","","","","","","","","","","","","","","","","","","","","",""
"","do_trial","110","575947","0.0-65.0-0.0","""event"",""trial"",""time""
""fullscreenenter"",""0"",""3561""
","
","
","""event"",""trial"",""time""
""fullscreenenter"",""0"",""3561""
","
","824.0999999996275","","","","","","","","49","1,0,0","0","countryside","10","probe-143","0.6589921237719049","0.3700303263596626","0.09510609422525422","1","","","","","","","",""
"","html-keyboard-response","111","576949","0.0-65.0-1.0","""event"",""trial"",""time""
""fullscreenenter"",""0"",""3561""
","
","
","""event"",""trial"",""time""
""fullscreenenter"",""0"",""3561""
","
","null","<p></p>","null","","","","","","","","","","","","","","","","","","","","","","",""
"","do_trial","112","581977","0.0-66.0-0.0","""event"",""trial"",""time""
""fullscreenenter"",""0"",""3561""
","
","
","""event"",""trial"",""time""
""fullscreenenter"",""0"",""3561""
","
","453.90000000037253","","","","","","","","50","0,0,0","0","countryside","11","probe-35","0.5622778363504012","0.22029922520818468","0.12081947858486401","0","","","","","","","",""
"","html-keyboard-response","113","582979","0.0-66.0-1.0","""event"",""trial"",""time""
""fullscreenenter"",""0"",""3561""
","
","
","""event"",""trial"",""time""
""fullscreenenter"",""0"",""3561""
","
","null","<p></p>","null","","","","","","","","","","","","","","","","","","","","","","",""
"","do_trial","114","587962","0.0-67.0-0.0","""event"",""trial"",""time""
""fullscreenenter"",""0"",""3561""
","
","
","""event"",""trial"",""time""
""fullscreenenter"",""0"",""3561""
","
","408.90000000037253","","","","","","","","51","0,0,0","0","countryside","12","probe-33","0.5472457617213056","0.24932842327514368","0.08732443387957954","0","","","","","","","",""
"","html-keyboard-response","115","588964","0.0-67.0-1.0","""event"",""trial"",""time""
""fullscreenenter"",""0"",""3561""
","
","
","""event"",""trial"",""time""
""fullscreenenter"",""0"",""3561""
","
","null","<p></p>","null","","","","","","","","","","","","","","","","","","","","","","",""
"","do_trial","116","593949","0.0-68.0-0.0","""event"",""trial"",""time""
""fullscreenenter"",""0"",""3561""
","
","
","""event"",""trial"",""time""
""fullscreenenter"",""0"",""3561""
","
","410.19999999925494","","","","","","","","50","1,1,0","0","countryside","13","probe-216","0.5025784014025269","0.18957101309083604","0.13183453805471554","1","","","","","","","",""
"","html-keyboard-response","117","594952","0.0-68.0-1.0","""event"",""trial"",""time""
""fullscreenenter"",""0"",""3561""
","
","
","""event"",""trial"",""time""
""fullscreenenter"",""0"",""3561""
","
","null","<p></p>","null","","","","","","","","","","","","","","","","","","","","","","",""
"","do_trial","118","599552","0.0-69.0-0.0","""event"",""trial"",""time""
""fullscreenenter"",""0"",""3561""
","
","
","""event"",""trial"",""time""
""fullscreenenter"",""0"",""3561""
","
","25.899999998509884","","","","","","","","51","0,1,0","0","countryside","14","probe-91","0.6560269939826625","0.2379867368258374","0.18802439293249967","0","","","","","","","",""
"","html-keyboard-response","119","600554","0.0-69.0-1.0","""event"",""trial"",""time""
""fullscreenenter"",""0"",""3561""
","
","
","""event"",""trial"",""time""
""fullscreenenter"",""0"",""3561""
","
","null","<p></p>","null","","","","","","","","","","","","","","","","","","","","","","",""
"","do_trial","120","605555","0.0-70.0-0.0","""event"",""trial"",""time""
""fullscreenenter"",""0"",""3561""
","
","
","""event"",""trial"",""time""
""fullscreenenter"",""0"",""3561""
","
","427.5","","","","","","","","49","0,1,0","0","countryside","15","probe-205","0.6206100824121661","0.3245095018628266","0.22946741188159986","0","","","","","","","",""
"","html-keyboard-response","121","606558","0.0-70.0-1.0","""event"",""trial"",""time""
""fullscreenenter"",""0"",""3561""
","
","
","""event"",""trial"",""time""
""fullscreenenter"",""0"",""3561""
","
","null","<p></p>","null","","","","","","","","","","","","","","","","","","","","","","",""
"","do_trial","122","611188","0.0-71.0-0.0","""event"",""trial"",""time""
""fullscreenenter"",""0"",""3561""
","
","
","""event"",""trial"",""time""
""fullscreenenter"",""0"",""3561""
","
","56.90000000037253","","","","","","","","50","0,1,0","0","countryside","16","probe-49","0.5773612191488878","0.3438682164607025","0.23154719986774752","1","","","","","","","",""
"","html-keyboard-response","123","612191","0.0-71.0-1.0","""event"",""trial"",""time""
""fullscreenenter"",""0"",""3561""
","
","
","""event"",""trial"",""time""
""fullscreenenter"",""0"",""3561""
","
","null","<p></p>","null","","","","","","","","","","","","","","","","","","","","","","",""
"","do_trial","124","617393","0.0-72.0-0.0","""event"",""trial"",""time""
""fullscreenenter"",""0"",""3561""
","
","
","""event"",""trial"",""time""
""fullscreenenter"",""0"",""3561""
","
","627.3999999985099","","","","","","","","51","1,0,1","0","countryside","17","probe-80","0.6132769907800386","0.4081314983985231","0.2786538736807507","1","","","","","","","",""
"","html-keyboard-response","125","618395","0.0-72.0-1.0","""event"",""trial"",""time""
""fullscreenenter"",""0"",""3561""
","
","
","""event"",""trial"",""time""
""fullscreenenter"",""0"",""3561""
","
","null","<p></p>","null","","","","","","","","","","","","","","","","","","","","","","",""
"","do_trial","126","624969","0.0-73.0-0.0","""event"",""trial"",""time""
""fullscreenenter"",""0"",""3561""
","
","
","""event"",""trial"",""time""
""fullscreenenter"",""0"",""3561""
","
","1999.5","","","","","","","","51","1,0,0","0","countryside","18","probe-127","0.6694059486552252","0.446664336765265","0.2129146386086459","0","","","","","","","",""
"","html-keyboard-response","127","625971","0.0-73.0-1.0","""event"",""trial"",""time""
""fullscreenenter"",""0"",""3561""
","
","
","""event"",""trial"",""time""
""fullscreenenter"",""0"",""3561""
","
","null","<p></p>","null","","","","","","","","","","","","","","","","","","","","","","",""
"","do_trial","128","631090","0.0-74.0-0.0","""event"",""trial"",""time""
""fullscreenenter"",""0"",""3561""
","
","
","""event"",""trial"",""time""
""fullscreenenter"",""0"",""3561""
","
","545","","","","","","","","50","1,0,0","0","countryside","19","probe-10","0.7445380377718331","0.34150903801242605","0.19369602425841081","0","","","","","","","",""
"","html-keyboard-response","129","632092","0.0-74.0-1.0","""event"",""trial"",""time""
""fullscreenenter"",""0"",""3561""
","
","
","""event"",""trial"",""time""
""fullscreenenter"",""0"",""3561""
","
","null","<p></p>","null","","","","","","","","","","","","","","","","","","","","","","",""
"","do_trial","130","637050","0.0-75.0-0.0","""event"",""trial"",""time""
""fullscreenenter"",""0"",""3561""
","
","
","""event"",""trial"",""time""
""fullscreenenter"",""0"",""3561""
","
","385","","","","","","","","51","0,0,0","0","countryside","20","probe-11","0.6827106763189512","0.3560661153447653","0.11306587090795893","0","","","","","","","",""
"","html-keyboard-response","131","638052","0.0-75.0-1.0","""event"",""trial"",""time""
""fullscreenenter"",""0"",""3561""
","
","
","""event"",""trial"",""time""
""fullscreenenter"",""0"",""3561""
","
","null","<p></p>","null","","","","","","","","","","","","","","","","","","","","","","",""
"","do_trial","132","642987","0.0-76.0-0.0","""event"",""trial"",""time""
""fullscreenenter"",""0"",""3561""
","
","
","""event"",""trial"",""time""
""fullscreenenter"",""0"",""3561""
","
","361.09999999962747","","","","","","","","49","1,0,0","0","countryside","21","probe-58","0.6148130779045142","0.32468875388471774","0.06586185447537292","1","","","","","","","",""
"","html-keyboard-response","133","643989","0.0-76.0-1.0","""event"",""trial"",""time""
""fullscreenenter"",""0"",""3561""
","
","
","""event"",""trial"",""time""
""fullscreenenter"",""0"",""3561""
","
","null","<p></p>","null","","","","","","","","","","","","","","","","","","","","","","",""
"","do_trial","134","649063","0.0-77.0-0.0","""event"",""trial"",""time""
""fullscreenenter"",""0"",""3561""
","
","
","""event"",""trial"",""time""
""fullscreenenter"",""0"",""3561""
","
","500.09999999962747","","","","","","","","49","0,0,0","0","countryside","22","probe-193","0.4424510670121234","0.2753546151127117","0.12846356551244476","0","","","","","","","",""
"","html-keyboard-response","135","650065","0.0-77.0-1.0","""event"",""trial"",""time""
""fullscreenenter"",""0"",""3561""
","
","
","""event"",""trial"",""time""
""fullscreenenter"",""0"",""3561""
","
","null","<p></p>","null","","","","","","","","","","","","","","","","","","","","","","",""
"","do_trial","136","654650","0.0-78.0-0.0","""event"",""trial"",""time""
""fullscreenenter"",""0"",""3561""
","
","
","""event"",""trial"",""time""
""fullscreenenter"",""0"",""3561""
","
","11.699999999254942","","","","","","","","50","1,0,0","0","countryside","23","probe-66","0.5239513466624302","0.16320436342764438","0.24793744661670225","0","","","","","","","",""
"","html-keyboard-response","137","655653","0.0-78.0-1.0","""event"",""trial"",""time""
""fullscreenenter"",""0"",""3561""
","
","
","""event"",""trial"",""time""
""fullscreenenter"",""0"",""3561""
","
","null","<p></p>","null","","","","","","","","","","","","","","","","","","","","","","",""
"","do_trial","138","660604","0.0-79.0-0.0","""event"",""trial"",""time""
""fullscreenenter"",""0"",""3561""
","
","
","""event"",""trial"",""time""
""fullscreenenter"",""0"",""3561""
","
","377.59999999962747","","","","","","","","50","1,0,0","0","countryside","24","probe-218","0.6125164623403754","0.2752859181015519","0.1560263747828974","0","","","","","","","",""
"","html-keyboard-response","139","661606","0.0-79.0-1.0","""event"",""trial"",""time""
""fullscreenenter"",""0"",""3561""
","
","
","""event"",""trial"",""time""
""fullscreenenter"",""0"",""3561""
","
","null","<p></p>","null","","","","","","","","","","","","","","","","","","","","","","",""
"","do_trial","140","666562","0.0-80.0-0.0","""event"",""trial"",""time""
""fullscreenenter"",""0"",""3561""
","
","
","""event"",""trial"",""time""
""fullscreenenter"",""0"",""3561""
","
","382.1000000014901","","","","","","","","51","1,0,0","0","countryside","25","probe-37","0.591922774763167","0.08742076205501302","0.08598679032683461","0","","","","","","","",""
"","html-keyboard-response","141","667564","0.0-80.0-1.0","""event"",""trial"",""time""
""fullscreenenter"",""0"",""3561""
","
","
","""event"",""trial"",""time""
""fullscreenenter"",""0"",""3561""
","
","null","<p></p>","null","","","","","","","","","","","","","","","","","","","","","","",""
"","do_trial","142","672613","0.0-81.0-0.0","""event"",""trial"",""time""
""fullscreenenter"",""0"",""3561""
","
","
","""event"",""trial"",""time""
""fullscreenenter"",""0"",""3561""
","
","474.2000000011176","","","","","","","","50","1,0,0","0","countryside","26","probe-148","0.5711024960045311","0.24540729802108374","0.1678003968798719","0","","","","","","","",""
"","html-keyboard-response","143","673615","0.0-81.0-1.0","""event"",""trial"",""time""
""fullscreenenter"",""0"",""3561""
","
","
","""event"",""trial"",""time""
""fullscreenenter"",""0"",""3561""
","
","null","<p></p>","null","","","","","","","","","","","","","","","","","","","","","","",""
"","do_trial","144","678538","0.0-82.0-0.0","""event"",""trial"",""time""
""fullscreenenter"",""0"",""3561""
","
","
","""event"",""trial"",""time""
""fullscreenenter"",""0"",""3561""
","
","350.1000000014901","","","","","","","","50","0,0,0","0","countryside","27","probe-13","0.5426220047775476","0.28167522872204376","0.06443724073646181","0","","","","","","","",""
"","html-keyboard-response","145","679540","0.0-82.0-1.0","""event"",""trial"",""time""
""fullscreenenter"",""0"",""3561""
","
","
","""event"",""trial"",""time""
""fullscreenenter"",""0"",""3561""
","
","null","<p></p>","null","","","","","","","","","","","","","","","","","","","","","","",""
"","do_trial","146","684159","0.0-83.0-0.0","""event"",""trial"",""time""
""fullscreenenter"",""0"",""3561""
","
","
","""event"",""trial"",""time""
""fullscreenenter"",""0"",""3561""
","
","45","","","","","","","","49","1,0,0","0","countryside","28","probe-131","0.5616686683415468","0.33468034737885155","0.13394067054463313","1","","","","","","","",""
"","html-keyboard-response","147","685161","0.0-83.0-1.0","""event"",""trial"",""time""
""fullscreenenter"",""0"",""3561""
","
","
","""event"",""trial"",""time""
""fullscreenenter"",""0"",""3561""
","
","null","<p></p>","null","","","","","","","","","","","","","","","","","","","","","","",""
"","do_trial","148","690039","0.0-84.0-0.0","""event"",""trial"",""time""
""fullscreenenter"",""0"",""3561""
","
","
","""event"",""trial"",""time""
""fullscreenenter"",""0"",""3561""
","
","302.7999999988824","","","","","","","","50","1,0,0","0","countryside","29","probe-63","0.6097466582393684","0.2172517228335221","0.1487131095161096","0","","","","","","","",""
"","html-keyboard-response","149","691043","0.0-84.0-1.0","""event"",""trial"",""time""
""fullscreenenter"",""0"",""3561""
","
","
","""event"",""trial"",""time""
""fullscreenenter"",""0"",""3561""
","
","null","<p></p>","null","","","","","","","","","","","","","","","","","","","","","","",""
"","do_bye","150","692549","0.0-85.0-0.0","""event"",""trial"",""time""
""fullscreenenter"",""0"",""3561""
","
","
","""event"",""trial"",""time""
""fullscreenenter"",""0"",""3561""
","
","null","","","","","","","","null","","","","","","","","","","","","","","","","",""
"","break","151","695820","0.0-85.0-1.0","""event"",""trial"",""time""
""fullscreenenter"",""0"",""3561""
","
","
","""event"",""trial"",""time""
""fullscreenenter"",""0"",""3561""
","
","3269.0999999996275","<div class='center'><p>Time to take a quick break! You have 2 minutes to rest, but you can move on sooner if you'd like.</p><p> Press the <b>space bar</b> to continue.</p></div>","32","","","","","","","","","","","","","","","","","","","","","","",""
"","do_travel","152","704823","0.0-86.0-0.0","""event"",""trial"",""time""
""fullscreenenter"",""0"",""3561""
","
","
","""event"",""trial"",""time""
""fullscreenenter"",""0"",""3561""
","
","null","","","","","","","","null","","","","","","","","","","","","","","","","",""
"","do_welcome","153","708831","0.0-86.0-1.0","""event"",""trial"",""time""
""fullscreenenter"",""0"",""3561""
","
","
","""event"",""trial"",""time""
""fullscreenenter"",""0"",""3561""
","
","null","","","","","","","","null","","","","","","","","","","","","","","","","",""
"","do_trial","154","714528","0.0-87.0-0.0","""event"",""trial"",""time""
""fullscreenenter"",""0"",""3561""
","
","
","""event"",""trial"",""time""
""fullscreenenter"",""0"",""3561""
","
","1120.2000000011176","","","","","","","","49","1,0,1","1","coast","30","probe-06","1","0.3229140528882348","0.1387483100758714","1","","","","","","","",""
"","html-keyboard-response","155","715530","0.0-87.0-1.0","""event"",""trial"",""time""
""fullscreenenter"",""0"",""3561""
","
","
","""event"",""trial"",""time""
""fullscreenenter"",""0"",""3561""
","
","null","<p></p>","null","","","","","","","","","","","","","","","","","","","","","","",""
"","do_trial","156","720526","0.0-88.0-0.0","""event"",""trial"",""time""
""fullscreenenter"",""0"",""3561""
","
","
","""event"",""trial"",""time""
""fullscreenenter"",""0"",""3561""
","
","421.59999999962747","","","","","","","","50","1,0,1","1","coast","31","probe-202","1","0.2434870753124492","0.12762445796343108","0","","","","","","","",""
"","html-keyboard-response","157","721528","0.0-88.0-1.0","""event"",""trial"",""time""
""fullscreenenter"",""0"",""3561""
","
","
","""event"",""trial"",""time""
""fullscreenenter"",""0"",""3561""
","
","null","<p></p>","null","","","","","","","","","","","","","","","","","","","","","","",""
"","do_trial","158","726196","0.0-89.0-0.0","""event"",""trial"",""time""
""fullscreenenter"",""0"",""3561""
","
","
","""event"",""trial"",""time""
""fullscreenenter"",""0"",""3561""
","
","93.5","","","","","","","","50","1,0,0","1","coast","32","probe-169","1","0.22307813175836522","0.22283582193681334","0","","","","","","","",""
"","html-keyboard-response","159","727198","0.0-89.0-1.0","""event"",""trial"",""time""
""fullscreenenter"",""0"",""3561""
","
","
","""event"",""trial"",""time""
""fullscreenenter"",""0"",""3561""
","
","null","<p></p>","null","","","","","","","","","","","","","","","","","","","","","","",""
"","do_trial","160","732073","0.0-90.0-0.0","""event"",""trial"",""time""
""fullscreenenter"",""0"",""3561""
","
","
","""event"",""trial"",""time""
""fullscreenenter"",""0"",""3561""
","
","301.2999999988824","","","","","","","","51","0,0,0","1","coast","33","probe-67","0.6346853653707428","0.3100146237413059","0.11970121921866682","0","","","","","","","",""
"","html-keyboard-response","161","733075","0.0-90.0-1.0","""event"",""trial"",""time""
""fullscreenenter"",""0"",""3561""
","
","
","""event"",""trial"",""time""
""fullscreenenter"",""0"",""3561""
","
","null","<p></p>","null","","","","","","","","","","","","","","","","","","","","","","",""
"","do_trial","162","737940","0.0-91.0-0.0","""event"",""trial"",""time""
""fullscreenenter"",""0"",""3561""
","
","
","""event"",""trial"",""time""
""fullscreenenter"",""0"",""3561""
","
","289","","","","","","","","51","1,0,1","1","coast","34","probe-189","0.6555697968081482","0.370117182642778","0.10214884900440875","1","","","","","","","",""
"","html-keyboard-response","163","738942","0.0-91.0-1.0","""event"",""trial"",""time""
""fullscreenenter"",""0"",""3561""
","
","
","""event"",""trial"",""time""
""fullscreenenter"",""0"",""3561""
","
","null","<p></p>","null","","","","","","","","","","","","","","","","","","","","","","",""
"","do_trial","164","743545","0.0-92.0-0.0","""event"",""trial"",""time""
""fullscreenenter"",""0"",""3561""
","
","
","""event"",""trial"",""time""
""fullscreenenter"",""0"",""3561""
","
","30","","","","","","","","51","1,0,0","1","coast","35","probe-160","0.776207539793209","0.2556283452181101","0.25261929343701306","0","","","","","","","",""
"","html-keyboard-response","165","744547","0.0-92.0-1.0","""event"",""trial"",""time""
""fullscreenenter"",""0"",""3561""
","
","
","""event"",""trial"",""time""
""fullscreenenter"",""0"",""3561""
","
","null","<p></p>","null","","","","","","","","","","","","","","","","","","","","","","",""
"","do_trial","166","749857","0.0-93.0-0.0","""event"",""trial"",""time""
""fullscreenenter"",""0"",""3561""
","
","
","""event"",""trial"",""time""
""fullscreenenter"",""0"",""3561""
","
","735.0999999996275","","","","","","","","49","1,0,0","1","coast","36","probe-103","0.6760970851990679","0.3155722923044494","0.19353164645386448","1","","","","","","","",""
"","html-keyboard-response","167","750859","0.0-93.0-1.0","""event"",""trial"",""time""
""fullscreenenter"",""0"",""3561""
","
","
","""event"",""trial"",""time""
""fullscreenenter"",""0"",""3561""
","
","null","<p></p>","null","","","","","","","","","","","","","","","","","","","","","","",""
"","do_trial","168","757278","0.0-94.0-0.0","""event"",""trial"",""time""
""fullscreenenter"",""0"",""3561""
","
","
","""event"",""trial"",""time""
""fullscreenenter"",""0"",""3561""
","
","1844.9000000003725","","","","","","","","49","1,0,0","1","coast","37","probe-217","0.7212549955296766","0.3773713132263982","0.08506837323781388","1","","","","","","","",""
"","html-keyboard-response","169","758281","0.0-94.0-1.0","""event"",""trial"",""time""
""fullscreenenter"",""0"",""3561""
","
","
","""event"",""trial"",""time""
""fullscreenenter"",""0"",""3561""
","
","null","<p></p>","null","","","","","","","","","","","","","","","","","","","","","","",""
"","do_trial","170","763773","0.0-95.0-0.0","""event"",""trial"",""time""
""fullscreenenter"",""0"",""3561""
","
","
","""event"",""trial"",""time""
""fullscreenenter"",""0"",""3561""
","
","917.8000000007451","","","","","","","","50","1,0,1","1","coast","38","probe-106","0.6974877712936072","0.3792350275642235","0.22703251017697715","0","","","","","","","",""
"","html-keyboard-response","171","764775","0.0-95.0-1.0","""event"",""trial"",""time""
""fullscreenenter"",""0"",""3561""
","
","
","""event"",""trial"",""time""
""fullscreenenter"",""0"",""3561""
","
","null","<p></p>","null","","","","","","","","","","","","","","","","","","","","","","",""
"","do_trial","172","769997","0.0-96.0-0.0","""event"",""trial"",""time""
""fullscreenenter"",""0"",""3561""
","
","
","""event"",""trial"",""time""
""fullscreenenter"",""0"",""3561""
","
","647.0999999996275","","","","","","","","51","1,1,0","1","coast","39","probe-77","0.4984695103002379","0.211566520948149","0.11595851989483957","0","","","","","","","",""
"","html-keyboard-response","173","771000","0.0-96.0-1.0","""event"",""trial"",""time""
""fullscreenenter"",""0"",""3561""
","
","
","""event"",""trial"",""time""
""fullscreenenter"",""0"",""3561""
","
","null","<p></p>","null","","","","","","","","","","","","","","","","","","","","","","",""
"","do_trial","174","776269","0.0-97.0-0.0","""event"",""trial"",""time""
""fullscreenenter"",""0"",""3561""
","
","
","""event"",""trial"",""time""
""fullscreenenter"",""0"",""3561""
","
","694.4000000003725","","","","","","","","50","0,1,0","1","coast","40","probe-171","0.5474109465600756","0.38957009487347743","0.10261727019472144","1","","","","","","","",""
"","html-keyboard-response","175","777271","0.0-97.0-1.0","""event"",""trial"",""time""
""fullscreenenter"",""0"",""3561""
","
","
","""event"",""trial"",""time""
""fullscreenenter"",""0"",""3561""
","
","null","<p></p>","null","","","","","","","","","","","","","","","","","","","","","","",""
"","do_trial","176","781846","0.0-98.0-0.0","""event"",""trial"",""time""
""fullscreenenter"",""0"",""3561""
","
","
","""event"",""trial"",""time""
""fullscreenenter"",""0"",""3561""
","
","0.19999999925494194","","","","","","","","51","1,1,0","1","coast","41","probe-97","0.4277006384198579","0.33666637668926597","0.12301608242810863","0","","","","","","","",""
"","html-keyboard-response","177","782849","0.0-98.0-1.0","""event"",""trial"",""time""
""fullscreenenter"",""0"",""3561""
","
","
","""event"",""trial"",""time""
""fullscreenenter"",""0"",""3561""
","
","null","<p></p>","null","","","","","","","","","","","","","","","","","","","","","","",""
"","do_trial","178","787985","0.0-99.0-0.0","""event"",""trial"",""time""
""fullscreenenter"",""0"",""3561""
","
","
","""event"",""trial"",""time""
""fullscreenenter"",""0"",""3561""
","
","561.2000000011176","","","","","","","","49","1,0,0","1","coast","42","probe-187","0.3399981792821685","0.4511084585058529","0.1955065877917097","1","","","","","","","",""
"","html-keyboard-response","179","788987","0.0-99.0-1.0","""event"",""trial"",""time""
""fullscreenenter"",""0"",""3561""
","
","
","""event"",""trial"",""time""
""fullscreenenter"",""0"",""3561""
","
","null","<p></p>","null","","","","","","","","","","","","","","","","","","","","","","",""
"","do_trial","180","793732","0.0-100.0-0.0","""event"",""trial"",""time""
""fullscreenenter"",""0"",""3561""
","
","
","""event"",""trial"",""time""
""fullscreenenter"",""0"",""3561""
","
","171.09999999962747","","","","","","","","50","0,1,0","1","coast","43","probe-88","0.31482783115973584","0.4464080536517877","0.059822807627360856","1","","","","","","","",""
"","html-keyboard-response","181","794734","0.0-100.0-1.0","""event"",""trial"",""time""
""fullscreenenter"",""0"",""3561""
","
","
","""event"",""trial"",""time""
""fullscreenenter"",""0"",""3561""
","
","null","<p></p>","null","","","","","","","","","","","","","","","","","","","","","","",""
"","do_trial","182","799727","0.0-101.0-0.0","""event"",""trial"",""time""
""fullscreenenter"",""0"",""3561""
","
","
","""event"",""trial"",""time""
""fullscreenenter"",""0"",""3561""
","
","416.69999999925494","","","","","","","","50","0,1,0","1","coast","44","probe-150","0.2222454179515958","0.685417578634702","0.10957226151411958","1","","","","","","","",""
"","html-keyboard-response","183","800729","0.0-101.0-1.0","""event"",""trial"",""time""
""fullscreenenter"",""0"",""3561""
","
","
","""event"",""trial"",""time""
""fullscreenenter"",""0"",""3561""
","
","null","<p></p>","null","","","","","","","","","","","","","","","","","","","","","","",""
"","do_trial","184","805305","0.0-102.0-0.0","""event"",""trial"",""time""
""fullscreenenter"",""0"",""3561""
","
","
","""event"",""trial"",""time""
""fullscreenenter"",""0"",""3561""
","
","0.30000000074505806","","","","","","","","50","0,1,0","1","coast","45","probe-225","0.09044343137174904","0.5615930461457753","0.09110910226303005","1","","","","","","","",""
"","html-keyboard-response","185","806307","0.0-102.0-1.0","""event"",""trial"",""time""
""fullscreenenter"",""0"",""3561""
","
","
","""event"",""trial"",""time""
""fullscreenenter"",""0"",""3561""
","
","null","<p></p>","null","","","","","","","","","","","","","","","","","","","","","","",""
"","do_trial","186","810969","0.0-103.0-0.0","""event"",""trial"",""time""
""fullscreenenter"",""0"",""3561""
","
","
","""event"",""trial"",""time""
""fullscreenenter"",""0"",""3561""
","
","87","","","","","","","","50","0,0,0","1","coast","46","probe-72","0.30757496044777016","0.4753101444301959","0.1265559268497139","0","","","","","","","",""
"","html-keyboard-response","187","811971","0.0-103.0-1.0","""event"",""trial"",""time""
""fullscreenenter"",""0"",""3561""
","
","
","""event"",""trial"",""time""
""fullscreenenter"",""0"",""3561""
","
","null","<p></p>","null","","","","","","","","","","","","","","","","","","","","","","",""
"","do_trial","188","816907","0.0-104.0-0.0","""event"",""trial"",""time""
""fullscreenenter"",""0"",""3561""
","
","
","""event"",""trial"",""time""
""fullscreenenter"",""0"",""3561""
","
","360.69999999925494","","","","","","","","49","1,0,0","1","coast","47","probe-141","0.18839024519936026","0.3395608603322558","0.09438702334272767","1","","","","","","","",""
"","html-keyboard-response","189","817909","0.0-104.0-1.0","""event"",""trial"",""time""
""fullscreenenter"",""0"",""3561""
","
","
","""event"",""trial"",""time""
""fullscreenenter"",""0"",""3561""
","
","null","<p></p>","null","","","","","","","","","","","","","","","","","","","","","","",""
"","do_trial","190","822721","0.0-105.0-0.0","""event"",""trial"",""time""
""fullscreenenter"",""0"",""3561""
","
","
","""event"",""trial"",""time""
""fullscreenenter"",""0"",""3561""
","
","238.2000000011176","","","","","","","","49","0,0,0","1","coast","48","probe-31","0.16178030938060844","0.4066489898177585","0.20643247096978584","0","","","","","","","",""
"","html-keyboard-response","191","823724","0.0-105.0-1.0","""event"",""trial"",""time""
""fullscreenenter"",""0"",""3561""
","
","
","""event"",""trial"",""time""
""fullscreenenter"",""0"",""3561""
","
","null","<p></p>","null","","","","","","","","","","","","","","","","","","","","","","",""
"","do_trial","192","828539","0.0-106.0-0.0","""event"",""trial"",""time""
""fullscreenenter"",""0"",""3561""
","
","
","""event"",""trial"",""time""
""fullscreenenter"",""0"",""3561""
","
","240.2999999988824","","","","","","","","49","0,1,1","1","coast","49","probe-03","0.09089482947198324","0.4600638684036516","0.22132870977770697","0","","","","","","","",""
"","html-keyboard-response","193","829541","0.0-106.0-1.0","""event"",""trial"",""time""
""fullscreenenter"",""0"",""3561""
","
","
","""event"",""trial"",""time""
""fullscreenenter"",""0"",""3561""
","
","null","<p></p>","null","","","","","","","","","","","","","","","","","","","","","","",""
"","do_trial","194","834767","0.0-107.0-0.0","""event"",""trial"",""time""
""fullscreenenter"",""0"",""3561""
","
","
","""event"",""trial"",""time""
""fullscreenenter"",""0"",""3561""
","
","652.7000000011176","","","","","","","","51","0,1,1","1","coast","50","probe-42","0.055046222563856675","0.5905767244897346","0.3596066243491117","1","","","","","","","",""
"","html-keyboard-response","195","835770","0.0-107.0-1.0","""event"",""trial"",""time""
""fullscreenenter"",""0"",""3561""
","
","
","""event"",""trial"",""time""
""fullscreenenter"",""0"",""3561""
","
","null","<p></p>","null","","","","","","","","","","","","","","","","","","","","","","",""
"","do_trial","196","840726","0.0-108.0-0.0","""event"",""trial"",""time""
""fullscreenenter"",""0"",""3561""
","
","
","""event"",""trial"",""time""
""fullscreenenter"",""0"",""3561""
","
","382.1000000014901","","","","","","","","51","0,0,0","1","coast","51","probe-144","0.15423360975760791","0.5758049629075154","0.3193649186778582","0","","","","","","","",""
"","html-keyboard-response","197","841729","0.0-108.0-1.0","""event"",""trial"",""time""
""fullscreenenter"",""0"",""3561""
","
","
","""event"",""trial"",""time""
""fullscreenenter"",""0"",""3561""
","
","null","<p></p>","null","","","","","","","","","","","","","","","","","","","","","","",""
"","do_trial","198","846647","0.0-109.0-0.0","""event"",""trial"",""time""
""fullscreenenter"",""0"",""3561""
","
","
","""event"",""trial"",""time""
""fullscreenenter"",""0"",""3561""
","
","343.2999999988824","","","","","","","","50","0,0,1","1","coast","52","probe-220","0.17298443610166792","0.4051625907147324","0.22041696336176636","0","","","","","","","",""
"","html-keyboard-response","199","847649","0.0-109.0-1.0","""event"",""trial"",""time""
""fullscreenenter"",""0"",""3561""
","
","
","""event"",""trial"",""time""
""fullscreenenter"",""0"",""3561""
","
","null","<p></p>","null","","","","","","","","","","","","","","","","","","","","","","",""
"","do_trial","200","852243","0.0-110.0-0.0","""event"",""trial"",""time""
""fullscreenenter"",""0"",""3561""
","
","
","""event"",""trial"",""time""
""fullscreenenter"",""0"",""3561""
","
","20.5","","","","","","","","49","0,1,0","1","coast","53","probe-153","0.15521085066593526","0.5932109111550841","0.2978673051392697","0","","","","","","","",""
"","html-keyboard-response","201","853245","0.0-110.0-1.0","""event"",""trial"",""time""
""fullscreenenter"",""0"",""3561""
","
","
","""event"",""trial"",""time""
""fullscreenenter"",""0"",""3561""
","
","null","<p></p>","null","","","","","","","","","","","","","","","","","","","","","","",""
"","do_trial","202","858089","0.0-111.0-0.0","""event"",""trial"",""time""
""fullscreenenter"",""0"",""3561""
","
","
","""event"",""trial"",""time""
""fullscreenenter"",""0"",""3561""
","
","269.5","","","","","","","","50","0,1,0","1","coast","54","probe-201","0.11312330025380725","0.5392927209480233","0.39014482898193187","1","","","","","","","",""
"","html-keyboard-response","203","859091","0.0-111.0-1.0","""event"",""trial"",""time""
""fullscreenenter"",""0"",""3561""
","
","
","""event"",""trial"",""time""
""fullscreenenter"",""0"",""3561""
","
","null","<p></p>","null","","","","","","","","","","","","","","","","","","","","","","",""
"","do_trial","204","864063","0.0-112.0-0.0","""event"",""trial"",""time""
""fullscreenenter"",""0"",""3561""
","
","
","""event"",""trial"",""time""
""fullscreenenter"",""0"",""3561""
","
","396.3999999985099","","","","","","","","51","0,1,0","1","coast","55","probe-107","0.18203556578902572","0.6067760799206344","0.22231505067806015","0","","","","","","","",""
"","html-keyboard-response","205","865065","0.0-112.0-1.0","""event"",""trial"",""time""
""fullscreenenter"",""0"",""3561""
","
","
","""event"",""trial"",""time""
""fullscreenenter"",""0"",""3561""
","
","null","<p></p>","null","","","","","","","","","","","","","","","","","","","","","","",""
"","do_trial","206","870038","0.0-113.0-0.0","""event"",""trial"",""time""
""fullscreenenter"",""0"",""3561""
","
","
","""event"",""trial"",""time""
""fullscreenenter"",""0"",""3561""
","
","400.59999999962747","","","","","","","","49","0,1,0","1","coast","56","probe-26","0.15806075088804358","0.6858364268429097","0.2769156307696484","0","","","","","","","",""
"","html-keyboard-response","207","871040","0.0-113.0-1.0","""event"",""trial"",""time""
""fullscreenenter"",""0"",""3561""
","
","
","""event"",""trial"",""time""
""fullscreenenter"",""0"",""3561""
","
","null","<p></p>","null","","","","","","","","","","","","","","","","","","","","","","",""
"","do_trial","208","875947","0.0-114.0-0.0","""event"",""trial"",""time""
""fullscreenenter"",""0"",""3561""
","
","
","""event"",""trial"",""time""
""fullscreenenter"",""0"",""3561""
","
","333.80000000074506","","","","","","","","49","0,0,0","1","coast","57","probe-40","0.0870084698542627","0.6157055310492087","0.27765664083150604","0","","","","","","","",""
"","html-keyboard-response","209","876949","0.0-114.0-1.0","""event"",""trial"",""time""
""fullscreenenter"",""0"",""3561""
","
","
","""event"",""trial"",""time""
""fullscreenenter"",""0"",""3561""
","
","null","<p></p>","null","","","","","","","","","","","","","","","","","","","","","","",""
"","do_trial","210","882100","0.0-115.0-0.0","""event"",""trial"",""time""
""fullscreenenter"",""0"",""3561""
","
","
","""event"",""trial"",""time""
""fullscreenenter"",""0"",""3561""
","
","575.4000000003725","","","","","","","","50","0,1,0","1","coast","58","probe-84","0.1720345067863335","0.7555888137348299","0.352252269322146","1","","","","","","","",""
"","html-keyboard-response","211","883102","0.0-115.0-1.0","""event"",""trial"",""time""
""fullscreenenter"",""0"",""3561""
","
","
","""event"",""trial"",""time""
""fullscreenenter"",""0"",""3561""
","
","null","<p></p>","null","","","","","","","","","","","","","","","","","","","","","","",""
"","do_trial","212","887978","0.0-116.0-0.0","""event"",""trial"",""time""
""fullscreenenter"",""0"",""3561""
","
","
","""event"",""trial"",""time""
""fullscreenenter"",""0"",""3561""
","
","301.3999999985099","","","","","","","","50","1,1,0","1","coast","59","probe-190","0.07371183932127476","0.6964289743888722","0.5502296396348538","1","","","","","","","",""
"","html-keyboard-response","213","888980","0.0-116.0-1.0","""event"",""trial"",""time""
""fullscreenenter"",""0"",""3561""
","
","
","""event"",""trial"",""time""
""fullscreenenter"",""0"",""3561""
","
","null","<p></p>","null","","","","","","","","","","","","","","","","","","","","","","",""
"","do_trial","214","893764","0.0-117.0-0.0","""event"",""trial"",""time""
""fullscreenenter"",""0"",""3561""
","
","
","""event"",""trial"",""time""
""fullscreenenter"",""0"",""3561""
","
","209.2999999988824","","","","","","","","50","1,0,0","1","coast","60","probe-96","0.1991744673283348","0.5999699504428401","0.5254258729580756","0","","","","","","","",""
"","html-keyboard-response","215","894766","0.0-117.0-1.0","""event"",""trial"",""time""
""fullscreenenter"",""0"",""3561""
","
","
","""event"",""trial"",""time""
""fullscreenenter"",""0"",""3561""
","
","null","<p></p>","null","","","","","","","","","","","","","","","","","","","","","","",""
"","do_trial","216","899345","0.0-118.0-0.0","""event"",""trial"",""time""
""fullscreenenter"",""0"",""3561""
","
","
","""event"",""trial"",""time""
""fullscreenenter"",""0"",""3561""
","
","0.2999999988824129","","","","","","","","51","0,0,0","1","coast","61","probe-30","0.18680439264727003","0.6210625157796811","0.5398093694227427","0","","","","","","","",""
"","html-keyboard-response","217","900347","0.0-118.0-1.0","""event"",""trial"",""time""
""fullscreenenter"",""0"",""3561""
","
","
","""event"",""trial"",""time""
""fullscreenenter"",""0"",""3561""
","
","null","<p></p>","null","","","","","","","","","","","","","","","","","","","","","","",""
"","do_trial","218","904921","0.0-119.0-0.0","""event"",""trial"",""time""
""fullscreenenter"",""0"",""3561""
","
","
","""event"",""trial"",""time""
""fullscreenenter"",""0"",""3561""
","
","0.30000000074505806","","","","","","","","49","0,0,1","1","coast","62","probe-203","0.08613005735427966","0.45197865134858733","0.42960790814501254","0","","","","","","","",""
"","html-keyboard-response","219","905923","0.0-119.0-1.0","""event"",""trial"",""time""
""fullscreenenter"",""0"",""3561""
","
","
","""event"",""trial"",""time""
""fullscreenenter"",""0"",""3561""
","
","null","<p></p>","null","","","","","","","","","","","","","","","","","","","","","","",""
"","do_trial","220","911413","0.0-120.0-0.0","""event"",""trial"",""time""
""fullscreenenter"",""0"",""3561""
","
","
","""event"",""trial"",""time""
""fullscreenenter"",""0"",""3561""
","
","916.2000000011176","","","","","","","","50","0,0,1","1","coast","63","probe-207","0.08066334446165882","0.5777978747809922","0.2739211143930126","0","","","","","","","",""
"","html-keyboard-response","221","912415","0.0-120.0-1.0","""event"",""trial"",""time""
""fullscreenenter"",""0"",""3561""
","
","
","""event"",""trial"",""time""
""fullscreenenter"",""0"",""3561""
","
","null","<p></p>","null","","","","","","","","","","","","","","","","","","","","","","",""
"","do_trial","222","917718","0.0-121.0-0.0","""event"",""trial"",""time""
""fullscreenenter"",""0"",""3561""
","
","
","""event"",""trial"",""time""
""fullscreenenter"",""0"",""3561""
","
","727.5","","","","","","","","49","0,0,0","1","coast","64","probe-51","0.061937163226991214","0.6749016988849307","0.16099895532101877","0","","","","","","","",""
"","html-keyboard-response","223","918720","0.0-121.0-1.0","""event"",""trial"",""time""
""fullscreenenter"",""0"",""3561""
","
","
","""event"",""trial"",""time""
""fullscreenenter"",""0"",""3561""
","
","null","<p></p>","null","","","","","","","","","","","","","","","","","","","","","","",""
"","do_trial","224","923705","0.0-122.0-0.0","""event"",""trial"",""time""
""fullscreenenter"",""0"",""3561""
","
","
","""event"",""trial"",""time""
""fullscreenenter"",""0"",""3561""
","
","411","","","","","","","","50","0,0,0","1","coast","65","probe-142","0.09865916775477558","0.6115064573156243","0.3328434470213034","0","","","","","","","",""
"","html-keyboard-response","225","924707","0.0-122.0-1.0","""event"",""trial"",""time""
""fullscreenenter"",""0"",""3561""
","
","
","""event"",""trial"",""time""
""fullscreenenter"",""0"",""3561""
","
","null","<p></p>","null","","","","","","","","","","","","","","","","","","","","","","",""
"","do_trial","226","929757","0.0-123.0-0.0","""event"",""trial"",""time""
""fullscreenenter"",""0"",""3561""
","
","
","""event"",""trial"",""time""
""fullscreenenter"",""0"",""3561""
","
","474.90000000037253","","","","","","","","51","0,1,0","1","coast","66","probe-162","0.07766744716804755","0.6088033154467963","0.3537721226490889","0","","","","","","","",""
"","html-keyboard-response","227","930759","0.0-123.0-1.0","""event"",""trial"",""time""
""fullscreenenter"",""0"",""3561""
","
","
","""event"",""trial"",""time""
""fullscreenenter"",""0"",""3561""
","
","null","<p></p>","null","","","","","","","","","","","","","","","","","","","","","","",""
"","do_trial","228","935861","0.0-124.0-0.0","""event"",""trial"",""time""
""fullscreenenter"",""0"",""3561""
","
","
","""event"",""trial"",""time""
""fullscreenenter"",""0"",""3561""
","
","525.8000000007451","","","","","","","","50","0,0,0","1","coast","67","probe-181","0.09521965390834092","0.5517987757690778","0.3305632198406007","0","","","","","","","",""
"","html-keyboard-response","229","936863","0.0-124.0-1.0","""event"",""trial"",""time""
""fullscreenenter"",""0"",""3561""
","
","
","""event"",""trial"",""time""
""fullscreenenter"",""0"",""3561""
","
","null","<p></p>","null","","","","","","","","","","","","","","","","","","","","","","",""
"","do_trial","230","941480","0.0-125.0-0.0","""event"",""trial"",""time""
""fullscreenenter"",""0"",""3561""
","
","
","""event"",""trial"",""time""
""fullscreenenter"",""0"",""3561""
","
","43.5","","","","","","","","51","0,0,1","1","coast","68","probe-211","0.13133275592441795","0.6364518701874754","0.44751760781364314","1","","","","","","","",""
"","html-keyboard-response","231","942483","0.0-125.0-1.0","""event"",""trial"",""time""
""fullscreenenter"",""0"",""3561""
","
","
","""event"",""trial"",""time""
""fullscreenenter"",""0"",""3561""
","
","null","<p></p>","null","","","","","","","","","","","","","","","","","","","","","","",""
"","do_trial","232","947057","0.0-126.0-0.0","""event"",""trial"",""time""
""fullscreenenter"",""0"",""3561""
","
","
","""event"",""trial"",""time""
""fullscreenenter"",""0"",""3561""
","
","0.30000000074505806","","","","","","","","49","0,0,0","1","coast","69","probe-76","0.13129123410320082","0.5294143919233159","0.26899910568500085","0","","","","","","","",""
"","html-keyboard-response","233","948059","0.0-126.0-1.0","""event"",""trial"",""time""
""fullscreenenter"",""0"",""3561""
","
","
","""event"",""trial"",""time""
""fullscreenenter"",""0"",""3561""
","
","null","<p></p>","null","","","","","","","","","","","","","","","","","","","","","","",""
"","do_bye","234","949565","0.0-127.0-0.0","""event"",""trial"",""time""
""fullscreenenter"",""0"",""3561""
","
","
","""event"",""trial"",""time""
""fullscreenenter"",""0"",""3561""
","
","null","","","","","","","","null","","","","","","","","","","","","","","","","",""
"","break","235","952840","0.0-127.0-1.0","""event"",""trial"",""time""
""fullscreenenter"",""0"",""3561""
","
","
","""event"",""trial"",""time""
""fullscreenenter"",""0"",""3561""
","
","3273.0999999996275","<div class='center'><p>Time to take a quick break! You have 2 minutes to rest, but you can move on sooner if you'd like.</p><p> Press the <b>space bar</b> to continue.</p></div>","32","","","","","","","","","","","","","","","","","","","","","","",""
"","do_travel","236","961844","0.0-128.0-0.0","""event"",""trial"",""time""
""fullscreenenter"",""0"",""3561""
","
","
","""event"",""trial"",""time""
""fullscreenenter"",""0"",""3561""
","
","null","","","","","","","","null","","","","","","","","","","","","","","","","",""
"","do_welcome","237","965851","0.0-128.0-1.0","""event"",""trial"",""time""
""fullscreenenter"",""0"",""3561""
","
","
","""event"",""trial"",""time""
""fullscreenenter"",""0"",""3561""
","
","null","","","","","","","","null","","","","","","","","","","","","","","","","",""
"","do_trial","238","971652","0.0-129.0-0.0","""event"",""trial"",""time""
""fullscreenenter"",""0"",""3561""
","
","
","""event"",""trial"",""time""
""fullscreenenter"",""0"",""3561""
","
","1216.800000000745","","","","","","","","50","1,1,1","2","highway","70","probe-108","0.10003074931599397","1","0.41481215030014995","1","","","","","","","",""
"","html-keyboard-response","239","972654","0.0-129.0-1.0","""event"",""trial"",""time""
""fullscreenenter"",""0"",""3561""
","
","
","""event"",""trial"",""time""
""fullscreenenter"",""0"",""3561""
","
","null","<p></p>","null","","","","","","","","","","","","","","","","","","","","","","",""
"","do_trial","240","977637","0.0-130.0-0.0","""event"",""trial"",""time""
""fullscreenenter"",""0"",""3561""
","
","
","""event"",""trial"",""time""
""fullscreenenter"",""0"",""3561""
","
","408.7999999988824","","","","","","","","50","1,1,1","2","highway","71","probe-90","0.06937337271745544","1","0.2764564720762817","1","","","","","","","",""
"","html-keyboard-response","241","978639","0.0-130.0-1.0","""event"",""trial"",""time""
""fullscreenenter"",""0"",""3561""
","
","
","""event"",""trial"",""time""
""fullscreenenter"",""0"",""3561""
","
","null","<p></p>","null","","","","","","","","","","","","","","","","","","","","","","",""
"","do_trial","242","983654","0.0-131.0-0.0","""event"",""trial"",""time""
""fullscreenenter"",""0"",""3561""
","
","
","""event"",""trial"",""time""
""fullscreenenter"",""0"",""3561""
","
","437.1000000014901","","","","","","","","50","0,0,0","2","highway","72","probe-175","0.11457546550905813","0.714328287933206","0.32314227639874094","0","","","","","","","",""
"","html-keyboard-response","243","984658","0.0-131.0-1.0","""event"",""trial"",""time""
""fullscreenenter"",""0"",""3561""
","
","
","""event"",""trial"",""time""
""fullscreenenter"",""0"",""3561""
","
","null","<p></p>","null","","","","","","","","","","","","","","","","","","","","","","",""
"","do_trial","244","990733","0.0-132.0-0.0","""event"",""trial"",""time""
""fullscreenenter"",""0"",""3561""
","
","
","""event"",""trial"",""time""
""fullscreenenter"",""0"",""3561""
","
","null","","","","","","","","null","0,1,0","2","highway","73","probe-112","0.05016103921603752","0.5314929349573622","0.22475050407009783","","","","","","","","",""
"","html-keyboard-response","245","991736","0.0-132.0-1.0","""event"",""trial"",""time""
""fullscreenenter"",""0"",""3561""
","
","
","""event"",""trial"",""time""
""fullscreenenter"",""0"",""3561""
","
","null","<p></p>","null","","","","","","","","","","","","","","","","","","","","","","",""
"","do_trial","246","996821","0.0-133.0-0.0","""event"",""trial"",""time""
""fullscreenenter"",""0"",""3561""
","
","
","""event"",""trial"",""time""
""fullscreenenter"",""0"",""3561""
","
","510.8999999985099","","","","","","","","49","0,1,1","2","highway","74","probe-18","0.08255655430600158","0.5356589837789831","0.3023415812993597","0","","","","","","","",""
"","html-keyboard-response","247","997824","0.0-133.0-1.0","""event"",""trial"",""time""
""fullscreenenter"",""0"",""3561""
","
","
","""event"",""trial"",""time""
""fullscreenenter"",""0"",""3561""
","
","null","<p></p>","null","","","","","","","","","","","","","","","","","","","","","","",""
"","do_trial","248","1002399","0.0-134.0-0.0","""event"",""trial"",""time""
""fullscreenenter"",""0"",""3561""
","
","
","""event"",""trial"",""time""
""fullscreenenter"",""0"",""3561""
","
","0.2999999988824129","","","","","","","","49","1,1,0","2","highway","75","probe-43","0.2344643652386982","0.42878036770732275","0.34152210970904656","1","","","","","","","",""
"","html-keyboard-response","249","1003402","0.0-134.0-1.0","""event"",""trial"",""time""
""fullscreenenter"",""0"",""3561""
","
","
","""event"",""trial"",""time""
""fullscreenenter"",""0"",""3561""
","
","null","<p></p>","null","","","","","","","","","","","","","","","","","","","","","","",""
"","do_trial","250","1008246","0.0-135.0-0.0","""event"",""trial"",""time""
""fullscreenenter"",""0"",""3561""
","
","
","""event"",""trial"",""time""
""fullscreenenter"",""0"",""3561""
","
","270.19999999925494","","","","","","","","50","0,1,0","2","highway","76","probe-47","0.09803564878697224","0.687116787860162","0.20443718861882332","1","","","","","","","",""
"","html-keyboard-response","251","1009249","0.0-135.0-1.0","""event"",""trial"",""time""
""fullscreenenter"",""0"",""3561""
","
","
","""event"",""trial"",""time""
""fullscreenenter"",""0"",""3561""
","
","null","<p></p>","null","","","","","","","","","","","","","","","","","","","","","","",""
"","do_trial","252","1014276","0.0-136.0-0.0","""event"",""trial"",""time""
""fullscreenenter"",""0"",""3561""
","
","
","""event"",""trial"",""time""
""fullscreenenter"",""0"",""3561""
","
","453","","","","","","","","51","0,0,1","2","highway","77","probe-155","0.08273623813762315","0.4780019832386324","0.18313430109009368","1","","","","","","","",""
"","html-keyboard-response","253","1015279","0.0-136.0-1.0","""event"",""trial"",""time""
""fullscreenenter"",""0"",""3561""
","
","
","""event"",""trial"",""time""
""fullscreenenter"",""0"",""3561""
","
","null","<p></p>","null","","","","","","","","","","","","","","","","","","","","","","",""
"","do_trial","254","1020515","0.0-137.0-0.0","""event"",""trial"",""time""
""fullscreenenter"",""0"",""3561""
","
","
","""event"",""trial"",""time""
""fullscreenenter"",""0"",""3561""
","
","660.3000000007451","","","","","","","","51","0,1,1","2","highway","78","probe-191","0.15393164468077172","0.4103895584600997","0.26528006783483177","1","","","","","","","",""
"","html-keyboard-response","255","1021517","0.0-137.0-1.0","""event"",""trial"",""time""
""fullscreenenter"",""0"",""3561""
","
","
","""event"",""trial"",""time""
""fullscreenenter"",""0"",""3561""
","
","null","<p></p>","null","","","","","","","","","","","","","","","","","","","","","","",""
"","do_trial","256","1028794","0.0-138.0-0.0","""event"",""trial"",""time""
""fullscreenenter"",""0"",""3561""
","
","
","""event"",""trial"",""time""
""fullscreenenter"",""0"",""3561""
","
","2703","","","","","","","","51","0,1,1","2","highway","79","probe-174","0.22665294608726","0.43682392259318364","0.3116696470742408","1","","","","","","","",""
"","html-keyboard-response","257","1029797","0.0-138.0-1.0","""event"",""trial"",""time""
""fullscreenenter"",""0"",""3561""
","
","
","""event"",""trial"",""time""
""fullscreenenter"",""0"",""3561""
","
","null","<p></p>","null","","","","","","","","","","","","","","","","","","","","","","",""
"","do_trial","258","1035544","0.0-139.0-0.0","""event"",""trial"",""time""
""fullscreenenter"",""0"",""3561""
","
","
","""event"",""trial"",""time""
""fullscreenenter"",""0"",""3561""
","
","1173.2000000011176","","","","","","","","49","0,1,0","2","highway","80","probe-52","0.4354671516138587","0.5769197288062847","0.3077301587517994","0","","","","","","","",""
"","html-keyboard-response","259","1036546","0.0-139.0-1.0","""event"",""trial"",""time""
""fullscreenenter"",""0"",""3561""
","
","
","""event"",""trial"",""time""
""fullscreenenter"",""0"",""3561""
","
","null","<p></p>","null","","","","","","","","","","","","","","","","","","","","","","",""
"","do_trial","260","1042648","0.0-140.0-0.0","""event"",""trial"",""time""
""fullscreenenter"",""0"",""3561""
","
","
","""event"",""trial"",""time""
""fullscreenenter"",""0"",""3561""
","
","1526.9000000003725","","","","","","","","50","0,1,0","2","highway","81","probe-117","0.4877709677577775","0.641983779385379","0.3142724986326014","1","","","","","","","",""
"","html-keyboard-response","261","1043651","0.0-140.0-1.0","""event"",""trial"",""time""
""fullscreenenter"",""0"",""3561""
","
","
","""event"",""trial"",""time""
""fullscreenenter"",""0"",""3561""
","
