"success","trial_type","trial_index","time_elapsed","internal_node_id","interactions","blur_events","focus_events","fullscreenenter_events","fullscreenexit_events","rt","stimulus","key_press","subject_id","participant_id","age","gender","prompt","response","choice_outcomes","context_n","context_img_id","trial_n","probe_img_id","pR_red","pR_white","pR_black","outcome","contextArray_ind","validImageProbes","invalidImageProbes","pRew_Red","pRew_White","pRew_Black","availableForMemProbe","choice_blocks"
"true","fullscreen","0","3960","0.0-0.0","""event"",""trial"",""time""
""fullscreenenter"",""0"",""2962""
","
","
","""event"",""trial"",""time""
""fullscreenenter"",""0"",""2962""
","
","","","","","","","","","","","","","","","","","","","","","","","","","",""
"","pavlovia","1","3966","0.0-1.0","""event"",""trial"",""time""
""fullscreenenter"",""0"",""2962""
","
","
","""event"",""trial"",""time""
""fullscreenenter"",""0"",""2962""
","
","","","","","","","","","","","","","","","","","","","","","","","","","",""
"","instruc1","2","49404","0.0-2.0","""event"",""trial"",""time""
""fullscreenenter"",""0"",""2962""
","
","
","""event"",""trial"",""time""
""fullscreenenter"",""0"",""2962""
","
","null","run_exp/static/audio/clip_1_welcome.m4a","null","370","439","24","Male","<div class='center'><p>Welcome! This is the first part of the study. It will last ~30 minutes. In part 1 and part 2 of the study, you are the head captain of a pirate ship traveling around the world to different islands. You will play a few different games throughout these two parts. Here is an overview of them:</p><br><p>Part 1 (today)</p><p>1. Instructions, practice game, and quiz</p><p>2. Pick a pirate game on 6 different islands</p><br><p>Part 2 (tomorrow)</p><p>3. Pick a pirate game and memory game</p><p>4. Where did you see this ship? </p></div>","","","","","","","","","","","","","","","","","",""
"","html-keyboard-response","3","49961","0.0-3.0","""event"",""trial"",""time""
""fullscreenenter"",""0"",""2962""
","
","
","""event"",""trial"",""time""
""fullscreenenter"",""0"",""2962""
","
","554.8000000119209","<div class='center'><p>Welcome! This is the first part of the study. It will last ~30 minutes. In part 1 and part 2 of the study, you are the head captain of a pirate ship traveling around the world to different islands. You will play a few different games throughout these two parts. Here is an overview of them:</p><br><p>Part 1 (today)</p><p>1. Instructions, practice game, and quiz</p><p>2. Pick a pirate game on 6 different islands</p><br><p>Part 2 (tomorrow)</p><p>3. Pick a pirate game and memory game</p><p>4. Where did you see this ship? </p><p><b>[Press the space bar to continue]</b></p></div>","32","","","","","","","","","","","","","","","","","","","","","","",""
"","instruc2","4","55268","0.0-4.0","""event"",""trial"",""time""
""fullscreenenter"",""0"",""2962""
","
","
","""event"",""trial"",""time""
""fullscreenenter"",""0"",""2962""
","
","null","run_exp/static/audio/clip_2_different_places.m4a","null","","","","","<div class='center'><p>Today, you’ll visit these 6 islands on your journey. You'll be able to see these islands from your ship.</p><p><img src='run_exp/static/images/contexts/all_contexts.png' height='500'></p></div>","","","","","","","","","","","","","","","","","",""
"","html-keyboard-response","5","56762","0.0-5.0","""event"",""trial"",""time""
""fullscreenenter"",""0"",""2962""
","
","
","""event"",""trial"",""time""
""fullscreenenter"",""0"",""2962""
","
","1492.5999999642372","<div class='center'><p>Today, you’ll visit these 6 islands on your journey. You'll be able to see these islands from your ship.</p><p><img src='run_exp/static/images/contexts/all_contexts.png' height='500'></p><p><b>[Press the space bar to continue]</b></p></div>","32","","","","","","","","","","","","","","","","","","","","","","",""
"","instruc3","6","66447","0.0-6.0","""event"",""trial"",""time""
""fullscreenenter"",""0"",""2962""
","
","
","""event"",""trial"",""time""
""fullscreenenter"",""0"",""2962""
","
","null","run_exp/static/audio/clip_3_goal_of_game_1.m4a","null","","","","","<div class='center'><p> The pirates on your ship will rob other ships as they leave the island.</p> These ships have just sold their goods to the islanders, so they will be filled with lots and lots of gold.</p><p><img src='run_exp/static/images/tutorial/ship_center.png' height='400'></p></div>","","","","","","","","","","","","","","","","","",""
"","html-keyboard-response","7","67920","0.0-7.0","""event"",""trial"",""time""
""fullscreenenter"",""0"",""2962""
","
","
","""event"",""trial"",""time""
""fullscreenenter"",""0"",""2962""
","
","1470.8999999761581","<div class='center'><p> The pirates on your ship will rob other ships as they leave the island.</p> These ships have just sold their goods to the islanders, so they will be filled with lots and lots of gold.</p><p><img src='run_exp/static/images/tutorial/ship_center.png' height='400'></p><p><b>[Press the space bar to continue]</b></p></div>","32","","","","","","","","","","","","","","","","","","","","","","",""
"","instruc4","8","95909","0.0-8.0","""event"",""trial"",""time""
""fullscreenenter"",""0"",""2962""
","
","
","""event"",""trial"",""time""
""fullscreenenter"",""0"",""2962""
","
","null","run_exp/static/audio/clip_4_goal_of_game_2.m4a","null","","","","","<div class='center'><p>As the head captain, you do not have to rob any ships yourself. Another pirate will be doing the robbing for you. First, you will choose a pirate to rob the next ship.</p><p><img src='run_exp/static/images/tutorial/pirates_all_crop.png' height='200'></p><p>Then, you'll see if the pirate successfully robbed the ship of their gold. If they were successful, then you'll get a stack of gold coins like this:</p><p><img src='run_exp/static/images/tutorial/reward.png' height='150'></p><p> If they were <b>not</b> successful, then you'll get no gold coins, and you'll see a big red x like this: </p><p><img src='run_exp/static/images/tutorial/reward_no.png' height='150'></p><p> How much bonus money you make is based on how many gold coins you collect.</p><div>","","","","","","","","","","","","","","","","","",""
"","html-keyboard-response","9","97343","0.0-9.0","""event"",""trial"",""time""
""fullscreenenter"",""0"",""2962""
","
","
","""event"",""trial"",""time""
""fullscreenenter"",""0"",""2962""
","
","1431.800000011921","<div class='center'><p>As the head captain, you do not have to rob any ships yourself. Another pirate will be doing the robbing for you. First, you will choose a pirate to rob the next ship.</p><p><img src='run_exp/static/images/tutorial/pirates_all_crop.png' height='200'></p><p>Then, you'll see if the pirate successfully robbed the ship of their gold. If they were successful, then you'll get a stack of gold coins like this:</p><p><img src='run_exp/static/images/tutorial/reward.png' height='150'></p><p> If they were <b>not</b> successful, then you'll get no gold coins, and you'll see a big red x like this: </p><p><img src='run_exp/static/images/tutorial/reward_no.png' height='150'></p><p> How much bonus money you make is based on how many gold coins you collect.</p<p><b>[Press the space bar to continue]</b></p></div>","32","","","","","","","","","","","","","","","","","","","","","","",""
"","instruc5","10","118446","0.0-10.0","""event"",""trial"",""time""
""fullscreenenter"",""0"",""2962""
","
","
","""event"",""trial"",""time""
""fullscreenenter"",""0"",""2962""
","
","21101.5","run_exp/static/audio/clip_5_probabilistic.m4a","49","","","","","<div class='center'><p>Even the most skilled pirate can not rob EVERY ship.</p><p> Some ships will have very strong protections against pirate attacks.</p><p> Blue beard, here, is very, very good at robbing ships, but he won't be successful every time he tries to rob one.</p><p> You can press the <b>‘1’</b> key on the keyboard to choose him.</p><p> Try choosing him 10 times to see how often he succeeds at robbing a ship. </p><p><img src='run_exp/static/images/tutorial/blue.png' height='500'></p></div>","","","","","","","","","","","","","","","","","",""
"","html-keyboard-response","11","119953","0.0-11.0","""event"",""trial"",""time""
""fullscreenenter"",""0"",""2962""
","
","
","""event"",""trial"",""time""
""fullscreenenter"",""0"",""2962""
","
","null","<div class='center'><p><img src='run_exp/static/images/tutorial/blue_win.png' height='500'></p></div>","null","","","","","","","","","","","","","","","","","","","","","","",""
"","html-keyboard-response","12","121246","0.0-12.0","""event"",""trial"",""time""
""fullscreenenter"",""0"",""2962""
","
","
","""event"",""trial"",""time""
""fullscreenenter"",""0"",""2962""
","
","1292.4000000357628","<div class='center'><img src='run_exp/static/images/tutorial/blue.png' height='500'></p></div>","49","","","","","","","","","","","","","","","","","","","","","","",""
"","html-keyboard-response","13","122750","0.0-13.0","""event"",""trial"",""time""
""fullscreenenter"",""0"",""2962""
","
","
","""event"",""trial"",""time""
""fullscreenenter"",""0"",""2962""
","
","null","<div class='center'><p><img src='run_exp/static/images/tutorial/blue_win.png' height='500'></p></div>","null","","","","","","","","","","","","","","","","","","","","","","",""
"","html-keyboard-response","14","123471","0.0-14.0","""event"",""trial"",""time""
""fullscreenenter"",""0"",""2962""
","
","
","""event"",""trial"",""time""
""fullscreenenter"",""0"",""2962""
","
","719","<div class='center'><img src='run_exp/static/images/tutorial/blue.png' height='500'></p></div>","49","","","","","","","","","","","","","","","","","","","","","","",""
"","html-keyboard-response","15","124975","0.0-15.0","""event"",""trial"",""time""
""fullscreenenter"",""0"",""2962""
","
","
","""event"",""trial"",""time""
""fullscreenenter"",""0"",""2962""
","
","null","<div class='center'><p><img src='run_exp/static/images/tutorial/blue_win.png' height='500'></p></div>","null","","","","","","","","","","","","","","","","","","","","","","",""
"","html-keyboard-response","16","125517","0.0-16.0","""event"",""trial"",""time""
""fullscreenenter"",""0"",""2962""
","
","
","""event"",""trial"",""time""
""fullscreenenter"",""0"",""2962""
","
","540.1999999880791","<div class='center'><img src='run_exp/static/images/tutorial/blue.png' height='500'></p></div>","49","","","","","","","","","","","","","","","","","","","","","","",""
"","html-keyboard-response","17","127018","0.0-17.0","""event"",""trial"",""time""
""fullscreenenter"",""0"",""2962""
","
","
","""event"",""trial"",""time""
""fullscreenenter"",""0"",""2962""
","
","null","<div class='center'><p><img src='run_exp/static/images/tutorial/blue_no_win.png' height='500'></p></div>","null","","","","","","","","","","","","","","","","","","","","","","",""
"","html-keyboard-response","18","127909","0.0-18.0","""event"",""trial"",""time""
""fullscreenenter"",""0"",""2962""
","
","
","""event"",""trial"",""time""
""fullscreenenter"",""0"",""2962""
","
","890.3999999761581","<div class='center'><img src='run_exp/static/images/tutorial/blue.png' height='500'></p></div>","49","","","","","","","","","","","","","","","","","","","","","","",""
"","html-keyboard-response","19","129414","0.0-19.0","""event"",""trial"",""time""
""fullscreenenter"",""0"",""2962""
","
","
","""event"",""trial"",""time""
""fullscreenenter"",""0"",""2962""
","
","null","<div class='center'><p><img src='run_exp/static/images/tutorial/blue_win.png' height='500'></p></div>","null","","","","","","","","","","","","","","","","","","","","","","",""
"","html-keyboard-response","20","130021","0.0-20.0","""event"",""trial"",""time""
""fullscreenenter"",""0"",""2962""
","
","
","""event"",""trial"",""time""
""fullscreenenter"",""0"",""2962""
","
","605.8000000119209","<div class='center'><img src='run_exp/static/images/tutorial/blue.png' height='500'></p></div>","49","","","","","","","","","","","","","","","","","","","","","","",""
"","html-keyboard-response","21","131525","0.0-21.0","""event"",""trial"",""time""
""fullscreenenter"",""0"",""2962""
","
","
","""event"",""trial"",""time""
""fullscreenenter"",""0"",""2962""
","
","null","<div class='center'><p><img src='run_exp/static/images/tutorial/blue_win.png' height='500'></p></div>","null","","","","","","","","","","","","","","","","","","","","","","",""
"","html-keyboard-response","22","132180","0.0-22.0","""event"",""trial"",""time""
""fullscreenenter"",""0"",""2962""
","
","
","""event"",""trial"",""time""
""fullscreenenter"",""0"",""2962""
","
","654","<div class='center'><img src='run_exp/static/images/tutorial/blue.png' height='500'></p></div>","49","","","","","","","","","","","","","","","","","","","","","","",""
"","html-keyboard-response","23","133683","0.0-23.0","""event"",""trial"",""time""
""fullscreenenter"",""0"",""2962""
","
","
","""event"",""trial"",""time""
""fullscreenenter"",""0"",""2962""
","
","null","<div class='center'><p><img src='run_exp/static/images/tutorial/blue_win.png' height='500'></p></div>","null","","","","","","","","","","","","","","","","","","","","","","",""
"","html-keyboard-response","24","134044","0.0-24.0","""event"",""trial"",""time""
""fullscreenenter"",""0"",""2962""
","
","
","""event"",""trial"",""time""
""fullscreenenter"",""0"",""2962""
","
","360.5999999642372","<div class='center'><img src='run_exp/static/images/tutorial/blue.png' height='500'></p></div>","49","","","","","","","","","","","","","","","","","","","","","","",""
"","html-keyboard-response","25","135545","0.0-25.0","""event"",""trial"",""time""
""fullscreenenter"",""0"",""2962""
","
","
","""event"",""trial"",""time""
""fullscreenenter"",""0"",""2962""
","
","null","<div class='center'><p><img src='run_exp/static/images/tutorial/blue_no_win.png' height='500'></p></div>","null","","","","","","","","","","","","","","","","","","","","","","",""
"","html-keyboard-response","26","135956","0.0-26.0","""event"",""trial"",""time""
""fullscreenenter"",""0"",""2962""
","
","
","""event"",""trial"",""time""
""fullscreenenter"",""0"",""2962""
","
","409.7999999523163","<div class='center'><img src='run_exp/static/images/tutorial/blue.png' height='500'></p></div>","49","","","","","","","","","","","","","","","","","","","","","","",""
"","html-keyboard-response","27","137461","0.0-27.0","""event"",""trial"",""time""
""fullscreenenter"",""0"",""2962""
","
","
","""event"",""trial"",""time""
""fullscreenenter"",""0"",""2962""
","
","null","<div class='center'><p><img src='run_exp/static/images/tutorial/blue_win.png' height='500'></p></div>","null","","","","","","","","","","","","","","","","","","","","","","",""
"","html-keyboard-response","28","137891","0.0-28.0","""event"",""trial"",""time""
""fullscreenenter"",""0"",""2962""
","
","
","""event"",""trial"",""time""
""fullscreenenter"",""0"",""2962""
","
","429.19999998807907","<div class='center'><img src='run_exp/static/images/tutorial/blue.png' height='500'></p></div>","49","","","","","","","","","","","","","","","","","","","","","","",""
"","html-keyboard-response","29","139394","0.0-29.0","""event"",""trial"",""time""
""fullscreenenter"",""0"",""2962""
","
","
","""event"",""trial"",""time""
""fullscreenenter"",""0"",""2962""
","
","null","<div class='center'><p><img src='run_exp/static/images/tutorial/blue_win.png' height='500'></p></div>","null","","","","","","","","","","","","","","","","","","","","","","",""
"","instruc6","30","144837","0.0-30.0","""event"",""trial"",""time""
""fullscreenenter"",""0"",""2962""
","
","
","""event"",""trial"",""time""
""fullscreenenter"",""0"",""2962""
","
","null","run_exp/static/audio/clip_6_blue_beard_outcome.m4a","null","","","","","<div class='center'><p> See, he succeeded in robbing the ships most of the time but not every time. </p></div>","","","","","","","","","","","","","","","","","",""
"","html-keyboard-response","31","146133","0.0-31.0","""event"",""trial"",""time""
""fullscreenenter"",""0"",""2962""
","
","
","""event"",""trial"",""time""
""fullscreenenter"",""0"",""2962""
","
","1293.3999999761581","<div class='center'><p> See, he succeeded in robbing the ships most of the time but not every time. </p><p><b>[Press the space bar to continue]</b></p></div>","32","","","","","","","","","","","","","","","","","","","","","","",""
"","audio-keyboard-response","32","162818","0.0-32.0","""event"",""trial"",""time""
""fullscreenenter"",""0"",""2962""
","
","
","""event"",""trial"",""time""
""fullscreenenter"",""0"",""2962""
","
","16683.399999976158","run_exp/static/audio/clip_7_pick_pirate.m4a","49","","","","","","","","","","","","","","","","","","","","","","",""
"","audio-keyboard-response","33","167522","0.0-33.0-0.0","""event"",""trial"",""time""
""fullscreenenter"",""0"",""2962""
","
","
","""event"",""trial"",""time""
""fullscreenenter"",""0"",""2962""
","
","4702.099999964237","run_exp/static/audio/clip_8_chosen_pirate_win.m4a","32","","","","","","","","","","","","","","","","","","","","","","",""
"","audio-keyboard-response","34","170171","0.0-33.0-1.0","""event"",""trial"",""time""
""fullscreenenter"",""0"",""2962""
","
","
","""event"",""trial"",""time""
""fullscreenenter"",""0"",""2962""
","
","2647.800000011921","run_exp/static/audio/clip_9_pick_a_pirate_again.m4a","50","","","","","","","","","","","","","","","","","","","","","","",""
"","audio-keyboard-response","35","174796","0.0-34.0-0.0","""event"",""trial"",""time""
""fullscreenenter"",""0"",""2962""
","
","
","""event"",""trial"",""time""
""fullscreenenter"",""0"",""2962""
","
","4621.899999976158","run_exp/static/audio/clip_10_chosen_pirate_loss.m4a","32","","","","","","","","","","","","","","","","","","","","","","",""
"","instruc9","36","180271","0.0-35.0-0.0","""event"",""trial"",""time""
""fullscreenenter"",""0"",""2962""
","
","
","""event"",""trial"",""time""
""fullscreenenter"",""0"",""2962""
","
","null","run_exp/static/audio/clip_11_time_out.m4a","null","","","","","<div class='center'><p>If you don’t make your choice fast enough, you’ll have to wait a few seconds before you can make another one. </p><p><img src='run_exp/static/images/miscellaneous/hurry_up.png' height='500'></p></div>","","","","","","","","","","","","","","","","","",""
"","html-keyboard-response","37","181812","0.0-35.0-1.0","""event"",""trial"",""time""
""fullscreenenter"",""0"",""2962""
","
","
","""event"",""trial"",""time""
""fullscreenenter"",""0"",""2962""
","
","1539.300000011921","<div class='center'><p>If you don’t make your choice fast enough, you’ll have to wait a few seconds before you can make another one. </p><p><img src='run_exp/static/images/miscellaneous/hurry_up.png' height='500'></p><p><b>[Press the space bar to continue]</b></p></div>","32","","","","","","","","","","","","","","","","","","","","","","",""
"","instruc10","38","220890","0.0-35.0-2.0","""event"",""trial"",""time""
""fullscreenenter"",""0"",""2962""
","
","
","""event"",""trial"",""time""
""fullscreenenter"",""0"",""2962""
","
","null","run_exp/static/audio/clip_12_probe.m4a","null","","","","","<div class='center'><p>Once you've chosen a pirate, you’ll be shown the ship they are robbing. You will never rob the same ship twice. Ships can be told apart from one another by the image on them. These are the goods that they sell. See, this ship has a travel mug on it. </p><p> You’ll have to remember which island you saw each ship on. You will win more gold coins and hence more bonus money if you remember correctly! To help you remember, you can imagine a story. For example, here, you could imagine a mug full of water in the desert. Or, as another example, if on the forest island, your pirate robbed a ship with an apple on it, you could imagine an apple falling from a tree in the forest. </p><p><img src='run_exp/static/images/tutorial/example_probe.png' height='500'></p></div>","","","","","","","","","","","","","","","","","",""
"","html-keyboard-response","39","240424","0.0-35.0-3.0","""event"",""trial"",""time""
""fullscreenenter"",""0"",""2962""
","
","
","""event"",""trial"",""time""
""fullscreenenter"",""0"",""2962""
","
","19531.599999964237","<div class='center'><p>Once you've chosen a pirate, you’ll be shown the ship they are robbing. You will never rob the same ship twice. Ships can be told apart from one another by the image on them. These are the goods that they sell. See, this ship has a travel mug on it. </p><p> You’ll have to remember which island you saw each ship on. You will win more gold coins and hence more bonus money if you remember correctly! To help you remember, you can imagine a story. For example, here, you could imagine a mug full of water in the desert. Or, as another example, if on the forest island, your pirate robbed a ship with an apple on it, you could imagine an apple falling from a tree in the forest. </p><p><img src='run_exp/static/images/tutorial/example_probe.png' height='500'></p><p><b>[Press the space bar to continue]</b></p></div>","32","","","","","","","","","","","","","","","","","","","","","","",""
"","instruc11","40","256966","0.0-35.0-4.0","""event"",""trial"",""time""
""fullscreenenter"",""0"",""2962""
","
","
","""event"",""trial"",""time""
""fullscreenenter"",""0"",""2962""
","
","null","run_exp/static/audio/clip_13_changepoint.m4a","null","","","","","<div class='center'><p>How successful a pirate is at robbing ships will depend on the island you’re on.</p><p> A pirate may have visited this island many times before and gained a lot of practice robbing ships there.</p><p>So, they’re more likely to be successful than a pirate who has never visited the island before.</p></div>","","","","","","","","","","","","","","","","","",""
"","html-keyboard-response","41","259702","0.0-35.0-5.0","""event"",""trial"",""time""
""fullscreenenter"",""0"",""2962""
","
","
","""event"",""trial"",""time""
""fullscreenenter"",""0"",""2962""
","
","2734.899999976158","<div class='center'><p>How successful a pirate is at robbing ships will depend on the island you’re on.</p><p> A pirate may have visited this island many times before and gained a lot of practice robbing ships there.</p><p>So, they’re more likely to be successful than a pirate who has never visited the island before.</p><p><b>[Press the space bar to continue]</b></p></div>","32","","","","","","","","","","","","","","","","","","","","","","",""
"","instruc12","42","300786","0.0-35.0-6.0","""event"",""trial"",""time""
""fullscreenenter"",""0"",""2962""
","
","
","""event"",""trial"",""time""
""fullscreenenter"",""0"",""2962""
","
","null","run_exp/static/audio/clip_14_drift.m4a","null","","","","","<div class='center'><p>How successful a pirate is at robbing ships can also change over the time spent on the island. </p><p> Ships may hear from islanders about the pirates coming and will improve their protections against the attack. This may make it harder to rob them.</p><p> Ships may also become lazy and weaken the strength of their protections. This may make it easier to rob them.</p><br><p>Things are always changing on the high seas! So, try your best to pay attention!</p><p><img src='run_exp/static/images/tutorial/contingency.png' height='500'></p></div>","","","","","","","","","","","","","","","","","",""
"","html-keyboard-response","43","306425","0.0-35.0-7.0","""event"",""trial"",""time""
""fullscreenenter"",""0"",""2962""
","
","
","""event"",""trial"",""time""
""fullscreenenter"",""0"",""2962""
","
","5637.899999976158","<div class='center'><p>How successful a pirate is at robbing ships can also change over the time spent on the island. </p><p> Ships may hear from islanders about the pirates coming and will improve their protections against the attack. This may make it harder to rob them.</p><p> Ships may also become lazy and weaken the strength of their protections. This may make it easier to rob them.</p><br><p>Things are always changing on the high seas! So, try your best to pay attention!</p><p><img src='run_exp/static/images/tutorial/contingency.png' height='500'></p><p><b>[Press the space bar to continue]</b></p></div>","32","","","","","","","","","","","","","","","","","","","","","","",""
"","instruc13","44","341617","0.0-35.0-8.0","""event"",""trial"",""time""
""fullscreenenter"",""0"",""2962""
""blur"",""45"",""353950""
""focus"",""45"",""359929""
""blur"",""45"",""360655""
""focus"",""45"",""361944""
","""event"",""trial"",""time""
""blur"",""45"",""353950""
""blur"",""45"",""360655""
","""event"",""trial"",""time""
""focus"",""45"",""359929""
""focus"",""45"",""361944""
","""event"",""trial"",""time""
""fullscreenenter"",""0"",""2962""
","
","null","run_exp/static/audio/clip_15_summary.m4a","null","","","","","<div class='center'><p>Let's go over the instructions quickly again. You have two important things to do: </p><b><p> 1. Pick the pirate who is the best at robbing ships on the current island. </p></b><b><p> 2. Remember on which island a ship was robbed.</p> </b><p>The amount of bonus money you can win depends on both.</p><p><br><p>Let’s try a practice game. The game will start by showing you the pirates. First, pick a pirate using the <b> 1, 2, 3 </b> keys on your keyboard. When you are shown a ship, try to remember which island you’re on by making up a story.</p><p>This is just a practice game, so you’re not playing for money. </p><p> Good luck! This game will be very difficult but try your best!</p></div>","","","","","","","","","","","","","","","","","",""
"","html-keyboard-response","45","367685","0.0-35.0-9.0","""event"",""trial"",""time""
""fullscreenenter"",""0"",""2962""
""blur"",""45"",""353950""
""focus"",""45"",""359929""
""blur"",""45"",""360655""
""focus"",""45"",""361944""
","""event"",""trial"",""time""
""blur"",""45"",""353950""
""blur"",""45"",""360655""
","""event"",""trial"",""time""
""focus"",""45"",""359929""
""focus"",""45"",""361944""
","""event"",""trial"",""time""
""fullscreenenter"",""0"",""2962""
","
","26064.30000001192","<div class='center'><p>Let's go over the instructions quickly again. You have two important things to do: </p><b><p> 1. Pick the pirate who is the best at robbing ships on the current island. </p></b><b><p> 2. Remember on which island a ship was robbed.</p> </b><p>The amount of bonus money you can win depends on both.</p><p><br><p>Let’s try a practice game. The game will start by showing you the pirates. First, pick a pirate using the <b> 1, 2, 3 </b> keys on your keyboard. When you are shown a ship, try to remember which island you’re on by making up a story.</p><p>This is just a practice game, so you’re not playing for money. </p><p> Good luck! This game will be very difficult but try your best!</p><p><b>[Press the space bar to continue]</b></p></div>","32","","","","","","","","","","","","","","","","","","","","","","",""
"","do_welcome","46","371700","0.0-35.0-10.0","""event"",""trial"",""time""
""fullscreenenter"",""0"",""2962""
""blur"",""45"",""353950""
""focus"",""45"",""359929""
""blur"",""45"",""360655""
""focus"",""45"",""361944""
","""event"",""trial"",""time""
""blur"",""45"",""353950""
""blur"",""45"",""360655""
","""event"",""trial"",""time""
""focus"",""45"",""359929""
""focus"",""45"",""361944""
","""event"",""trial"",""time""
""fullscreenenter"",""0"",""2962""
","
","null","","","","","","","","null","","","","","","","","","","","","","","","","",""
"","do_trial","47","378571","0.0-35.0-11.0","""event"",""trial"",""time""
""fullscreenenter"",""0"",""2962""
""blur"",""45"",""353950""
""focus"",""45"",""359929""
""blur"",""45"",""360655""
""focus"",""45"",""361944""
","""event"",""trial"",""time""
""blur"",""45"",""353950""
""blur"",""45"",""360655""
","""event"",""trial"",""time""
""focus"",""45"",""359929""
""focus"",""45"",""361944""
","""event"",""trial"",""time""
""fullscreenenter"",""0"",""2962""
","
","2361.199999988079","","","","","","","","49","1,0,0","","","","","","","","","","","","","","","",""
"","html-keyboard-response","48","379578","0.0-36.0-0.0","""event"",""trial"",""time""
""fullscreenenter"",""0"",""2962""
""blur"",""45"",""353950""
""focus"",""45"",""359929""
""blur"",""45"",""360655""
""focus"",""45"",""361944""
","""event"",""trial"",""time""
""blur"",""45"",""353950""
""blur"",""45"",""360655""
","""event"",""trial"",""time""
""focus"",""45"",""359929""
""focus"",""45"",""361944""
","""event"",""trial"",""time""
""fullscreenenter"",""0"",""2962""
","
","null","<p></p>","null","","","","","","","","","","","","","","","","","","","","","","",""
"","do_trial","49","386404","0.0-36.0-1.0","""event"",""trial"",""time""
""fullscreenenter"",""0"",""2962""
""blur"",""45"",""353950""
""focus"",""45"",""359929""
""blur"",""45"",""360655""
""focus"",""45"",""361944""
","""event"",""trial"",""time""
""blur"",""45"",""353950""
""blur"",""45"",""360655""
","""event"",""trial"",""time""
""focus"",""45"",""359929""
""focus"",""45"",""361944""
","""event"",""trial"",""time""
""fullscreenenter"",""0"",""2962""
","
","2314.100000023842","","","","","","","","50","1,1,0","","","","","","","","","","","","","","","",""
"","html-keyboard-response","50","387410","0.0-37.0-0.0","""event"",""trial"",""time""
""fullscreenenter"",""0"",""2962""
""blur"",""45"",""353950""
""focus"",""45"",""359929""
""blur"",""45"",""360655""
""focus"",""45"",""361944""
","""event"",""trial"",""time""
""blur"",""45"",""353950""
""blur"",""45"",""360655""
","""event"",""trial"",""time""
""focus"",""45"",""359929""
""focus"",""45"",""361944""
","""event"",""trial"",""time""
""fullscreenenter"",""0"",""2962""
","
","null","<p></p>","null","","","","","","","","","","","","","","","","","","","","","","",""
"","do_trial","51","393194","0.0-37.0-1.0","""event"",""trial"",""time""
""fullscreenenter"",""0"",""2962""
""blur"",""45"",""353950""
""focus"",""45"",""359929""
""blur"",""45"",""360655""
""focus"",""45"",""361944""
","""event"",""trial"",""time""
""blur"",""45"",""353950""
""blur"",""45"",""360655""
","""event"",""trial"",""time""
""focus"",""45"",""359929""
""focus"",""45"",""361944""
","""event"",""trial"",""time""
""fullscreenenter"",""0"",""2962""
","
","1272.4000000357628","","","","","","","","51","1,0,1","","","","","","","","","","","","","","","",""
"","html-keyboard-response","52","394199","0.0-38.0-0.0","""event"",""trial"",""time""
""fullscreenenter"",""0"",""2962""
""blur"",""45"",""353950""
""focus"",""45"",""359929""
""blur"",""45"",""360655""
""focus"",""45"",""361944""
","""event"",""trial"",""time""
""blur"",""45"",""353950""
""blur"",""45"",""360655""
","""event"",""trial"",""time""
""focus"",""45"",""359929""
""focus"",""45"",""361944""
","""event"",""trial"",""time""
""fullscreenenter"",""0"",""2962""
","
","null","<p></p>","null","","","","","","","","","","","","","","","","","","","","","","",""
"","do_trial","53","400200","0.0-38.0-1.0","""event"",""trial"",""time""
""fullscreenenter"",""0"",""2962""
""blur"",""45"",""353950""
""focus"",""45"",""359929""
""blur"",""45"",""360655""
""focus"",""45"",""361944""
","""event"",""trial"",""time""
""blur"",""45"",""353950""
""blur"",""45"",""360655""
","""event"",""trial"",""time""
""focus"",""45"",""359929""
""focus"",""45"",""361944""
","""event"",""trial"",""time""
""fullscreenenter"",""0"",""2962""
","
","1490","","","","","","","","49","0,1,0","","","","","","","","","","","","","","","",""
"","html-keyboard-response","54","401205","0.0-39.0-0.0","""event"",""trial"",""time""
""fullscreenenter"",""0"",""2962""
""blur"",""45"",""353950""
""focus"",""45"",""359929""
""blur"",""45"",""360655""
""focus"",""45"",""361944""
","""event"",""trial"",""time""
""blur"",""45"",""353950""
""blur"",""45"",""360655""
","""event"",""trial"",""time""
""focus"",""45"",""359929""
""focus"",""45"",""361944""
","""event"",""trial"",""time""
""fullscreenenter"",""0"",""2962""
","
","null","<p></p>","null","","","","","","","","","","","","","","","","","","","","","","",""
"","do_trial","55","407197","0.0-39.0-1.0","""event"",""trial"",""time""
""fullscreenenter"",""0"",""2962""
""blur"",""45"",""353950""
""focus"",""45"",""359929""
""blur"",""45"",""360655""
""focus"",""45"",""361944""
","""event"",""trial"",""time""
""blur"",""45"",""353950""
""blur"",""45"",""360655""
","""event"",""trial"",""time""
""focus"",""45"",""359929""
""focus"",""45"",""361944""
","""event"",""trial"",""time""
""fullscreenenter"",""0"",""2962""
","
","1482.1000000238419","","","","","","","","50","1,0,0","","","","","","","","","","","","","","","",""
"","do_bye","56","408705","0.0-40.0-0.0","""event"",""trial"",""time""
""fullscreenenter"",""0"",""2962""
""blur"",""45"",""353950""
""focus"",""45"",""359929""
""blur"",""45"",""360655""
""focus"",""45"",""361944""
","""event"",""trial"",""time""
""blur"",""45"",""353950""
""blur"",""45"",""360655""
","""event"",""trial"",""time""
""focus"",""45"",""359929""
""focus"",""45"",""361944""
","""event"",""trial"",""time""
""fullscreenenter"",""0"",""2962""
","
","null","","","","","","","","null","","","","","","","","","","","","","","","","",""
"","do_travel","57","417709","0.0-40.0-1.0","""event"",""trial"",""time""
""fullscreenenter"",""0"",""2962""
""blur"",""45"",""353950""
""focus"",""45"",""359929""
""blur"",""45"",""360655""
""focus"",""45"",""361944""
","""event"",""trial"",""time""
""blur"",""45"",""353950""
""blur"",""45"",""360655""
","""event"",""trial"",""time""
""focus"",""45"",""359929""
""focus"",""45"",""361944""
","""event"",""trial"",""time""
""fullscreenenter"",""0"",""2962""
","
","null","","","","","","","","null","","","","","","","","","","","","","","","","",""
"","do_welcome","58","421719","0.0-40.0-2.0","""event"",""trial"",""time""
""fullscreenenter"",""0"",""2962""
""blur"",""45"",""353950""
""focus"",""45"",""359929""
""blur"",""45"",""360655""
""focus"",""45"",""361944""
","""event"",""trial"",""time""
""blur"",""45"",""353950""
""blur"",""45"",""360655""
","""event"",""trial"",""time""
""focus"",""45"",""359929""
""focus"",""45"",""361944""
","""event"",""trial"",""time""
""fullscreenenter"",""0"",""2962""
","
","null","","","","","","","","null","","","","","","","","","","","","","","","","",""
"","do_trial","59","426915","0.0-40.0-3.0","""event"",""trial"",""time""
""fullscreenenter"",""0"",""2962""
""blur"",""45"",""353950""
""focus"",""45"",""359929""
""blur"",""45"",""360655""
""focus"",""45"",""361944""
","""event"",""trial"",""time""
""blur"",""45"",""353950""
""blur"",""45"",""360655""
","""event"",""trial"",""time""
""focus"",""45"",""359929""
""focus"",""45"",""361944""
","""event"",""trial"",""time""
""fullscreenenter"",""0"",""2962""
","
","686.0999999642372","","","","","","","","49","1,0,0","","","","","","","","","","","","","","","",""
"","html-keyboard-response","60","427923","0.0-41.0-0.0","""event"",""trial"",""time""
""fullscreenenter"",""0"",""2962""
""blur"",""45"",""353950""
""focus"",""45"",""359929""
""blur"",""45"",""360655""
""focus"",""45"",""361944""
","""event"",""trial"",""time""
""blur"",""45"",""353950""
""blur"",""45"",""360655""
","""event"",""trial"",""time""
""focus"",""45"",""359929""
""focus"",""45"",""361944""
","""event"",""trial"",""time""
""fullscreenenter"",""0"",""2962""
","
","null","<p></p>","null","","","","","","","","","","","","","","","","","","","","","","",""
"","do_trial","61","433613","0.0-41.0-1.0","""event"",""trial"",""time""
""fullscreenenter"",""0"",""2962""
""blur"",""45"",""353950""
""focus"",""45"",""359929""
""blur"",""45"",""360655""
""focus"",""45"",""361944""
","""event"",""trial"",""time""
""blur"",""45"",""353950""
""blur"",""45"",""360655""
","""event"",""trial"",""time""
""focus"",""45"",""359929""
""focus"",""45"",""361944""
","""event"",""trial"",""time""
""fullscreenenter"",""0"",""2962""
","
","1177.4000000357628","","","","","","","","49","1,0,1","","","","","","","","","","","","","","","",""
"","html-keyboard-response","62","434618","0.0-42.0-0.0","""event"",""trial"",""time""
""fullscreenenter"",""0"",""2962""
""blur"",""45"",""353950""
""focus"",""45"",""359929""
""blur"",""45"",""360655""
""focus"",""45"",""361944""
","""event"",""trial"",""time""
""blur"",""45"",""353950""
""blur"",""45"",""360655""
","""event"",""trial"",""time""
""focus"",""45"",""359929""
""focus"",""45"",""361944""
","""event"",""trial"",""time""
""fullscreenenter"",""0"",""2962""
","
","null","<p></p>","null","","","","","","","","","","","","","","","","","","","","","","",""
"","do_trial","63","440118","0.0-42.0-1.0","""event"",""trial"",""time""
""fullscreenenter"",""0"",""2962""
""blur"",""45"",""353950""
""focus"",""45"",""359929""
""blur"",""45"",""360655""
""focus"",""45"",""361944""
","""event"",""trial"",""time""
""blur"",""45"",""353950""
""blur"",""45"",""360655""
","""event"",""trial"",""time""
""focus"",""45"",""359929""
""focus"",""45"",""361944""
","""event"",""trial"",""time""
""fullscreenenter"",""0"",""2962""
","
","990.6999999880791","","","","","","","","50","1,1,0","","","","","","","","","","","","","","","",""
"","html-keyboard-response","64","441123","0.0-43.0-0.0","""event"",""trial"",""time""
""fullscreenenter"",""0"",""2962""
""blur"",""45"",""353950""
""focus"",""45"",""359929""
""blur"",""45"",""360655""
""focus"",""45"",""361944""
","""event"",""trial"",""time""
""blur"",""45"",""353950""
""blur"",""45"",""360655""
","""event"",""trial"",""time""
""focus"",""45"",""359929""
""focus"",""45"",""361944""
","""event"",""trial"",""time""
""fullscreenenter"",""0"",""2962""
","
","null","<p></p>","null","","","","","","","","","","","","","","","","","","","","","","",""
"","do_trial","65","446026","0.0-43.0-1.0","""event"",""trial"",""time""
""fullscreenenter"",""0"",""2962""
""blur"",""45"",""353950""
""focus"",""45"",""359929""
""blur"",""45"",""360655""
""focus"",""45"",""361944""
","""event"",""trial"",""time""
""blur"",""45"",""353950""
""blur"",""45"",""360655""
","""event"",""trial"",""time""
""focus"",""45"",""359929""
""focus"",""45"",""361944""
","""event"",""trial"",""time""
""fullscreenenter"",""0"",""2962""
","
","391.80000001192093","","","","","","","","51","0,0,1","","","","","","","","","","","","","","","",""
"","html-keyboard-response","66","447034","0.0-44.0-0.0","""event"",""trial"",""time""
""fullscreenenter"",""0"",""2962""
""blur"",""45"",""353950""
""focus"",""45"",""359929""
""blur"",""45"",""360655""
""focus"",""45"",""361944""
","""event"",""trial"",""time""
""blur"",""45"",""353950""
""blur"",""45"",""360655""
","""event"",""trial"",""time""
""focus"",""45"",""359929""
""focus"",""45"",""361944""
","""event"",""trial"",""time""
""fullscreenenter"",""0"",""2962""
","
","null","<p></p>","null","","","","","","","","","","","","","","","","","","","","","","",""
"","do_trial","67","452079","0.0-44.0-1.0","""event"",""trial"",""time""
""fullscreenenter"",""0"",""2962""
""blur"",""45"",""353950""
""focus"",""45"",""359929""
""blur"",""45"",""360655""
""focus"",""45"",""361944""
","""event"",""trial"",""time""
""blur"",""45"",""353950""
""blur"",""45"",""360655""
","""event"",""trial"",""time""
""focus"",""45"",""359929""
""focus"",""45"",""361944""
","""event"",""trial"",""time""
""fullscreenenter"",""0"",""2962""
","
","537.9000000357628","","","","","","","","49","1,0,1","","","","","","","","","","","","","","","",""
"","html-keyboard-response","68","457292","0.0-45.0-0.0","""event"",""trial"",""time""
""fullscreenenter"",""0"",""2962""
""blur"",""45"",""353950""
""focus"",""45"",""359929""
""blur"",""45"",""360655""
""focus"",""45"",""361944""
","""event"",""trial"",""time""
""blur"",""45"",""353950""
""blur"",""45"",""360655""
","""event"",""trial"",""time""
""focus"",""45"",""359929""
""focus"",""45"",""361944""
","""event"",""trial"",""time""
""fullscreenenter"",""0"",""2962""
","
","5209.099999964237","<div class='center'><p><img src='run_exp/static/images/tutorial/prac_best_pirate.png'  height='500'></p></div>","49","","","","","","","","","","","","","","","","","","","","","","",""
"","html-keyboard-response","69","460816","0.0-46.0-0.0","""event"",""trial"",""time""
""fullscreenenter"",""0"",""2962""
""blur"",""45"",""353950""
""focus"",""45"",""359929""
""blur"",""45"",""360655""
""focus"",""45"",""361944""
","""event"",""trial"",""time""
""blur"",""45"",""353950""
""blur"",""45"",""360655""
","""event"",""trial"",""time""
""focus"",""45"",""359929""
""focus"",""45"",""361944""
","""event"",""trial"",""time""
""fullscreenenter"",""0"",""2962""
","
","3522.900000035763","<div class='center'><p>That's correct! Red beard was the best.</p><p><b>[Press the space bar to continue]</b></p></div>","32","","","","","","","","","","","","","","","","","","","","","","",""
"","html-keyboard-response","70","464552","0.0-46.0-1.0","""event"",""trial"",""time""
""fullscreenenter"",""0"",""2962""
""blur"",""45"",""353950""
""focus"",""45"",""359929""
""blur"",""45"",""360655""
""focus"",""45"",""361944""
","""event"",""trial"",""time""
""blur"",""45"",""353950""
""blur"",""45"",""360655""
","""event"",""trial"",""time""
""focus"",""45"",""359929""
""focus"",""45"",""361944""
","""event"",""trial"",""time""
""fullscreenenter"",""0"",""2962""
","
","3733.900000035763","<div class='center'><p><img src='run_exp/static/images/tutorial/prac_source.png'  height='500'></p></div>","50","","","","","","","","","","","","","","","","","","","","","","",""
"","html-keyboard-response","71","467158","0.0-47.0-0.0","""event"",""trial"",""time""
""fullscreenenter"",""0"",""2962""
""blur"",""45"",""353950""
""focus"",""45"",""359929""
""blur"",""45"",""360655""
""focus"",""45"",""361944""
","""event"",""trial"",""time""
""blur"",""45"",""353950""
""blur"",""45"",""360655""
","""event"",""trial"",""time""
""focus"",""45"",""359929""
""focus"",""45"",""361944""
","""event"",""trial"",""time""
""fullscreenenter"",""0"",""2962""
","
","2605.5","<div class='center'><p>That's correct! You saw this ship on the cavern island.</p><p><b>[Press the space bar to continue]</b></p></div>","32","","","","","","","","","","","","","","","","","","","","","","",""
"","quiz_beginning","72","478571","0.0-47.0-1.0","""event"",""trial"",""time""
""fullscreenenter"",""0"",""2962""
""blur"",""45"",""353950""
""focus"",""45"",""359929""
""blur"",""45"",""360655""
""focus"",""45"",""361944""
","""event"",""trial"",""time""
""blur"",""45"",""353950""
""blur"",""45"",""360655""
","""event"",""trial"",""time""
""focus"",""45"",""359929""
""focus"",""45"",""361944""
","""event"",""trial"",""time""
""fullscreenenter"",""0"",""2962""
","
","null","run_exp/static/audio/clip_16_quiz_intro.m4a","null","","","","","<div class='center'><p>Good job on the practice game! Now, you will be asked some true or false questions to make sure you really understand the rules of the game.</p><p> Press <b>'1'</b> on the keyboard for true and press <b>'2'</b> for false.</p></div>","","","","","","","","","","","","","","","","","",""
"","audio-keyboard-response","73","482462","0.0-47.0-2.0","""event"",""trial"",""time""
""fullscreenenter"",""0"",""2962""
""blur"",""45"",""353950""
""focus"",""45"",""359929""
""blur"",""45"",""360655""
""focus"",""45"",""361944""
","""event"",""trial"",""time""
""blur"",""45"",""353950""
""blur"",""45"",""360655""
","""event"",""trial"",""time""
""focus"",""45"",""359929""
""focus"",""45"",""361944""
","""event"",""trial"",""time""
""fullscreenenter"",""0"",""2962""
","
","3886.800000011921","run_exp/static/audio/clip_17_q1.m4a","49","","","","","","","","","","","","","","","","","","","","","","",""
"","correct","74","484864","0.0-48.0-0.0","""event"",""trial"",""time""
""fullscreenenter"",""0"",""2962""
""blur"",""45"",""353950""
""focus"",""45"",""359929""
""blur"",""45"",""360655""
""focus"",""45"",""361944""
","""event"",""trial"",""time""
""blur"",""45"",""353950""
""blur"",""45"",""360655""
","""event"",""trial"",""time""
""focus"",""45"",""359929""
""focus"",""45"",""361944""
","""event"",""trial"",""time""
""fullscreenenter"",""0"",""2962""
","
","null","run_exp/static/audio/clip_18_correct.m4a","null","","","","","<div class='center'><p>That's correct!</p></div>","","","","","","","","","","","","","","","","","",""
"","html-keyboard-response","75","486467","0.0-48.0-1.0","""event"",""trial"",""time""
""fullscreenenter"",""0"",""2962""
""blur"",""45"",""353950""
""focus"",""45"",""359929""
""blur"",""45"",""360655""
""focus"",""45"",""361944""
","""event"",""trial"",""time""
""blur"",""45"",""353950""
""blur"",""45"",""360655""
","""event"",""trial"",""time""
""focus"",""45"",""359929""
""focus"",""45"",""361944""
","""event"",""trial"",""time""
""fullscreenenter"",""0"",""2962""
","
","1601.800000011921","<div class='center'><p>That's correct!</p><p><b>[Press the space bar to continue]</b></p></div>","32","","","","","","","","","","","","","","","","","","","","","","",""
"","audio-keyboard-response","76","494810","0.0-48.0-2.0","""event"",""trial"",""time""
""fullscreenenter"",""0"",""2962""
""blur"",""45"",""353950""
""focus"",""45"",""359929""
""blur"",""45"",""360655""
""focus"",""45"",""361944""
","""event"",""trial"",""time""
""blur"",""45"",""353950""
""blur"",""45"",""360655""
","""event"",""trial"",""time""
""focus"",""45"",""359929""
""focus"",""45"",""361944""
","""event"",""trial"",""time""
""fullscreenenter"",""0"",""2962""
","
","8339.699999988079","run_exp/static/audio/clip_20_q2.m4a","50","","","","","","","","","","","","","","","","","","","","","","",""
"","correct","77","497217","0.0-49.0-0.0","""event"",""trial"",""time""
""fullscreenenter"",""0"",""2962""
""blur"",""45"",""353950""
""focus"",""45"",""359929""
""blur"",""45"",""360655""
""focus"",""45"",""361944""
","""event"",""trial"",""time""
""blur"",""45"",""353950""
""blur"",""45"",""360655""
","""event"",""trial"",""time""
""focus"",""45"",""359929""
""focus"",""45"",""361944""
","""event"",""trial"",""time""
""fullscreenenter"",""0"",""2962""
","
","null","run_exp/static/audio/clip_18_correct.m4a","null","","","","","<div class='center'><p>That's correct!</p></div>","","","","","","","","","","","","","","","","","",""
"","html-keyboard-response","78","498441","0.0-49.0-1.0","""event"",""trial"",""time""
""fullscreenenter"",""0"",""2962""
""blur"",""45"",""353950""
""focus"",""45"",""359929""
""blur"",""45"",""360655""
""focus"",""45"",""361944""
","""event"",""trial"",""time""
""blur"",""45"",""353950""
""blur"",""45"",""360655""
","""event"",""trial"",""time""
""focus"",""45"",""359929""
""focus"",""45"",""361944""
","""event"",""trial"",""time""
""fullscreenenter"",""0"",""2962""
","
","1222.3999999761581","<div class='center'><p>That's correct!</p><p><b>[Press the space bar to continue]</b></p></div>","32","","","","","","","","","","","","","","","","","","","","","","",""
"","audio-keyboard-response","79","505250","0.0-49.0-2.0","""event"",""trial"",""time""
""fullscreenenter"",""0"",""2962""
""blur"",""45"",""353950""
""focus"",""45"",""359929""
""blur"",""45"",""360655""
""focus"",""45"",""361944""
","""event"",""trial"",""time""
""blur"",""45"",""353950""
""blur"",""45"",""360655""
","""event"",""trial"",""time""
""focus"",""45"",""359929""
""focus"",""45"",""361944""
","""event"",""trial"",""time""
""fullscreenenter"",""0"",""2962""
","
","6805.899999976158","run_exp/static/audio/clip_22_q3.m4a","50","","","","","","","","","","","","","","","","","","","","","","",""
"","correct","80","507649","0.0-50.0-0.0","""event"",""trial"",""time""
""fullscreenenter"",""0"",""2962""
""blur"",""45"",""353950""
""focus"",""45"",""359929""
""blur"",""45"",""360655""
""focus"",""45"",""361944""
","""event"",""trial"",""time""
""blur"",""45"",""353950""
""blur"",""45"",""360655""
","""event"",""trial"",""time""
""focus"",""45"",""359929""
""focus"",""45"",""361944""
","""event"",""trial"",""time""
""fullscreenenter"",""0"",""2962""
","
","null","run_exp/static/audio/clip_18_correct.m4a","null","","","","","<div class='center'><p>That's correct!</p></div>","","","","","","","","","","","","","","","","","",""
"","html-keyboard-response","81","508654","0.0-50.0-1.0","""event"",""trial"",""time""
""fullscreenenter"",""0"",""2962""
""blur"",""45"",""353950""
""focus"",""45"",""359929""
""blur"",""45"",""360655""
""focus"",""45"",""361944""
","""event"",""trial"",""time""
""blur"",""45"",""353950""
""blur"",""45"",""360655""
","""event"",""trial"",""time""
""focus"",""45"",""359929""
""focus"",""45"",""361944""
","""event"",""trial"",""time""
""fullscreenenter"",""0"",""2962""
","
","1003.6000000238419","<div class='center'><p>That's correct!</p><p><b>[Press the space bar to continue]</b></p></div>","32","","","","","","","","","","","","","","","","","","","","","","",""
"","audio-keyboard-response","82","512966","0.0-50.0-2.0","""event"",""trial"",""time""
""fullscreenenter"",""0"",""2962""
""blur"",""45"",""353950""
""focus"",""45"",""359929""
""blur"",""45"",""360655""
""focus"",""45"",""361944""
","""event"",""trial"",""time""
""blur"",""45"",""353950""
""blur"",""45"",""360655""
","""event"",""trial"",""time""
""focus"",""45"",""359929""
""focus"",""45"",""361944""
","""event"",""trial"",""time""
""fullscreenenter"",""0"",""2962""
","
","4309.800000011921","run_exp/static/audio/clip_24_q4.m4a","49","","","","","","","","","","","","","","","","","","","","","","",""
"","correct","83","515393","0.0-51.0-0.0","""event"",""trial"",""time""
""fullscreenenter"",""0"",""2962""
""blur"",""45"",""353950""
""focus"",""45"",""359929""
""blur"",""45"",""360655""
""focus"",""45"",""361944""
","""event"",""trial"",""time""
""blur"",""45"",""353950""
""blur"",""45"",""360655""
","""event"",""trial"",""time""
""focus"",""45"",""359929""
""focus"",""45"",""361944""
","""event"",""trial"",""time""
""fullscreenenter"",""0"",""2962""
","
","null","run_exp/static/audio/clip_18_correct.m4a","null","","","","","<div class='center'><p>That's correct!</p></div>","","","","","","","","","","","","","","","","","",""
"","html-keyboard-response","84","515831","0.0-51.0-1.0","""event"",""trial"",""time""
""fullscreenenter"",""0"",""2962""
""blur"",""45"",""353950""
""focus"",""45"",""359929""
""blur"",""45"",""360655""
""focus"",""45"",""361944""
","""event"",""trial"",""time""
""blur"",""45"",""353950""
""blur"",""45"",""360655""
","""event"",""trial"",""time""
""focus"",""45"",""359929""
""focus"",""45"",""361944""
","""event"",""trial"",""time""
""fullscreenenter"",""0"",""2962""
","
","436.60000002384186","<div class='center'><p>That's correct!</p><p><b>[Press the space bar to continue]</b></p></div>","32","","","","","","","","","","","","","","","","","","","","","","",""
"","q_all_corr","85","524331","0.0-52.0-0.0","""event"",""trial"",""time""
""fullscreenenter"",""0"",""2962""
""blur"",""45"",""353950""
""focus"",""45"",""359929""
""blur"",""45"",""360655""
""focus"",""45"",""361944""
","""event"",""trial"",""time""
""blur"",""45"",""353950""
""blur"",""45"",""360655""
","""event"",""trial"",""time""
""focus"",""45"",""359929""
""focus"",""45"",""361944""
","""event"",""trial"",""time""
""fullscreenenter"",""0"",""2962""
","
","null","run_exp/static/audio/clip_27_quiz_all_correct.m4a","null","","","","","<div class='center'><p>Good job! You’re now ready to move on to the real game! Remember this game will be difficult but don't get discouraged and try your best!</p></div>","","","","","","","","","","","","","","","","","",""
"","html-keyboard-response","86","527767","0.0-52.0-1.0","""event"",""trial"",""time""
""fullscreenenter"",""0"",""2962""
""blur"",""45"",""353950""
""focus"",""45"",""359929""
""blur"",""45"",""360655""
""focus"",""45"",""361944""
","""event"",""trial"",""time""
""blur"",""45"",""353950""
""blur"",""45"",""360655""
","""event"",""trial"",""time""
""focus"",""45"",""359929""
""focus"",""45"",""361944""
","""event"",""trial"",""time""
""fullscreenenter"",""0"",""2962""
","
","3433.399999976158","<div class='center'><p>Good job! You’re now ready to move on to the real game! Remember this game will be difficult but don't get discouraged and try your best!</p><p><b>[Press the space bar to continue]</b></p></div>","32","","","","","","","","","","","","","","","","","","","","","","",""
"","do_welcome","87","531777","0.0-53.0-0.0","""event"",""trial"",""time""
""fullscreenenter"",""0"",""2962""
""blur"",""45"",""353950""
""focus"",""45"",""359929""
""blur"",""45"",""360655""
""focus"",""45"",""361944""
","""event"",""trial"",""time""
""blur"",""45"",""353950""
""blur"",""45"",""360655""
","""event"",""trial"",""time""
""focus"",""45"",""359929""
""focus"",""45"",""361944""
","""event"",""trial"",""time""
""fullscreenenter"",""0"",""2962""
","
","null","","","","","","","","null","","","","","","","","","","","","","","","","",""
"","do_trial","88","537348","0.0-54.0-0.0","""event"",""trial"",""time""
""fullscreenenter"",""0"",""2962""
""blur"",""45"",""353950""
""focus"",""45"",""359929""
""blur"",""45"",""360655""
""focus"",""45"",""361944""
","""event"",""trial"",""time""
""blur"",""45"",""353950""
""blur"",""45"",""360655""
","""event"",""trial"",""time""
""focus"",""45"",""359929""
""focus"",""45"",""361944""
","""event"",""trial"",""time""
""fullscreenenter"",""0"",""2962""
","
","1042.699999988079","","","","","","","","49","1,0,1","0","city","0","probe-26","0.6","0.3","0.1","1","","","","","","","",""
"","html-keyboard-response","89","538356","0.0-54.0-1.0","""event"",""trial"",""time""
""fullscreenenter"",""0"",""2962""
""blur"",""45"",""353950""
""focus"",""45"",""359929""
""blur"",""45"",""360655""
""focus"",""45"",""361944""
","""event"",""trial"",""time""
""blur"",""45"",""353950""
""blur"",""45"",""360655""
","""event"",""trial"",""time""
""focus"",""45"",""359929""
""focus"",""45"",""361944""
","""event"",""trial"",""time""
""fullscreenenter"",""0"",""2962""
","
","null","<p></p>","null","","","","","","","","","","","","","","","","","","","","","","",""
"","do_trial","90","544662","0.0-55.0-0.0","""event"",""trial"",""time""
""fullscreenenter"",""0"",""2962""
""blur"",""45"",""353950""
""focus"",""45"",""359929""
""blur"",""45"",""360655""
""focus"",""45"",""361944""
","""event"",""trial"",""time""
""blur"",""45"",""353950""
""blur"",""45"",""360655""
","""event"",""trial"",""time""
""focus"",""45"",""359929""
""focus"",""45"",""361944""
","""event"",""trial"",""time""
""fullscreenenter"",""0"",""2962""
","
","1775.5999999642372","","","","","","","","50","0,0,0","0","city","1","probe-97","0.46882892382619273","0.33319570027891166","0.057463746839234234","0","","","","","","","",""
"","html-keyboard-response","91","545668","0.0-55.0-1.0","""event"",""trial"",""time""
""fullscreenenter"",""0"",""2962""
""blur"",""45"",""353950""
""focus"",""45"",""359929""
""blur"",""45"",""360655""
""focus"",""45"",""361944""
","""event"",""trial"",""time""
""blur"",""45"",""353950""
""blur"",""45"",""360655""
","""event"",""trial"",""time""
""focus"",""45"",""359929""
""focus"",""45"",""361944""
","""event"",""trial"",""time""
""fullscreenenter"",""0"",""2962""
","
","null","<p></p>","null","","","","","","","","","","","","","","","","","","","","","","",""
"","do_trial","92","550843","0.0-56.0-0.0","""event"",""trial"",""time""
""fullscreenenter"",""0"",""2962""
""blur"",""45"",""353950""
""focus"",""45"",""359929""
""blur"",""45"",""360655""
""focus"",""45"",""361944""
","""event"",""trial"",""time""
""blur"",""45"",""353950""
""blur"",""45"",""360655""
","""event"",""trial"",""time""
""focus"",""45"",""359929""
""focus"",""45"",""361944""
","""event"",""trial"",""time""
""fullscreenenter"",""0"",""2962""
","
","642.1999999880791","","","","","","","","51","0,0,0","0","city","2","probe-205","0.3528897007245213","0.24814626763019285","0.08170083303775001","0","","","","","","","",""
"","html-keyboard-response","93","551847","0.0-56.0-1.0","""event"",""trial"",""time""
""fullscreenenter"",""0"",""2962""
""blur"",""45"",""353950""
""focus"",""45"",""359929""
""blur"",""45"",""360655""
""focus"",""45"",""361944""
","""event"",""trial"",""time""
""blur"",""45"",""353950""
""blur"",""45"",""360655""
","""event"",""trial"",""time""
""focus"",""45"",""359929""
""focus"",""45"",""361944""
","""event"",""trial"",""time""
""fullscreenenter"",""0"",""2962""
","
","null","<p></p>","null","","","","","","","","","","","","","","","","","","","","","","",""
"","do_trial","94","557027","0.0-57.0-0.0","""event"",""trial"",""time""
""fullscreenenter"",""0"",""2962""
""blur"",""45"",""353950""
""focus"",""45"",""359929""
""blur"",""45"",""360655""
""focus"",""45"",""361944""
","""event"",""trial"",""time""
""blur"",""45"",""353950""
""blur"",""45"",""360655""
","""event"",""trial"",""time""
""focus"",""45"",""359929""
""focus"",""45"",""361944""
","""event"",""trial"",""time""
""fullscreenenter"",""0"",""2962""
","
","645.3000000119209","","","","","","","","49","0,0,1","0","city","3","probe-145","0.530842324036511","0.31086284386364177","0.11350243388676062","0","","","","","","","",""
"","html-keyboard-response","95","558028","0.0-57.0-1.0","""event"",""trial"",""time""
""fullscreenenter"",""0"",""2962""
""blur"",""45"",""353950""
""focus"",""45"",""359929""
""blur"",""45"",""360655""
""focus"",""45"",""361944""
","""event"",""trial"",""time""
""blur"",""45"",""353950""
""blur"",""45"",""360655""
","""event"",""trial"",""time""
""focus"",""45"",""359929""
""focus"",""45"",""361944""
","""event"",""trial"",""time""
""fullscreenenter"",""0"",""2962""
","
","null","<p></p>","null","","","","","","","","","","","","","","","","","","","","","","",""
"","do_trial","96","563545","0.0-58.0-0.0","""event"",""trial"",""time""
""fullscreenenter"",""0"",""2962""
""blur"",""45"",""353950""
""focus"",""45"",""359929""
""blur"",""45"",""360655""
""focus"",""45"",""361944""
","""event"",""trial"",""time""
""blur"",""45"",""353950""
""blur"",""45"",""360655""
","""event"",""trial"",""time""
""focus"",""45"",""359929""
""focus"",""45"",""361944""
","""event"",""trial"",""time""
""fullscreenenter"",""0"",""2962""
","
","990","","","","","","","","50","0,0,0","0","city","4","probe-220","0.5106450982784033","0.25061122880303877","0.164084815843582","0","","","","","","","",""
"","html-keyboard-response","97","564551","0.0-58.0-1.0","""event"",""trial"",""time""
""fullscreenenter"",""0"",""2962""
""blur"",""45"",""353950""
""focus"",""45"",""359929""
""blur"",""45"",""360655""
""focus"",""45"",""361944""
","""event"",""trial"",""time""
""blur"",""45"",""353950""
""blur"",""45"",""360655""
","""event"",""trial"",""time""
""focus"",""45"",""359929""
""focus"",""45"",""361944""
","""event"",""trial"",""time""
""fullscreenenter"",""0"",""2962""
","
","null","<p></p>","null","","","","","","","","","","","","","","","","","","","","","","",""
"","do_trial","98","569501","0.0-59.0-0.0","""event"",""trial"",""time""
""fullscreenenter"",""0"",""2962""
""blur"",""45"",""353950""
""focus"",""45"",""359929""
""blur"",""45"",""360655""
""focus"",""45"",""361944""
","""event"",""trial"",""time""
""blur"",""45"",""353950""
""blur"",""45"",""360655""
","""event"",""trial"",""time""
""focus"",""45"",""359929""
""focus"",""45"",""361944""
","""event"",""trial"",""time""
""fullscreenenter"",""0"",""2962""
","
","411.39999997615814","","","","","","","","49","0,1,0","0","city","5","probe-53","0.5781186929999593","0.24260841600093078","0.2520737247519317","0","","","","","","","",""
"","html-keyboard-response","99","570505","0.0-59.0-1.0","""event"",""trial"",""time""
""fullscreenenter"",""0"",""2962""
""blur"",""45"",""353950""
""focus"",""45"",""359929""
""blur"",""45"",""360655""
""focus"",""45"",""361944""
","""event"",""trial"",""time""
""blur"",""45"",""353950""
""blur"",""45"",""360655""
","""event"",""trial"",""time""
""focus"",""45"",""359929""
""focus"",""45"",""361944""
","""event"",""trial"",""time""
""fullscreenenter"",""0"",""2962""
","
","null","<p></p>","null","","","","","","","","","","","","","","","","","","","","","","",""
"","do_trial","100","575356","0.0-60.0-0.0","""event"",""trial"",""time""
""fullscreenenter"",""0"",""2962""
""blur"",""45"",""353950""
""focus"",""45"",""359929""
""blur"",""45"",""360655""
""focus"",""45"",""361944""
","""event"",""trial"",""time""
""blur"",""45"",""353950""
""blur"",""45"",""360655""
","""event"",""trial"",""time""
""focus"",""45"",""359929""
""focus"",""45"",""361944""
","""event"",""trial"",""time""
""fullscreenenter"",""0"",""2962""
","
","316.89999997615814","","","","","","","","51","0,0,0","0","city","6","probe-179","0.5308283258066568","0.33617445031674215","0.17862003814046482","0","","","","","","","",""
"","html-keyboard-response","101","576362","0.0-60.0-1.0","""event"",""trial"",""time""
""fullscreenenter"",""0"",""2962""
""blur"",""45"",""353950""
""focus"",""45"",""359929""
""blur"",""45"",""360655""
""focus"",""45"",""361944""
","""event"",""trial"",""time""
""blur"",""45"",""353950""
""blur"",""45"",""360655""
","""event"",""trial"",""time""
""focus"",""45"",""359929""
""focus"",""45"",""361944""
","""event"",""trial"",""time""
""fullscreenenter"",""0"",""2962""
","
","null","<p></p>","null","","","","","","","","","","","","","","","","","","","","","","",""
"","do_trial","102","581787","0.0-61.0-0.0","""event"",""trial"",""time""
""fullscreenenter"",""0"",""2962""
""blur"",""45"",""353950""
""focus"",""45"",""359929""
""blur"",""45"",""360655""
""focus"",""45"",""361944""
","""event"",""trial"",""time""
""blur"",""45"",""353950""
""blur"",""45"",""360655""
","""event"",""trial"",""time""
""focus"",""45"",""359929""
""focus"",""45"",""361944""
","""event"",""trial"",""time""
""fullscreenenter"",""0"",""2962""
","
","887.8999999761581","","","","","","","","50","1,1,0","0","city","7","probe-148","0.4431499086648138","0.3568312963825044","0.1776796171357114","1","","","","","","","",""
"","html-keyboard-response","103","582793","0.0-61.0-1.0","""event"",""trial"",""time""
""fullscreenenter"",""0"",""2962""
""blur"",""45"",""353950""
""focus"",""45"",""359929""
""blur"",""45"",""360655""
""focus"",""45"",""361944""
","""event"",""trial"",""time""
""blur"",""45"",""353950""
""blur"",""45"",""360655""
","""event"",""trial"",""time""
""focus"",""45"",""359929""
""focus"",""45"",""361944""
","""event"",""trial"",""time""
""fullscreenenter"",""0"",""2962""
","
","null","<p></p>","null","","","","","","","","","","","","","","","","","","","","","","",""
"","do_trial","104","588041","0.0-62.0-0.0","""event"",""trial"",""time""
""fullscreenenter"",""0"",""2962""
""blur"",""45"",""353950""
""focus"",""45"",""359929""
""blur"",""45"",""360655""
""focus"",""45"",""361944""
","""event"",""trial"",""time""
""blur"",""45"",""353950""
""blur"",""45"",""360655""
","""event"",""trial"",""time""
""focus"",""45"",""359929""
""focus"",""45"",""361944""
","""event"",""trial"",""time""
""fullscreenenter"",""0"",""2962""
","
","715","","","","","","","","50","0,0,0","0","city","8","probe-193","0.3790975160289242","0.23326209263798992","0.21862971088085148","0","","","","","","","",""
"","html-keyboard-response","105","589047","0.0-62.0-1.0","""event"",""trial"",""time""
""fullscreenenter"",""0"",""2962""
""blur"",""45"",""353950""
""focus"",""45"",""359929""
""blur"",""45"",""360655""
""focus"",""45"",""361944""
","""event"",""trial"",""time""
""blur"",""45"",""353950""
""blur"",""45"",""360655""
","""event"",""trial"",""time""
""focus"",""45"",""359929""
""focus"",""45"",""361944""
","""event"",""trial"",""time""
""fullscreenenter"",""0"",""2962""
","
","null","<p></p>","null","","","","","","","","","","","","","","","","","","","","","","",""
"","do_trial","106","594801","0.0-63.0-0.0","""event"",""trial"",""time""
""fullscreenenter"",""0"",""2962""
""blur"",""45"",""353950""
""focus"",""45"",""359929""
""blur"",""45"",""360655""
""focus"",""45"",""361944""
","""event"",""trial"",""time""
""blur"",""45"",""353950""
""blur"",""45"",""360655""
","""event"",""trial"",""time""
""focus"",""45"",""359929""
""focus"",""45"",""361944""
","""event"",""trial"",""time""
""fullscreenenter"",""0"",""2962""
","
","1218","","","","","","","","50","1,0,0","0","city","9","probe-178","0.5607379459290363","0.36071002473371727","0.16256236820403794","0","","","","","","","",""
"","html-keyboard-response","107","595804","0.0-63.0-1.0","""event"",""trial"",""time""
""fullscreenenter"",""0"",""2962""
""blur"",""45"",""353950""
""focus"",""45"",""359929""
""blur"",""45"",""360655""
""focus"",""45"",""361944""
","""event"",""trial"",""time""
""blur"",""45"",""353950""
""blur"",""45"",""360655""
","""event"",""trial"",""time""
""focus"",""45"",""359929""
""focus"",""45"",""361944""
","""event"",""trial"",""time""
""fullscreenenter"",""0"",""2962""
","
","null","<p></p>","null","","","","","","","","","","","","","","","","","","","","","","",""
"","do_trial","108","600612","0.0-64.0-0.0","""event"",""trial"",""time""
""fullscreenenter"",""0"",""2962""
""blur"",""45"",""353950""
""focus"",""45"",""359929""
""blur"",""45"",""360655""
""focus"",""45"",""361944""
","""event"",""trial"",""time""
""blur"",""45"",""353950""
""blur"",""45"",""360655""
","""event"",""trial"",""time""
""focus"",""45"",""359929""
""focus"",""45"",""361944""
","""event"",""trial"",""time""
""fullscreenenter"",""0"",""2962""
","
","271","","","","","","","","49","1,0,0","0","city","10","probe-173","0.5817448304170508","0.35806553351719544","0.17407557539111565","1","","","","","","","",""
"","html-keyboard-response","109","601618","0.0-64.0-1.0","""event"",""trial"",""time""
""fullscreenenter"",""0"",""2962""
""blur"",""45"",""353950""
""focus"",""45"",""359929""
""blur"",""45"",""360655""
""focus"",""45"",""361944""
","""event"",""trial"",""time""
""blur"",""45"",""353950""
""blur"",""45"",""360655""
","""event"",""trial"",""time""
""focus"",""45"",""359929""
""focus"",""45"",""361944""
","""event"",""trial"",""time""
""fullscreenenter"",""0"",""2962""
","
","null","<p></p>","null","","","","","","","","","","","","","","","","","","","","","","",""
"","do_trial","110","606859","0.0-65.0-0.0","""event"",""trial"",""time""
""fullscreenenter"",""0"",""2962""
""blur"",""45"",""353950""
""focus"",""45"",""359929""
""blur"",""45"",""360655""
""focus"",""45"",""361944""
","""event"",""trial"",""time""
""blur"",""45"",""353950""
""blur"",""45"",""360655""
","""event"",""trial"",""time""
""focus"",""45"",""359929""
""focus"",""45"",""361944""
","""event"",""trial"",""time""
""fullscreenenter"",""0"",""2962""
","
","702.1999999880791","","","","","","","","49","0,0,0","0","city","11","probe-105","0.6073048528134853","0.32603723794768835","0.16958566279757775","0","","","","","","","",""
"","html-keyboard-response","111","607864","0.0-65.0-1.0","""event"",""trial"",""time""
""fullscreenenter"",""0"",""2962""
""blur"",""45"",""353950""
""focus"",""45"",""359929""
""blur"",""45"",""360655""
""focus"",""45"",""361944""
","""event"",""trial"",""time""
""blur"",""45"",""353950""
""blur"",""45"",""360655""
","""event"",""trial"",""time""
""focus"",""45"",""359929""
""focus"",""45"",""361944""
","""event"",""trial"",""time""
""fullscreenenter"",""0"",""2962""
","
","null","<p></p>","null","","","","","","","","","","","","","","","","","","","","","","",""
"","do_trial","112","612905","0.0-66.0-0.0","""event"",""trial"",""time""
""fullscreenenter"",""0"",""2962""
""blur"",""45"",""353950""
""focus"",""45"",""359929""
""blur"",""45"",""360655""
""focus"",""45"",""361944""
","""event"",""trial"",""time""
""blur"",""45"",""353950""
""blur"",""45"",""360655""
","""event"",""trial"",""time""
""focus"",""45"",""359929""
""focus"",""45"",""361944""
","""event"",""trial"",""time""
""fullscreenenter"",""0"",""2962""
","
","505.5999999642372","","","","","","","","49","0,0,0","0","city","12","probe-121","0.5695692321972653","0.41363274143210904","0.14752144354694863","0","","","","","","","",""
"","html-keyboard-response","113","613909","0.0-66.0-1.0","""event"",""trial"",""time""
""fullscreenenter"",""0"",""2962""
""blur"",""45"",""353950""
""focus"",""45"",""359929""
""blur"",""45"",""360655""
""focus"",""45"",""361944""
","""event"",""trial"",""time""
""blur"",""45"",""353950""
""blur"",""45"",""360655""
","""event"",""trial"",""time""
""focus"",""45"",""359929""
""focus"",""45"",""361944""
","""event"",""trial"",""time""
""fullscreenenter"",""0"",""2962""
","
","null","<p></p>","null","","","","","","","","","","","","","","","","","","","","","","",""
"","do_trial","114","620056","0.0-67.0-0.0","""event"",""trial"",""time""
""fullscreenenter"",""0"",""2962""
""blur"",""45"",""353950""
""focus"",""45"",""359929""
""blur"",""45"",""360655""
""focus"",""45"",""361944""
","""event"",""trial"",""time""
""blur"",""45"",""353950""
""blur"",""45"",""360655""
","""event"",""trial"",""time""
""focus"",""45"",""359929""
""focus"",""45"",""361944""
","""event"",""trial"",""time""
""fullscreenenter"",""0"",""2962""
","
","1613.0999999642372","","","","","","","","51","0,1,1","0","city","13","probe-192","0.5292103396721491","0.4591393014433139","0.14128409162228703","1","","","","","","","",""
"","html-keyboard-response","115","621060","0.0-67.0-1.0","""event"",""trial"",""time""
""fullscreenenter"",""0"",""2962""
""blur"",""45"",""353950""
""focus"",""45"",""359929""
""blur"",""45"",""360655""
""focus"",""45"",""361944""
","""event"",""trial"",""time""
""blur"",""45"",""353950""
""blur"",""45"",""360655""
","""event"",""trial"",""time""
""focus"",""45"",""359929""
""focus"",""45"",""361944""
","""event"",""trial"",""time""
""fullscreenenter"",""0"",""2962""
","
","null","<p></p>","null","","","","","","","","","","","","","","","","","","","","","","",""
"","do_trial","116","626303","0.0-68.0-0.0","""event"",""trial"",""time""
""fullscreenenter"",""0"",""2962""
""blur"",""45"",""353950""
""focus"",""45"",""359929""
""blur"",""45"",""360655""
""focus"",""45"",""361944""
","""event"",""trial"",""time""
""blur"",""45"",""353950""
""blur"",""45"",""360655""
","""event"",""trial"",""time""
""focus"",""45"",""359929""
""focus"",""45"",""361944""
","""event"",""trial"",""time""
""fullscreenenter"",""0"",""2962""
","
","704.9000000357628","","","","","","","","51","1,0,0","0","city","14","probe-149","0.5574577795996816","0.39126773649259994","0.14099703024607155","0","","","","","","","",""
"","html-keyboard-response","117","627306","0.0-68.0-1.0","""event"",""trial"",""time""
""fullscreenenter"",""0"",""2962""
""blur"",""45"",""353950""
""focus"",""45"",""359929""
""blur"",""45"",""360655""
""focus"",""45"",""361944""
","""event"",""trial"",""time""
""blur"",""45"",""353950""
""blur"",""45"",""360655""
","""event"",""trial"",""time""
""focus"",""45"",""359929""
""focus"",""45"",""361944""
","""event"",""trial"",""time""
""fullscreenenter"",""0"",""2962""
","
","null","<p></p>","null","","","","","","","","","","","","","","","","","","","","","","",""
"","do_trial","118","632274","0.0-69.0-0.0","""event"",""trial"",""time""
""fullscreenenter"",""0"",""2962""
""blur"",""45"",""353950""
""focus"",""45"",""359929""
""blur"",""45"",""360655""
""focus"",""45"",""361944""
","""event"",""trial"",""time""
""blur"",""45"",""353950""
""blur"",""45"",""360655""
","""event"",""trial"",""time""
""focus"",""45"",""359929""
""focus"",""45"",""361944""
","""event"",""trial"",""time""
""fullscreenenter"",""0"",""2962""
","
","434","","","","","","","","50","1,0,0","0","city","15","probe-127","0.4929104347386024","0.3504745980700067","0.19365982261921993","0","","","","","","","",""
"","html-keyboard-response","119","633279","0.0-69.0-1.0","""event"",""trial"",""time""
""fullscreenenter"",""0"",""2962""
""blur"",""45"",""353950""
""focus"",""45"",""359929""
""blur"",""45"",""360655""
""focus"",""45"",""361944""
","""event"",""trial"",""time""
""blur"",""45"",""353950""
""blur"",""45"",""360655""
","""event"",""trial"",""time""
""focus"",""45"",""359929""
""focus"",""45"",""361944""
","""event"",""trial"",""time""
""fullscreenenter"",""0"",""2962""
","
","null","<p></p>","null","","","","","","","","","","","","","","","","","","","","","","",""
"","do_trial","120","638190","0.0-70.0-0.0","""event"",""trial"",""time""
""fullscreenenter"",""0"",""2962""
""blur"",""45"",""353950""
""focus"",""45"",""359929""
""blur"",""45"",""360655""
""focus"",""45"",""361944""
","""event"",""trial"",""time""
""blur"",""45"",""353950""
""blur"",""45"",""360655""
","""event"",""trial"",""time""
""focus"",""45"",""359929""
""focus"",""45"",""361944""
","""event"",""trial"",""time""
""fullscreenenter"",""0"",""2962""
","
","378.19999998807907","","","","","","","","50","0,0,0","0","city","16","probe-112","0.5145272865306647","0.30028478347153165","0.1304304708939502","0","","","","","","","",""
"","html-keyboard-response","121","639192","0.0-70.0-1.0","""event"",""trial"",""time""
""fullscreenenter"",""0"",""2962""
""blur"",""45"",""353950""
""focus"",""45"",""359929""
""blur"",""45"",""360655""
""focus"",""45"",""361944""
","""event"",""trial"",""time""
""blur"",""45"",""353950""
""blur"",""45"",""360655""
","""event"",""trial"",""time""
""focus"",""45"",""359929""
""focus"",""45"",""361944""
","""event"",""trial"",""time""
""fullscreenenter"",""0"",""2962""
","
","null","<p></p>","null","","","","","","","","","","","","","","","","","","","","","","",""
"","do_trial","122","644063","0.0-71.0-0.0","""event"",""trial"",""time""
""fullscreenenter"",""0"",""2962""
""blur"",""45"",""353950""
""focus"",""45"",""359929""
""blur"",""45"",""360655""
""focus"",""45"",""361944""
","""event"",""trial"",""time""
""blur"",""45"",""353950""
""blur"",""45"",""360655""
","""event"",""trial"",""time""
""focus"",""45"",""359929""
""focus"",""45"",""361944""
","""event"",""trial"",""time""
""fullscreenenter"",""0"",""2962""
","
","341.80000001192093","","","","","","","","49","0,0,1","0","city","17","probe-49","0.6463371376428089","0.1840319728266751","0.2295971616436383","0","","","","","","","",""
"","html-keyboard-response","123","645069","0.0-71.0-1.0","""event"",""trial"",""time""
""fullscreenenter"",""0"",""2962""
""blur"",""45"",""353950""
""focus"",""45"",""359929""
""blur"",""45"",""360655""
""focus"",""45"",""361944""
","""event"",""trial"",""time""
""blur"",""45"",""353950""
""blur"",""45"",""360655""
","""event"",""trial"",""time""
""focus"",""45"",""359929""
""focus"",""45"",""361944""
","""event"",""trial"",""time""
""fullscreenenter"",""0"",""2962""
","
","null","<p></p>","null","","","","","","","","","","","","","","","","","","","","","","",""
"","do_trial","124","649992","0.0-72.0-0.0","""event"",""trial"",""time""
""fullscreenenter"",""0"",""2962""
""blur"",""45"",""353950""
""focus"",""45"",""359929""
""blur"",""45"",""360655""
""focus"",""45"",""361944""
","""event"",""trial"",""time""
""blur"",""45"",""353950""
""blur"",""45"",""360655""
","""event"",""trial"",""time""
""focus"",""45"",""359929""
""focus"",""45"",""361944""
","""event"",""trial"",""time""
""fullscreenenter"",""0"",""2962""
","
","386.19999998807907","","","","","","","","50","0,0,0","0","city","18","probe-194","0.7419489841700262","0.2682849357516343","0.1272784127326787","0","","","","","","","",""
"","html-keyboard-response","125","650997","0.0-72.0-1.0","""event"",""trial"",""time""
""fullscreenenter"",""0"",""2962""
""blur"",""45"",""353950""
""focus"",""45"",""359929""
""blur"",""45"",""360655""
""focus"",""45"",""361944""
","""event"",""trial"",""time""
""blur"",""45"",""353950""
""blur"",""45"",""360655""
","""event"",""trial"",""time""
""focus"",""45"",""359929""
""focus"",""45"",""361944""
","""event"",""trial"",""time""
""fullscreenenter"",""0"",""2962""
","
","null","<p></p>","null","","","","","","","","","","","","","","","","","","","","","","",""
"","do_trial","126","655928","0.0-73.0-0.0","""event"",""trial"",""time""
""fullscreenenter"",""0"",""2962""
""blur"",""45"",""353950""
""focus"",""45"",""359929""
""blur"",""45"",""360655""
""focus"",""45"",""361944""
","""event"",""trial"",""time""
""blur"",""45"",""353950""
""blur"",""45"",""360655""
","""event"",""trial"",""time""
""focus"",""45"",""359929""
""focus"",""45"",""361944""
","""event"",""trial"",""time""
""fullscreenenter"",""0"",""2962""
","
","396.4000000357628","","","","","","","","51","1,1,0","0","city","19","probe-160","0.6753237778821299","0.27458676430317625","0.10011499811210453","0","","","","","","","",""
"","html-keyboard-response","127","656934","0.0-73.0-1.0","""event"",""trial"",""time""
""fullscreenenter"",""0"",""2962""
""blur"",""45"",""353950""
""focus"",""45"",""359929""
""blur"",""45"",""360655""
""focus"",""45"",""361944""
","""event"",""trial"",""time""
""blur"",""45"",""353950""
""blur"",""45"",""360655""
","""event"",""trial"",""time""
""focus"",""45"",""359929""
""focus"",""45"",""361944""
","""event"",""trial"",""time""
""fullscreenenter"",""0"",""2962""
","
","null","<p></p>","null","","","","","","","","","","","","","","","","","","","","","","",""
"","do_trial","128","661760","0.0-74.0-0.0","""event"",""trial"",""time""
""fullscreenenter"",""0"",""2962""
""blur"",""45"",""353950""
""focus"",""45"",""359929""
""blur"",""45"",""360655""
""focus"",""45"",""361944""
","""event"",""trial"",""time""
""blur"",""45"",""353950""
""blur"",""45"",""360655""
","""event"",""trial"",""time""
""focus"",""45"",""359929""
""focus"",""45"",""361944""
","""event"",""trial"",""time""
""fullscreenenter"",""0"",""2962""
","
","295","","","","","","","","50","1,0,0","0","city","20","probe-224","0.7104386641080859","0.3358483475696093","0.1402718104525174","0","","","","","","","",""
"","html-keyboard-response","129","662767","0.0-74.0-1.0","""event"",""trial"",""time""
""fullscreenenter"",""0"",""2962""
""blur"",""45"",""353950""
""focus"",""45"",""359929""
""blur"",""45"",""360655""
""focus"",""45"",""361944""
","""event"",""trial"",""time""
""blur"",""45"",""353950""
""blur"",""45"",""360655""
","""event"",""trial"",""time""
""focus"",""45"",""359929""
""focus"",""45"",""361944""
","""event"",""trial"",""time""
""fullscreenenter"",""0"",""2962""
","
","null","<p></p>","null","","","","","","","","","","","","","","","","","","","","","","",""
"","do_trial","130","667592","0.0-75.0-0.0","""event"",""trial"",""time""
""fullscreenenter"",""0"",""2962""
""blur"",""45"",""353950""
""focus"",""45"",""359929""
""blur"",""45"",""360655""
""focus"",""45"",""361944""
","""event"",""trial"",""time""
""blur"",""45"",""353950""
""blur"",""45"",""360655""
","""event"",""trial"",""time""
""focus"",""45"",""359929""
""focus"",""45"",""361944""
","""event"",""trial"",""time""
""fullscreenenter"",""0"",""2962""
","
","290.19999998807907","","","","","","","","49","1,0,0","0","city","21","probe-62","0.6303229751236239","0.3448320109760977","0.10372285334957365","1","","","","","","","",""
"","html-keyboard-response","131","668598","0.0-75.0-1.0","""event"",""trial"",""time""
""fullscreenenter"",""0"",""2962""
""blur"",""45"",""353950""
""focus"",""45"",""359929""
""blur"",""45"",""360655""
""focus"",""45"",""361944""
","""event"",""trial"",""time""
""blur"",""45"",""353950""
""blur"",""45"",""360655""
","""event"",""trial"",""time""
""focus"",""45"",""359929""
""focus"",""45"",""361944""
","""event"",""trial"",""time""
""fullscreenenter"",""0"",""2962""
","
","null","<p></p>","null","","","","","","","","","","","","","","","","","","","","","","",""
"","do_trial","132","673535","0.0-76.0-0.0","""event"",""trial"",""time""
""fullscreenenter"",""0"",""2962""
""blur"",""45"",""353950""
""focus"",""45"",""359929""
""blur"",""45"",""360655""
""focus"",""45"",""361944""
","""event"",""trial"",""time""
""blur"",""45"",""353950""
""blur"",""45"",""360655""
","""event"",""trial"",""time""
""focus"",""45"",""359929""
""focus"",""45"",""361944""
","""event"",""trial"",""time""
""fullscreenenter"",""0"",""2962""
","
","397.5","","","","","","","","49","1,0,1","0","city","22","probe-111","0.8254569136066872","0.35214023833698344","0.25500616951267846","1","","","","","","","",""
"","html-keyboard-response","133","674539","0.0-76.0-1.0","""event"",""trial"",""time""
""fullscreenenter"",""0"",""2962""
""blur"",""45"",""353950""
""focus"",""45"",""359929""
""blur"",""45"",""360655""
""focus"",""45"",""361944""
","""event"",""trial"",""time""
""blur"",""45"",""353950""
""blur"",""45"",""360655""
","""event"",""trial"",""time""
""focus"",""45"",""359929""
""focus"",""45"",""361944""
","""event"",""trial"",""time""
""fullscreenenter"",""0"",""2962""
","
","null","<p></p>","null","","","","","","","","","","","","","","","","","","","","","","",""
"","do_trial","134","679463","0.0-77.0-0.0","""event"",""trial"",""time""
""fullscreenenter"",""0"",""2962""
""blur"",""45"",""353950""
""focus"",""45"",""359929""
""blur"",""45"",""360655""
""focus"",""45"",""361944""
","""event"",""trial"",""time""
""blur"",""45"",""353950""
""blur"",""45"",""360655""
","""event"",""trial"",""time""
""focus"",""45"",""359929""
""focus"",""45"",""361944""
","""event"",""trial"",""time""
""fullscreenenter"",""0"",""2962""
","
","387.89999997615814","","","","","","","","49","0,0,0","0","city","23","probe-108","0.689870278934662","0.3404824459112956","0.11946466117607965","0","","","","","","","",""
"","html-keyboard-response","135","680469","0.0-77.0-1.0","""event"",""trial"",""time""
""fullscreenenter"",""0"",""2962""
""blur"",""45"",""353950""
""focus"",""45"",""359929""
""blur"",""45"",""360655""
""focus"",""45"",""361944""
","""event"",""trial"",""time""
""blur"",""45"",""353950""
""blur"",""45"",""360655""
","""event"",""trial"",""time""
""focus"",""45"",""359929""
""focus"",""45"",""361944""
","""event"",""trial"",""time""
""fullscreenenter"",""0"",""2962""
","
","null","<p></p>","null","","","","","","","","","","","","","","","","","","","","","","",""
"","do_trial","136","685651","0.0-78.0-0.0","""event"",""trial"",""time""
""fullscreenenter"",""0"",""2962""
""blur"",""45"",""353950""
""focus"",""45"",""359929""
""blur"",""45"",""360655""
""focus"",""45"",""361944""
","""event"",""trial"",""time""
""blur"",""45"",""353950""
""blur"",""45"",""360655""
","""event"",""trial"",""time""
""focus"",""45"",""359929""
""focus"",""45"",""361944""
","""event"",""trial"",""time""
""fullscreenenter"",""0"",""2962""
","
","654.1999999880791","","","","","","","","49","0,0,0","0","city","24","probe-69","0.5037462739068278","0.38188410264206674","0.12902558576413042","0","","","","","","","",""
"","html-keyboard-response","137","686654","0.0-78.0-1.0","""event"",""trial"",""time""
""fullscreenenter"",""0"",""2962""
""blur"",""45"",""353950""
""focus"",""45"",""359929""
""blur"",""45"",""360655""
""focus"",""45"",""361944""
","""event"",""trial"",""time""
""blur"",""45"",""353950""
""blur"",""45"",""360655""
","""event"",""trial"",""time""
""focus"",""45"",""359929""
""focus"",""45"",""361944""
","""event"",""trial"",""time""
""fullscreenenter"",""0"",""2962""
","
","null","<p></p>","null","","","","","","","","","","","","","","","","","","","","","","",""
"","do_trial","138","691441","0.0-79.0-0.0","""event"",""trial"",""time""
""fullscreenenter"",""0"",""2962""
""blur"",""45"",""353950""
""focus"",""45"",""359929""
""blur"",""45"",""360655""
""focus"",""45"",""361944""
","""event"",""trial"",""time""
""blur"",""45"",""353950""
""blur"",""45"",""360655""
","""event"",""trial"",""time""
""focus"",""45"",""359929""
""focus"",""45"",""361944""
","""event"",""trial"",""time""
""fullscreenenter"",""0"",""2962""
","
","249.0999999642372","","","","","","","","49","0,0,0","0","city","25","probe-36","0.5686956339627708","0.2971035211910833","0.0958649624089499","0","","","","","","","",""
"","html-keyboard-response","139","692446","0.0-79.0-1.0","""event"",""trial"",""time""
""fullscreenenter"",""0"",""2962""
""blur"",""45"",""353950""
""focus"",""45"",""359929""
""blur"",""45"",""360655""
""focus"",""45"",""361944""
","""event"",""trial"",""time""
""blur"",""45"",""353950""
""blur"",""45"",""360655""
","""event"",""trial"",""time""
""focus"",""45"",""359929""
""focus"",""45"",""361944""
","""event"",""trial"",""time""
""fullscreenenter"",""0"",""2962""
","
","null","<p></p>","null","","","","","","","","","","","","","","","","","","","","","","",""
"","do_trial","140","697923","0.0-80.0-0.0","""event"",""trial"",""time""
""fullscreenenter"",""0"",""2962""
""blur"",""45"",""353950""
""focus"",""45"",""359929""
""blur"",""45"",""360655""
""focus"",""45"",""361944""
","""event"",""trial"",""time""
""blur"",""45"",""353950""
""blur"",""45"",""360655""
","""event"",""trial"",""time""
""focus"",""45"",""359929""
""focus"",""45"",""361944""
","""event"",""trial"",""time""
""fullscreenenter"",""0"",""2962""
","
","949.1000000238419","","","","","","","","50","1,0,0","0","city","26","probe-143","0.5479819527094513","0.1891633268513717","0.10423323951423033","0","","","","","","","",""
"","html-keyboard-response","141","698928","0.0-80.0-1.0","""event"",""trial"",""time""
""fullscreenenter"",""0"",""2962""
""blur"",""45"",""353950""
""focus"",""45"",""359929""
""blur"",""45"",""360655""
""focus"",""45"",""361944""
","""event"",""trial"",""time""
""blur"",""45"",""353950""
""blur"",""45"",""360655""
","""event"",""trial"",""time""
""focus"",""45"",""359929""
""focus"",""45"",""361944""
","""event"",""trial"",""time""
""fullscreenenter"",""0"",""2962""
","
","null","<p></p>","null","","","","","","","","","","","","","","","","","","","","","","",""
"","do_trial","142","703735","0.0-81.0-0.0","""event"",""trial"",""time""
""fullscreenenter"",""0"",""2962""
""blur"",""45"",""353950""
""focus"",""45"",""359929""
""blur"",""45"",""360655""
""focus"",""45"",""361944""
","""event"",""trial"",""time""
""blur"",""45"",""353950""
""blur"",""45"",""360655""
","""event"",""trial"",""time""
""focus"",""45"",""359929""
""focus"",""45"",""361944""
","""event"",""trial"",""time""
""fullscreenenter"",""0"",""2962""
","
","271.4000000357628","","","","","","","","50","0,0,0","0","city","27","probe-140","0.5686422796909999","0.27972270913499514","0.09361158747809474","0","","","","","","","",""
"","html-keyboard-response","143","704741","0.0-81.0-1.0","""event"",""trial"",""time""
""fullscreenenter"",""0"",""2962""
""blur"",""45"",""353950""
""focus"",""45"",""359929""
""blur"",""45"",""360655""
""focus"",""45"",""361944""
","""event"",""trial"",""time""
""blur"",""45"",""353950""
""blur"",""45"",""360655""
","""event"",""trial"",""time""
""focus"",""45"",""359929""
""focus"",""45"",""361944""
","""event"",""trial"",""time""
""fullscreenenter"",""0"",""2962""
","
","null","<p></p>","null","","","","","","","","","","","","","","","","","","","","","","",""
"","do_trial","144","709551","0.0-82.0-0.0","""event"",""trial"",""time""
""fullscreenenter"",""0"",""2962""
""blur"",""45"",""353950""
""focus"",""45"",""359929""
""blur"",""45"",""360655""
""focus"",""45"",""361944""
","""event"",""trial"",""time""
""blur"",""45"",""353950""
""blur"",""45"",""360655""
","""event"",""trial"",""time""
""focus"",""45"",""359929""
""focus"",""45"",""361944""
","""event"",""trial"",""time""
""fullscreenenter"",""0"",""2962""
","
","276.9000000357628","","","","","","","","50","1,0,0","0","city","28","probe-223","0.5797409978023726","0.22039006850921472","0.24014218860072065","0","","","","","","","",""
"","html-keyboard-response","145","710555","0.0-82.0-1.0","""event"",""trial"",""time""
""fullscreenenter"",""0"",""2962""
""blur"",""45"",""353950""
""focus"",""45"",""359929""
""blur"",""45"",""360655""
""focus"",""45"",""361944""
","""event"",""trial"",""time""
""blur"",""45"",""353950""
""blur"",""45"",""360655""
","""event"",""trial"",""time""
""focus"",""45"",""359929""
""focus"",""45"",""361944""
","""event"",""trial"",""time""
""fullscreenenter"",""0"",""2962""
","
","null","<p></p>","null","","","","","","","","","","","","","","","","","","","","","","",""
"","do_trial","146","715274","0.0-83.0-0.0","""event"",""trial"",""time""
""fullscreenenter"",""0"",""2962""
""blur"",""45"",""353950""
""focus"",""45"",""359929""
""blur"",""45"",""360655""
""focus"",""45"",""361944""
","""event"",""trial"",""time""
""blur"",""45"",""353950""
""blur"",""45"",""360655""
","""event"",""trial"",""time""
""focus"",""45"",""359929""
""focus"",""45"",""361944""
","""event"",""trial"",""time""
""fullscreenenter"",""0"",""2962""
","
","181.89999997615814","","","","","","","","49","1,0,0","0","city","29","probe-99","0.564497978011191","0.38307339678975744","0.2309015782048016","1","","","","","","","",""
"","html-keyboard-response","147","716280","0.0-83.0-1.0","""event"",""trial"",""time""
""fullscreenenter"",""0"",""2962""
""blur"",""45"",""353950""
""focus"",""45"",""359929""
""blur"",""45"",""360655""
""focus"",""45"",""361944""
","""event"",""trial"",""time""
""blur"",""45"",""353950""
""blur"",""45"",""360655""
","""event"",""trial"",""time""
""focus"",""45"",""359929""
""focus"",""45"",""361944""
","""event"",""trial"",""time""
""fullscreenenter"",""0"",""2962""
","
","null","<p></p>","null","","","","","","","","","","","","","","","","","","","","","","",""
"","do_bye","148","717789","0.0-84.0-0.0","""event"",""trial"",""time""
""fullscreenenter"",""0"",""2962""
""blur"",""45"",""353950""
""focus"",""45"",""359929""
""blur"",""45"",""360655""
""focus"",""45"",""361944""
""blur"",""149"",""748654""
""focus"",""149"",""758598""
","""event"",""trial"",""time""
""blur"",""45"",""353950""
""blur"",""45"",""360655""
""blur"",""149"",""748654""
","""event"",""trial"",""time""
""focus"",""45"",""359929""
""focus"",""45"",""361944""
""focus"",""149"",""758598""
","""event"",""trial"",""time""
""fullscreenenter"",""0"",""2962""
","
","null","","","","","","","","null","","","","","","","","","","","","","","","","",""
"","break","149","773917","0.0-84.0-1.0","""event"",""trial"",""time""
""fullscreenenter"",""0"",""2962""
""blur"",""45"",""353950""
""focus"",""45"",""359929""
""blur"",""45"",""360655""
""focus"",""45"",""361944""
""blur"",""149"",""748654""
""focus"",""149"",""758598""
","""event"",""trial"",""time""
""blur"",""45"",""353950""
""blur"",""45"",""360655""
""blur"",""149"",""748654""
","""event"",""trial"",""time""
""focus"",""45"",""359929""
""focus"",""45"",""361944""
""focus"",""149"",""758598""
","""event"",""trial"",""time""
""fullscreenenter"",""0"",""2962""
","
","56125.89999997616","<div class='center'><p>Time to take a quick break! You have 2 minutes to rest, but you can move on sooner if you'd like.</p><p> Press the <b>space bar</b> to continue.</p></div>","32","","","","","","","","","","","","","","","","","","","","","","",""
"","do_travel","150","782923","0.0-85.0-0.0","""event"",""trial"",""time""
""fullscreenenter"",""0"",""2962""
""blur"",""45"",""353950""
""focus"",""45"",""359929""
""blur"",""45"",""360655""
""focus"",""45"",""361944""
""blur"",""149"",""748654""
""focus"",""149"",""758598""
","""event"",""trial"",""time""
""blur"",""45"",""353950""
""blur"",""45"",""360655""
""blur"",""149"",""748654""
","""event"",""trial"",""time""
""focus"",""45"",""359929""
""focus"",""45"",""361944""
""focus"",""149"",""758598""
","""event"",""trial"",""time""
""fullscreenenter"",""0"",""2962""
","
","null","","","","","","","","null","","","","","","","","","","","","","","","","",""
"","do_welcome","151","786931","0.0-85.0-1.0","""event"",""trial"",""time""
""fullscreenenter"",""0"",""2962""
""blur"",""45"",""353950""
""focus"",""45"",""359929""
""blur"",""45"",""360655""
""focus"",""45"",""361944""
""blur"",""149"",""748654""
""focus"",""149"",""758598""
","""event"",""trial"",""time""
""blur"",""45"",""353950""
""blur"",""45"",""360655""
""blur"",""149"",""748654""
","""event"",""trial"",""time""
""focus"",""45"",""359929""
""focus"",""45"",""361944""
""focus"",""149"",""758598""
","""event"",""trial"",""time""
""fullscreenenter"",""0"",""2962""
","
","null","","","","","","","","null","","","","","","","","","","","","","","","","",""
"","do_trial","152","792768","0.0-86.0-0.0","""event"",""trial"",""time""
""fullscreenenter"",""0"",""2962""
""blur"",""45"",""353950""
""focus"",""45"",""359929""
""blur"",""45"",""360655""
""focus"",""45"",""361944""
""blur"",""149"",""748654""
""focus"",""149"",""758598""
","""event"",""trial"",""time""
""blur"",""45"",""353950""
""blur"",""45"",""360655""
""blur"",""149"",""748654""
","""event"",""trial"",""time""
""focus"",""45"",""359929""
""focus"",""45"",""361944""
""focus"",""149"",""758598""
","""event"",""trial"",""time""
""fullscreenenter"",""0"",""2962""
","
","1304.8999999761581","","","","","","","","49","1,1,0","1","highway","30","probe-57","1","0.3493471788995456","0.19593607684816028","1","","","","","","","",""
"","html-keyboard-response","153","793774","0.0-86.0-1.0","""event"",""trial"",""time""
""fullscreenenter"",""0"",""2962""
""blur"",""45"",""353950""
""focus"",""45"",""359929""
""blur"",""45"",""360655""
""focus"",""45"",""361944""
""blur"",""149"",""748654""
""focus"",""149"",""758598""
","""event"",""trial"",""time""
""blur"",""45"",""353950""
""blur"",""45"",""360655""
""blur"",""149"",""748654""
","""event"",""trial"",""time""
""focus"",""45"",""359929""
""focus"",""45"",""361944""
""focus"",""149"",""758598""
","""event"",""trial"",""time""
""fullscreenenter"",""0"",""2962""
","
","null","<p></p>","null","","","","","","","","","","","","","","","","","","","","","","",""
"","do_trial","154","798586","0.0-87.0-0.0","""event"",""trial"",""time""
""fullscreenenter"",""0"",""2962""
""blur"",""45"",""353950""
""focus"",""45"",""359929""
""blur"",""45"",""360655""
""focus"",""45"",""361944""
""blur"",""149"",""748654""
""focus"",""149"",""758598""
","""event"",""trial"",""time""
""blur"",""45"",""353950""
""blur"",""45"",""360655""
""blur"",""149"",""748654""
","""event"",""trial"",""time""
""focus"",""45"",""359929""
""focus"",""45"",""361944""
""focus"",""149"",""758598""
","""event"",""trial"",""time""
""fullscreenenter"",""0"",""2962""
","
","282.39999997615814","","","","","","","","49","1,0,0","1","highway","31","probe-25","1","0.301406272588694","0.16663603477975084","1","","","","","","","",""
"","html-keyboard-response","155","799592","0.0-87.0-1.0","""event"",""trial"",""time""
""fullscreenenter"",""0"",""2962""
""blur"",""45"",""353950""
""focus"",""45"",""359929""
""blur"",""45"",""360655""
""focus"",""45"",""361944""
""blur"",""149"",""748654""
""focus"",""149"",""758598""
","""event"",""trial"",""time""
""blur"",""45"",""353950""
""blur"",""45"",""360655""
""blur"",""149"",""748654""
","""event"",""trial"",""time""
""focus"",""45"",""359929""
""focus"",""45"",""361944""
""focus"",""149"",""758598""
","""event"",""trial"",""time""
""fullscreenenter"",""0"",""2962""
","
","null","<p></p>","null","","","","","","","","","","","","","","","","","","","","","","",""
"","do_trial","156","804492","0.0-88.0-0.0","""event"",""trial"",""time""
""fullscreenenter"",""0"",""2962""
""blur"",""45"",""353950""
""focus"",""45"",""359929""
""blur"",""45"",""360655""
""focus"",""45"",""361944""
""blur"",""149"",""748654""
""focus"",""149"",""758598""
","""event"",""trial"",""time""
""blur"",""45"",""353950""
""blur"",""45"",""360655""
""blur"",""149"",""748654""
","""event"",""trial"",""time""
""focus"",""45"",""359929""
""focus"",""45"",""361944""
""focus"",""149"",""758598""
","""event"",""trial"",""time""
""fullscreenenter"",""0"",""2962""
","
","367.80000001192093","","","","","","","","49","1,1,0","1","highway","32","probe-209","1","0.3147779400242604","0.15062896100350218","1","","","","","","","",""
"","html-keyboard-response","157","805498","0.0-88.0-1.0","""event"",""trial"",""time""
""fullscreenenter"",""0"",""2962""
""blur"",""45"",""353950""
""focus"",""45"",""359929""
""blur"",""45"",""360655""
""focus"",""45"",""361944""
""blur"",""149"",""748654""
""focus"",""149"",""758598""
","""event"",""trial"",""time""
""blur"",""45"",""353950""
""blur"",""45"",""360655""
""blur"",""149"",""748654""
","""event"",""trial"",""time""
""focus"",""45"",""359929""
""focus"",""45"",""361944""
""focus"",""149"",""758598""
","""event"",""trial"",""time""
""fullscreenenter"",""0"",""2962""
","
","null","<p></p>","null","","","","","","","","","","","","","","","","","","","","","","",""
"","do_trial","158","810351","0.0-89.0-0.0","""event"",""trial"",""time""
""fullscreenenter"",""0"",""2962""
""blur"",""45"",""353950""
""focus"",""45"",""359929""
""blur"",""45"",""360655""
""focus"",""45"",""361944""
""blur"",""149"",""748654""
""focus"",""149"",""758598""
","""event"",""trial"",""time""
""blur"",""45"",""353950""
""blur"",""45"",""360655""
""blur"",""149"",""748654""
","""event"",""trial"",""time""
""focus"",""45"",""359929""
""focus"",""45"",""361944""
""focus"",""149"",""758598""
","""event"",""trial"",""time""
""fullscreenenter"",""0"",""2962""
","
","319.9000000357628","","","","","","","","49","1,1,0","1","highway","33","probe-76","0.9279683531738021","0.3349055134732259","0.1703359340528405","1","","","","","","","",""
"","html-keyboard-response","159","811355","0.0-89.0-1.0","""event"",""trial"",""time""
""fullscreenenter"",""0"",""2962""
""blur"",""45"",""353950""
""focus"",""45"",""359929""
""blur"",""45"",""360655""
""focus"",""45"",""361944""
""blur"",""149"",""748654""
""focus"",""149"",""758598""
","""event"",""trial"",""time""
""blur"",""45"",""353950""
""blur"",""45"",""360655""
""blur"",""149"",""748654""
","""event"",""trial"",""time""
""focus"",""45"",""359929""
""focus"",""45"",""361944""
""focus"",""149"",""758598""
","""event"",""trial"",""time""
""fullscreenenter"",""0"",""2962""
","
","null","<p></p>","null","","","","","","","","","","","","","","","","","","","","","","",""
"","do_trial","160","816335","0.0-90.0-0.0","""event"",""trial"",""time""
""fullscreenenter"",""0"",""2962""
""blur"",""45"",""353950""
