"success","trial_type","trial_index","time_elapsed","internal_node_id","interactions","blur_events","focus_events","fullscreenenter_events","fullscreenexit_events","rt","stimulus","key_press","subject_id","participant_id","age","gender","prompt","response","choice_outcomes","context_n","context_img_id","trial_n","probe_img_id","pR_red","pR_white","pR_black","outcome","contextArray_ind","validImageProbes","invalidImageProbes","pRew_Red","pRew_White","pRew_Black","availableForMemProbe","choice_blocks"
"true","fullscreen","0","2320","0.0-0.0","""event"",""trial"",""time""
""fullscreenenter"",""0"",""1332""
","
","
","""event"",""trial"",""time""
""fullscreenenter"",""0"",""1332""
","
","","","","","","","","","","","","","","","","","","","","","","","","","",""
"","pavlovia","1","2322","0.0-1.0","""event"",""trial"",""time""
""fullscreenenter"",""0"",""1332""
","
","
","""event"",""trial"",""time""
""fullscreenenter"",""0"",""1332""
","
","","","","","","","","","","","","","","","","","","","","","","","","","",""
"","instruc1","2","47434","0.0-2.0","""event"",""trial"",""time""
""fullscreenenter"",""0"",""1332""
","
","
","""event"",""trial"",""time""
""fullscreenenter"",""0"",""1332""
","
","null","run_exp/static/audio/clip_1_welcome.m4a","null","311","233","17","Female","<div class='center'><p>Welcome! This is the first part of the study. It will last ~30 minutes. In part 1 and part 2 of the study, you are the head captain of a pirate ship traveling around the world to different islands. You will play a few different games throughout these two parts. Here is an overview of them:</p><br><p>Part 1 (today)</p><p>1. Instructions, practice game, and quiz</p><p>2. Pick a pirate game on 6 different islands</p><br><p>Part 2 (tomorrow)</p><p>3. Pick a pirate game and memory game</p><p>4. Where did you see this ship? </p></div>","","","","","","","","","","","","","","","","","",""
"","html-keyboard-response","3","48867","0.0-3.0","""event"",""trial"",""time""
""fullscreenenter"",""0"",""1332""
""fullscreenexit"",""4"",""53082""
","
","
","""event"",""trial"",""time""
""fullscreenenter"",""0"",""1332""
","""event"",""trial"",""time""
""fullscreenexit"",""4"",""53082""
","1430.2999999970198","<div class='center'><p>Welcome! This is the first part of the study. It will last ~30 minutes. In part 1 and part 2 of the study, you are the head captain of a pirate ship traveling around the world to different islands. You will play a few different games throughout these two parts. Here is an overview of them:</p><br><p>Part 1 (today)</p><p>1. Instructions, practice game, and quiz</p><p>2. Pick a pirate game on 6 different islands</p><br><p>Part 2 (tomorrow)</p><p>3. Pick a pirate game and memory game</p><p>4. Where did you see this ship? </p><p><b>[Press the space bar to continue]</b></p></div>","32","","","","","","","","","","","","","","","","","","","","","","",""
"","instruc2","4","54189","0.0-4.0","""event"",""trial"",""time""
""fullscreenenter"",""0"",""1332""
""fullscreenexit"",""4"",""53082""
","
","
","""event"",""trial"",""time""
""fullscreenenter"",""0"",""1332""
","""event"",""trial"",""time""
""fullscreenexit"",""4"",""53082""
","null","run_exp/static/audio/clip_2_different_places.m4a","null","","","","","<div class='center'><p>Today, you’ll visit these 6 islands on your journey. You'll be able to see these islands from your ship.</p><p><img src='run_exp/static/images/contexts/all_contexts.png' height='500'></p></div>","","","","","","","","","","","","","","","","","",""
"","html-keyboard-response","5","55703","0.0-5.0","""event"",""trial"",""time""
""fullscreenenter"",""0"",""1332""
""fullscreenexit"",""4"",""53082""
""blur"",""6"",""59345""
""focus"",""6"",""60300""
","""event"",""trial"",""time""
""blur"",""6"",""59345""
","""event"",""trial"",""time""
""focus"",""6"",""60300""
","""event"",""trial"",""time""
""fullscreenenter"",""0"",""1332""
","""event"",""trial"",""time""
""fullscreenexit"",""4"",""53082""
","1509.5999999940395","<div class='center'><p>Today, you’ll visit these 6 islands on your journey. You'll be able to see these islands from your ship.</p><p><img src='run_exp/static/images/contexts/all_contexts.png' height='500'></p><p><b>[Press the space bar to continue]</b></p></div>","32","","","","","","","","","","","","","","","","","","","","","","",""
"","instruc3","6","65404","0.0-6.0","""event"",""trial"",""time""
""fullscreenenter"",""0"",""1332""
""fullscreenexit"",""4"",""53082""
""blur"",""6"",""59345""
""focus"",""6"",""60300""
","""event"",""trial"",""time""
""blur"",""6"",""59345""
","""event"",""trial"",""time""
""focus"",""6"",""60300""
","""event"",""trial"",""time""
""fullscreenenter"",""0"",""1332""
","""event"",""trial"",""time""
""fullscreenexit"",""4"",""53082""
","null","run_exp/static/audio/clip_3_goal_of_game_1.m4a","null","","","","","<div class='center'><p> The pirates on your ship will rob other ships as they leave the island.</p> These ships have just sold their goods to the islanders, so they will be filled with lots and lots of gold.</p><p><img src='run_exp/static/images/tutorial/ship_center.png' height='400'></p></div>","","","","","","","","","","","","","","","","","",""
"","html-keyboard-response","7","70393","0.0-7.0","""event"",""trial"",""time""
""fullscreenenter"",""0"",""1332""
""fullscreenexit"",""4"",""53082""
""blur"",""6"",""59345""
""focus"",""6"",""60300""
","""event"",""trial"",""time""
""blur"",""6"",""59345""
","""event"",""trial"",""time""
""focus"",""6"",""60300""
","""event"",""trial"",""time""
""fullscreenenter"",""0"",""1332""
","""event"",""trial"",""time""
""fullscreenexit"",""4"",""53082""
","4986.399999991059","<div class='center'><p> The pirates on your ship will rob other ships as they leave the island.</p> These ships have just sold their goods to the islanders, so they will be filled with lots and lots of gold.</p><p><img src='run_exp/static/images/tutorial/ship_center.png' height='400'></p><p><b>[Press the space bar to continue]</b></p></div>","32","","","","","","","","","","","","","","","","","","","","","","",""
"","instruc4","8","98401","0.0-8.0","""event"",""trial"",""time""
""fullscreenenter"",""0"",""1332""
""fullscreenexit"",""4"",""53082""
""blur"",""6"",""59345""
""focus"",""6"",""60300""
","""event"",""trial"",""time""
""blur"",""6"",""59345""
","""event"",""trial"",""time""
""focus"",""6"",""60300""
","""event"",""trial"",""time""
""fullscreenenter"",""0"",""1332""
","""event"",""trial"",""time""
""fullscreenexit"",""4"",""53082""
","null","run_exp/static/audio/clip_4_goal_of_game_2.m4a","null","","","","","<div class='center'><p>As the head captain, you do not have to rob any ships yourself. Another pirate will be doing the robbing for you. First, you will choose a pirate to rob the next ship.</p><p><img src='run_exp/static/images/tutorial/pirates_all_crop.png' height='200'></p><p>Then, you'll see if the pirate successfully robbed the ship of their gold. If they were successful, then you'll get a stack of gold coins like this:</p><p><img src='run_exp/static/images/tutorial/reward.png' height='150'></p><p> If they were <b>not</b> successful, then you'll get no gold coins, and you'll see a big red x like this: </p><p><img src='run_exp/static/images/tutorial/reward_no.png' height='150'></p><p> How much bonus money you make is based on how many gold coins you collect.</p><div>","","","","","","","","","","","","","","","","","",""
"","html-keyboard-response","9","99353","0.0-9.0","""event"",""trial"",""time""
""fullscreenenter"",""0"",""1332""
""fullscreenexit"",""4"",""53082""
""blur"",""6"",""59345""
""focus"",""6"",""60300""
","""event"",""trial"",""time""
""blur"",""6"",""59345""
","""event"",""trial"",""time""
""focus"",""6"",""60300""
","""event"",""trial"",""time""
""fullscreenenter"",""0"",""1332""
","""event"",""trial"",""time""
""fullscreenexit"",""4"",""53082""
","949.3999999910593","<div class='center'><p>As the head captain, you do not have to rob any ships yourself. Another pirate will be doing the robbing for you. First, you will choose a pirate to rob the next ship.</p><p><img src='run_exp/static/images/tutorial/pirates_all_crop.png' height='200'></p><p>Then, you'll see if the pirate successfully robbed the ship of their gold. If they were successful, then you'll get a stack of gold coins like this:</p><p><img src='run_exp/static/images/tutorial/reward.png' height='150'></p><p> If they were <b>not</b> successful, then you'll get no gold coins, and you'll see a big red x like this: </p><p><img src='run_exp/static/images/tutorial/reward_no.png' height='150'></p><p> How much bonus money you make is based on how many gold coins you collect.</p<p><b>[Press the space bar to continue]</b></p></div>","32","","","","","","","","","","","","","","","","","","","","","","",""
"","instruc5","10","124923","0.0-10.0","""event"",""trial"",""time""
""fullscreenenter"",""0"",""1332""
""fullscreenexit"",""4"",""53082""
""blur"",""6"",""59345""
""focus"",""6"",""60300""
","""event"",""trial"",""time""
""blur"",""6"",""59345""
","""event"",""trial"",""time""
""focus"",""6"",""60300""
","""event"",""trial"",""time""
""fullscreenenter"",""0"",""1332""
","""event"",""trial"",""time""
""fullscreenexit"",""4"",""53082""
","25568.70000000298","run_exp/static/audio/clip_5_probabilistic.m4a","49","","","","","<div class='center'><p>Even the most skilled pirate can not rob EVERY ship.</p><p> Some ships will have very strong protections against pirate attacks.</p><p> Blue beard, here, is very, very good at robbing ships, but he won't be successful every time he tries to rob one.</p><p> You can press the <b>‘1’</b> key on the keyboard to choose him.</p><p> Try choosing him 10 times to see how often he succeeds at robbing a ship. </p><p><img src='run_exp/static/images/tutorial/blue.png' height='500'></p></div>","","","","","","","","","","","","","","","","","",""
"","html-keyboard-response","11","126427","0.0-11.0","""event"",""trial"",""time""
""fullscreenenter"",""0"",""1332""
""fullscreenexit"",""4"",""53082""
""blur"",""6"",""59345""
""focus"",""6"",""60300""
","""event"",""trial"",""time""
""blur"",""6"",""59345""
","""event"",""trial"",""time""
""focus"",""6"",""60300""
","""event"",""trial"",""time""
""fullscreenenter"",""0"",""1332""
","""event"",""trial"",""time""
""fullscreenexit"",""4"",""53082""
","null","<div class='center'><p><img src='run_exp/static/images/tutorial/blue_win.png' height='500'></p></div>","null","","","","","","","","","","","","","","","","","","","","","","",""
"","html-keyboard-response","12","127395","0.0-12.0","""event"",""trial"",""time""
""fullscreenenter"",""0"",""1332""
""fullscreenexit"",""4"",""53082""
""blur"",""6"",""59345""
""focus"",""6"",""60300""
","""event"",""trial"",""time""
""blur"",""6"",""59345""
","""event"",""trial"",""time""
""focus"",""6"",""60300""
","""event"",""trial"",""time""
""fullscreenenter"",""0"",""1332""
","""event"",""trial"",""time""
""fullscreenexit"",""4"",""53082""
","967","<div class='center'><img src='run_exp/static/images/tutorial/blue.png' height='500'></p></div>","49","","","","","","","","","","","","","","","","","","","","","","",""
"","html-keyboard-response","13","128899","0.0-13.0","""event"",""trial"",""time""
""fullscreenenter"",""0"",""1332""
""fullscreenexit"",""4"",""53082""
""blur"",""6"",""59345""
""focus"",""6"",""60300""
","""event"",""trial"",""time""
""blur"",""6"",""59345""
","""event"",""trial"",""time""
""focus"",""6"",""60300""
","""event"",""trial"",""time""
""fullscreenenter"",""0"",""1332""
","""event"",""trial"",""time""
""fullscreenexit"",""4"",""53082""
","null","<div class='center'><p><img src='run_exp/static/images/tutorial/blue_win.png' height='500'></p></div>","null","","","","","","","","","","","","","","","","","","","","","","",""
"","html-keyboard-response","14","129508","0.0-14.0","""event"",""trial"",""time""
""fullscreenenter"",""0"",""1332""
""fullscreenexit"",""4"",""53082""
""blur"",""6"",""59345""
""focus"",""6"",""60300""
","""event"",""trial"",""time""
""blur"",""6"",""59345""
","""event"",""trial"",""time""
""focus"",""6"",""60300""
","""event"",""trial"",""time""
""fullscreenenter"",""0"",""1332""
","""event"",""trial"",""time""
""fullscreenexit"",""4"",""53082""
","606.5999999940395","<div class='center'><img src='run_exp/static/images/tutorial/blue.png' height='500'></p></div>","49","","","","","","","","","","","","","","","","","","","","","","",""
"","html-keyboard-response","15","131013","0.0-15.0","""event"",""trial"",""time""
""fullscreenenter"",""0"",""1332""
""fullscreenexit"",""4"",""53082""
""blur"",""6"",""59345""
""focus"",""6"",""60300""
","""event"",""trial"",""time""
""blur"",""6"",""59345""
","""event"",""trial"",""time""
""focus"",""6"",""60300""
","""event"",""trial"",""time""
""fullscreenenter"",""0"",""1332""
","""event"",""trial"",""time""
""fullscreenexit"",""4"",""53082""
","null","<div class='center'><p><img src='run_exp/static/images/tutorial/blue_win.png' height='500'></p></div>","null","","","","","","","","","","","","","","","","","","","","","","",""
"","html-keyboard-response","16","131331","0.0-16.0","""event"",""trial"",""time""
""fullscreenenter"",""0"",""1332""
""fullscreenexit"",""4"",""53082""
""blur"",""6"",""59345""
""focus"",""6"",""60300""
","""event"",""trial"",""time""
""blur"",""6"",""59345""
","""event"",""trial"",""time""
""focus"",""6"",""60300""
","""event"",""trial"",""time""
""fullscreenenter"",""0"",""1332""
","""event"",""trial"",""time""
""fullscreenexit"",""4"",""53082""
","316.70000000298023","<div class='center'><img src='run_exp/static/images/tutorial/blue.png' height='500'></p></div>","49","","","","","","","","","","","","","","","","","","","","","","",""
"","html-keyboard-response","17","132838","0.0-17.0","""event"",""trial"",""time""
""fullscreenenter"",""0"",""1332""
""fullscreenexit"",""4"",""53082""
""blur"",""6"",""59345""
""focus"",""6"",""60300""
","""event"",""trial"",""time""
""blur"",""6"",""59345""
","""event"",""trial"",""time""
""focus"",""6"",""60300""
","""event"",""trial"",""time""
""fullscreenenter"",""0"",""1332""
","""event"",""trial"",""time""
""fullscreenexit"",""4"",""53082""
","null","<div class='center'><p><img src='run_exp/static/images/tutorial/blue_no_win.png' height='500'></p></div>","null","","","","","","","","","","","","","","","","","","","","","","",""
"","html-keyboard-response","18","133109","0.0-18.0","""event"",""trial"",""time""
""fullscreenenter"",""0"",""1332""
""fullscreenexit"",""4"",""53082""
""blur"",""6"",""59345""
""focus"",""6"",""60300""
","""event"",""trial"",""time""
""blur"",""6"",""59345""
","""event"",""trial"",""time""
""focus"",""6"",""60300""
","""event"",""trial"",""time""
""fullscreenenter"",""0"",""1332""
","""event"",""trial"",""time""
""fullscreenexit"",""4"",""53082""
","270.09999999403954","<div class='center'><img src='run_exp/static/images/tutorial/blue.png' height='500'></p></div>","49","","","","","","","","","","","","","","","","","","","","","","",""
"","html-keyboard-response","19","134615","0.0-19.0","""event"",""trial"",""time""
""fullscreenenter"",""0"",""1332""
""fullscreenexit"",""4"",""53082""
""blur"",""6"",""59345""
""focus"",""6"",""60300""
","""event"",""trial"",""time""
""blur"",""6"",""59345""
","""event"",""trial"",""time""
""focus"",""6"",""60300""
","""event"",""trial"",""time""
""fullscreenenter"",""0"",""1332""
","""event"",""trial"",""time""
""fullscreenexit"",""4"",""53082""
","null","<div class='center'><p><img src='run_exp/static/images/tutorial/blue_win.png' height='500'></p></div>","null","","","","","","","","","","","","","","","","","","","","","","",""
"","html-keyboard-response","20","134698","0.0-20.0","""event"",""trial"",""time""
""fullscreenenter"",""0"",""1332""
""fullscreenexit"",""4"",""53082""
""blur"",""6"",""59345""
""focus"",""6"",""60300""
","""event"",""trial"",""time""
""blur"",""6"",""59345""
","""event"",""trial"",""time""
""focus"",""6"",""60300""
","""event"",""trial"",""time""
""fullscreenenter"",""0"",""1332""
","""event"",""trial"",""time""
""fullscreenexit"",""4"",""53082""
","81.29999999701977","<div class='center'><img src='run_exp/static/images/tutorial/blue.png' height='500'></p></div>","49","","","","","","","","","","","","","","","","","","","","","","",""
"","html-keyboard-response","21","136200","0.0-21.0","""event"",""trial"",""time""
""fullscreenenter"",""0"",""1332""
""fullscreenexit"",""4"",""53082""
""blur"",""6"",""59345""
""focus"",""6"",""60300""
","""event"",""trial"",""time""
""blur"",""6"",""59345""
","""event"",""trial"",""time""
""focus"",""6"",""60300""
","""event"",""trial"",""time""
""fullscreenenter"",""0"",""1332""
","""event"",""trial"",""time""
""fullscreenexit"",""4"",""53082""
","null","<div class='center'><p><img src='run_exp/static/images/tutorial/blue_win.png' height='500'></p></div>","null","","","","","","","","","","","","","","","","","","","","","","",""
"","html-keyboard-response","22","136381","0.0-22.0","""event"",""trial"",""time""
""fullscreenenter"",""0"",""1332""
""fullscreenexit"",""4"",""53082""
""blur"",""6"",""59345""
""focus"",""6"",""60300""
","""event"",""trial"",""time""
""blur"",""6"",""59345""
","""event"",""trial"",""time""
""focus"",""6"",""60300""
","""event"",""trial"",""time""
""fullscreenenter"",""0"",""1332""
","""event"",""trial"",""time""
""fullscreenexit"",""4"",""53082""
","179.80000001192093","<div class='center'><img src='run_exp/static/images/tutorial/blue.png' height='500'></p></div>","49","","","","","","","","","","","","","","","","","","","","","","",""
"","html-keyboard-response","23","137887","0.0-23.0","""event"",""trial"",""time""
""fullscreenenter"",""0"",""1332""
""fullscreenexit"",""4"",""53082""
""blur"",""6"",""59345""
""focus"",""6"",""60300""
","""event"",""trial"",""time""
""blur"",""6"",""59345""
","""event"",""trial"",""time""
""focus"",""6"",""60300""
","""event"",""trial"",""time""
""fullscreenenter"",""0"",""1332""
","""event"",""trial"",""time""
""fullscreenexit"",""4"",""53082""
","null","<div class='center'><p><img src='run_exp/static/images/tutorial/blue_win.png' height='500'></p></div>","null","","","","","","","","","","","","","","","","","","","","","","",""
"","html-keyboard-response","24","138033","0.0-24.0","""event"",""trial"",""time""
""fullscreenenter"",""0"",""1332""
""fullscreenexit"",""4"",""53082""
""blur"",""6"",""59345""
""focus"",""6"",""60300""
","""event"",""trial"",""time""
""blur"",""6"",""59345""
","""event"",""trial"",""time""
""focus"",""6"",""60300""
","""event"",""trial"",""time""
""fullscreenenter"",""0"",""1332""
","""event"",""trial"",""time""
""fullscreenexit"",""4"",""53082""
","144.5","<div class='center'><img src='run_exp/static/images/tutorial/blue.png' height='500'></p></div>","49","","","","","","","","","","","","","","","","","","","","","","",""
"","html-keyboard-response","25","139537","0.0-25.0","""event"",""trial"",""time""
""fullscreenenter"",""0"",""1332""
""fullscreenexit"",""4"",""53082""
""blur"",""6"",""59345""
""focus"",""6"",""60300""
","""event"",""trial"",""time""
""blur"",""6"",""59345""
","""event"",""trial"",""time""
""focus"",""6"",""60300""
","""event"",""trial"",""time""
""fullscreenenter"",""0"",""1332""
","""event"",""trial"",""time""
""fullscreenexit"",""4"",""53082""
","null","<div class='center'><p><img src='run_exp/static/images/tutorial/blue_no_win.png' height='500'></p></div>","null","","","","","","","","","","","","","","","","","","","","","","",""
"","html-keyboard-response","26","139546","0.0-26.0","""event"",""trial"",""time""
""fullscreenenter"",""0"",""1332""
""fullscreenexit"",""4"",""53082""
""blur"",""6"",""59345""
""focus"",""6"",""60300""
","""event"",""trial"",""time""
""blur"",""6"",""59345""
","""event"",""trial"",""time""
""focus"",""6"",""60300""
","""event"",""trial"",""time""
""fullscreenenter"",""0"",""1332""
","""event"",""trial"",""time""
""fullscreenexit"",""4"",""53082""
","8.400000005960464","<div class='center'><img src='run_exp/static/images/tutorial/blue.png' height='500'></p></div>","49","","","","","","","","","","","","","","","","","","","","","","",""
"","html-keyboard-response","27","141052","0.0-27.0","""event"",""trial"",""time""
""fullscreenenter"",""0"",""1332""
""fullscreenexit"",""4"",""53082""
""blur"",""6"",""59345""
""focus"",""6"",""60300""
","""event"",""trial"",""time""
""blur"",""6"",""59345""
","""event"",""trial"",""time""
""focus"",""6"",""60300""
","""event"",""trial"",""time""
""fullscreenenter"",""0"",""1332""
","""event"",""trial"",""time""
""fullscreenexit"",""4"",""53082""
","null","<div class='center'><p><img src='run_exp/static/images/tutorial/blue_win.png' height='500'></p></div>","null","","","","","","","","","","","","","","","","","","","","","","",""
"","html-keyboard-response","28","141054","0.0-28.0","""event"",""trial"",""time""
""fullscreenenter"",""0"",""1332""
""fullscreenexit"",""4"",""53082""
""blur"",""6"",""59345""
""focus"",""6"",""60300""
","""event"",""trial"",""time""
""blur"",""6"",""59345""
","""event"",""trial"",""time""
""focus"",""6"",""60300""
","""event"",""trial"",""time""
""fullscreenenter"",""0"",""1332""
","""event"",""trial"",""time""
""fullscreenexit"",""4"",""53082""
","0.3999999910593033","<div class='center'><img src='run_exp/static/images/tutorial/blue.png' height='500'></p></div>","49","","","","","","","","","","","","","","","","","","","","","","",""
"","html-keyboard-response","29","142556","0.0-29.0","""event"",""trial"",""time""
""fullscreenenter"",""0"",""1332""
""fullscreenexit"",""4"",""53082""
""blur"",""6"",""59345""
""focus"",""6"",""60300""
","""event"",""trial"",""time""
""blur"",""6"",""59345""
","""event"",""trial"",""time""
""focus"",""6"",""60300""
","""event"",""trial"",""time""
""fullscreenenter"",""0"",""1332""
","""event"",""trial"",""time""
""fullscreenexit"",""4"",""53082""
","null","<div class='center'><p><img src='run_exp/static/images/tutorial/blue_win.png' height='500'></p></div>","null","","","","","","","","","","","","","","","","","","","","","","",""
"","instruc6","30","147984","0.0-30.0","""event"",""trial"",""time""
""fullscreenenter"",""0"",""1332""
""fullscreenexit"",""4"",""53082""
""blur"",""6"",""59345""
""focus"",""6"",""60300""
","""event"",""trial"",""time""
""blur"",""6"",""59345""
","""event"",""trial"",""time""
""focus"",""6"",""60300""
","""event"",""trial"",""time""
""fullscreenenter"",""0"",""1332""
","""event"",""trial"",""time""
""fullscreenexit"",""4"",""53082""
","null","run_exp/static/audio/clip_6_blue_beard_outcome.m4a","null","","","","","<div class='center'><p> See, he succeeded in robbing the ships most of the time but not every time. </p></div>","","","","","","","","","","","","","","","","","",""
"","html-keyboard-response","31","149725","0.0-31.0","""event"",""trial"",""time""
""fullscreenenter"",""0"",""1332""
""fullscreenexit"",""4"",""53082""
""blur"",""6"",""59345""
""focus"",""6"",""60300""
","""event"",""trial"",""time""
""blur"",""6"",""59345""
","""event"",""trial"",""time""
""focus"",""6"",""60300""
","""event"",""trial"",""time""
""fullscreenenter"",""0"",""1332""
","""event"",""trial"",""time""
""fullscreenexit"",""4"",""53082""
","1740.5","<div class='center'><p> See, he succeeded in robbing the ships most of the time but not every time. </p><p><b>[Press the space bar to continue]</b></p></div>","32","","","","","","","","","","","","","","","","","","","","","","",""
"","audio-keyboard-response","32","152872","0.0-32.0","""event"",""trial"",""time""
""fullscreenenter"",""0"",""1332""
""fullscreenexit"",""4"",""53082""
""blur"",""6"",""59345""
""focus"",""6"",""60300""
","""event"",""trial"",""time""
""blur"",""6"",""59345""
","""event"",""trial"",""time""
""focus"",""6"",""60300""
","""event"",""trial"",""time""
""fullscreenenter"",""0"",""1332""
","""event"",""trial"",""time""
""fullscreenexit"",""4"",""53082""
","3145.5","run_exp/static/audio/clip_7_pick_pirate.m4a","49","","","","","","","","","","","","","","","","","","","","","","",""
"","audio-keyboard-response","33","158342","0.0-33.0-0.0","""event"",""trial"",""time""
""fullscreenenter"",""0"",""1332""
""fullscreenexit"",""4"",""53082""
""blur"",""6"",""59345""
""focus"",""6"",""60300""
","""event"",""trial"",""time""
""blur"",""6"",""59345""
","""event"",""trial"",""time""
""focus"",""6"",""60300""
","""event"",""trial"",""time""
""fullscreenenter"",""0"",""1332""
","""event"",""trial"",""time""
""fullscreenexit"",""4"",""53082""
","5466.800000011921","run_exp/static/audio/clip_8_chosen_pirate_win.m4a","32","","","","","","","","","","","","","","","","","","","","","","",""
"","audio-keyboard-response","34","159288","0.0-33.0-1.0","""event"",""trial"",""time""
""fullscreenenter"",""0"",""1332""
""fullscreenexit"",""4"",""53082""
""blur"",""6"",""59345""
""focus"",""6"",""60300""
","""event"",""trial"",""time""
""blur"",""6"",""59345""
","""event"",""trial"",""time""
""focus"",""6"",""60300""
","""event"",""trial"",""time""
""fullscreenenter"",""0"",""1332""
","""event"",""trial"",""time""
""fullscreenexit"",""4"",""53082""
","944.5","run_exp/static/audio/clip_9_pick_a_pirate_again.m4a","50","","","","","","","","","","","","","","","","","","","","","","",""
"","audio-keyboard-response","35","160192","0.0-34.0-0.0","""event"",""trial"",""time""
""fullscreenenter"",""0"",""1332""
""fullscreenexit"",""4"",""53082""
""blur"",""6"",""59345""
""focus"",""6"",""60300""
","""event"",""trial"",""time""
""blur"",""6"",""59345""
","""event"",""trial"",""time""
""focus"",""6"",""60300""
","""event"",""trial"",""time""
""fullscreenenter"",""0"",""1332""
","""event"",""trial"",""time""
""fullscreenexit"",""4"",""53082""
","901.2000000029802","run_exp/static/audio/clip_10_chosen_pirate_loss.m4a","32","","","","","","","","","","","","","","","","","","","","","","",""
"","instruc9","36","165700","0.0-35.0-0.0","""event"",""trial"",""time""
""fullscreenenter"",""0"",""1332""
""fullscreenexit"",""4"",""53082""
""blur"",""6"",""59345""
""focus"",""6"",""60300""
","""event"",""trial"",""time""
""blur"",""6"",""59345""
","""event"",""trial"",""time""
""focus"",""6"",""60300""
","""event"",""trial"",""time""
""fullscreenenter"",""0"",""1332""
","""event"",""trial"",""time""
""fullscreenexit"",""4"",""53082""
","null","run_exp/static/audio/clip_11_time_out.m4a","null","","","","","<div class='center'><p>If you don’t make your choice fast enough, you’ll have to wait a few seconds before you can make another one. </p><p><img src='run_exp/static/images/miscellaneous/hurry_up.png' height='500'></p></div>","","","","","","","","","","","","","","","","","",""
"","html-keyboard-response","37","166158","0.0-35.0-1.0","""event"",""trial"",""time""
""fullscreenenter"",""0"",""1332""
""fullscreenexit"",""4"",""53082""
""blur"",""6"",""59345""
""focus"",""6"",""60300""
","""event"",""trial"",""time""
""blur"",""6"",""59345""
","""event"",""trial"",""time""
""focus"",""6"",""60300""
","""event"",""trial"",""time""
""fullscreenenter"",""0"",""1332""
","""event"",""trial"",""time""
""fullscreenexit"",""4"",""53082""
","456.20000000298023","<div class='center'><p>If you don’t make your choice fast enough, you’ll have to wait a few seconds before you can make another one. </p><p><img src='run_exp/static/images/miscellaneous/hurry_up.png' height='500'></p><p><b>[Press the space bar to continue]</b></p></div>","32","","","","","","","","","","","","","","","","","","","","","","",""
"","instruc10","38","205244","0.0-35.0-2.0","""event"",""trial"",""time""
""fullscreenenter"",""0"",""1332""
""fullscreenexit"",""4"",""53082""
""blur"",""6"",""59345""
""focus"",""6"",""60300""
","""event"",""trial"",""time""
""blur"",""6"",""59345""
","""event"",""trial"",""time""
""focus"",""6"",""60300""
","""event"",""trial"",""time""
""fullscreenenter"",""0"",""1332""
","""event"",""trial"",""time""
""fullscreenexit"",""4"",""53082""
","null","run_exp/static/audio/clip_12_probe.m4a","null","","","","","<div class='center'><p>Once you've chosen a pirate, you’ll be shown the ship they are robbing. You will never rob the same ship twice. Ships can be told apart from one another by the image on them. These are the goods that they sell. See, this ship has a travel mug on it. </p><p> You’ll have to remember which island you saw each ship on. You will win more gold coins and hence more bonus money if you remember correctly! To help you remember, you can imagine a story. For example, here, you could imagine a mug full of water in the desert. Or, as another example, if on the forest island, your pirate robbed a ship with an apple on it, you could imagine an apple falling from a tree in the forest. </p><p><img src='run_exp/static/images/tutorial/example_probe.png' height='500'></p></div>","","","","","","","","","","","","","","","","","",""
"","html-keyboard-response","39","205788","0.0-35.0-3.0","""event"",""trial"",""time""
""fullscreenenter"",""0"",""1332""
""fullscreenexit"",""4"",""53082""
""blur"",""6"",""59345""
""focus"",""6"",""60300""
","""event"",""trial"",""time""
""blur"",""6"",""59345""
","""event"",""trial"",""time""
""focus"",""6"",""60300""
","""event"",""trial"",""time""
""fullscreenenter"",""0"",""1332""
","""event"",""trial"",""time""
""fullscreenexit"",""4"",""53082""
","541.3999999910593","<div class='center'><p>Once you've chosen a pirate, you’ll be shown the ship they are robbing. You will never rob the same ship twice. Ships can be told apart from one another by the image on them. These are the goods that they sell. See, this ship has a travel mug on it. </p><p> You’ll have to remember which island you saw each ship on. You will win more gold coins and hence more bonus money if you remember correctly! To help you remember, you can imagine a story. For example, here, you could imagine a mug full of water in the desert. Or, as another example, if on the forest island, your pirate robbed a ship with an apple on it, you could imagine an apple falling from a tree in the forest. </p><p><img src='run_exp/static/images/tutorial/example_probe.png' height='500'></p><p><b>[Press the space bar to continue]</b></p></div>","32","","","","","","","","","","","","","","","","","","","","","","",""
"","instruc11","40","222194","0.0-35.0-4.0","""event"",""trial"",""time""
""fullscreenenter"",""0"",""1332""
""fullscreenexit"",""4"",""53082""
""blur"",""6"",""59345""
""focus"",""6"",""60300""
","""event"",""trial"",""time""
""blur"",""6"",""59345""
","""event"",""trial"",""time""
""focus"",""6"",""60300""
","""event"",""trial"",""time""
""fullscreenenter"",""0"",""1332""
","""event"",""trial"",""time""
""fullscreenexit"",""4"",""53082""
","null","run_exp/static/audio/clip_13_changepoint.m4a","null","","","","","<div class='center'><p>How successful a pirate is at robbing ships will depend on the island you’re on.</p><p> A pirate may have visited this island many times before and gained a lot of practice robbing ships there.</p><p>So, they’re more likely to be successful than a pirate who has never visited the island before.</p></div>","","","","","","","","","","","","","","","","","",""
"","html-keyboard-response","41","222609","0.0-35.0-5.0","""event"",""trial"",""time""
""fullscreenenter"",""0"",""1332""
""fullscreenexit"",""4"",""53082""
""blur"",""6"",""59345""
""focus"",""6"",""60300""
","""event"",""trial"",""time""
""blur"",""6"",""59345""
","""event"",""trial"",""time""
""focus"",""6"",""60300""
","""event"",""trial"",""time""
""fullscreenenter"",""0"",""1332""
","""event"",""trial"",""time""
""fullscreenexit"",""4"",""53082""
","412.79999999701977","<div class='center'><p>How successful a pirate is at robbing ships will depend on the island you’re on.</p><p> A pirate may have visited this island many times before and gained a lot of practice robbing ships there.</p><p>So, they’re more likely to be successful than a pirate who has never visited the island before.</p><p><b>[Press the space bar to continue]</b></p></div>","32","","","","","","","","","","","","","","","","","","","","","","",""
"","instruc12","42","263712","0.0-35.0-6.0","""event"",""trial"",""time""
""fullscreenenter"",""0"",""1332""
""fullscreenexit"",""4"",""53082""
""blur"",""6"",""59345""
""focus"",""6"",""60300""
","""event"",""trial"",""time""
""blur"",""6"",""59345""
","""event"",""trial"",""time""
""focus"",""6"",""60300""
","""event"",""trial"",""time""
""fullscreenenter"",""0"",""1332""
","""event"",""trial"",""time""
""fullscreenexit"",""4"",""53082""
","null","run_exp/static/audio/clip_14_drift.m4a","null","","","","","<div class='center'><p>How successful a pirate is at robbing ships can also change over the time spent on the island. </p><p> Ships may hear from islanders about the pirates coming and will improve their protections against the attack. This may make it harder to rob them.</p><p> Ships may also become lazy and weaken the strength of their protections. This may make it easier to rob them.</p><br><p>Things are always changing on the high seas! So, try your best to pay attention!</p><p><img src='run_exp/static/images/tutorial/contingency.png' height='500'></p></div>","","","","","","","","","","","","","","","","","",""
"","html-keyboard-response","43","264386","0.0-35.0-7.0","""event"",""trial"",""time""
""fullscreenenter"",""0"",""1332""
""fullscreenexit"",""4"",""53082""
""blur"",""6"",""59345""
""focus"",""6"",""60300""
","""event"",""trial"",""time""
""blur"",""6"",""59345""
","""event"",""trial"",""time""
""focus"",""6"",""60300""
","""event"",""trial"",""time""
""fullscreenenter"",""0"",""1332""
","""event"",""trial"",""time""
""fullscreenexit"",""4"",""53082""
","671","<div class='center'><p>How successful a pirate is at robbing ships can also change over the time spent on the island. </p><p> Ships may hear from islanders about the pirates coming and will improve their protections against the attack. This may make it harder to rob them.</p><p> Ships may also become lazy and weaken the strength of their protections. This may make it easier to rob them.</p><br><p>Things are always changing on the high seas! So, try your best to pay attention!</p><p><img src='run_exp/static/images/tutorial/contingency.png' height='500'></p><p><b>[Press the space bar to continue]</b></p></div>","32","","","","","","","","","","","","","","","","","","","","","","",""
"","instruc13","44","299586","0.0-35.0-8.0","""event"",""trial"",""time""
""fullscreenenter"",""0"",""1332""
""fullscreenexit"",""4"",""53082""
""blur"",""6"",""59345""
""focus"",""6"",""60300""
","""event"",""trial"",""time""
""blur"",""6"",""59345""
","""event"",""trial"",""time""
""focus"",""6"",""60300""
","""event"",""trial"",""time""
""fullscreenenter"",""0"",""1332""
","""event"",""trial"",""time""
""fullscreenexit"",""4"",""53082""
","null","run_exp/static/audio/clip_15_summary.m4a","null","","","","","<div class='center'><p>Let's go over the instructions quickly again. You have two important things to do: </p><b><p> 1. Pick the pirate who is the best at robbing ships on the current island. </p></b><b><p> 2. Remember on which island a ship was robbed.</p> </b><p>The amount of bonus money you can win depends on both.</p><p><br><p>Let’s try a practice game. The game will start by showing you the pirates. First, pick a pirate using the <b> 1, 2, 3 </b> keys on your keyboard. When you are shown a ship, try to remember which island you’re on by making up a story.</p><p>This is just a practice game, so you’re not playing for money. </p><p> Good luck! This game will be very difficult but try your best!</p></div>","","","","","","","","","","","","","","","","","",""
"","html-keyboard-response","45","299928","0.0-35.0-9.0","""event"",""trial"",""time""
""fullscreenenter"",""0"",""1332""
""fullscreenexit"",""4"",""53082""
""blur"",""6"",""59345""
""focus"",""6"",""60300""
","""event"",""trial"",""time""
""blur"",""6"",""59345""
","""event"",""trial"",""time""
""focus"",""6"",""60300""
","""event"",""trial"",""time""
""fullscreenenter"",""0"",""1332""
","""event"",""trial"",""time""
""fullscreenexit"",""4"",""53082""
","340.69999998807907","<div class='center'><p>Let's go over the instructions quickly again. You have two important things to do: </p><b><p> 1. Pick the pirate who is the best at robbing ships on the current island. </p></b><b><p> 2. Remember on which island a ship was robbed.</p> </b><p>The amount of bonus money you can win depends on both.</p><p><br><p>Let’s try a practice game. The game will start by showing you the pirates. First, pick a pirate using the <b> 1, 2, 3 </b> keys on your keyboard. When you are shown a ship, try to remember which island you’re on by making up a story.</p><p>This is just a practice game, so you’re not playing for money. </p><p> Good luck! This game will be very difficult but try your best!</p><p><b>[Press the space bar to continue]</b></p></div>","32","","","","","","","","","","","","","","","","","","","","","","",""
"","do_welcome","46","303934","0.0-35.0-10.0","""event"",""trial"",""time""
""fullscreenenter"",""0"",""1332""
""fullscreenexit"",""4"",""53082""
""blur"",""6"",""59345""
""focus"",""6"",""60300""
","""event"",""trial"",""time""
""blur"",""6"",""59345""
","""event"",""trial"",""time""
""focus"",""6"",""60300""
","""event"",""trial"",""time""
""fullscreenenter"",""0"",""1332""
","""event"",""trial"",""time""
""fullscreenexit"",""4"",""53082""
","null","","","","","","","","null","","","","","","","","","","","","","","","","",""
"","do_trial","47","309947","0.0-35.0-11.0","""event"",""trial"",""time""
""fullscreenenter"",""0"",""1332""
""fullscreenexit"",""4"",""53082""
""blur"",""6"",""59345""
""focus"",""6"",""60300""
","""event"",""trial"",""time""
""blur"",""6"",""59345""
","""event"",""trial"",""time""
""focus"",""6"",""60300""
","""event"",""trial"",""time""
""fullscreenenter"",""0"",""1332""
","""event"",""trial"",""time""
""fullscreenexit"",""4"",""53082""
","1499.0999999940395","","","","","","","","50","1,0,0","","","","","","","","","","","","","","","",""
"","html-keyboard-response","48","310949","0.0-36.0-0.0","""event"",""trial"",""time""
""fullscreenenter"",""0"",""1332""
""fullscreenexit"",""4"",""53082""
""blur"",""6"",""59345""
""focus"",""6"",""60300""
","""event"",""trial"",""time""
""blur"",""6"",""59345""
","""event"",""trial"",""time""
""focus"",""6"",""60300""
","""event"",""trial"",""time""
""fullscreenenter"",""0"",""1332""
","""event"",""trial"",""time""
""fullscreenexit"",""4"",""53082""
","null","<p></p>","null","","","","","","","","","","","","","","","","","","","","","","",""
"","do_trial","49","315513","0.0-36.0-1.0","""event"",""trial"",""time""
""fullscreenenter"",""0"",""1332""
""fullscreenexit"",""4"",""53082""
""blur"",""6"",""59345""
""focus"",""6"",""60300""
","""event"",""trial"",""time""
""blur"",""6"",""59345""
","""event"",""trial"",""time""
""focus"",""6"",""60300""
","""event"",""trial"",""time""
""fullscreenenter"",""0"",""1332""
","""event"",""trial"",""time""
""fullscreenexit"",""4"",""53082""
","53.30000001192093","","","","","","","","51","1,1,0","","","","","","","","","","","","","","","",""
"","html-keyboard-response","50","316519","0.0-37.0-0.0","""event"",""trial"",""time""
""fullscreenenter"",""0"",""1332""
""fullscreenexit"",""4"",""53082""
""blur"",""6"",""59345""
""focus"",""6"",""60300""
","""event"",""trial"",""time""
""blur"",""6"",""59345""
","""event"",""trial"",""time""
""focus"",""6"",""60300""
","""event"",""trial"",""time""
""fullscreenenter"",""0"",""1332""
","""event"",""trial"",""time""
""fullscreenexit"",""4"",""53082""
","null","<p></p>","null","","","","","","","","","","","","","","","","","","","","","","",""
"","do_trial","51","321470","0.0-37.0-1.0","""event"",""trial"",""time""
""fullscreenenter"",""0"",""1332""
""fullscreenexit"",""4"",""53082""
""blur"",""6"",""59345""
""focus"",""6"",""60300""
","""event"",""trial"",""time""
""blur"",""6"",""59345""
","""event"",""trial"",""time""
""focus"",""6"",""60300""
","""event"",""trial"",""time""
""fullscreenenter"",""0"",""1332""
","""event"",""trial"",""time""
""fullscreenexit"",""4"",""53082""
","440.09999999403954","","","","","","","","49","1,0,1","","","","","","","","","","","","","","","",""
"","html-keyboard-response","52","322475","0.0-38.0-0.0","""event"",""trial"",""time""
""fullscreenenter"",""0"",""1332""
""fullscreenexit"",""4"",""53082""
""blur"",""6"",""59345""
""focus"",""6"",""60300""
","""event"",""trial"",""time""
""blur"",""6"",""59345""
","""event"",""trial"",""time""
""focus"",""6"",""60300""
","""event"",""trial"",""time""
""fullscreenenter"",""0"",""1332""
","""event"",""trial"",""time""
""fullscreenexit"",""4"",""53082""
","null","<p></p>","null","","","","","","","","","","","","","","","","","","","","","","",""
"","do_trial","53","327798","0.0-38.0-1.0","""event"",""trial"",""time""
""fullscreenenter"",""0"",""1332""
""fullscreenexit"",""4"",""53082""
""blur"",""6"",""59345""
""focus"",""6"",""60300""
","""event"",""trial"",""time""
""blur"",""6"",""59345""
","""event"",""trial"",""time""
""focus"",""6"",""60300""
","""event"",""trial"",""time""
""fullscreenenter"",""0"",""1332""
","""event"",""trial"",""time""
""fullscreenexit"",""4"",""53082""
","813","","","","","","","","50","0,1,0","","","","","","","","","","","","","","","",""
"","html-keyboard-response","54","328803","0.0-39.0-0.0","""event"",""trial"",""time""
""fullscreenenter"",""0"",""1332""
""fullscreenexit"",""4"",""53082""
""blur"",""6"",""59345""
""focus"",""6"",""60300""
","""event"",""trial"",""time""
""blur"",""6"",""59345""
","""event"",""trial"",""time""
""focus"",""6"",""60300""
","""event"",""trial"",""time""
""fullscreenenter"",""0"",""1332""
","""event"",""trial"",""time""
""fullscreenexit"",""4"",""53082""
","null","<p></p>","null","","","","","","","","","","","","","","","","","","","","","","",""
"","do_trial","55","333670","0.0-39.0-1.0","""event"",""trial"",""time""
""fullscreenenter"",""0"",""1332""
""fullscreenexit"",""4"",""53082""
""blur"",""6"",""59345""
""focus"",""6"",""60300""
","""event"",""trial"",""time""
""blur"",""6"",""59345""
","""event"",""trial"",""time""
""focus"",""6"",""60300""
","""event"",""trial"",""time""
""fullscreenenter"",""0"",""1332""
","""event"",""trial"",""time""
""fullscreenexit"",""4"",""53082""
","358.60000002384186","","","","","","","","51","1,0,0","","","","","","","","","","","","","","","",""
"","do_bye","56","335175","0.0-40.0-0.0","""event"",""trial"",""time""
""fullscreenenter"",""0"",""1332""
""fullscreenexit"",""4"",""53082""
""blur"",""6"",""59345""
""focus"",""6"",""60300""
","""event"",""trial"",""time""
""blur"",""6"",""59345""
","""event"",""trial"",""time""
""focus"",""6"",""60300""
","""event"",""trial"",""time""
""fullscreenenter"",""0"",""1332""
","""event"",""trial"",""time""
""fullscreenexit"",""4"",""53082""
","null","","","","","","","","null","","","","","","","","","","","","","","","","",""
"","do_travel","57","344182","0.0-40.0-1.0","""event"",""trial"",""time""
""fullscreenenter"",""0"",""1332""
""fullscreenexit"",""4"",""53082""
""blur"",""6"",""59345""
""focus"",""6"",""60300""
","""event"",""trial"",""time""
""blur"",""6"",""59345""
","""event"",""trial"",""time""
""focus"",""6"",""60300""
","""event"",""trial"",""time""
""fullscreenenter"",""0"",""1332""
","""event"",""trial"",""time""
""fullscreenexit"",""4"",""53082""
","null","","","","","","","","null","","","","","","","","","","","","","","","","",""
"","do_welcome","58","348188","0.0-40.0-2.0","""event"",""trial"",""time""
""fullscreenenter"",""0"",""1332""
""fullscreenexit"",""4"",""53082""
""blur"",""6"",""59345""
""focus"",""6"",""60300""
","""event"",""trial"",""time""
""blur"",""6"",""59345""
","""event"",""trial"",""time""
""focus"",""6"",""60300""
","""event"",""trial"",""time""
""fullscreenenter"",""0"",""1332""
","""event"",""trial"",""time""
""fullscreenexit"",""4"",""53082""
","null","","","","","","","","null","","","","","","","","","","","","","","","","",""
"","do_trial","59","353840","0.0-40.0-3.0","""event"",""trial"",""time""
""fullscreenenter"",""0"",""1332""
""fullscreenexit"",""4"",""53082""
""blur"",""6"",""59345""
""focus"",""6"",""60300""
","""event"",""trial"",""time""
""blur"",""6"",""59345""
","""event"",""trial"",""time""
""focus"",""6"",""60300""
","""event"",""trial"",""time""
""fullscreenenter"",""0"",""1332""
","""event"",""trial"",""time""
""fullscreenexit"",""4"",""53082""
","1143.3999999761581","","","","","","","","50","1,0,0","","","","","","","","","","","","","","","",""
"","html-keyboard-response","60","354843","0.0-41.0-0.0","""event"",""trial"",""time""
""fullscreenenter"",""0"",""1332""
""fullscreenexit"",""4"",""53082""
""blur"",""6"",""59345""
""focus"",""6"",""60300""
","""event"",""trial"",""time""
""blur"",""6"",""59345""
","""event"",""trial"",""time""
""focus"",""6"",""60300""
","""event"",""trial"",""time""
""fullscreenenter"",""0"",""1332""
","""event"",""trial"",""time""
""fullscreenexit"",""4"",""53082""
","null","<p></p>","null","","","","","","","","","","","","","","","","","","","","","","",""
"","do_trial","61","359940","0.0-41.0-1.0","""event"",""trial"",""time""
""fullscreenenter"",""0"",""1332""
""fullscreenexit"",""4"",""53082""
""blur"",""6"",""59345""
""focus"",""6"",""60300""
","""event"",""trial"",""time""
""blur"",""6"",""59345""
","""event"",""trial"",""time""
""focus"",""6"",""60300""
","""event"",""trial"",""time""
""fullscreenenter"",""0"",""1332""
","""event"",""trial"",""time""
""fullscreenexit"",""4"",""53082""
","586.9000000059605","","","","","","","","49","1,0,1","","","","","","","","","","","","","","","",""
"","html-keyboard-response","62","360943","0.0-42.0-0.0","""event"",""trial"",""time""
""fullscreenenter"",""0"",""1332""
""fullscreenexit"",""4"",""53082""
""blur"",""6"",""59345""
""focus"",""6"",""60300""
","""event"",""trial"",""time""
""blur"",""6"",""59345""
","""event"",""trial"",""time""
""focus"",""6"",""60300""
","""event"",""trial"",""time""
""fullscreenenter"",""0"",""1332""
","""event"",""trial"",""time""
""fullscreenexit"",""4"",""53082""
","null","<p></p>","null","","","","","","","","","","","","","","","","","","","","","","",""
"","do_trial","63","366349","0.0-42.0-1.0","""event"",""trial"",""time""
""fullscreenenter"",""0"",""1332""
""fullscreenexit"",""4"",""53082""
""blur"",""6"",""59345""
""focus"",""6"",""60300""
","""event"",""trial"",""time""
""blur"",""6"",""59345""
","""event"",""trial"",""time""
""focus"",""6"",""60300""
","""event"",""trial"",""time""
""fullscreenenter"",""0"",""1332""
","""event"",""trial"",""time""
""fullscreenexit"",""4"",""53082""
","896.5","","","","","","","","49","1,1,0","","","","","","","","","","","","","","","",""
"","html-keyboard-response","64","367354","0.0-43.0-0.0","""event"",""trial"",""time""
""fullscreenenter"",""0"",""1332""
""fullscreenexit"",""4"",""53082""
""blur"",""6"",""59345""
""focus"",""6"",""60300""
","""event"",""trial"",""time""
""blur"",""6"",""59345""
","""event"",""trial"",""time""
""focus"",""6"",""60300""
","""event"",""trial"",""time""
""fullscreenenter"",""0"",""1332""
","""event"",""trial"",""time""
""fullscreenexit"",""4"",""53082""
","null","<p></p>","null","","","","","","","","","","","","","","","","","","","","","","",""
"","do_trial","65","371949","0.0-43.0-1.0","""event"",""trial"",""time""
""fullscreenenter"",""0"",""1332""
""fullscreenexit"",""4"",""53082""
""blur"",""6"",""59345""
""focus"",""6"",""60300""
","""event"",""trial"",""time""
""blur"",""6"",""59345""
","""event"",""trial"",""time""
""focus"",""6"",""60300""
","""event"",""trial"",""time""
""fullscreenenter"",""0"",""1332""
","""event"",""trial"",""time""
""fullscreenexit"",""4"",""53082""
","85.30000001192093","","","","","","","","51","0,0,1","","","","","","","","","","","","","","","",""
"","html-keyboard-response","66","372957","0.0-44.0-0.0","""event"",""trial"",""time""
""fullscreenenter"",""0"",""1332""
""fullscreenexit"",""4"",""53082""
""blur"",""6"",""59345""
""focus"",""6"",""60300""
","""event"",""trial"",""time""
""blur"",""6"",""59345""
","""event"",""trial"",""time""
""focus"",""6"",""60300""
","""event"",""trial"",""time""
""fullscreenenter"",""0"",""1332""
","""event"",""trial"",""time""
""fullscreenexit"",""4"",""53082""
","null","<p></p>","null","","","","","","","","","","","","","","","","","","","","","","",""
"","do_trial","67","378126","0.0-44.0-1.0","""event"",""trial"",""time""
""fullscreenenter"",""0"",""1332""
""fullscreenexit"",""4"",""53082""
""blur"",""6"",""59345""
""focus"",""6"",""60300""
","""event"",""trial"",""time""
""blur"",""6"",""59345""
","""event"",""trial"",""time""
""focus"",""6"",""60300""
","""event"",""trial"",""time""
""fullscreenenter"",""0"",""1332""
","""event"",""trial"",""time""
""fullscreenexit"",""4"",""53082""
","661.0999999940395","","","","","","","","51","1,0,1","","","","","","","","","","","","","","","",""
"","html-keyboard-response","68","380278","0.0-45.0-0.0","""event"",""trial"",""time""
""fullscreenenter"",""0"",""1332""
""fullscreenexit"",""4"",""53082""
""blur"",""6"",""59345""
""focus"",""6"",""60300""
","""event"",""trial"",""time""
""blur"",""6"",""59345""
","""event"",""trial"",""time""
""focus"",""6"",""60300""
","""event"",""trial"",""time""
""fullscreenenter"",""0"",""1332""
","""event"",""trial"",""time""
""fullscreenexit"",""4"",""53082""
","2148.5999999940395","<div class='center'><p><img src='run_exp/static/images/tutorial/prac_best_pirate.png'  height='500'></p></div>","49","","","","","","","","","","","","","","","","","","","","","","",""
"","html-keyboard-response","69","382345","0.0-46.0-0.0","""event"",""trial"",""time""
""fullscreenenter"",""0"",""1332""
""fullscreenexit"",""4"",""53082""
""blur"",""6"",""59345""
""focus"",""6"",""60300""
","""event"",""trial"",""time""
""blur"",""6"",""59345""
","""event"",""trial"",""time""
""focus"",""6"",""60300""
","""event"",""trial"",""time""
""fullscreenenter"",""0"",""1332""
","""event"",""trial"",""time""
""fullscreenexit"",""4"",""53082""
","2065.699999988079","<div class='center'><p>That's correct! Red beard was the best.</p><p><b>[Press the space bar to continue]</b></p></div>","32","","","","","","","","","","","","","","","","","","","","","","",""
"","html-keyboard-response","70","387514","0.0-46.0-1.0","""event"",""trial"",""time""
""fullscreenenter"",""0"",""1332""
""fullscreenexit"",""4"",""53082""
""blur"",""6"",""59345""
""focus"",""6"",""60300""
","""event"",""trial"",""time""
""blur"",""6"",""59345""
","""event"",""trial"",""time""
""focus"",""6"",""60300""
","""event"",""trial"",""time""
""fullscreenenter"",""0"",""1332""
","""event"",""trial"",""time""
""fullscreenexit"",""4"",""53082""
","5167.5999999940395","<div class='center'><p><img src='run_exp/static/images/tutorial/prac_source.png'  height='500'></p></div>","50","","","","","","","","","","","","","","","","","","","","","","",""
"","html-keyboard-response","71","392787","0.0-47.0-0.0","""event"",""trial"",""time""
""fullscreenenter"",""0"",""1332""
""fullscreenexit"",""4"",""53082""
""blur"",""6"",""59345""
""focus"",""6"",""60300""
","""event"",""trial"",""time""
""blur"",""6"",""59345""
","""event"",""trial"",""time""
""focus"",""6"",""60300""
","""event"",""trial"",""time""
""fullscreenenter"",""0"",""1332""
","""event"",""trial"",""time""
""fullscreenexit"",""4"",""53082""
","5272.5999999940395","<div class='center'><p>That's correct! You saw this ship on the cavern island.</p><p><b>[Press the space bar to continue]</b></p></div>","32","","","","","","","","","","","","","","","","","","","","","","",""
"","quiz_beginning","72","404008","0.0-47.0-1.0","""event"",""trial"",""time""
""fullscreenenter"",""0"",""1332""
""fullscreenexit"",""4"",""53082""
""blur"",""6"",""59345""
""focus"",""6"",""60300""
","""event"",""trial"",""time""
""blur"",""6"",""59345""
","""event"",""trial"",""time""
""focus"",""6"",""60300""
","""event"",""trial"",""time""
""fullscreenenter"",""0"",""1332""
","""event"",""trial"",""time""
""fullscreenexit"",""4"",""53082""
","null","run_exp/static/audio/clip_16_quiz_intro.m4a","null","","","","","<div class='center'><p>Good job on the practice game! Now, you will be asked some true or false questions to make sure you really understand the rules of the game.</p><p> Press <b>'1'</b> on the keyboard for true and press <b>'2'</b> for false.</p></div>","","","","","","","","","","","","","","","","","",""
"","audio-keyboard-response","73","407425","0.0-47.0-2.0","""event"",""trial"",""time""
""fullscreenenter"",""0"",""1332""
""fullscreenexit"",""4"",""53082""
""blur"",""6"",""59345""
""focus"",""6"",""60300""
","""event"",""trial"",""time""
""blur"",""6"",""59345""
","""event"",""trial"",""time""
""focus"",""6"",""60300""
","""event"",""trial"",""time""
""fullscreenenter"",""0"",""1332""
","""event"",""trial"",""time""
""fullscreenexit"",""4"",""53082""
","3414.800000011921","run_exp/static/audio/clip_17_q1.m4a","50","","","","","","","","","","","","","","","","","","","","","","",""
"","q1_err","74","412321","0.0-48.0-0.0","""event"",""trial"",""time""
""fullscreenenter"",""0"",""1332""
""fullscreenexit"",""4"",""53082""
""blur"",""6"",""59345""
""focus"",""6"",""60300""
","""event"",""trial"",""time""
""blur"",""6"",""59345""
","""event"",""trial"",""time""
""focus"",""6"",""60300""
","""event"",""trial"",""time""
""fullscreenenter"",""0"",""1332""
","""event"",""trial"",""time""
""fullscreenexit"",""4"",""53082""
","null","run_exp/static/audio/clip_19_wrong_q1.m4a","null","","","","","<div class='center'><p>That’s incorrect. You win bonus money by collecting gold coins.</p></div>","","","","","","","","","","","","","","","","","",""
"","html-keyboard-response","75","413555","0.0-48.0-1.0","""event"",""trial"",""time""
""fullscreenenter"",""0"",""1332""
""fullscreenexit"",""4"",""53082""
""blur"",""6"",""59345""
""focus"",""6"",""60300""
","""event"",""trial"",""time""
""blur"",""6"",""59345""
","""event"",""trial"",""time""
""focus"",""6"",""60300""
","""event"",""trial"",""time""
""fullscreenenter"",""0"",""1332""
","""event"",""trial"",""time""
""fullscreenexit"",""4"",""53082""
","1233.2000000178814","<div class='center'><p>That’s incorrect. You win bonus money by collecting gold coins.</p><p><b>[Press the space bar to continue]</b></p></div>","32","","","","","","","","","","","","","","","","","","","","","","",""
"","audio-keyboard-response","76","419297","0.0-48.0-2.0","""event"",""trial"",""time""
""fullscreenenter"",""0"",""1332""
""fullscreenexit"",""4"",""53082""
""blur"",""6"",""59345""
""focus"",""6"",""60300""
","""event"",""trial"",""time""
""blur"",""6"",""59345""
","""event"",""trial"",""time""
""focus"",""6"",""60300""
","""event"",""trial"",""time""
""fullscreenenter"",""0"",""1332""
","""event"",""trial"",""time""
""fullscreenexit"",""4"",""53082""
","5740","run_exp/static/audio/clip_20_q2.m4a","50","","","","","","","","","","","","","","","","","","","","","","",""
"","correct","77","421702","0.0-49.0-0.0","""event"",""trial"",""time""
""fullscreenenter"",""0"",""1332""
""fullscreenexit"",""4"",""53082""
""blur"",""6"",""59345""
""focus"",""6"",""60300""
","""event"",""trial"",""time""
""blur"",""6"",""59345""
","""event"",""trial"",""time""
""focus"",""6"",""60300""
","""event"",""trial"",""time""
""fullscreenenter"",""0"",""1332""
","""event"",""trial"",""time""
""fullscreenexit"",""4"",""53082""
","null","run_exp/static/audio/clip_18_correct.m4a","null","","","","","<div class='center'><p>That's correct!</p></div>","","","","","","","","","","","","","","","","","",""
"","html-keyboard-response","78","422102","0.0-49.0-1.0","""event"",""trial"",""time""
""fullscreenenter"",""0"",""1332""
""fullscreenexit"",""4"",""53082""
""blur"",""6"",""59345""
""focus"",""6"",""60300""
","""event"",""trial"",""time""
""blur"",""6"",""59345""
","""event"",""trial"",""time""
""focus"",""6"",""60300""
","""event"",""trial"",""time""
""fullscreenenter"",""0"",""1332""
","""event"",""trial"",""time""
""fullscreenexit"",""4"",""53082""
","399.40000000596046","<div class='center'><p>That's correct!</p><p><b>[Press the space bar to continue]</b></p></div>","32","","","","","","","","","","","","","","","","","","","","","","",""
"","audio-keyboard-response","79","426064","0.0-49.0-2.0","""event"",""trial"",""time""
""fullscreenenter"",""0"",""1332""
""fullscreenexit"",""4"",""53082""
""blur"",""6"",""59345""
""focus"",""6"",""60300""
","""event"",""trial"",""time""
""blur"",""6"",""59345""
","""event"",""trial"",""time""
""focus"",""6"",""60300""
","""event"",""trial"",""time""
""fullscreenenter"",""0"",""1332""
","""event"",""trial"",""time""
""fullscreenexit"",""4"",""53082""
","3961","run_exp/static/audio/clip_22_q3.m4a","50","","","","","","","","","","","","","","","","","","","","","","",""
"","correct","80","428482","0.0-50.0-0.0","""event"",""trial"",""time""
""fullscreenenter"",""0"",""1332""
""fullscreenexit"",""4"",""53082""
""blur"",""6"",""59345""
""focus"",""6"",""60300""
","""event"",""trial"",""time""
""blur"",""6"",""59345""
","""event"",""trial"",""time""
""focus"",""6"",""60300""
","""event"",""trial"",""time""
""fullscreenenter"",""0"",""1332""
","""event"",""trial"",""time""
""fullscreenexit"",""4"",""53082""
","null","run_exp/static/audio/clip_18_correct.m4a","null","","","","","<div class='center'><p>That's correct!</p></div>","","","","","","","","","","","","","","","","","",""
"","html-keyboard-response","81","429044","0.0-50.0-1.0","""event"",""trial"",""time""
""fullscreenenter"",""0"",""1332""
""fullscreenexit"",""4"",""53082""
""blur"",""6"",""59345""
""focus"",""6"",""60300""
","""event"",""trial"",""time""
""blur"",""6"",""59345""
","""event"",""trial"",""time""
""focus"",""6"",""60300""
","""event"",""trial"",""time""
""fullscreenenter"",""0"",""1332""
","""event"",""trial"",""time""
""fullscreenexit"",""4"",""53082""
","561.2999999821186","<div class='center'><p>That's correct!</p><p><b>[Press the space bar to continue]</b></p></div>","32","","","","","","","","","","","","","","","","","","","","","","",""
"","audio-keyboard-response","82","434798","0.0-50.0-2.0","""event"",""trial"",""time""
""fullscreenenter"",""0"",""1332""
""fullscreenexit"",""4"",""53082""
""blur"",""6"",""59345""
""focus"",""6"",""60300""
","""event"",""trial"",""time""
""blur"",""6"",""59345""
","""event"",""trial"",""time""
""focus"",""6"",""60300""
","""event"",""trial"",""time""
""fullscreenenter"",""0"",""1332""
","""event"",""trial"",""time""
""fullscreenexit"",""4"",""53082""
","5752.699999988079","run_exp/static/audio/clip_24_q4.m4a","49","","","","","","","","","","","","","","","","","","","","","","",""
"","correct","83","437213","0.0-51.0-0.0","""event"",""trial"",""time""
""fullscreenenter"",""0"",""1332""
""fullscreenexit"",""4"",""53082""
""blur"",""6"",""59345""
""focus"",""6"",""60300""
","""event"",""trial"",""time""
""blur"",""6"",""59345""
","""event"",""trial"",""time""
""focus"",""6"",""60300""
","""event"",""trial"",""time""
""fullscreenenter"",""0"",""1332""
","""event"",""trial"",""time""
""fullscreenexit"",""4"",""53082""
","null","run_exp/static/audio/clip_18_correct.m4a","null","","","","","<div class='center'><p>That's correct!</p></div>","","","","","","","","","","","","","","","","","",""
"","html-keyboard-response","84","437807","0.0-51.0-1.0","""event"",""trial"",""time""
""fullscreenenter"",""0"",""1332""
""fullscreenexit"",""4"",""53082""
""blur"",""6"",""59345""
""focus"",""6"",""60300""
","""event"",""trial"",""time""
""blur"",""6"",""59345""
","""event"",""trial"",""time""
""focus"",""6"",""60300""
","""event"",""trial"",""time""
""fullscreenenter"",""0"",""1332""
","""event"",""trial"",""time""
""fullscreenexit"",""4"",""53082""
","593.0999999940395","<div class='center'><p>That's correct!</p><p><b>[Press the space bar to continue]</b></p></div>","32","","","","","","","","","","","","","","","","","","","","","","",""
"","q_all_err","85","444016","0.0-52.0-0.0","""event"",""trial"",""time""
""fullscreenenter"",""0"",""1332""
""fullscreenexit"",""4"",""53082""
""blur"",""6"",""59345""
""focus"",""6"",""60300""
","""event"",""trial"",""time""
""blur"",""6"",""59345""
","""event"",""trial"",""time""
""focus"",""6"",""60300""
","""event"",""trial"",""time""
""fullscreenenter"",""0"",""1332""
","""event"",""trial"",""time""
""fullscreenexit"",""4"",""53082""
","null","run_exp/static/audio/clip_26_quiz_redo.m4a","null","","","","","<div class='center'><p>Oops, you missed some questions. Now that you’ve heard the correct answers. Try the quiz again! </p></div>","","","","","","","","","","","","","","","","","",""
"","html-keyboard-response","86","444338","0.0-52.0-1.0","""event"",""trial"",""time""
""fullscreenenter"",""0"",""1332""
""fullscreenexit"",""4"",""53082""
""blur"",""6"",""59345""
""focus"",""6"",""60300""
","""event"",""trial"",""time""
""blur"",""6"",""59345""
","""event"",""trial"",""time""
""focus"",""6"",""60300""
","""event"",""trial"",""time""
""fullscreenenter"",""0"",""1332""
","""event"",""trial"",""time""
""fullscreenexit"",""4"",""53082""
","320.60000002384186","<div class='center'><p>Oops, you missed some questions. Now that you’ve heard the correct answers. Try the quiz again! </p><p><b>[Press the space bar to continue]</b></p></div>","32","","","","","","","","","","","","","","","","","","","","","","",""
"","audio-keyboard-response","87","447471","0.0-52.0-2.0","""event"",""trial"",""time""
""fullscreenenter"",""0"",""1332""
""fullscreenexit"",""4"",""53082""
""blur"",""6"",""59345""
""focus"",""6"",""60300""
","""event"",""trial"",""time""
""blur"",""6"",""59345""
","""event"",""trial"",""time""
""focus"",""6"",""60300""
","""event"",""trial"",""time""
""fullscreenenter"",""0"",""1332""
","""event"",""trial"",""time""
""fullscreenexit"",""4"",""53082""
","3133.100000023842","run_exp/static/audio/clip_17_q1.m4a","49","","","","","","","","","","","","","","","","","","","","","","",""
"","correct","88","449867","0.0-53.0-0.0","""event"",""trial"",""time""
""fullscreenenter"",""0"",""1332""
""fullscreenexit"",""4"",""53082""
""blur"",""6"",""59345""
""focus"",""6"",""60300""
","""event"",""trial"",""time""
""blur"",""6"",""59345""
","""event"",""trial"",""time""
""focus"",""6"",""60300""
","""event"",""trial"",""time""
""fullscreenenter"",""0"",""1332""
","""event"",""trial"",""time""
""fullscreenexit"",""4"",""53082""
","null","run_exp/static/audio/clip_18_correct.m4a","null","","","","","<div class='center'><p>That's correct!</p></div>","","","","","","","","","","","","","","","","","",""
"","html-keyboard-response","89","450283","0.0-53.0-1.0","""event"",""trial"",""time""
""fullscreenenter"",""0"",""1332""
""fullscreenexit"",""4"",""53082""
""blur"",""6"",""59345""
""focus"",""6"",""60300""
","""event"",""trial"",""time""
""blur"",""6"",""59345""
","""event"",""trial"",""time""
""focus"",""6"",""60300""
","""event"",""trial"",""time""
""fullscreenenter"",""0"",""1332""
","""event"",""trial"",""time""
""fullscreenexit"",""4"",""53082""
","414.7000000178814","<div class='center'><p>That's correct!</p><p><b>[Press the space bar to continue]</b></p></div>","32","","","","","","","","","","","","","","","","","","","","","","",""
"","audio-keyboard-response","90","453463","0.0-53.0-2.0","""event"",""trial"",""time""
""fullscreenenter"",""0"",""1332""
""fullscreenexit"",""4"",""53082""
""blur"",""6"",""59345""
""focus"",""6"",""60300""
","""event"",""trial"",""time""
""blur"",""6"",""59345""
","""event"",""trial"",""time""
""focus"",""6"",""60300""
","""event"",""trial"",""time""
""fullscreenenter"",""0"",""1332""
","""event"",""trial"",""time""
""fullscreenexit"",""4"",""53082""
","3178.399999976158","run_exp/static/audio/clip_20_q2.m4a","50","","","","","","","","","","","","","","","","","","","","","","",""
"","correct","91","455858","0.0-54.0-0.0","""event"",""trial"",""time""
""fullscreenenter"",""0"",""1332""
""fullscreenexit"",""4"",""53082""
""blur"",""6"",""59345""
""focus"",""6"",""60300""
","""event"",""trial"",""time""
""blur"",""6"",""59345""
","""event"",""trial"",""time""
""focus"",""6"",""60300""
","""event"",""trial"",""time""
""fullscreenenter"",""0"",""1332""
","""event"",""trial"",""time""
""fullscreenexit"",""4"",""53082""
","null","run_exp/static/audio/clip_18_correct.m4a","null","","","","","<div class='center'><p>That's correct!</p></div>","","","","","","","","","","","","","","","","","",""
"","html-keyboard-response","92","455864","0.0-54.0-1.0","""event"",""trial"",""time""
""fullscreenenter"",""0"",""1332""
""fullscreenexit"",""4"",""53082""
""blur"",""6"",""59345""
""focus"",""6"",""60300""
","""event"",""trial"",""time""
""blur"",""6"",""59345""
","""event"",""trial"",""time""
""focus"",""6"",""60300""
","""event"",""trial"",""time""
""fullscreenenter"",""0"",""1332""
","""event"",""trial"",""time""
""fullscreenexit"",""4"",""53082""
","5.5999999940395355","<div class='center'><p>That's correct!</p><p><b>[Press the space bar to continue]</b></p></div>","32","","","","","","","","","","","","","","","","","","","","","","",""
"","audio-keyboard-response","93","457802","0.0-54.0-2.0","""event"",""trial"",""time""
""fullscreenenter"",""0"",""1332""
""fullscreenexit"",""4"",""53082""
""blur"",""6"",""59345""
""focus"",""6"",""60300""
","""event"",""trial"",""time""
""blur"",""6"",""59345""
","""event"",""trial"",""time""
""focus"",""6"",""60300""
","""event"",""trial"",""time""
""fullscreenenter"",""0"",""1332""
","""event"",""trial"",""time""
""fullscreenexit"",""4"",""53082""
","1937.5","run_exp/static/audio/clip_22_q3.m4a","50","","","","","","","","","","","","","","","","","","","","","","",""
"","correct","94","460200","0.0-55.0-0.0","""event"",""trial"",""time""
""fullscreenenter"",""0"",""1332""
""fullscreenexit"",""4"",""53082""
""blur"",""6"",""59345""
""focus"",""6"",""60300""
","""event"",""trial"",""time""
""blur"",""6"",""59345""
","""event"",""trial"",""time""
""focus"",""6"",""60300""
","""event"",""trial"",""time""
""fullscreenenter"",""0"",""1332""
","""event"",""trial"",""time""
""fullscreenexit"",""4"",""53082""
","null","run_exp/static/audio/clip_18_correct.m4a","null","","","","","<div class='center'><p>That's correct!</p></div>","","","","","","","","","","","","","","","","","",""
"","html-keyboard-response","95","460810","0.0-55.0-1.0","""event"",""trial"",""time""
""fullscreenenter"",""0"",""1332""
""fullscreenexit"",""4"",""53082""
""blur"",""6"",""59345""
""focus"",""6"",""60300""
","""event"",""trial"",""time""
""blur"",""6"",""59345""
","""event"",""trial"",""time""
""focus"",""6"",""60300""
","""event"",""trial"",""time""
""fullscreenenter"",""0"",""1332""
","""event"",""trial"",""time""
""fullscreenexit"",""4"",""53082""
","608.5999999940395","<div class='center'><p>That's correct!</p><p><b>[Press the space bar to continue]</b></p></div>","32","","","","","","","","","","","","","","","","","","","","","","",""
"","audio-keyboard-response","96","463158","0.0-55.0-2.0","""event"",""trial"",""time""
""fullscreenenter"",""0"",""1332""
""fullscreenexit"",""4"",""53082""
""blur"",""6"",""59345""
""focus"",""6"",""60300""
","""event"",""trial"",""time""
""blur"",""6"",""59345""
","""event"",""trial"",""time""
""focus"",""6"",""60300""
","""event"",""trial"",""time""
""fullscreenenter"",""0"",""1332""
","""event"",""trial"",""time""
""fullscreenexit"",""4"",""53082""
","2347.2000000178814","run_exp/static/audio/clip_24_q4.m4a","49","","","","","","","","","","","","","","","","","","","","","","",""
"","correct","97","465612","0.0-56.0-0.0","""event"",""trial"",""time""
""fullscreenenter"",""0"",""1332""
""fullscreenexit"",""4"",""53082""
""blur"",""6"",""59345""
""focus"",""6"",""60300""
","""event"",""trial"",""time""
""blur"",""6"",""59345""
","""event"",""trial"",""time""
""focus"",""6"",""60300""
","""event"",""trial"",""time""
""fullscreenenter"",""0"",""1332""
","""event"",""trial"",""time""
""fullscreenexit"",""4"",""53082""
","null","run_exp/static/audio/clip_18_correct.m4a","null","","","","","<div class='center'><p>That's correct!</p></div>","","","","","","","","","","","","","","","","","",""
"","html-keyboard-response","98","466738","0.0-56.0-1.0","""event"",""trial"",""time""
""fullscreenenter"",""0"",""1332""
""fullscreenexit"",""4"",""53082""
""blur"",""6"",""59345""
""focus"",""6"",""60300""
","""event"",""trial"",""time""
""blur"",""6"",""59345""
","""event"",""trial"",""time""
""focus"",""6"",""60300""
","""event"",""trial"",""time""
""fullscreenenter"",""0"",""1332""
","""event"",""trial"",""time""
""fullscreenexit"",""4"",""53082""
","1125.199999988079","<div class='center'><p>That's correct!</p><p><b>[Press the space bar to continue]</b></p></div>","32","","","","","","","","","","","","","","","","","","","","","","",""
"","q_all_corr","99","475224","0.0-57.0-0.0","""event"",""trial"",""time""
""fullscreenenter"",""0"",""1332""
""fullscreenexit"",""4"",""53082""
""blur"",""6"",""59345""
""focus"",""6"",""60300""
","""event"",""trial"",""time""
""blur"",""6"",""59345""
","""event"",""trial"",""time""
""focus"",""6"",""60300""
","""event"",""trial"",""time""
""fullscreenenter"",""0"",""1332""
","""event"",""trial"",""time""
""fullscreenexit"",""4"",""53082""
","null","run_exp/static/audio/clip_27_quiz_all_correct.m4a","null","","","","","<div class='center'><p>Good job! You’re now ready to move on to the real game! Remember this game will be difficult but don't get discouraged and try your best!</p></div>","","","","","","","","","","","","","","","","","",""
"","html-keyboard-response","100","499478","0.0-57.0-1.0","""event"",""trial"",""time""
""fullscreenenter"",""0"",""1332""
""fullscreenexit"",""4"",""53082""
""blur"",""6"",""59345""
""focus"",""6"",""60300""
","""event"",""trial"",""time""
""blur"",""6"",""59345""
","""event"",""trial"",""time""
""focus"",""6"",""60300""
","""event"",""trial"",""time""
""fullscreenenter"",""0"",""1332""
","""event"",""trial"",""time""
""fullscreenexit"",""4"",""53082""
","24251.19999998808","<div class='center'><p>Good job! You’re now ready to move on to the real game! Remember this game will be difficult but don't get discouraged and try your best!</p><p><b>[Press the space bar to continue]</b></p></div>","32","","","","","","","","","","","","","","","","","","","","","","",""
"","do_welcome","101","503488","0.0-58.0-0.0","""event"",""trial"",""time""
""fullscreenenter"",""0"",""1332""
""fullscreenexit"",""4"",""53082""
""blur"",""6"",""59345""
""focus"",""6"",""60300""
","""event"",""trial"",""time""
""blur"",""6"",""59345""
","""event"",""trial"",""time""
""focus"",""6"",""60300""
","""event"",""trial"",""time""
""fullscreenenter"",""0"",""1332""
","""event"",""trial"",""time""
""fullscreenexit"",""4"",""53082""
","null","","","","","","","","null","","","","","","","","","","","","","","","","",""
"","do_trial","102","509433","0.0-59.0-0.0","""event"",""trial"",""time""
""fullscreenenter"",""0"",""1332""
""fullscreenexit"",""4"",""53082""
""blur"",""6"",""59345""
""focus"",""6"",""60300""
","""event"",""trial"",""time""
""blur"",""6"",""59345""
","""event"",""trial"",""time""
""focus"",""6"",""60300""
","""event"",""trial"",""time""
""fullscreenenter"",""0"",""1332""
","""event"",""trial"",""time""
""fullscreenexit"",""4"",""53082""
","1390.0999999940395","","","","","","","","50","1,0,0","0","coast","0","probe-78","0.6","0.3","0.1","0","","","","","","","",""
"","html-keyboard-response","103","510436","0.0-59.0-1.0","""event"",""trial"",""time""
""fullscreenenter"",""0"",""1332""
""fullscreenexit"",""4"",""53082""
""blur"",""6"",""59345""
""focus"",""6"",""60300""
","""event"",""trial"",""time""
""blur"",""6"",""59345""
","""event"",""trial"",""time""
""focus"",""6"",""60300""
","""event"",""trial"",""time""
""fullscreenenter"",""0"",""1332""
","""event"",""trial"",""time""
""fullscreenexit"",""4"",""53082""
","null","<p></p>","null","","","","","","","","","","","","","","","","","","","","","","",""
"","do_trial","104","515295","0.0-60.0-0.0","""event"",""trial"",""time""
""fullscreenenter"",""0"",""1332""
""fullscreenexit"",""4"",""53082""
""blur"",""6"",""59345""
""focus"",""6"",""60300""
","""event"",""trial"",""time""
""blur"",""6"",""59345""
","""event"",""trial"",""time""
""focus"",""6"",""60300""
","""event"",""trial"",""time""
""fullscreenenter"",""0"",""1332""
","""event"",""trial"",""time""
""fullscreenexit"",""4"",""53082""
","304.7000000178814","","","","","","","","50","1,0,0","0","coast","1","probe-147","0.5994120640656135","0.32468371822496195","0.07862073352795386","0","","","","","","","",""
"","html-keyboard-response","105","516297","0.0-60.0-1.0","""event"",""trial"",""time""
""fullscreenenter"",""0"",""1332""
""fullscreenexit"",""4"",""53082""
""blur"",""6"",""59345""
""focus"",""6"",""60300""
","""event"",""trial"",""time""
""blur"",""6"",""59345""
","""event"",""trial"",""time""
""focus"",""6"",""60300""
","""event"",""trial"",""time""
""fullscreenenter"",""0"",""1332""
","""event"",""trial"",""time""
""fullscreenexit"",""4"",""53082""
","null","<p></p>","null","","","","","","","","","","","","","","","","","","","","","","",""
"","do_trial","106","521132","0.0-61.0-0.0","""event"",""trial"",""time""
""fullscreenenter"",""0"",""1332""
""fullscreenexit"",""4"",""53082""
""blur"",""6"",""59345""
""focus"",""6"",""60300""
","""event"",""trial"",""time""
""blur"",""6"",""59345""
","""event"",""trial"",""time""
""focus"",""6"",""60300""
","""event"",""trial"",""time""
""fullscreenenter"",""0"",""1332""
","""event"",""trial"",""time""
""fullscreenexit"",""4"",""53082""
","279.7999999821186","","","","","","","","51","0,1,0","0","coast","2","probe-181","0.6747057098204795","0.34922979752477434","0.054462954339001904","0","","","","","","","",""
"","html-keyboard-response","107","522136","0.0-61.0-1.0","""event"",""trial"",""time""
""fullscreenenter"",""0"",""1332""
""fullscreenexit"",""4"",""53082""
""blur"",""6"",""59345""
""focus"",""6"",""60300""
","""event"",""trial"",""time""
""blur"",""6"",""59345""
","""event"",""trial"",""time""
""focus"",""6"",""60300""
","""event"",""trial"",""time""
""fullscreenenter"",""0"",""1332""
","""event"",""trial"",""time""
""fullscreenexit"",""4"",""53082""
","null","<p></p>","null","","","","","","","","","","","","","","","","","","","","","","",""
"","do_trial","108","527050","0.0-62.0-0.0","""event"",""trial"",""time""
""fullscreenenter"",""0"",""1332""
""fullscreenexit"",""4"",""53082""
""blur"",""6"",""59345""
""focus"",""6"",""60300""
","""event"",""trial"",""time""
""blur"",""6"",""59345""
","""event"",""trial"",""time""
""focus"",""6"",""60300""
","""event"",""trial"",""time""
""fullscreenenter"",""0"",""1332""
","""event"",""trial"",""time""
""fullscreenexit"",""4"",""53082""
","358.80000001192093","","","","","","","","49","1,0,1","0","coast","3","probe-130","0.7066368101449134","0.33942173313281027","0.10029767101851525","1","","","","","","","",""
"","html-keyboard-response","109","528056","0.0-62.0-1.0","""event"",""trial"",""time""
""fullscreenenter"",""0"",""1332""
""fullscreenexit"",""4"",""53082""
""blur"",""6"",""59345""
""focus"",""6"",""60300""
","""event"",""trial"",""time""
""blur"",""6"",""59345""
","""event"",""trial"",""time""
""focus"",""6"",""60300""
","""event"",""trial"",""time""
""fullscreenenter"",""0"",""1332""
","""event"",""trial"",""time""
""fullscreenexit"",""4"",""53082""
","null","<p></p>","null","","","","","","","","","","","","","","","","","","","","","","",""
"","do_trial","110","532919","0.0-63.0-0.0","""event"",""trial"",""time""
""fullscreenenter"",""0"",""1332""
""fullscreenexit"",""4"",""53082""
""blur"",""6"",""59345""
""focus"",""6"",""60300""
","""event"",""trial"",""time""
""blur"",""6"",""59345""
","""event"",""trial"",""time""
""focus"",""6"",""60300""
","""event"",""trial"",""time""
""fullscreenenter"",""0"",""1332""
","""event"",""trial"",""time""
""fullscreenexit"",""4"",""53082""
","309.59999999403954","","","","","","","","50","1,0,0","0","coast","4","probe-175","0.6865778212519166","0.3176185128638046","0.15961663507477872","0","","","","","","","",""
"","html-keyboard-response","111","533923","0.0-63.0-1.0","""event"",""trial"",""time""
""fullscreenenter"",""0"",""1332""
""fullscreenexit"",""4"",""53082""
""blur"",""6"",""59345""
""focus"",""6"",""60300""
","""event"",""trial"",""time""
""blur"",""6"",""59345""
","""event"",""trial"",""time""
""focus"",""6"",""60300""
","""event"",""trial"",""time""
""fullscreenenter"",""0"",""1332""
","""event"",""trial"",""time""
""fullscreenexit"",""4"",""53082""
","null","<p></p>","null","","","","","","","","","","","","","","","","","","","","","","",""
"","do_trial","112","538625","0.0-64.0-0.0","""event"",""trial"",""time""
""fullscreenenter"",""0"",""1332""
""fullscreenexit"",""4"",""53082""
""blur"",""6"",""59345""
""focus"",""6"",""60300""
","""event"",""trial"",""time""
""blur"",""6"",""59345""
","""event"",""trial"",""time""
""focus"",""6"",""60300""
","""event"",""trial"",""time""
""fullscreenenter"",""0"",""1332""
","""event"",""trial"",""time""
""fullscreenexit"",""4"",""53082""
","146","","","","","","","","49","0,0,0","0","coast","5","probe-172","0.621290835052215","0.2476247717808682","0.10896482273032237","0","","","","","","","",""
"","html-keyboard-response","113","539629","0.0-64.0-1.0","""event"",""trial"",""time""
""fullscreenenter"",""0"",""1332""
""fullscreenexit"",""4"",""53082""
""blur"",""6"",""59345""
""focus"",""6"",""60300""
","""event"",""trial"",""time""
""blur"",""6"",""59345""
","""event"",""trial"",""time""
""focus"",""6"",""60300""
","""event"",""trial"",""time""
""fullscreenenter"",""0"",""1332""
","""event"",""trial"",""time""
""fullscreenexit"",""4"",""53082""
","null","<p></p>","null","","","","","","","","","","","","","","","","","","","","","","",""
"","do_trial","114","544280","0.0-65.0-0.0","""event"",""trial"",""time""
""fullscreenenter"",""0"",""1332""
""fullscreenexit"",""4"",""53082""
""blur"",""6"",""59345""
""focus"",""6"",""60300""
","""event"",""trial"",""time""
""blur"",""6"",""59345""
","""event"",""trial"",""time""
""focus"",""6"",""60300""
","""event"",""trial"",""time""
""fullscreenenter"",""0"",""1332""
","""event"",""trial"",""time""
""fullscreenexit"",""4"",""53082""
","96.30000001192093","","","","","","","","51","1,0,0","0","coast","6","probe-23","0.6982800258127427","0.20323266914689206","0.0893252327802933","0","","","","","","","",""
"","html-keyboard-response","115","545286","0.0-65.0-1.0","""event"",""trial"",""time""
""fullscreenenter"",""0"",""1332""
""fullscreenexit"",""4"",""53082""
""blur"",""6"",""59345""
""focus"",""6"",""60300""
","""event"",""trial"",""time""
""blur"",""6"",""59345""
","""event"",""trial"",""time""
""focus"",""6"",""60300""
","""event"",""trial"",""time""
""fullscreenenter"",""0"",""1332""
","""event"",""trial"",""time""
""fullscreenexit"",""4"",""53082""
","null","<p></p>","null","","","","","","","","","","","","","","","","","","","","","","",""
"","do_trial","116","550205","0.0-66.0-0.0","""event"",""trial"",""time""
""fullscreenenter"",""0"",""1332""
""fullscreenexit"",""4"",""53082""
""blur"",""6"",""59345""
""focus"",""6"",""60300""
","""event"",""trial"",""time""
""blur"",""6"",""59345""
","""event"",""trial"",""time""
""focus"",""6"",""60300""
","""event"",""trial"",""time""
""fullscreenenter"",""0"",""1332""
","""event"",""trial"",""time""
""fullscreenexit"",""4"",""53082""
","365.2999999821186","","","","","","","","49","1,0,0","0","coast","7","probe-104","0.7252021854823604","0.28649502771207064","0.08216404002573871","1","","","","","","","",""
"","html-keyboard-response","117","551210","0.0-66.0-1.0","""event"",""trial"",""time""
""fullscreenenter"",""0"",""1332""
""fullscreenexit"",""4"",""53082""
""blur"",""6"",""59345""
""focus"",""6"",""60300""
","""event"",""trial"",""time""
""blur"",""6"",""59345""
","""event"",""trial"",""time""
""focus"",""6"",""60300""
","""event"",""trial"",""time""
""fullscreenenter"",""0"",""1332""
","""event"",""trial"",""time""
""fullscreenexit"",""4"",""53082""
","null","<p></p>","null","","","","","","","","","","","","","","","","","","","","","","",""
"","do_trial","118","555749","0.0-67.0-0.0","""event"",""trial"",""time""
""fullscreenenter"",""0"",""1332""
""fullscreenexit"",""4"",""53082""
""blur"",""6"",""59345""
""focus"",""6"",""60300""
","""event"",""trial"",""time""
""blur"",""6"",""59345""
","""event"",""trial"",""time""
""focus"",""6"",""60300""
","""event"",""trial"",""time""
""fullscreenenter"",""0"",""1332""
","""event"",""trial"",""time""
""fullscreenexit"",""4"",""53082""
","0.09999999403953552","","","","","","","","49","1,0,0","0","coast","8","probe-214","0.670778040474024","0.21295898893557186","0.08822260004600221","1","","","","","","","",""
"","html-keyboard-response","119","556754","0.0-67.0-1.0","""event"",""trial"",""time""
""fullscreenenter"",""0"",""1332""
""fullscreenexit"",""4"",""53082""
""blur"",""6"",""59345""
""focus"",""6"",""60300""
","""event"",""trial"",""time""
""blur"",""6"",""59345""
","""event"",""trial"",""time""
""focus"",""6"",""60300""
","""event"",""trial"",""time""
""fullscreenenter"",""0"",""1332""
","""event"",""trial"",""time""
""fullscreenexit"",""4"",""53082""
","null","<p></p>","null","","","","","","","","","","","","","","","","","","","","","","",""
"","do_trial","120","562562","0.0-68.0-0.0","""event"",""trial"",""time""
""fullscreenenter"",""0"",""1332""
""fullscreenexit"",""4"",""53082""
""blur"",""6"",""59345""
""focus"",""6"",""60300""
","""event"",""trial"",""time""
""blur"",""6"",""59345""
","""event"",""trial"",""time""
""focus"",""6"",""60300""
","""event"",""trial"",""time""
""fullscreenenter"",""0"",""1332""
","""event"",""trial"",""time""
""fullscreenexit"",""4"",""53082""
","1256.3999999761581","","","","","","","","49","1,0,0","0","coast","9","probe-199","0.8297831088558841","0.17218119858968717","0.16979415005586007","1","","","","","","","",""
"","html-keyboard-response","121","563568","0.0-68.0-1.0","""event"",""trial"",""time""
""fullscreenenter"",""0"",""1332""
""fullscreenexit"",""4"",""53082""
""blur"",""6"",""59345""
""focus"",""6"",""60300""
","""event"",""trial"",""time""
""blur"",""6"",""59345""
","""event"",""trial"",""time""
""focus"",""6"",""60300""
","""event"",""trial"",""time""
""fullscreenenter"",""0"",""1332""
","""event"",""trial"",""time""
""fullscreenexit"",""4"",""53082""
","null","<p></p>","null","","","","","","","","","","","","","","","","","","","","","","",""
"","do_trial","122","568520","0.0-69.0-0.0","""event"",""trial"",""time""
""fullscreenenter"",""0"",""1332""
""fullscreenexit"",""4"",""53082""
""blur"",""6"",""59345""
""focus"",""6"",""60300""
","""event"",""trial"",""time""
""blur"",""6"",""59345""
","""event"",""trial"",""time""
""focus"",""6"",""60300""
","""event"",""trial"",""time""
""fullscreenenter"",""0"",""1332""
","""event"",""trial"",""time""
""fullscreenexit"",""4"",""53082""
","398.39999997615814","","","","","","","","49","0,0,0","0","coast","10","probe-56","0.7529663035580219","0.13772221742781318","0.2440172964849159","0","","","","","","","",""
"","html-keyboard-response","123","569524","0.0-69.0-1.0","""event"",""trial"",""time""
""fullscreenenter"",""0"",""1332""
""fullscreenexit"",""4"",""53082""
""blur"",""6"",""59345""
""focus"",""6"",""60300""
","""event"",""trial"",""time""
""blur"",""6"",""59345""
","""event"",""trial"",""time""
""focus"",""6"",""60300""
","""event"",""trial"",""time""
""fullscreenenter"",""0"",""1332""
","""event"",""trial"",""time""
""fullscreenexit"",""4"",""53082""
","null","<p></p>","null","","","","","","","","","","","","","","","","","","","","","","",""
"","do_trial","124","574552","0.0-70.0-0.0","""event"",""trial"",""time""
""fullscreenenter"",""0"",""1332""
""fullscreenexit"",""4"",""53082""
""blur"",""6"",""59345""
""focus"",""6"",""60300""
","""event"",""trial"",""time""
""blur"",""6"",""59345""
","""event"",""trial"",""time""
""focus"",""6"",""60300""
","""event"",""trial"",""time""
""fullscreenenter"",""0"",""1332""
","""event"",""trial"",""time""
""fullscreenexit"",""4"",""53082""
","478.19999998807907","","","","","","","","51","0,1,0","0","coast","11","probe-25","0.7773169064359238","0.11753111630500936","0.24187965076924894","0","","","","","","","",""
"","html-keyboard-response","125","575557","0.0-70.0-1.0","""event"",""trial"",""time""
""fullscreenenter"",""0"",""1332""
""fullscreenexit"",""4"",""53082""
""blur"",""6"",""59345""
""focus"",""6"",""60300""
","""event"",""trial"",""time""
""blur"",""6"",""59345""
","""event"",""trial"",""time""
""focus"",""6"",""60300""
","""event"",""trial"",""time""
""fullscreenenter"",""0"",""1332""
","""event"",""trial"",""time""
""fullscreenexit"",""4"",""53082""
","null","<p></p>","null","","","","","","","","","","","","","","","","","","","","","","",""
"","do_trial","126","581616","0.0-71.0-0.0","""event"",""trial"",""time""
""fullscreenenter"",""0"",""1332""
""fullscreenexit"",""4"",""53082""
""blur"",""6"",""59345""
""focus"",""6"",""60300""
","""event"",""trial"",""time""
""blur"",""6"",""59345""
","""event"",""trial"",""time""
""focus"",""6"",""60300""
","""event"",""trial"",""time""
""fullscreenenter"",""0"",""1332""
","""event"",""trial"",""time""
""fullscreenexit"",""4"",""53082""
","null","","","","","","","","null","1,0,0","0","coast","12","probe-103","0.5990076357739303","0.050262356863812696","0.178736139920899","","","","","","","","",""
"","html-keyboard-response","127","582620","0.0-71.0-1.0","""event"",""trial"",""time""
""fullscreenenter"",""0"",""1332""
""fullscreenexit"",""4"",""53082""
""blur"",""6"",""59345""
""focus"",""6"",""60300""
","""event"",""trial"",""time""
""blur"",""6"",""59345""
","""event"",""trial"",""time""
""focus"",""6"",""60300""
","""event"",""trial"",""time""
""fullscreenenter"",""0"",""1332""
","""event"",""trial"",""time""
""fullscreenexit"",""4"",""53082""
","null","<p></p>","null","","","","","","","","","","","","","","","","","","","","","","",""
"","do_trial","128","588675","0.0-72.0-0.0","""event"",""trial"",""time""
""fullscreenenter"",""0"",""1332""
""fullscreenexit"",""4"",""53082""
""blur"",""6"",""59345""
""focus"",""6"",""60300""
","""event"",""trial"",""time""
""blur"",""6"",""59345""
","""event"",""trial"",""time""
""focus"",""6"",""60300""
","""event"",""trial"",""time""
""fullscreenenter"",""0"",""1332""
","""event"",""trial"",""time""
""fullscreenexit"",""4"",""53082""
","null","","","","","","","","null","1,0,1","0","coast","13","probe-44","0.5794639055750164","0.1484683138636501","0.1830476800129274","","","","","","","","",""
"","html-keyboard-response","129","589676","0.0-72.0-1.0","""event"",""trial"",""time""
""fullscreenenter"",""0"",""1332""
""fullscreenexit"",""4"",""53082""
""blur"",""6"",""59345""
""focus"",""6"",""60300""
","""event"",""trial"",""time""
""blur"",""6"",""59345""
","""event"",""trial"",""time""
""focus"",""6"",""60300""
","""event"",""trial"",""time""
""fullscreenenter"",""0"",""1332""
","""event"",""trial"",""time""
""fullscreenexit"",""4"",""53082""
","null","<p></p>","null","","","","","","","","","","","","","","","","","","","","","","",""
"","do_trial","130","594243","0.0-73.0-0.0","""event"",""trial"",""time""
""fullscreenenter"",""0"",""1332""
""fullscreenexit"",""4"",""53082""
""blur"",""6"",""59345""
""focus"",""6"",""60300""
","""event"",""trial"",""time""
""blur"",""6"",""59345""
","""event"",""trial"",""time""
""focus"",""6"",""60300""
","""event"",""trial"",""time""
""fullscreenenter"",""0"",""1332""
","""event"",""trial"",""time""
""fullscreenexit"",""4"",""53082""
","10.5","","","","","","","","50","1,0,0","0","coast","14","probe-40","0.5953621292097399","0.15840042714328342","0.22716344758651044","0","","","","","","","",""
"","html-keyboard-response","131","595249","0.0-73.0-1.0","""event"",""trial"",""time""
""fullscreenenter"",""0"",""1332""
""fullscreenexit"",""4"",""53082""
""blur"",""6"",""59345""
""focus"",""6"",""60300""
","""event"",""trial"",""time""
""blur"",""6"",""59345""
","""event"",""trial"",""time""
""focus"",""6"",""60300""
","""event"",""trial"",""time""
""fullscreenenter"",""0"",""1332""
","""event"",""trial"",""time""
""fullscreenexit"",""4"",""53082""
","null","<p></p>","null","","","","","","","","","","","","","","","","","","","","","","",""
"","do_trial","132","599824","0.0-74.0-0.0","""event"",""trial"",""time""
""fullscreenenter"",""0"",""1332""
""fullscreenexit"",""4"",""53082""
""blur"",""6"",""59345""
""focus"",""6"",""60300""
","""event"",""trial"",""time""
""blur"",""6"",""59345""
","""event"",""trial"",""time""
""focus"",""6"",""60300""
","""event"",""trial"",""time""
""fullscreenenter"",""0"",""1332""
","""event"",""trial"",""time""
""fullscreenexit"",""4"",""53082""
","24.299999982118607","","","","","","","","49","1,0,0","0","coast","15","probe-122","0.476026885367449","0.11897671828942205","0.1665417122660035","1","","","","","","","",""
"","html-keyboard-response","133","600830","0.0-74.0-1.0","""event"",""trial"",""time""
""fullscreenenter"",""0"",""1332""
""fullscreenexit"",""4"",""53082""
""blur"",""6"",""59345""
""focus"",""6"",""60300""
","""event"",""trial"",""time""
""blur"",""6"",""59345""
","""event"",""trial"",""time""
""focus"",""6"",""60300""
","""event"",""trial"",""time""
""fullscreenenter"",""0"",""1332""
","""event"",""trial"",""time""
""fullscreenexit"",""4"",""53082""
","null","<p></p>","null","","","","","","","","","","","","","","","","","","","","","","",""
"","do_trial","134","605379","0.0-75.0-0.0","""event"",""trial"",""time""
""fullscreenenter"",""0"",""1332""
""fullscreenexit"",""4"",""53082""
""blur"",""6"",""59345""
""focus"",""6"",""60300""
","""event"",""trial"",""time""
""blur"",""6"",""59345""
","""event"",""trial"",""time""
""focus"",""6"",""60300""
","""event"",""trial"",""time""
""fullscreenenter"",""0"",""1332""
","""event"",""trial"",""time""
""fullscreenexit"",""4"",""53082""
","0.30000001192092896","","","","","","","","49","1,0,0","0","coast","16","probe-123","0.6147283316552339","0.14995355373831445","0.11955201298422155","1","","","","","","","",""
"","html-keyboard-response","135","606385","0.0-75.0-1.0","""event"",""trial"",""time""
""fullscreenenter"",""0"",""1332""
""fullscreenexit"",""4"",""53082""
""blur"",""6"",""59345""
""focus"",""6"",""60300""
","""event"",""trial"",""time""
""blur"",""6"",""59345""
","""event"",""trial"",""time""
""focus"",""6"",""60300""
","""event"",""trial"",""time""
""fullscreenenter"",""0"",""1332""
","""event"",""trial"",""time""
""fullscreenexit"",""4"",""53082""
","null","<p></p>","null","","","","","","","","","","","","","","","","","","","","","","",""
"","do_trial","136","610949","0.0-76.0-0.0","""event"",""trial"",""time""
""fullscreenenter"",""0"",""1332""
""fullscreenexit"",""4"",""53082""
""blur"",""6"",""59345""
""focus"",""6"",""60300""
","""event"",""trial"",""time""
""blur"",""6"",""59345""
","""event"",""trial"",""time""
""focus"",""6"",""60300""
","""event"",""trial"",""time""
""fullscreenenter"",""0"",""1332""
","""event"",""trial"",""time""
""fullscreenexit"",""4"",""53082""
","7.5","","","","","","","","49","0,1,1","0","coast","17","probe-190","0.6579234337514539","0.21281529309767802","0.17130139833508914","0","","","","","","","",""
"","html-keyboard-response","137","611957","0.0-76.0-1.0","""event"",""trial"",""time""
""fullscreenenter"",""0"",""1332""
""fullscreenexit"",""4"",""53082""
""blur"",""6"",""59345""
""focus"",""6"",""60300""
","""event"",""trial"",""time""
""blur"",""6"",""59345""
","""event"",""trial"",""time""
""focus"",""6"",""60300""
","""event"",""trial"",""time""
""fullscreenenter"",""0"",""1332""
","""event"",""trial"",""time""
""fullscreenexit"",""4"",""53082""
","null","<p></p>","null","","","","","","","","","","","","","","","","","","","","","","",""
"","do_trial","138","616540","0.0-77.0-0.0","""event"",""trial"",""time""
""fullscreenenter"",""0"",""1332""
""fullscreenexit"",""4"",""53082""
""blur"",""6"",""59345""
""focus"",""6"",""60300""
","""event"",""trial"",""time""
""blur"",""6"",""59345""
","""event"",""trial"",""time""
""focus"",""6"",""60300""
","""event"",""trial"",""time""
""fullscreenenter"",""0"",""1332""
","""event"",""trial"",""time""
""fullscreenexit"",""4"",""53082""
","52.400000005960464","","","","","","","","49","1,0,0","0","coast","18","probe-210","0.6315202048401318","0.2567711419692978","0.16448019871101519","1","","","","","","","",""
"","html-keyboard-response","139","617542","0.0-77.0-1.0","""event"",""trial"",""time""
""fullscreenenter"",""0"",""1332""
""fullscreenexit"",""4"",""53082""
""blur"",""6"",""59345""
""focus"",""6"",""60300""
","""event"",""trial"",""time""
""blur"",""6"",""59345""
","""event"",""trial"",""time""
""focus"",""6"",""60300""
","""event"",""trial"",""time""
""fullscreenenter"",""0"",""1332""
","""event"",""trial"",""time""
""fullscreenexit"",""4"",""53082""
","null","<p></p>","null","","","","","","","","","","","","","","","","","","","","","","",""
"","do_trial","140","622274","0.0-78.0-0.0","""event"",""trial"",""time""
""fullscreenenter"",""0"",""1332""
""fullscreenexit"",""4"",""53082""
""blur"",""6"",""59345""
""focus"",""6"",""60300""
","""event"",""trial"",""time""
""blur"",""6"",""59345""
","""event"",""trial"",""time""
""focus"",""6"",""60300""
","""event"",""trial"",""time""
""fullscreenenter"",""0"",""1332""
","""event"",""trial"",""time""
""fullscreenexit"",""4"",""53082""
","176.2999999821186","","","","","","","","49","0,0,0","0","coast","19","probe-202","0.7849046190419833","0.26135719180091443","0.08326643606244893","0","","","","","","","",""
"","html-keyboard-response","141","623280","0.0-78.0-1.0","""event"",""trial"",""time""
""fullscreenenter"",""0"",""1332""
""fullscreenexit"",""4"",""53082""
""blur"",""6"",""59345""
""focus"",""6"",""60300""
","""event"",""trial"",""time""
""blur"",""6"",""59345""
","""event"",""trial"",""time""
""focus"",""6"",""60300""
","""event"",""trial"",""time""
""fullscreenenter"",""0"",""1332""
","""event"",""trial"",""time""
""fullscreenexit"",""4"",""53082""
","null","<p></p>","null","","","","","","","","","","","","","","","","","","","","","","",""
"","do_trial","142","628500","0.0-79.0-0.0","""event"",""trial"",""time""
""fullscreenenter"",""0"",""1332""
""fullscreenexit"",""4"",""53082""
""blur"",""6"",""59345""
""focus"",""6"",""60300""
","""event"",""trial"",""time""
""blur"",""6"",""59345""
","""event"",""trial"",""time""
""focus"",""6"",""60300""
","""event"",""trial"",""time""
""fullscreenenter"",""0"",""1332""
","""event"",""trial"",""time""
""fullscreenexit"",""4"",""53082""
","665.2999999821186","","","","","","","","49","1,1,0","0","coast","20","probe-18","0.5479773351860863","0.35104518531503937","0.12228083352185033","1","","","","","","","",""
"","html-keyboard-response","143","629502","0.0-79.0-1.0","""event"",""trial"",""time""
""fullscreenenter"",""0"",""1332""
""fullscreenexit"",""4"",""53082""
""blur"",""6"",""59345""
""focus"",""6"",""60300""
","""event"",""trial"",""time""
""blur"",""6"",""59345""
","""event"",""trial"",""time""
""focus"",""6"",""60300""
","""event"",""trial"",""time""
""fullscreenenter"",""0"",""1332""
","""event"",""trial"",""time""
""fullscreenexit"",""4"",""53082""
","null","<p></p>","null","","","","","","","","","","","","","","","","","","","","","","",""
"","do_trial","144","634069","0.0-80.0-0.0","""event"",""trial"",""time""
""fullscreenenter"",""0"",""1332""
""fullscreenexit"",""4"",""53082""
""blur"",""6"",""59345""
""focus"",""6"",""60300""
","""event"",""trial"",""time""
""blur"",""6"",""59345""
","""event"",""trial"",""time""
""focus"",""6"",""60300""
","""event"",""trial"",""time""
""fullscreenenter"",""0"",""1332""
","""event"",""trial"",""time""
""fullscreenexit"",""4"",""53082""
","14","","","","","","","","50","1,0,0","0","coast","21","probe-221","0.5834778994378561","0.2950231958794349","0.05757176985282513","0","","","","","","","",""
"","html-keyboard-response","145","635074","0.0-80.0-1.0","""event"",""trial"",""time""
""fullscreenenter"",""0"",""1332""
""fullscreenexit"",""4"",""53082""
""blur"",""6"",""59345""
""focus"",""6"",""60300""
","""event"",""trial"",""time""
""blur"",""6"",""59345""
","""event"",""trial"",""time""
""focus"",""6"",""60300""
","""event"",""trial"",""time""
""fullscreenenter"",""0"",""1332""
","""event"",""trial"",""time""
""fullscreenexit"",""4"",""53082""
","null","<p></p>","null","","","","","","","","","","","","","","","","","","","","","","",""
"","do_trial","146","639940","0.0-81.0-0.0","""event"",""trial"",""time""
""fullscreenenter"",""0"",""1332""
""fullscreenexit"",""4"",""53082""
""blur"",""6"",""59345""
""focus"",""6"",""60300""
","""event"",""trial"",""time""
""blur"",""6"",""59345""
","""event"",""trial"",""time""
""focus"",""6"",""60300""
","""event"",""trial"",""time""
""fullscreenenter"",""0"",""1332""
","""event"",""trial"",""time""
""fullscreenexit"",""4"",""53082""
","336","","","","","","","","49","0,0,0","0","coast","22","probe-134","0.5968497507516863","0.3682999959090252","0.17478533476498115","0","","","","","","","",""
"","html-keyboard-response","147","640947","0.0-81.0-1.0","""event"",""trial"",""time""
""fullscreenenter"",""0"",""1332""
""fullscreenexit"",""4"",""53082""
""blur"",""6"",""59345""
""focus"",""6"",""60300""
","""event"",""trial"",""time""
""blur"",""6"",""59345""
","""event"",""trial"",""time""
""focus"",""6"",""60300""
","""event"",""trial"",""time""
""fullscreenenter"",""0"",""1332""
","""event"",""trial"",""time""
""fullscreenexit"",""4"",""53082""
","null","<p></p>","null","","","","","","","","","","","","","","","","","","","","","","",""
"","do_trial","148","645544","0.0-82.0-0.0","""event"",""trial"",""time""
