"success","trial_type","trial_index","time_elapsed","internal_node_id","interactions","blur_events","focus_events","fullscreenenter_events","fullscreenexit_events","rt","stimulus","key_press","subject_id","participant_id","age","gender","prompt","response","choice_outcomes","context_n","context_img_id","trial_n","probe_img_id","pR_red","pR_white","pR_black","outcome","contextArray_ind","validImageProbes","invalidImageProbes","pRew_Red","pRew_White","pRew_Black","availableForMemProbe","choice_blocks"
"true","fullscreen","0","9917","0.0-0.0","""event"",""trial"",""time""
""focus"",""0"",""0""
""fullscreenenter"",""0"",""9210""
","
","""event"",""trial"",""time""
""focus"",""0"",""0""
","""event"",""trial"",""time""
""fullscreenenter"",""0"",""9210""
","
","","","","","","","","","","","","","","","","","","","","","","","","","",""
"","pavlovia","1","9922","0.0-1.0","""event"",""trial"",""time""
""focus"",""0"",""0""
""fullscreenenter"",""0"",""9210""
","
","""event"",""trial"",""time""
""focus"",""0"",""0""
","""event"",""trial"",""time""
""fullscreenenter"",""0"",""9210""
","
","","","","","","","","","","","","","","","","","","","","","","","","","",""
"","instruc1","2","55379","0.0-2.0","""event"",""trial"",""time""
""focus"",""0"",""0""
""fullscreenenter"",""0"",""9210""
","
","""event"",""trial"",""time""
""focus"",""0"",""0""
","""event"",""trial"",""time""
""fullscreenenter"",""0"",""9210""
","
","null","run_exp/static/audio/clip_1_welcome.m4a","null","240","737","11","Male","<div class='center'><p>Welcome! This is the first part of the study. It will last ~30 minutes. In part 1 and part 2 of the study, you are the head captain of a pirate ship traveling around the world to different islands. You will play a few different games throughout these two parts. Here is an overview of them:</p><br><p>Part 1 (today)</p><p>1. Instructions, practice game, and quiz</p><p>2. Pick a pirate game on 6 different islands</p><br><p>Part 2 (tomorrow)</p><p>3. Pick a pirate game and memory game</p><p>4. Where did you see this ship? </p></div>","","","","","","","","","","","","","","","","","",""
"","html-keyboard-response","3","57136","0.0-3.0","""event"",""trial"",""time""
""focus"",""0"",""0""
""fullscreenenter"",""0"",""9210""
","
","""event"",""trial"",""time""
""focus"",""0"",""0""
","""event"",""trial"",""time""
""fullscreenenter"",""0"",""9210""
","
","1751","<div class='center'><p>Welcome! This is the first part of the study. It will last ~30 minutes. In part 1 and part 2 of the study, you are the head captain of a pirate ship traveling around the world to different islands. You will play a few different games throughout these two parts. Here is an overview of them:</p><br><p>Part 1 (today)</p><p>1. Instructions, practice game, and quiz</p><p>2. Pick a pirate game on 6 different islands</p><br><p>Part 2 (tomorrow)</p><p>3. Pick a pirate game and memory game</p><p>4. Where did you see this ship? </p><p><b>[Press the space bar to continue]</b></p></div>","32","","","","","","","","","","","","","","","","","","","","","","",""
"","instruc2","4","62540","0.0-4.0","""event"",""trial"",""time""
""focus"",""0"",""0""
""fullscreenenter"",""0"",""9210""
","
","""event"",""trial"",""time""
""focus"",""0"",""0""
","""event"",""trial"",""time""
""fullscreenenter"",""0"",""9210""
","
","null","run_exp/static/audio/clip_2_different_places.m4a","null","","","","","<div class='center'><p>Today, you’ll visit these 6 islands on your journey. You'll be able to see these islands from your ship.</p><p><img src='run_exp/static/images/contexts/all_contexts.png' height='500'></p></div>","","","","","","","","","","","","","","","","","",""
"","html-keyboard-response","5","70348","0.0-5.0","""event"",""trial"",""time""
""focus"",""0"",""0""
""fullscreenenter"",""0"",""9210""
","
","""event"",""trial"",""time""
""focus"",""0"",""0""
","""event"",""trial"",""time""
""fullscreenenter"",""0"",""9210""
","
","7807","<div class='center'><p>Today, you’ll visit these 6 islands on your journey. You'll be able to see these islands from your ship.</p><p><img src='run_exp/static/images/contexts/all_contexts.png' height='500'></p><p><b>[Press the space bar to continue]</b></p></div>","32","","","","","","","","","","","","","","","","","","","","","","",""
"","instruc3","6","81590","0.0-6.0","""event"",""trial"",""time""
""focus"",""0"",""0""
""fullscreenenter"",""0"",""9210""
","
","""event"",""trial"",""time""
""focus"",""0"",""0""
","""event"",""trial"",""time""
""fullscreenenter"",""0"",""9210""
","
","null","run_exp/static/audio/clip_3_goal_of_game_1.m4a","null","","","","","<div class='center'><p> The pirates on your ship will rob other ships as they leave the island.</p> These ships have just sold their goods to the islanders, so they will be filled with lots and lots of gold.</p><p><img src='run_exp/static/images/tutorial/ship_center.png' height='400'></p></div>","","","","","","","","","","","","","","","","","",""
"","html-keyboard-response","7","88384","0.0-7.0","""event"",""trial"",""time""
""focus"",""0"",""0""
""fullscreenenter"",""0"",""9210""
","
","""event"",""trial"",""time""
""focus"",""0"",""0""
","""event"",""trial"",""time""
""fullscreenenter"",""0"",""9210""
","
","6788","<div class='center'><p> The pirates on your ship will rob other ships as they leave the island.</p> These ships have just sold their goods to the islanders, so they will be filled with lots and lots of gold.</p><p><img src='run_exp/static/images/tutorial/ship_center.png' height='400'></p><p><b>[Press the space bar to continue]</b></p></div>","32","","","","","","","","","","","","","","","","","","","","","","",""
"","instruc4","8","116513","0.0-8.0","""event"",""trial"",""time""
""focus"",""0"",""0""
""fullscreenenter"",""0"",""9210""
","
","""event"",""trial"",""time""
""focus"",""0"",""0""
","""event"",""trial"",""time""
""fullscreenenter"",""0"",""9210""
","
","null","run_exp/static/audio/clip_4_goal_of_game_2.m4a","null","","","","","<div class='center'><p>As the head captain, you do not have to rob any ships yourself. Another pirate will be doing the robbing for you. First, you will choose a pirate to rob the next ship.</p><p><img src='run_exp/static/images/tutorial/pirates_all_crop.png' height='200'></p><p>Then, you'll see if the pirate successfully robbed the ship of their gold. If they were successful, then you'll get a stack of gold coins like this:</p><p><img src='run_exp/static/images/tutorial/reward.png' height='150'></p><p> If they were <b>not</b> successful, then you'll get no gold coins, and you'll see a big red x like this: </p><p><img src='run_exp/static/images/tutorial/reward_no.png' height='150'></p><p> How much bonus money you make is based on how many gold coins you collect.</p><div>","","","","","","","","","","","","","","","","","",""
"","html-keyboard-response","9","117987","0.0-9.0","""event"",""trial"",""time""
""focus"",""0"",""0""
""fullscreenenter"",""0"",""9210""
","
","""event"",""trial"",""time""
""focus"",""0"",""0""
","""event"",""trial"",""time""
""fullscreenenter"",""0"",""9210""
","
","1463","<div class='center'><p>As the head captain, you do not have to rob any ships yourself. Another pirate will be doing the robbing for you. First, you will choose a pirate to rob the next ship.</p><p><img src='run_exp/static/images/tutorial/pirates_all_crop.png' height='200'></p><p>Then, you'll see if the pirate successfully robbed the ship of their gold. If they were successful, then you'll get a stack of gold coins like this:</p><p><img src='run_exp/static/images/tutorial/reward.png' height='150'></p><p> If they were <b>not</b> successful, then you'll get no gold coins, and you'll see a big red x like this: </p><p><img src='run_exp/static/images/tutorial/reward_no.png' height='150'></p><p> How much bonus money you make is based on how many gold coins you collect.</p<p><b>[Press the space bar to continue]</b></p></div>","32","","","","","","","","","","","","","","","","","","","","","","",""
"","instruc5","10","138427","0.0-10.0","""event"",""trial"",""time""
""focus"",""0"",""0""
""fullscreenenter"",""0"",""9210""
","
","""event"",""trial"",""time""
""focus"",""0"",""0""
","""event"",""trial"",""time""
""fullscreenenter"",""0"",""9210""
","
","20437","run_exp/static/audio/clip_5_probabilistic.m4a","49","","","","","<div class='center'><p>Even the most skilled pirate can not rob EVERY ship.</p><p> Some ships will have very strong protections against pirate attacks.</p><p> Blue beard, here, is very, very good at robbing ships, but he won't be successful every time he tries to rob one.</p><p> You can press the <b>‘1’</b> key on the keyboard to choose him.</p><p> Try choosing him 10 times to see how often he succeeds at robbing a ship. </p><p><img src='run_exp/static/images/tutorial/blue.png' height='500'></p></div>","","","","","","","","","","","","","","","","","",""
"","html-keyboard-response","11","139929","0.0-11.0","""event"",""trial"",""time""
""focus"",""0"",""0""
""fullscreenenter"",""0"",""9210""
","
","""event"",""trial"",""time""
""focus"",""0"",""0""
","""event"",""trial"",""time""
""fullscreenenter"",""0"",""9210""
","
","null","<div class='center'><p><img src='run_exp/static/images/tutorial/blue_win.png' height='500'></p></div>","null","","","","","","","","","","","","","","","","","","","","","","",""
"","html-keyboard-response","12","141001","0.0-12.0","""event"",""trial"",""time""
""focus"",""0"",""0""
""fullscreenenter"",""0"",""9210""
","
","""event"",""trial"",""time""
""focus"",""0"",""0""
","""event"",""trial"",""time""
""fullscreenenter"",""0"",""9210""
","
","1071","<div class='center'><img src='run_exp/static/images/tutorial/blue.png' height='500'></p></div>","49","","","","","","","","","","","","","","","","","","","","","","",""
"","html-keyboard-response","13","142504","0.0-13.0","""event"",""trial"",""time""
""focus"",""0"",""0""
""fullscreenenter"",""0"",""9210""
","
","""event"",""trial"",""time""
""focus"",""0"",""0""
","""event"",""trial"",""time""
""fullscreenenter"",""0"",""9210""
","
","null","<div class='center'><p><img src='run_exp/static/images/tutorial/blue_win.png' height='500'></p></div>","null","","","","","","","","","","","","","","","","","","","","","","",""
"","html-keyboard-response","14","142747","0.0-14.0","""event"",""trial"",""time""
""focus"",""0"",""0""
""fullscreenenter"",""0"",""9210""
","
","""event"",""trial"",""time""
""focus"",""0"",""0""
","""event"",""trial"",""time""
""fullscreenenter"",""0"",""9210""
","
","241","<div class='center'><img src='run_exp/static/images/tutorial/blue.png' height='500'></p></div>","49","","","","","","","","","","","","","","","","","","","","","","",""
"","html-keyboard-response","15","144263","0.0-15.0","""event"",""trial"",""time""
""focus"",""0"",""0""
""fullscreenenter"",""0"",""9210""
","
","""event"",""trial"",""time""
""focus"",""0"",""0""
","""event"",""trial"",""time""
""fullscreenenter"",""0"",""9210""
","
","null","<div class='center'><p><img src='run_exp/static/images/tutorial/blue_win.png' height='500'></p></div>","null","","","","","","","","","","","","","","","","","","","","","","",""
"","html-keyboard-response","16","144448","0.0-16.0","""event"",""trial"",""time""
""focus"",""0"",""0""
""fullscreenenter"",""0"",""9210""
","
","""event"",""trial"",""time""
""focus"",""0"",""0""
","""event"",""trial"",""time""
""fullscreenenter"",""0"",""9210""
","
","182","<div class='center'><img src='run_exp/static/images/tutorial/blue.png' height='500'></p></div>","49","","","","","","","","","","","","","","","","","","","","","","",""
"","html-keyboard-response","17","145953","0.0-17.0","""event"",""trial"",""time""
""focus"",""0"",""0""
""fullscreenenter"",""0"",""9210""
","
","""event"",""trial"",""time""
""focus"",""0"",""0""
","""event"",""trial"",""time""
""fullscreenenter"",""0"",""9210""
","
","null","<div class='center'><p><img src='run_exp/static/images/tutorial/blue_no_win.png' height='500'></p></div>","null","","","","","","","","","","","","","","","","","","","","","","",""
"","html-keyboard-response","18","146234","0.0-18.0","""event"",""trial"",""time""
""focus"",""0"",""0""
""fullscreenenter"",""0"",""9210""
","
","""event"",""trial"",""time""
""focus"",""0"",""0""
","""event"",""trial"",""time""
""fullscreenenter"",""0"",""9210""
","
","278","<div class='center'><img src='run_exp/static/images/tutorial/blue.png' height='500'></p></div>","49","","","","","","","","","","","","","","","","","","","","","","",""
"","html-keyboard-response","19","147749","0.0-19.0","""event"",""trial"",""time""
""focus"",""0"",""0""
""fullscreenenter"",""0"",""9210""
","
","""event"",""trial"",""time""
""focus"",""0"",""0""
","""event"",""trial"",""time""
""fullscreenenter"",""0"",""9210""
","
","null","<div class='center'><p><img src='run_exp/static/images/tutorial/blue_win.png' height='500'></p></div>","null","","","","","","","","","","","","","","","","","","","","","","",""
"","html-keyboard-response","20","148015","0.0-20.0","""event"",""trial"",""time""
""focus"",""0"",""0""
""fullscreenenter"",""0"",""9210""
","
","""event"",""trial"",""time""
""focus"",""0"",""0""
","""event"",""trial"",""time""
""fullscreenenter"",""0"",""9210""
","
","265","<div class='center'><img src='run_exp/static/images/tutorial/blue.png' height='500'></p></div>","49","","","","","","","","","","","","","","","","","","","","","","",""
"","html-keyboard-response","21","149523","0.0-21.0","""event"",""trial"",""time""
""focus"",""0"",""0""
""fullscreenenter"",""0"",""9210""
","
","""event"",""trial"",""time""
""focus"",""0"",""0""
","""event"",""trial"",""time""
""fullscreenenter"",""0"",""9210""
","
","null","<div class='center'><p><img src='run_exp/static/images/tutorial/blue_win.png' height='500'></p></div>","null","","","","","","","","","","","","","","","","","","","","","","",""
"","html-keyboard-response","22","149871","0.0-22.0","""event"",""trial"",""time""
""focus"",""0"",""0""
""fullscreenenter"",""0"",""9210""
","
","""event"",""trial"",""time""
""focus"",""0"",""0""
","""event"",""trial"",""time""
""fullscreenenter"",""0"",""9210""
","
","345","<div class='center'><img src='run_exp/static/images/tutorial/blue.png' height='500'></p></div>","49","","","","","","","","","","","","","","","","","","","","","","",""
"","html-keyboard-response","23","151374","0.0-23.0","""event"",""trial"",""time""
""focus"",""0"",""0""
""fullscreenenter"",""0"",""9210""
","
","""event"",""trial"",""time""
""focus"",""0"",""0""
","""event"",""trial"",""time""
""fullscreenenter"",""0"",""9210""
","
","null","<div class='center'><p><img src='run_exp/static/images/tutorial/blue_win.png' height='500'></p></div>","null","","","","","","","","","","","","","","","","","","","","","","",""
"","html-keyboard-response","24","151557","0.0-24.0","""event"",""trial"",""time""
""focus"",""0"",""0""
""fullscreenenter"",""0"",""9210""
","
","""event"",""trial"",""time""
""focus"",""0"",""0""
","""event"",""trial"",""time""
""fullscreenenter"",""0"",""9210""
","
","181","<div class='center'><img src='run_exp/static/images/tutorial/blue.png' height='500'></p></div>","49","","","","","","","","","","","","","","","","","","","","","","",""
"","html-keyboard-response","25","153074","0.0-25.0","""event"",""trial"",""time""
""focus"",""0"",""0""
""fullscreenenter"",""0"",""9210""
","
","""event"",""trial"",""time""
""focus"",""0"",""0""
","""event"",""trial"",""time""
""fullscreenenter"",""0"",""9210""
","
","null","<div class='center'><p><img src='run_exp/static/images/tutorial/blue_no_win.png' height='500'></p></div>","null","","","","","","","","","","","","","","","","","","","","","","",""
"","html-keyboard-response","26","153886","0.0-26.0","""event"",""trial"",""time""
""focus"",""0"",""0""
""fullscreenenter"",""0"",""9210""
","
","""event"",""trial"",""time""
""focus"",""0"",""0""
","""event"",""trial"",""time""
""fullscreenenter"",""0"",""9210""
","
","810","<div class='center'><img src='run_exp/static/images/tutorial/blue.png' height='500'></p></div>","49","","","","","","","","","","","","","","","","","","","","","","",""
"","html-keyboard-response","27","155398","0.0-27.0","""event"",""trial"",""time""
""focus"",""0"",""0""
""fullscreenenter"",""0"",""9210""
","
","""event"",""trial"",""time""
""focus"",""0"",""0""
","""event"",""trial"",""time""
""fullscreenenter"",""0"",""9210""
","
","null","<div class='center'><p><img src='run_exp/static/images/tutorial/blue_win.png' height='500'></p></div>","null","","","","","","","","","","","","","","","","","","","","","","",""
"","html-keyboard-response","28","155657","0.0-28.0","""event"",""trial"",""time""
""focus"",""0"",""0""
""fullscreenenter"",""0"",""9210""
","
","""event"",""trial"",""time""
""focus"",""0"",""0""
","""event"",""trial"",""time""
""fullscreenenter"",""0"",""9210""
","
","259","<div class='center'><img src='run_exp/static/images/tutorial/blue.png' height='500'></p></div>","49","","","","","","","","","","","","","","","","","","","","","","",""
"","html-keyboard-response","29","157172","0.0-29.0","""event"",""trial"",""time""
""focus"",""0"",""0""
""fullscreenenter"",""0"",""9210""
","
","""event"",""trial"",""time""
""focus"",""0"",""0""
","""event"",""trial"",""time""
""fullscreenenter"",""0"",""9210""
","
","null","<div class='center'><p><img src='run_exp/static/images/tutorial/blue_win.png' height='500'></p></div>","null","","","","","","","","","","","","","","","","","","","","","","",""
"","instruc6","30","162630","0.0-30.0","""event"",""trial"",""time""
""focus"",""0"",""0""
""fullscreenenter"",""0"",""9210""
","
","""event"",""trial"",""time""
""focus"",""0"",""0""
","""event"",""trial"",""time""
""fullscreenenter"",""0"",""9210""
","
","null","run_exp/static/audio/clip_6_blue_beard_outcome.m4a","null","","","","","<div class='center'><p> See, he succeeded in robbing the ships most of the time but not every time. </p></div>","","","","","","","","","","","","","","","","","",""
"","html-keyboard-response","31","163562","0.0-31.0","""event"",""trial"",""time""
""focus"",""0"",""0""
""fullscreenenter"",""0"",""9210""
","
","""event"",""trial"",""time""
""focus"",""0"",""0""
","""event"",""trial"",""time""
""fullscreenenter"",""0"",""9210""
","
","931","<div class='center'><p> See, he succeeded in robbing the ships most of the time but not every time. </p><p><b>[Press the space bar to continue]</b></p></div>","32","","","","","","","","","","","","","","","","","","","","","","",""
"","audio-keyboard-response","32","176017","0.0-32.0","""event"",""trial"",""time""
""focus"",""0"",""0""
""fullscreenenter"",""0"",""9210""
","
","""event"",""trial"",""time""
""focus"",""0"",""0""
","""event"",""trial"",""time""
""fullscreenenter"",""0"",""9210""
","
","12453","run_exp/static/audio/clip_7_pick_pirate.m4a","50","","","","","","","","","","","","","","","","","","","","","","",""
"","audio-keyboard-response","33","179865","0.0-33.0-0.0","""event"",""trial"",""time""
""focus"",""0"",""0""
""fullscreenenter"",""0"",""9210""
","
","""event"",""trial"",""time""
""focus"",""0"",""0""
","""event"",""trial"",""time""
""fullscreenenter"",""0"",""9210""
","
","3843","run_exp/static/audio/clip_8_chosen_pirate_win.m4a","32","","","","","","","","","","","","","","","","","","","","","","",""
"","audio-keyboard-response","34","182181","0.0-33.0-1.0","""event"",""trial"",""time""
""focus"",""0"",""0""
""fullscreenenter"",""0"",""9210""
","
","""event"",""trial"",""time""
""focus"",""0"",""0""
","""event"",""trial"",""time""
""fullscreenenter"",""0"",""9210""
","
","2314","run_exp/static/audio/clip_9_pick_a_pirate_again.m4a","51","","","","","","","","","","","","","","","","","","","","","","",""
"","audio-keyboard-response","35","186429","0.0-34.0-0.0","""event"",""trial"",""time""
""focus"",""0"",""0""
""fullscreenenter"",""0"",""9210""
","
","""event"",""trial"",""time""
""focus"",""0"",""0""
","""event"",""trial"",""time""
""fullscreenenter"",""0"",""9210""
","
","4245","run_exp/static/audio/clip_10_chosen_pirate_loss.m4a","32","","","","","","","","","","","","","","","","","","","","","","",""
"","instruc9","36","192011","0.0-35.0-0.0","""event"",""trial"",""time""
""focus"",""0"",""0""
""fullscreenenter"",""0"",""9210""
","
","""event"",""trial"",""time""
""focus"",""0"",""0""
","""event"",""trial"",""time""
""fullscreenenter"",""0"",""9210""
","
","null","run_exp/static/audio/clip_11_time_out.m4a","null","","","","","<div class='center'><p>If you don’t make your choice fast enough, you’ll have to wait a few seconds before you can make another one. </p><p><img src='run_exp/static/images/miscellaneous/hurry_up.png' height='500'></p></div>","","","","","","","","","","","","","","","","","",""
"","html-keyboard-response","37","193293","0.0-35.0-1.0","""event"",""trial"",""time""
""focus"",""0"",""0""
""fullscreenenter"",""0"",""9210""
","
","""event"",""trial"",""time""
""focus"",""0"",""0""
","""event"",""trial"",""time""
""fullscreenenter"",""0"",""9210""
","
","1282","<div class='center'><p>If you don’t make your choice fast enough, you’ll have to wait a few seconds before you can make another one. </p><p><img src='run_exp/static/images/miscellaneous/hurry_up.png' height='500'></p><p><b>[Press the space bar to continue]</b></p></div>","32","","","","","","","","","","","","","","","","","","","","","","",""
"","instruc10","38","232461","0.0-35.0-2.0","""event"",""trial"",""time""
""focus"",""0"",""0""
""fullscreenenter"",""0"",""9210""
","
","""event"",""trial"",""time""
""focus"",""0"",""0""
","""event"",""trial"",""time""
""fullscreenenter"",""0"",""9210""
","
","null","run_exp/static/audio/clip_12_probe.m4a","null","","","","","<div class='center'><p>Once you've chosen a pirate, you’ll be shown the ship they are robbing. You will never rob the same ship twice. Ships can be told apart from one another by the image on them. These are the goods that they sell. See, this ship has a travel mug on it. </p><p> You’ll have to remember which island you saw each ship on. You will win more gold coins and hence more bonus money if you remember correctly! To help you remember, you can imagine a story. For example, here, you could imagine a mug full of water in the desert. Or, as another example, if on the forest island, your pirate robbed a ship with an apple on it, you could imagine an apple falling from a tree in the forest. </p><p><img src='run_exp/static/images/tutorial/example_probe.png' height='500'></p></div>","","","","","","","","","","","","","","","","","",""
"","html-keyboard-response","39","236631","0.0-35.0-3.0","""event"",""trial"",""time""
""focus"",""0"",""0""
""fullscreenenter"",""0"",""9210""
","
","""event"",""trial"",""time""
""focus"",""0"",""0""
","""event"",""trial"",""time""
""fullscreenenter"",""0"",""9210""
","
","4169","<div class='center'><p>Once you've chosen a pirate, you’ll be shown the ship they are robbing. You will never rob the same ship twice. Ships can be told apart from one another by the image on them. These are the goods that they sell. See, this ship has a travel mug on it. </p><p> You’ll have to remember which island you saw each ship on. You will win more gold coins and hence more bonus money if you remember correctly! To help you remember, you can imagine a story. For example, here, you could imagine a mug full of water in the desert. Or, as another example, if on the forest island, your pirate robbed a ship with an apple on it, you could imagine an apple falling from a tree in the forest. </p><p><img src='run_exp/static/images/tutorial/example_probe.png' height='500'></p><p><b>[Press the space bar to continue]</b></p></div>","32","","","","","","","","","","","","","","","","","","","","","","",""
"","instruc11","40","253119","0.0-35.0-4.0","""event"",""trial"",""time""
""focus"",""0"",""0""
""fullscreenenter"",""0"",""9210""
","
","""event"",""trial"",""time""
""focus"",""0"",""0""
","""event"",""trial"",""time""
""fullscreenenter"",""0"",""9210""
","
","null","run_exp/static/audio/clip_13_changepoint.m4a","null","","","","","<div class='center'><p>How successful a pirate is at robbing ships will depend on the island you’re on.</p><p> A pirate may have visited this island many times before and gained a lot of practice robbing ships there.</p><p>So, they’re more likely to be successful than a pirate who has never visited the island before.</p></div>","","","","","","","","","","","","","","","","","",""
"","html-keyboard-response","41","254316","0.0-35.0-5.0","""event"",""trial"",""time""
""focus"",""0"",""0""
""fullscreenenter"",""0"",""9210""
""blur"",""42"",""276862""
""focus"",""42"",""278347""
","""event"",""trial"",""time""
""blur"",""42"",""276862""
","""event"",""trial"",""time""
""focus"",""0"",""0""
""focus"",""42"",""278347""
","""event"",""trial"",""time""
""fullscreenenter"",""0"",""9210""
","
","1196","<div class='center'><p>How successful a pirate is at robbing ships will depend on the island you’re on.</p><p> A pirate may have visited this island many times before and gained a lot of practice robbing ships there.</p><p>So, they’re more likely to be successful than a pirate who has never visited the island before.</p><p><b>[Press the space bar to continue]</b></p></div>","32","","","","","","","","","","","","","","","","","","","","","","",""
"","instruc12","42","295772","0.0-35.0-6.0","""event"",""trial"",""time""
""focus"",""0"",""0""
""fullscreenenter"",""0"",""9210""
""blur"",""42"",""276862""
""focus"",""42"",""278347""
","""event"",""trial"",""time""
""blur"",""42"",""276862""
","""event"",""trial"",""time""
""focus"",""0"",""0""
""focus"",""42"",""278347""
","""event"",""trial"",""time""
""fullscreenenter"",""0"",""9210""
","
","null","run_exp/static/audio/clip_14_drift.m4a","null","","","","","<div class='center'><p>How successful a pirate is at robbing ships can also change over the time spent on the island. </p><p> Ships may hear from islanders about the pirates coming and will improve their protections against the attack. This may make it harder to rob them.</p><p> Ships may also become lazy and weaken the strength of their protections. This may make it easier to rob them.</p><br><p>Things are always changing on the high seas! So, try your best to pay attention!</p><p><img src='run_exp/static/images/tutorial/contingency.png' height='500'></p></div>","","","","","","","","","","","","","","","","","",""
"","html-keyboard-response","43","297119","0.0-35.0-7.0","""event"",""trial"",""time""
""focus"",""0"",""0""
""fullscreenenter"",""0"",""9210""
""blur"",""42"",""276862""
""focus"",""42"",""278347""
","""event"",""trial"",""time""
""blur"",""42"",""276862""
","""event"",""trial"",""time""
""focus"",""0"",""0""
""focus"",""42"",""278347""
","""event"",""trial"",""time""
""fullscreenenter"",""0"",""9210""
","
","1345","<div class='center'><p>How successful a pirate is at robbing ships can also change over the time spent on the island. </p><p> Ships may hear from islanders about the pirates coming and will improve their protections against the attack. This may make it harder to rob them.</p><p> Ships may also become lazy and weaken the strength of their protections. This may make it easier to rob them.</p><br><p>Things are always changing on the high seas! So, try your best to pay attention!</p><p><img src='run_exp/static/images/tutorial/contingency.png' height='500'></p><p><b>[Press the space bar to continue]</b></p></div>","32","","","","","","","","","","","","","","","","","","","","","","",""
"","instruc13","44","332402","0.0-35.0-8.0","""event"",""trial"",""time""
""focus"",""0"",""0""
""fullscreenenter"",""0"",""9210""
""blur"",""42"",""276862""
""focus"",""42"",""278347""
","""event"",""trial"",""time""
""blur"",""42"",""276862""
","""event"",""trial"",""time""
""focus"",""0"",""0""
""focus"",""42"",""278347""
","""event"",""trial"",""time""
""fullscreenenter"",""0"",""9210""
","
","null","run_exp/static/audio/clip_15_summary.m4a","null","","","","","<div class='center'><p>Let's go over the instructions quickly again. You have two important things to do: </p><b><p> 1. Pick the pirate who is the best at robbing ships on the current island. </p></b><b><p> 2. Remember on which island a ship was robbed.</p> </b><p>The amount of bonus money you can win depends on both.</p><p><br><p>Let’s try a practice game. The game will start by showing you the pirates. First, pick a pirate using the <b> 1, 2, 3 </b> keys on your keyboard. When you are shown a ship, try to remember which island you’re on by making up a story.</p><p>This is just a practice game, so you’re not playing for money. </p><p> Good luck! This game will be very difficult but try your best!</p></div>","","","","","","","","","","","","","","","","","",""
"","html-keyboard-response","45","332566","0.0-35.0-9.0","""event"",""trial"",""time""
""focus"",""0"",""0""
""fullscreenenter"",""0"",""9210""
""blur"",""42"",""276862""
""focus"",""42"",""278347""
","""event"",""trial"",""time""
""blur"",""42"",""276862""
","""event"",""trial"",""time""
""focus"",""0"",""0""
""focus"",""42"",""278347""
","""event"",""trial"",""time""
""fullscreenenter"",""0"",""9210""
","
","164","<div class='center'><p>Let's go over the instructions quickly again. You have two important things to do: </p><b><p> 1. Pick the pirate who is the best at robbing ships on the current island. </p></b><b><p> 2. Remember on which island a ship was robbed.</p> </b><p>The amount of bonus money you can win depends on both.</p><p><br><p>Let’s try a practice game. The game will start by showing you the pirates. First, pick a pirate using the <b> 1, 2, 3 </b> keys on your keyboard. When you are shown a ship, try to remember which island you’re on by making up a story.</p><p>This is just a practice game, so you’re not playing for money. </p><p> Good luck! This game will be very difficult but try your best!</p><p><b>[Press the space bar to continue]</b></p></div>","32","","","","","","","","","","","","","","","","","","","","","","",""
"","do_welcome","46","336756","0.0-35.0-10.0","""event"",""trial"",""time""
""focus"",""0"",""0""
""fullscreenenter"",""0"",""9210""
""blur"",""42"",""276862""
""focus"",""42"",""278347""
","""event"",""trial"",""time""
""blur"",""42"",""276862""
","""event"",""trial"",""time""
""focus"",""0"",""0""
""focus"",""42"",""278347""
","""event"",""trial"",""time""
""fullscreenenter"",""0"",""9210""
","
","null","","","","","","","","null","","","","","","","","","","","","","","","","",""
"","do_trial","47","342774","0.0-35.0-11.0","""event"",""trial"",""time""
""focus"",""0"",""0""
""fullscreenenter"",""0"",""9210""
""blur"",""42"",""276862""
""focus"",""42"",""278347""
","""event"",""trial"",""time""
""blur"",""42"",""276862""
","""event"",""trial"",""time""
""focus"",""0"",""0""
""focus"",""42"",""278347""
","""event"",""trial"",""time""
""fullscreenenter"",""0"",""9210""
","
","null","","","","","","","","null","1,0,0","","","","","","","","","","","","","","","",""
"","html-keyboard-response","48","343795","0.0-36.0-0.0","""event"",""trial"",""time""
""focus"",""0"",""0""
""fullscreenenter"",""0"",""9210""
""blur"",""42"",""276862""
""focus"",""42"",""278347""
","""event"",""trial"",""time""
""blur"",""42"",""276862""
","""event"",""trial"",""time""
""focus"",""0"",""0""
""focus"",""42"",""278347""
","""event"",""trial"",""time""
""fullscreenenter"",""0"",""9210""
","
","null","<p></p>","null","","","","","","","","","","","","","","","","","","","","","","",""
"","do_trial","49","348785","0.0-36.0-1.0","""event"",""trial"",""time""
""focus"",""0"",""0""
""fullscreenenter"",""0"",""9210""
""blur"",""42"",""276862""
""focus"",""42"",""278347""
","""event"",""trial"",""time""
""blur"",""42"",""276862""
","""event"",""trial"",""time""
""focus"",""0"",""0""
""focus"",""42"",""278347""
","""event"",""trial"",""time""
""fullscreenenter"",""0"",""9210""
","
","469","","","","","","","","50","1,0,0","","","","","","","","","","","","","","","",""
"","html-keyboard-response","50","349794","0.0-37.0-0.0","""event"",""trial"",""time""
""focus"",""0"",""0""
""fullscreenenter"",""0"",""9210""
""blur"",""42"",""276862""
""focus"",""42"",""278347""
","""event"",""trial"",""time""
""blur"",""42"",""276862""
","""event"",""trial"",""time""
""focus"",""0"",""0""
""focus"",""42"",""278347""
","""event"",""trial"",""time""
""fullscreenenter"",""0"",""9210""
","
","null","<p></p>","null","","","","","","","","","","","","","","","","","","","","","","",""
"","do_trial","51","355324","0.0-37.0-1.0","""event"",""trial"",""time""
""focus"",""0"",""0""
""fullscreenenter"",""0"",""9210""
""blur"",""42"",""276862""
""focus"",""42"",""278347""
","""event"",""trial"",""time""
""blur"",""42"",""276862""
","""event"",""trial"",""time""
""focus"",""0"",""0""
""focus"",""42"",""278347""
","""event"",""trial"",""time""
""fullscreenenter"",""0"",""9210""
","
","1007","","","","","","","","49","1,1,0","","","","","","","","","","","","","","","",""
"","html-keyboard-response","52","356334","0.0-38.0-0.0","""event"",""trial"",""time""
""focus"",""0"",""0""
""fullscreenenter"",""0"",""9210""
""blur"",""42"",""276862""
""focus"",""42"",""278347""
","""event"",""trial"",""time""
""blur"",""42"",""276862""
","""event"",""trial"",""time""
""focus"",""0"",""0""
""focus"",""42"",""278347""
","""event"",""trial"",""time""
""fullscreenenter"",""0"",""9210""
","
","null","<p></p>","null","","","","","","","","","","","","","","","","","","","","","","",""
"","do_trial","53","362014","0.0-38.0-1.0","""event"",""trial"",""time""
""focus"",""0"",""0""
""fullscreenenter"",""0"",""9210""
""blur"",""42"",""276862""
""focus"",""42"",""278347""
","""event"",""trial"",""time""
""blur"",""42"",""276862""
","""event"",""trial"",""time""
""focus"",""0"",""0""
""focus"",""42"",""278347""
","""event"",""trial"",""time""
""fullscreenenter"",""0"",""9210""
","
","1168","","","","","","","","50","1,0,1","","","","","","","","","","","","","","","",""
"","html-keyboard-response","54","363025","0.0-39.0-0.0","""event"",""trial"",""time""
""focus"",""0"",""0""
""fullscreenenter"",""0"",""9210""
""blur"",""42"",""276862""
""focus"",""42"",""278347""
","""event"",""trial"",""time""
""blur"",""42"",""276862""
","""event"",""trial"",""time""
""focus"",""0"",""0""
""focus"",""42"",""278347""
","""event"",""trial"",""time""
""fullscreenenter"",""0"",""9210""
","
","null","<p></p>","null","","","","","","","","","","","","","","","","","","","","","","",""
"","do_trial","55","368901","0.0-39.0-1.0","""event"",""trial"",""time""
""focus"",""0"",""0""
""fullscreenenter"",""0"",""9210""
""blur"",""42"",""276862""
""focus"",""42"",""278347""
","""event"",""trial"",""time""
""blur"",""42"",""276862""
","""event"",""trial"",""time""
""focus"",""0"",""0""
""focus"",""42"",""278347""
","""event"",""trial"",""time""
""fullscreenenter"",""0"",""9210""
","
","1372","","","","","","","","51","0,1,0","","","","","","","","","","","","","","","",""
"","html-keyboard-response","56","369905","0.0-40.0-0.0","""event"",""trial"",""time""
""focus"",""0"",""0""
""fullscreenenter"",""0"",""9210""
""blur"",""42"",""276862""
""focus"",""42"",""278347""
","""event"",""trial"",""time""
""blur"",""42"",""276862""
","""event"",""trial"",""time""
""focus"",""0"",""0""
""focus"",""42"",""278347""
","""event"",""trial"",""time""
""fullscreenenter"",""0"",""9210""
","
","null","<p></p>","null","","","","","","","","","","","","","","","","","","","","","","",""
"","do_trial","57","374738","0.0-40.0-1.0","""event"",""trial"",""time""
""focus"",""0"",""0""
""fullscreenenter"",""0"",""9210""
""blur"",""42"",""276862""
""focus"",""42"",""278347""
","""event"",""trial"",""time""
""blur"",""42"",""276862""
","""event"",""trial"",""time""
""focus"",""0"",""0""
""focus"",""42"",""278347""
","""event"",""trial"",""time""
""fullscreenenter"",""0"",""9210""
","
","317","","","","","","","","49","1,0,0","","","","","","","","","","","","","","","",""
"","do_bye","58","376243","0.0-41.0-0.0","""event"",""trial"",""time""
""focus"",""0"",""0""
""fullscreenenter"",""0"",""9210""
""blur"",""42"",""276862""
""focus"",""42"",""278347""
","""event"",""trial"",""time""
""blur"",""42"",""276862""
","""event"",""trial"",""time""
""focus"",""0"",""0""
""focus"",""42"",""278347""
","""event"",""trial"",""time""
""fullscreenenter"",""0"",""9210""
","
","null","","","","","","","","null","","","","","","","","","","","","","","","","",""
"","do_travel","59","385273","0.0-41.0-1.0","""event"",""trial"",""time""
""focus"",""0"",""0""
""fullscreenenter"",""0"",""9210""
""blur"",""42"",""276862""
""focus"",""42"",""278347""
","""event"",""trial"",""time""
""blur"",""42"",""276862""
","""event"",""trial"",""time""
""focus"",""0"",""0""
""focus"",""42"",""278347""
","""event"",""trial"",""time""
""fullscreenenter"",""0"",""9210""
","
","null","","","","","","","","null","","","","","","","","","","","","","","","","",""
"","do_welcome","60","389305","0.0-41.0-2.0","""event"",""trial"",""time""
""focus"",""0"",""0""
""fullscreenenter"",""0"",""9210""
""blur"",""42"",""276862""
""focus"",""42"",""278347""
","""event"",""trial"",""time""
""blur"",""42"",""276862""
","""event"",""trial"",""time""
""focus"",""0"",""0""
""focus"",""42"",""278347""
","""event"",""trial"",""time""
""fullscreenenter"",""0"",""9210""
","
","null","","","","","","","","null","","","","","","","","","","","","","","","","",""
"","do_trial","61","394804","0.0-41.0-3.0","""event"",""trial"",""time""
""focus"",""0"",""0""
""fullscreenenter"",""0"",""9210""
""blur"",""42"",""276862""
""focus"",""42"",""278347""
","""event"",""trial"",""time""
""blur"",""42"",""276862""
","""event"",""trial"",""time""
""focus"",""0"",""0""
""focus"",""42"",""278347""
","""event"",""trial"",""time""
""fullscreenenter"",""0"",""9210""
","
","992","","","","","","","","50","1,0,0","","","","","","","","","","","","","","","",""
"","html-keyboard-response","62","395814","0.0-42.0-0.0","""event"",""trial"",""time""
""focus"",""0"",""0""
""fullscreenenter"",""0"",""9210""
""blur"",""42"",""276862""
""focus"",""42"",""278347""
","""event"",""trial"",""time""
""blur"",""42"",""276862""
","""event"",""trial"",""time""
""focus"",""0"",""0""
""focus"",""42"",""278347""
","""event"",""trial"",""time""
""fullscreenenter"",""0"",""9210""
","
","null","<p></p>","null","","","","","","","","","","","","","","","","","","","","","","",""
"","do_trial","63","400678","0.0-42.0-1.0","""event"",""trial"",""time""
""focus"",""0"",""0""
""fullscreenenter"",""0"",""9210""
""blur"",""42"",""276862""
""focus"",""42"",""278347""
","""event"",""trial"",""time""
""blur"",""42"",""276862""
","""event"",""trial"",""time""
""focus"",""0"",""0""
""focus"",""42"",""278347""
","""event"",""trial"",""time""
""fullscreenenter"",""0"",""9210""
","
","344","","","","","","","","50","1,0,1","","","","","","","","","","","","","","","",""
"","html-keyboard-response","64","401692","0.0-43.0-0.0","""event"",""trial"",""time""
""focus"",""0"",""0""
""fullscreenenter"",""0"",""9210""
""blur"",""42"",""276862""
""focus"",""42"",""278347""
","""event"",""trial"",""time""
""blur"",""42"",""276862""
","""event"",""trial"",""time""
""focus"",""0"",""0""
""focus"",""42"",""278347""
","""event"",""trial"",""time""
""fullscreenenter"",""0"",""9210""
","
","null","<p></p>","null","","","","","","","","","","","","","","","","","","","","","","",""
"","do_trial","65","406508","0.0-43.0-1.0","""event"",""trial"",""time""
""focus"",""0"",""0""
""fullscreenenter"",""0"",""9210""
""blur"",""42"",""276862""
""focus"",""42"",""278347""
","""event"",""trial"",""time""
""blur"",""42"",""276862""
","""event"",""trial"",""time""
""focus"",""0"",""0""
""focus"",""42"",""278347""
","""event"",""trial"",""time""
""fullscreenenter"",""0"",""9210""
","
","308","","","","","","","","51","1,1,0","","","","","","","","","","","","","","","",""
"","html-keyboard-response","66","407518","0.0-44.0-0.0","""event"",""trial"",""time""
""focus"",""0"",""0""
""fullscreenenter"",""0"",""9210""
""blur"",""42"",""276862""
""focus"",""42"",""278347""
","""event"",""trial"",""time""
""blur"",""42"",""276862""
","""event"",""trial"",""time""
""focus"",""0"",""0""
""focus"",""42"",""278347""
","""event"",""trial"",""time""
""fullscreenenter"",""0"",""9210""
","
","null","<p></p>","null","","","","","","","","","","","","","","","","","","","","","","",""
"","do_trial","67","412406","0.0-44.0-1.0","""event"",""trial"",""time""
""focus"",""0"",""0""
""fullscreenenter"",""0"",""9210""
""blur"",""42"",""276862""
""focus"",""42"",""278347""
","""event"",""trial"",""time""
""blur"",""42"",""276862""
","""event"",""trial"",""time""
""focus"",""0"",""0""
""focus"",""42"",""278347""
","""event"",""trial"",""time""
""fullscreenenter"",""0"",""9210""
","
","376","","","","","","","","49","0,0,1","","","","","","","","","","","","","","","",""
"","html-keyboard-response","68","413418","0.0-45.0-0.0","""event"",""trial"",""time""
""focus"",""0"",""0""
""fullscreenenter"",""0"",""9210""
""blur"",""42"",""276862""
""focus"",""42"",""278347""
","""event"",""trial"",""time""
""blur"",""42"",""276862""
","""event"",""trial"",""time""
""focus"",""0"",""0""
""focus"",""42"",""278347""
","""event"",""trial"",""time""
""fullscreenenter"",""0"",""9210""
","
","null","<p></p>","null","","","","","","","","","","","","","","","","","","","","","","",""
"","do_trial","69","419634","0.0-45.0-1.0","""event"",""trial"",""time""
""focus"",""0"",""0""
""fullscreenenter"",""0"",""9210""
""blur"",""42"",""276862""
""focus"",""42"",""278347""
","""event"",""trial"",""time""
""blur"",""42"",""276862""
","""event"",""trial"",""time""
""focus"",""0"",""0""
""focus"",""42"",""278347""
","""event"",""trial"",""time""
""fullscreenenter"",""0"",""9210""
","
","1694","","","","","","","","50","1,0,1","","","","","","","","","","","","","","","",""
"","html-keyboard-response","70","425406","0.0-46.0-0.0","""event"",""trial"",""time""
""focus"",""0"",""0""
""fullscreenenter"",""0"",""9210""
""blur"",""42"",""276862""
""focus"",""42"",""278347""
","""event"",""trial"",""time""
""blur"",""42"",""276862""
","""event"",""trial"",""time""
""focus"",""0"",""0""
""focus"",""42"",""278347""
","""event"",""trial"",""time""
""fullscreenenter"",""0"",""9210""
","
","5770","<div class='center'><p><img src='run_exp/static/images/tutorial/prac_best_pirate.png'  height='500'></p></div>","49","","","","","","","","","","","","","","","","","","","","","","",""
"","html-keyboard-response","71","428086","0.0-47.0-0.0","""event"",""trial"",""time""
""focus"",""0"",""0""
""fullscreenenter"",""0"",""9210""
""blur"",""42"",""276862""
""focus"",""42"",""278347""
","""event"",""trial"",""time""
""blur"",""42"",""276862""
","""event"",""trial"",""time""
""focus"",""0"",""0""
""focus"",""42"",""278347""
","""event"",""trial"",""time""
""fullscreenenter"",""0"",""9210""
","
","2678","<div class='center'><p>That's correct! Red beard was the best.</p><p><b>[Press the space bar to continue]</b></p></div>","32","","","","","","","","","","","","","","","","","","","","","","",""
"","html-keyboard-response","72","437004","0.0-47.0-1.0","""event"",""trial"",""time""
""focus"",""0"",""0""
""fullscreenenter"",""0"",""9210""
""blur"",""42"",""276862""
""focus"",""42"",""278347""
","""event"",""trial"",""time""
""blur"",""42"",""276862""
","""event"",""trial"",""time""
""focus"",""0"",""0""
""focus"",""42"",""278347""
","""event"",""trial"",""time""
""fullscreenenter"",""0"",""9210""
","
","8917","<div class='center'><p><img src='run_exp/static/images/tutorial/prac_source.png'  height='500'></p></div>","50","","","","","","","","","","","","","","","","","","","","","","",""
"","html-keyboard-response","73","438330","0.0-48.0-0.0","""event"",""trial"",""time""
""focus"",""0"",""0""
""fullscreenenter"",""0"",""9210""
""blur"",""42"",""276862""
""focus"",""42"",""278347""
","""event"",""trial"",""time""
""blur"",""42"",""276862""
","""event"",""trial"",""time""
""focus"",""0"",""0""
""focus"",""42"",""278347""
","""event"",""trial"",""time""
""fullscreenenter"",""0"",""9210""
","
","1325","<div class='center'><p>That's correct! You saw this ship on the cavern island.</p><p><b>[Press the space bar to continue]</b></p></div>","32","","","","","","","","","","","","","","","","","","","","","","",""
"","quiz_beginning","74","449600","0.0-48.0-1.0","""event"",""trial"",""time""
""focus"",""0"",""0""
""fullscreenenter"",""0"",""9210""
""blur"",""42"",""276862""
""focus"",""42"",""278347""
","""event"",""trial"",""time""
""blur"",""42"",""276862""
","""event"",""trial"",""time""
""focus"",""0"",""0""
""focus"",""42"",""278347""
","""event"",""trial"",""time""
""fullscreenenter"",""0"",""9210""
","
","null","run_exp/static/audio/clip_16_quiz_intro.m4a","null","","","","","<div class='center'><p>Good job on the practice game! Now, you will be asked some true or false questions to make sure you really understand the rules of the game.</p><p> Press <b>'1'</b> on the keyboard for true and press <b>'2'</b> for false.</p></div>","","","","","","","","","","","","","","","","","",""
"","audio-keyboard-response","75","454436","0.0-48.0-2.0","""event"",""trial"",""time""
""focus"",""0"",""0""
""fullscreenenter"",""0"",""9210""
""blur"",""42"",""276862""
""focus"",""42"",""278347""
","""event"",""trial"",""time""
""blur"",""42"",""276862""
","""event"",""trial"",""time""
""focus"",""0"",""0""
""focus"",""42"",""278347""
","""event"",""trial"",""time""
""fullscreenenter"",""0"",""9210""
","
","4834","run_exp/static/audio/clip_17_q1.m4a","49","","","","","","","","","","","","","","","","","","","","","","",""
"","correct","76","456900","0.0-49.0-0.0","""event"",""trial"",""time""
""focus"",""0"",""0""
""fullscreenenter"",""0"",""9210""
""blur"",""42"",""276862""
""focus"",""42"",""278347""
","""event"",""trial"",""time""
""blur"",""42"",""276862""
","""event"",""trial"",""time""
""focus"",""0"",""0""
""focus"",""42"",""278347""
","""event"",""trial"",""time""
""fullscreenenter"",""0"",""9210""
","
","null","run_exp/static/audio/clip_18_correct.m4a","null","","","","","<div class='center'><p>That's correct!</p></div>","","","","","","","","","","","","","","","","","",""
"","html-keyboard-response","77","457595","0.0-49.0-1.0","""event"",""trial"",""time""
""focus"",""0"",""0""
""fullscreenenter"",""0"",""9210""
""blur"",""42"",""276862""
""focus"",""42"",""278347""
","""event"",""trial"",""time""
""blur"",""42"",""276862""
","""event"",""trial"",""time""
""focus"",""0"",""0""
""focus"",""42"",""278347""
","""event"",""trial"",""time""
""fullscreenenter"",""0"",""9210""
","
","694","<div class='center'><p>That's correct!</p><p><b>[Press the space bar to continue]</b></p></div>","32","","","","","","","","","","","","","","","","","","","","","","",""
"","audio-keyboard-response","78","464867","0.0-49.0-2.0","""event"",""trial"",""time""
""focus"",""0"",""0""
""fullscreenenter"",""0"",""9210""
""blur"",""42"",""276862""
""focus"",""42"",""278347""
","""event"",""trial"",""time""
""blur"",""42"",""276862""
","""event"",""trial"",""time""
""focus"",""0"",""0""
""focus"",""42"",""278347""
","""event"",""trial"",""time""
""fullscreenenter"",""0"",""9210""
","
","7271","run_exp/static/audio/clip_20_q2.m4a","50","","","","","","","","","","","","","","","","","","","","","","",""
"","correct","79","467341","0.0-50.0-0.0","""event"",""trial"",""time""
""focus"",""0"",""0""
""fullscreenenter"",""0"",""9210""
""blur"",""42"",""276862""
""focus"",""42"",""278347""
","""event"",""trial"",""time""
""blur"",""42"",""276862""
","""event"",""trial"",""time""
""focus"",""0"",""0""
""focus"",""42"",""278347""
","""event"",""trial"",""time""
""fullscreenenter"",""0"",""9210""
","
","null","run_exp/static/audio/clip_18_correct.m4a","null","","","","","<div class='center'><p>That's correct!</p></div>","","","","","","","","","","","","","","","","","",""
"","html-keyboard-response","80","468038","0.0-50.0-1.0","""event"",""trial"",""time""
""focus"",""0"",""0""
""fullscreenenter"",""0"",""9210""
""blur"",""42"",""276862""
""focus"",""42"",""278347""
","""event"",""trial"",""time""
""blur"",""42"",""276862""
","""event"",""trial"",""time""
""focus"",""0"",""0""
""focus"",""42"",""278347""
","""event"",""trial"",""time""
""fullscreenenter"",""0"",""9210""
","
","697","<div class='center'><p>That's correct!</p><p><b>[Press the space bar to continue]</b></p></div>","32","","","","","","","","","","","","","","","","","","","","","","",""
"","audio-keyboard-response","81","474228","0.0-50.0-2.0","""event"",""trial"",""time""
""focus"",""0"",""0""
""fullscreenenter"",""0"",""9210""
""blur"",""42"",""276862""
""focus"",""42"",""278347""
","""event"",""trial"",""time""
""blur"",""42"",""276862""
","""event"",""trial"",""time""
""focus"",""0"",""0""
""focus"",""42"",""278347""
","""event"",""trial"",""time""
""fullscreenenter"",""0"",""9210""
","
","6189","run_exp/static/audio/clip_22_q3.m4a","50","","","","","","","","","","","","","","","","","","","","","","",""
"","correct","82","476699","0.0-51.0-0.0","""event"",""trial"",""time""
""focus"",""0"",""0""
""fullscreenenter"",""0"",""9210""
""blur"",""42"",""276862""
""focus"",""42"",""278347""
","""event"",""trial"",""time""
""blur"",""42"",""276862""
","""event"",""trial"",""time""
""focus"",""0"",""0""
""focus"",""42"",""278347""
","""event"",""trial"",""time""
""fullscreenenter"",""0"",""9210""
","
","null","run_exp/static/audio/clip_18_correct.m4a","null","","","","","<div class='center'><p>That's correct!</p></div>","","","","","","","","","","","","","","","","","",""
"","html-keyboard-response","83","477265","0.0-51.0-1.0","""event"",""trial"",""time""
""focus"",""0"",""0""
""fullscreenenter"",""0"",""9210""
""blur"",""42"",""276862""
""focus"",""42"",""278347""
","""event"",""trial"",""time""
""blur"",""42"",""276862""
","""event"",""trial"",""time""
""focus"",""0"",""0""
""focus"",""42"",""278347""
","""event"",""trial"",""time""
""fullscreenenter"",""0"",""9210""
","
","565","<div class='center'><p>That's correct!</p><p><b>[Press the space bar to continue]</b></p></div>","32","","","","","","","","","","","","","","","","","","","","","","",""
"","audio-keyboard-response","84","481435","0.0-51.0-2.0","""event"",""trial"",""time""
""focus"",""0"",""0""
""fullscreenenter"",""0"",""9210""
""blur"",""42"",""276862""
""focus"",""42"",""278347""
","""event"",""trial"",""time""
""blur"",""42"",""276862""
","""event"",""trial"",""time""
""focus"",""0"",""0""
""focus"",""42"",""278347""
","""event"",""trial"",""time""
""fullscreenenter"",""0"",""9210""
","
","4169","run_exp/static/audio/clip_24_q4.m4a","49","","","","","","","","","","","","","","","","","","","","","","",""
"","correct","85","484021","0.0-52.0-0.0","""event"",""trial"",""time""
""focus"",""0"",""0""
""fullscreenenter"",""0"",""9210""
""blur"",""42"",""276862""
""focus"",""42"",""278347""
","""event"",""trial"",""time""
""blur"",""42"",""276862""
","""event"",""trial"",""time""
""focus"",""0"",""0""
""focus"",""42"",""278347""
","""event"",""trial"",""time""
""fullscreenenter"",""0"",""9210""
","
","null","run_exp/static/audio/clip_18_correct.m4a","null","","","","","<div class='center'><p>That's correct!</p></div>","","","","","","","","","","","","","","","","","",""
"","html-keyboard-response","86","484621","0.0-52.0-1.0","""event"",""trial"",""time""
""focus"",""0"",""0""
""fullscreenenter"",""0"",""9210""
""blur"",""42"",""276862""
""focus"",""42"",""278347""
","""event"",""trial"",""time""
""blur"",""42"",""276862""
","""event"",""trial"",""time""
""focus"",""0"",""0""
""focus"",""42"",""278347""
","""event"",""trial"",""time""
""fullscreenenter"",""0"",""9210""
","
","598","<div class='center'><p>That's correct!</p><p><b>[Press the space bar to continue]</b></p></div>","32","","","","","","","","","","","","","","","","","","","","","","",""
"","q_all_corr","87","493171","0.0-53.0-0.0","""event"",""trial"",""time""
""focus"",""0"",""0""
""fullscreenenter"",""0"",""9210""
""blur"",""42"",""276862""
""focus"",""42"",""278347""
","""event"",""trial"",""time""
""blur"",""42"",""276862""
","""event"",""trial"",""time""
""focus"",""0"",""0""
""focus"",""42"",""278347""
","""event"",""trial"",""time""
""fullscreenenter"",""0"",""9210""
","
","null","run_exp/static/audio/clip_27_quiz_all_correct.m4a","null","","","","","<div class='center'><p>Good job! You’re now ready to move on to the real game! Remember this game will be difficult but don't get discouraged and try your best!</p></div>","","","","","","","","","","","","","","","","","",""
"","html-keyboard-response","88","496401","0.0-53.0-1.0","""event"",""trial"",""time""
""focus"",""0"",""0""
""fullscreenenter"",""0"",""9210""
""blur"",""42"",""276862""
""focus"",""42"",""278347""
","""event"",""trial"",""time""
""blur"",""42"",""276862""
","""event"",""trial"",""time""
""focus"",""0"",""0""
""focus"",""42"",""278347""
","""event"",""trial"",""time""
""fullscreenenter"",""0"",""9210""
","
","3229","<div class='center'><p>Good job! You’re now ready to move on to the real game! Remember this game will be difficult but don't get discouraged and try your best!</p><p><b>[Press the space bar to continue]</b></p></div>","32","","","","","","","","","","","","","","","","","","","","","","",""
"","do_welcome","89","500425","0.0-54.0-0.0","""event"",""trial"",""time""
""focus"",""0"",""0""
""fullscreenenter"",""0"",""9210""
""blur"",""42"",""276862""
""focus"",""42"",""278347""
","""event"",""trial"",""time""
""blur"",""42"",""276862""
","""event"",""trial"",""time""
""focus"",""0"",""0""
""focus"",""42"",""278347""
","""event"",""trial"",""time""
""fullscreenenter"",""0"",""9210""
","
","null","","","","","","","","null","","","","","","","","","","","","","","","","",""
"","do_trial","90","506475","0.0-55.0-0.0","""event"",""trial"",""time""
""focus"",""0"",""0""
""fullscreenenter"",""0"",""9210""
""blur"",""42"",""276862""
""focus"",""42"",""278347""
","""event"",""trial"",""time""
""blur"",""42"",""276862""
","""event"",""trial"",""time""
""focus"",""0"",""0""
""focus"",""42"",""278347""
","""event"",""trial"",""time""
""fullscreenenter"",""0"",""9210""
","
","1494","","","","","","","","50","0,0,0","0","city","0","probe-215","0.6","0.3","0.1","0","","","","","","","",""
"","html-keyboard-response","91","507495","0.0-55.0-1.0","""event"",""trial"",""time""
""focus"",""0"",""0""
""fullscreenenter"",""0"",""9210""
""blur"",""42"",""276862""
""focus"",""42"",""278347""
","""event"",""trial"",""time""
""blur"",""42"",""276862""
","""event"",""trial"",""time""
""focus"",""0"",""0""
""focus"",""42"",""278347""
","""event"",""trial"",""time""
""fullscreenenter"",""0"",""9210""
","
","null","<p></p>","null","","","","","","","","","","","","","","","","","","","","","","",""
"","do_trial","92","512405","0.0-56.0-0.0","""event"",""trial"",""time""
""focus"",""0"",""0""
""fullscreenenter"",""0"",""9210""
""blur"",""42"",""276862""
""focus"",""42"",""278347""
","""event"",""trial"",""time""
""blur"",""42"",""276862""
","""event"",""trial"",""time""
""focus"",""0"",""0""
""focus"",""42"",""278347""
","""event"",""trial"",""time""
""fullscreenenter"",""0"",""9210""
","
","362","","","","","","","","49","1,0,0","0","city","1","probe-151","0.7650715077234423","0.4636559219987732","0.07892250006127764","1","","","","","","","",""
"","html-keyboard-response","93","513427","0.0-56.0-1.0","""event"",""trial"",""time""
""focus"",""0"",""0""
""fullscreenenter"",""0"",""9210""
""blur"",""42"",""276862""
""focus"",""42"",""278347""
","""event"",""trial"",""time""
""blur"",""42"",""276862""
","""event"",""trial"",""time""
""focus"",""0"",""0""
""focus"",""42"",""278347""
","""event"",""trial"",""time""
""fullscreenenter"",""0"",""9210""
","
","null","<p></p>","null","","","","","","","","","","","","","","","","","","","","","","",""
"","do_trial","94","518253","0.0-57.0-0.0","""event"",""trial"",""time""
""focus"",""0"",""0""
""fullscreenenter"",""0"",""9210""
""blur"",""42"",""276862""
""focus"",""42"",""278347""
","""event"",""trial"",""time""
""blur"",""42"",""276862""
","""event"",""trial"",""time""
""focus"",""0"",""0""
""focus"",""42"",""278347""
","""event"",""trial"",""time""
""fullscreenenter"",""0"",""9210""
","
","281","","","","","","","","49","1,0,1","0","city","2","probe-75","0.5942961310096415","0.3815674606861542","0.13620980979597558","1","","","","","","","",""
"","html-keyboard-response","95","519258","0.0-57.0-1.0","""event"",""trial"",""time""
""focus"",""0"",""0""
""fullscreenenter"",""0"",""9210""
""blur"",""42"",""276862""
""focus"",""42"",""278347""
","""event"",""trial"",""time""
""blur"",""42"",""276862""
","""event"",""trial"",""time""
""focus"",""0"",""0""
""focus"",""42"",""278347""
","""event"",""trial"",""time""
""fullscreenenter"",""0"",""9210""
","
","null","<p></p>","null","","","","","","","","","","","","","","","","","","","","","","",""
"","do_trial","96","524398","0.0-58.0-0.0","""event"",""trial"",""time""
""focus"",""0"",""0""
""fullscreenenter"",""0"",""9210""
""blur"",""42"",""276862""
""focus"",""42"",""278347""
","""event"",""trial"",""time""
""blur"",""42"",""276862""
","""event"",""trial"",""time""
""focus"",""0"",""0""
""focus"",""42"",""278347""
","""event"",""trial"",""time""
""fullscreenenter"",""0"",""9210""
","
","588","","","","","","","","49","1,1,1","0","city","3","probe-03","0.731321319083896","0.3328723146361039","0.21433483028536096","1","","","","","","","",""
"","html-keyboard-response","97","525409","0.0-58.0-1.0","""event"",""trial"",""time""
""focus"",""0"",""0""
""fullscreenenter"",""0"",""9210""
""blur"",""42"",""276862""
""focus"",""42"",""278347""
","""event"",""trial"",""time""
""blur"",""42"",""276862""
","""event"",""trial"",""time""
""focus"",""0"",""0""
""focus"",""42"",""278347""
","""event"",""trial"",""time""
""fullscreenenter"",""0"",""9210""
","
","null","<p></p>","null","","","","","","","","","","","","","","","","","","","","","","",""
"","do_trial","98","531604","0.0-59.0-0.0","""event"",""trial"",""time""
""focus"",""0"",""0""
""fullscreenenter"",""0"",""9210""
""blur"",""42"",""276862""
""focus"",""42"",""278347""
","""event"",""trial"",""time""
""blur"",""42"",""276862""
","""event"",""trial"",""time""
""focus"",""0"",""0""
""focus"",""42"",""278347""
","""event"",""trial"",""time""
""fullscreenenter"",""0"",""9210""
","
","1649","","","","","","","","49","1,0,0","0","city","4","probe-50","0.681236431382767","0.33873398372994223","0.08063751804858477","1","","","","","","","",""
"","html-keyboard-response","99","532609","0.0-59.0-1.0","""event"",""trial"",""time""
""focus"",""0"",""0""
""fullscreenenter"",""0"",""9210""
""blur"",""42"",""276862""
""focus"",""42"",""278347""
","""event"",""trial"",""time""
""blur"",""42"",""276862""
","""event"",""trial"",""time""
""focus"",""0"",""0""
""focus"",""42"",""278347""
","""event"",""trial"",""time""
""fullscreenenter"",""0"",""9210""
","
","null","<p></p>","null","","","","","","","","","","","","","","","","","","","","","","",""
"","do_trial","100","537518","0.0-60.0-0.0","""event"",""trial"",""time""
""focus"",""0"",""0""
""fullscreenenter"",""0"",""9210""
""blur"",""42"",""276862""
""focus"",""42"",""278347""
","""event"",""trial"",""time""
""blur"",""42"",""276862""
","""event"",""trial"",""time""
""focus"",""0"",""0""
""focus"",""42"",""278347""
","""event"",""trial"",""time""
""fullscreenenter"",""0"",""9210""
","
","366","","","","","","","","49","0,1,0","0","city","5","probe-203","0.5835991872015346","0.38015285118523656","0.07637450067494567","0","","","","","","","",""
"","html-keyboard-response","101","538533","0.0-60.0-1.0","""event"",""trial"",""time""
""focus"",""0"",""0""
""fullscreenenter"",""0"",""9210""
""blur"",""42"",""276862""
""focus"",""42"",""278347""
","""event"",""trial"",""time""
""blur"",""42"",""276862""
","""event"",""trial"",""time""
""focus"",""0"",""0""
""focus"",""42"",""278347""
","""event"",""trial"",""time""
""fullscreenenter"",""0"",""9210""
","
","null","<p></p>","null","","","","","","","","","","","","","","","","","","","","","","",""
"","do_trial","102","543413","0.0-61.0-0.0","""event"",""trial"",""time""
""focus"",""0"",""0""
""fullscreenenter"",""0"",""9210""
""blur"",""42"",""276862""
""focus"",""42"",""278347""
","""event"",""trial"",""time""
""blur"",""42"",""276862""
","""event"",""trial"",""time""
""focus"",""0"",""0""
""focus"",""42"",""278347""
","""event"",""trial"",""time""
""fullscreenenter"",""0"",""9210""
","
","325","","","","","","","","49","0,1,0","0","city","6","probe-112","0.6119484017243305","0.3666466287547659","0.13418045313246763","0","","","","","","","",""
"","html-keyboard-response","103","544418","0.0-61.0-1.0","""event"",""trial"",""time""
""focus"",""0"",""0""
""fullscreenenter"",""0"",""9210""
""blur"",""42"",""276862""
""focus"",""42"",""278347""
","""event"",""trial"",""time""
""blur"",""42"",""276862""
","""event"",""trial"",""time""
""focus"",""0"",""0""
""focus"",""42"",""278347""
","""event"",""trial"",""time""
""fullscreenenter"",""0"",""9210""
","
","null","<p></p>","null","","","","","","","","","","","","","","","","","","","","","","",""
"","do_trial","104","549098","0.0-62.0-0.0","""event"",""trial"",""time""
""focus"",""0"",""0""
""fullscreenenter"",""0"",""9210""
""blur"",""42"",""276862""
""focus"",""42"",""278347""
","""event"",""trial"",""time""
""blur"",""42"",""276862""
","""event"",""trial"",""time""
""focus"",""0"",""0""
""focus"",""42"",""278347""
","""event"",""trial"",""time""
""fullscreenenter"",""0"",""9210""
","
","133","","","","","","","","49","1,0,1","0","city","7","probe-66","0.6843593771933972","0.419746970004701","0.13657233493839863","1","","","","","","","",""
"","html-keyboard-response","105","550104","0.0-62.0-1.0","""event"",""trial"",""time""
""focus"",""0"",""0""
""fullscreenenter"",""0"",""9210""
""blur"",""42"",""276862""
""focus"",""42"",""278347""
","""event"",""trial"",""time""
""blur"",""42"",""276862""
","""event"",""trial"",""time""
""focus"",""0"",""0""
""focus"",""42"",""278347""
","""event"",""trial"",""time""
""fullscreenenter"",""0"",""9210""
","
","null","<p></p>","null","","","","","","","","","","","","","","","","","","","","","","",""
"","do_trial","106","556092","0.0-63.0-0.0","""event"",""trial"",""time""
""focus"",""0"",""0""
""fullscreenenter"",""0"",""9210""
""blur"",""42"",""276862""
""focus"",""42"",""278347""
","""event"",""trial"",""time""
""blur"",""42"",""276862""
","""event"",""trial"",""time""
""focus"",""0"",""0""
""focus"",""42"",""278347""
","""event"",""trial"",""time""
""fullscreenenter"",""0"",""9210""
","
","1438","","","","","","","","49","1,1,1","0","city","8","probe-139","0.6539733337742747","0.44339501679661936","0.24751436119463685","1","","","","","","","",""
"","html-keyboard-response","107","557103","0.0-63.0-1.0","""event"",""trial"",""time""
""focus"",""0"",""0""
""fullscreenenter"",""0"",""9210""
""blur"",""42"",""276862""
""focus"",""42"",""278347""
","""event"",""trial"",""time""
""blur"",""42"",""276862""
","""event"",""trial"",""time""
""focus"",""0"",""0""
""focus"",""42"",""278347""
","""event"",""trial"",""time""
""fullscreenenter"",""0"",""9210""
","
","null","<p></p>","null","","","","","","","","","","","","","","","","","","","","","","",""
"","do_trial","108","562808","0.0-64.0-0.0","""event"",""trial"",""time""
""focus"",""0"",""0""
""fullscreenenter"",""0"",""9210""
""blur"",""42"",""276862""
""focus"",""42"",""278347""
","""event"",""trial"",""time""
""blur"",""42"",""276862""
","""event"",""trial"",""time""
""focus"",""0"",""0""
""focus"",""42"",""278347""
","""event"",""trial"",""time""
""fullscreenenter"",""0"",""9210""
","
","1160","","","","","","","","49","1,1,0","0","city","9","probe-144","0.7337993760344861","0.29538420621616657","0.24798906641315746","1","","","","","","","",""
"","html-keyboard-response","109","563812","0.0-64.0-1.0","""event"",""trial"",""time""
""focus"",""0"",""0""
""fullscreenenter"",""0"",""9210""
""blur"",""42"",""276862""
""focus"",""42"",""278347""
","""event"",""trial"",""time""
""blur"",""42"",""276862""
","""event"",""trial"",""time""
""focus"",""0"",""0""
""focus"",""42"",""278347""
","""event"",""trial"",""time""
""fullscreenenter"",""0"",""9210""
","
","null","<p></p>","null","","","","","","","","","","","","","","","","","","","","","","",""
"","do_trial","110","568596","0.0-65.0-0.0","""event"",""trial"",""time""
""focus"",""0"",""0""
""fullscreenenter"",""0"",""9210""
""blur"",""42"",""276862""
""focus"",""42"",""278347""
","""event"",""trial"",""time""
""blur"",""42"",""276862""
","""event"",""trial"",""time""
""focus"",""0"",""0""
""focus"",""42"",""278347""
","""event"",""trial"",""time""
""fullscreenenter"",""0"",""9210""
","
","166","","","","","","","","49","1,0,0","0","city","10","probe-55","0.5273474235185494","0.31591898957069636","0.27402060765584657","1","","","","","","","",""
"","html-keyboard-response","111","569608","0.0-65.0-1.0","""event"",""trial"",""time""
""focus"",""0"",""0""
""fullscreenenter"",""0"",""9210""
""blur"",""42"",""276862""
""focus"",""42"",""278347""
","""event"",""trial"",""time""
""blur"",""42"",""276862""
","""event"",""trial"",""time""
""focus"",""0"",""0""
""focus"",""42"",""278347""
","""event"",""trial"",""time""
""fullscreenenter"",""0"",""9210""
","
","null","<p></p>","null","","","","","","","","","","","","","","","","","","","","","","",""
"","do_trial","112","574553","0.0-66.0-0.0","""event"",""trial"",""time""
""focus"",""0"",""0""
""fullscreenenter"",""0"",""9210""
""blur"",""42"",""276862""
""focus"",""42"",""278347""
","""event"",""trial"",""time""
""blur"",""42"",""276862""
","""event"",""trial"",""time""
""focus"",""0"",""0""
""focus"",""42"",""278347""
","""event"",""trial"",""time""
""fullscreenenter"",""0"",""9210""
","
","393","","","","","","","","49","1,1,0","0","city","11","probe-161","0.5660314832403078","0.33187263156214225","0.391539684075897","1","","","","","","","",""
"","html-keyboard-response","113","575576","0.0-66.0-1.0","""event"",""trial"",""time""
""focus"",""0"",""0""
""fullscreenenter"",""0"",""9210""
""blur"",""42"",""276862""
""focus"",""42"",""278347""
","""event"",""trial"",""time""
""blur"",""42"",""276862""
","""event"",""trial"",""time""
""focus"",""0"",""0""
""focus"",""42"",""278347""
","""event"",""trial"",""time""
""fullscreenenter"",""0"",""9210""
","
","null","<p></p>","null","","","","","","","","","","","","","","","","","","","","","","",""
"","do_trial","114","581975","0.0-67.0-0.0","""event"",""trial"",""time""
""focus"",""0"",""0""
""fullscreenenter"",""0"",""9210""
""blur"",""42"",""276862""
""focus"",""42"",""278347""
","""event"",""trial"",""time""
""blur"",""42"",""276862""
","""event"",""trial"",""time""
""focus"",""0"",""0""
""focus"",""42"",""278347""
","""event"",""trial"",""time""
""fullscreenenter"",""0"",""9210""
","
","1849","","","","","","","","49","0,0,0","0","city","12","probe-95","0.5779304772517382","0.3988072231699376","0.27719642299543606","0","","","","","","","",""
"","html-keyboard-response","115","582984","0.0-67.0-1.0","""event"",""trial"",""time""
""focus"",""0"",""0""
""fullscreenenter"",""0"",""9210""
""blur"",""42"",""276862""
""focus"",""42"",""278347""
","""event"",""trial"",""time""
""blur"",""42"",""276862""
","""event"",""trial"",""time""
""focus"",""0"",""0""
""focus"",""42"",""278347""
","""event"",""trial"",""time""
""fullscreenenter"",""0"",""9210""
","
","null","<p></p>","null","","","","","","","","","","","","","","","","","","","","","","",""
"","do_trial","116","588084","0.0-68.0-0.0","""event"",""trial"",""time""
""focus"",""0"",""0""
""fullscreenenter"",""0"",""9210""
""blur"",""42"",""276862""
""focus"",""42"",""278347""
","""event"",""trial"",""time""
""blur"",""42"",""276862""
","""event"",""trial"",""time""
""focus"",""0"",""0""
""focus"",""42"",""278347""
","""event"",""trial"",""time""
""fullscreenenter"",""0"",""9210""
","
","556","","","","","","","","49","1,0,0","0","city","13","probe-143","0.59310738643746","0.2965510196511799","0.1958528433368237","1","","","","","","","",""
"","html-keyboard-response","117","589095","0.0-68.0-1.0","""event"",""trial"",""time""
""focus"",""0"",""0""
""fullscreenenter"",""0"",""9210""
""blur"",""42"",""276862""
""focus"",""42"",""278347""
","""event"",""trial"",""time""
""blur"",""42"",""276862""
","""event"",""trial"",""time""
""focus"",""0"",""0""
""focus"",""42"",""278347""
","""event"",""trial"",""time""
""fullscreenenter"",""0"",""9210""
","
","null","<p></p>","null","","","","","","","","","","","","","","","","","","","","","","",""
"","do_trial","118","593994","0.0-69.0-0.0","""event"",""trial"",""time""
""focus"",""0"",""0""
""fullscreenenter"",""0"",""9210""
""blur"",""42"",""276862""
""focus"",""42"",""278347""
","""event"",""trial"",""time""
""blur"",""42"",""276862""
","""event"",""trial"",""time""
""focus"",""0"",""0""
""focus"",""42"",""278347""
","""event"",""trial"",""time""
""fullscreenenter"",""0"",""9210""
","
","353","","","","","","","","51","1,0,1","0","city","14","probe-122","0.5838301061967476","0.09746380525725147","0.1759159236328534","1","","","","","","","",""
"","html-keyboard-response","119","595015","0.0-69.0-1.0","""event"",""trial"",""time""
""focus"",""0"",""0""
""fullscreenenter"",""0"",""9210""
""blur"",""42"",""276862""
""focus"",""42"",""278347""
","""event"",""trial"",""time""
""blur"",""42"",""276862""
","""event"",""trial"",""time""
""focus"",""0"",""0""
""focus"",""42"",""278347""
","""event"",""trial"",""time""
""fullscreenenter"",""0"",""9210""
","
","null","<p></p>","null","","","","","","","","","","","","","","","","","","","","","","",""
"","do_trial","120","599852","0.0-70.0-0.0","""event"",""trial"",""time""
""focus"",""0"",""0""
""fullscreenenter"",""0"",""9210""
""blur"",""42"",""276862""
""focus"",""42"",""278347""
","""event"",""trial"",""time""
""blur"",""42"",""276862""
","""event"",""trial"",""time""
""focus"",""0"",""0""
""focus"",""42"",""278347""
","""event"",""trial"",""time""
""fullscreenenter"",""0"",""9210""
","
","288","","","","","","","","51","1,1,0","0","city","15","probe-30","0.6542659507389053","0.2566672040360366","0.09362305623057722","0","","","","","","","",""
"","html-keyboard-response","121","600863","0.0-70.0-1.0","""event"",""trial"",""time""
""focus"",""0"",""0""
""fullscreenenter"",""0"",""9210""
""blur"",""42"",""276862""
""focus"",""42"",""278347""
","""event"",""trial"",""time""
""blur"",""42"",""276862""
","""event"",""trial"",""time""
""focus"",""0"",""0""
""focus"",""42"",""278347""
","""event"",""trial"",""time""
""fullscreenenter"",""0"",""9210""
","
","null","<p></p>","null","","","","","","","","","","","","","","","","","","","","","","",""
"","do_trial","122","605768","0.0-71.0-0.0","""event"",""trial"",""time""
""focus"",""0"",""0""
""fullscreenenter"",""0"",""9210""
""blur"",""42"",""276862""
""focus"",""42"",""278347""
","""event"",""trial"",""time""
""blur"",""42"",""276862""
","""event"",""trial"",""time""
""focus"",""0"",""0""
""focus"",""42"",""278347""
","""event"",""trial"",""time""
""fullscreenenter"",""0"",""9210""
","
","351","","","","","","","","50","0,1,0","0","city","16","probe-126","0.5861255588289589","0.3641023503723638","0.1940491068822929","1","","","","","","","",""
"","html-keyboard-response","123","606779","0.0-71.0-1.0","""event"",""trial"",""time""
""focus"",""0"",""0""
""fullscreenenter"",""0"",""9210""
""blur"",""42"",""276862""
""focus"",""42"",""278347""
","""event"",""trial"",""time""
""blur"",""42"",""276862""
","""event"",""trial"",""time""
""focus"",""0"",""0""
""focus"",""42"",""278347""
","""event"",""trial"",""time""
""fullscreenenter"",""0"",""9210""
","
","null","<p></p>","null","","","","","","","","","","","","","","","","","","","","","","",""
"","do_trial","124","612193","0.0-72.0-0.0","""event"",""trial"",""time""
""focus"",""0"",""0""
""fullscreenenter"",""0"",""9210""
""blur"",""42"",""276862""
""focus"",""42"",""278347""
","""event"",""trial"",""time""
""blur"",""42"",""276862""
","""event"",""trial"",""time""
""focus"",""0"",""0""
""focus"",""42"",""278347""
","""event"",""trial"",""time""
""fullscreenenter"",""0"",""9210""
","
","863","","","","","","","","49","0,0,0","0","city","17","probe-52","0.539218405746235","0.2553004478437084","0.1994044220789143","0","","","","","","","",""
"","html-keyboard-response","125","613203","0.0-72.0-1.0","""event"",""trial"",""time""
""focus"",""0"",""0""
""fullscreenenter"",""0"",""9210""
""blur"",""42"",""276862""
""focus"",""42"",""278347""
","""event"",""trial"",""time""
""blur"",""42"",""276862""
","""event"",""trial"",""time""
""focus"",""0"",""0""
""focus"",""42"",""278347""
","""event"",""trial"",""time""
""fullscreenenter"",""0"",""9210""
","
","null","<p></p>","null","","","","","","","","","","","","","","","","","","","","","","",""
"","do_trial","126","618036","0.0-73.0-0.0","""event"",""trial"",""time""
""focus"",""0"",""0""
""fullscreenenter"",""0"",""9210""
""blur"",""42"",""276862""
""focus"",""42"",""278347""
","""event"",""trial"",""time""
""blur"",""42"",""276862""
","""event"",""trial"",""time""
""focus"",""0"",""0""
""focus"",""42"",""278347""
","""event"",""trial"",""time""
""fullscreenenter"",""0"",""9210""
","
","283","","","","","","","","49","0,1,0","0","city","18","probe-89","0.5093083176721381","0.3322641506706455","0.060856718420245974","0","","","","","","","",""
"","html-keyboard-response","127","619043","0.0-73.0-1.0","""event"",""trial"",""time""
""focus"",""0"",""0""
""fullscreenenter"",""0"",""9210""
""blur"",""42"",""276862""
""focus"",""42"",""278347""
","""event"",""trial"",""time""
""blur"",""42"",""276862""
","""event"",""trial"",""time""
""focus"",""0"",""0""
""focus"",""42"",""278347""
","""event"",""trial"",""time""
""fullscreenenter"",""0"",""9210""
","
","null","<p></p>","null","","","","","","","","","","","","","","","","","","","","","","",""
"","do_trial","128","624624","0.0-74.0-0.0","""event"",""trial"",""time""
""focus"",""0"",""0""
""fullscreenenter"",""0"",""9210""
""blur"",""42"",""276862""
""focus"",""42"",""278347""
","""event"",""trial"",""time""
""blur"",""42"",""276862""
","""event"",""trial"",""time""
""focus"",""0"",""0""
""focus"",""42"",""278347""
","""event"",""trial"",""time""
""fullscreenenter"",""0"",""9210""
","
","1029","","","","","","","","50","1,0,0","0","city","19","probe-155","0.5925539953652859","0.29756045687638216","0.19239436711720337","0","","","","","","","",""
"","html-keyboard-response","129","625638","0.0-74.0-1.0","""event"",""trial"",""time""
""focus"",""0"",""0""
""fullscreenenter"",""0"",""9210""
""blur"",""42"",""276862""
""focus"",""42"",""278347""
","""event"",""trial"",""time""
""blur"",""42"",""276862""
","""event"",""trial"",""time""
""focus"",""0"",""0""
""focus"",""42"",""278347""
","""event"",""trial"",""time""
""fullscreenenter"",""0"",""9210""
","
","null","<p></p>","null","","","","","","","","","","","","","","","","","","","","","","",""
"","do_trial","130","630188","0.0-75.0-0.0","""event"",""trial"",""time""
""focus"",""0"",""0""
""fullscreenenter"",""0"",""9210""
""blur"",""42"",""276862""
""focus"",""42"",""278347""
","""event"",""trial"",""time""
""blur"",""42"",""276862""
","""event"",""trial"",""time""
""focus"",""0"",""0""
""focus"",""42"",""278347""
","""event"",""trial"",""time""
""fullscreenenter"",""0"",""9210""
","
","1","","","","","","","","49","1,0,0","0","city","20","probe-145","0.5724199566245544","0.22490601057314893","0.24056719482046074","1","","","","","","","",""
"","html-keyboard-response","131","631198","0.0-75.0-1.0","""event"",""trial"",""time""
""focus"",""0"",""0""
""fullscreenenter"",""0"",""9210""
""blur"",""42"",""276862""
""focus"",""42"",""278347""
","""event"",""trial"",""time""
""blur"",""42"",""276862""
","""event"",""trial"",""time""
""focus"",""0"",""0""
""focus"",""42"",""278347""
","""event"",""trial"",""time""
""fullscreenenter"",""0"",""9210""
","
","null","<p></p>","null","","","","","","","","","","","","","","","","","","","","","","",""
"","do_trial","132","636033","0.0-76.0-0.0","""event"",""trial"",""time""
""focus"",""0"",""0""
""fullscreenenter"",""0"",""9210""
""blur"",""42"",""276862""
""focus"",""42"",""278347""
","""event"",""trial"",""time""
""blur"",""42"",""276862""
","""event"",""trial"",""time""
""focus"",""0"",""0""
""focus"",""42"",""278347""
","""event"",""trial"",""time""
""fullscreenenter"",""0"",""9210""
","
","293","","","","","","","","51","1,0,0","0","city","21","probe-199","0.5374640204021189","0.33255417923979613","0.2745228473164308","0","","","","","","","",""
"","html-keyboard-response","133","637043","0.0-76.0-1.0","""event"",""trial"",""time""
""focus"",""0"",""0""
""fullscreenenter"",""0"",""9210""
""blur"",""42"",""276862""
""focus"",""42"",""278347""
","""event"",""trial"",""time""
""blur"",""42"",""276862""
","""event"",""trial"",""time""
""focus"",""0"",""0""
""focus"",""42"",""278347""
","""event"",""trial"",""time""
""fullscreenenter"",""0"",""9210""
","
","null","<p></p>","null","","","","","","","","","","","","","","","","","","","","","","",""
"","do_trial","134","642068","0.0-77.0-0.0","""event"",""trial"",""time""
""focus"",""0"",""0""
""fullscreenenter"",""0"",""9210""
""blur"",""42"",""276862""
""focus"",""42"",""278347""
","""event"",""trial"",""time""
""blur"",""42"",""276862""
","""event"",""trial"",""time""
""focus"",""0"",""0""
""focus"",""42"",""278347""
","""event"",""trial"",""time""
""fullscreenenter"",""0"",""9210""
","
","481","","","","","","","","49","1,0,0","0","city","22","probe-105","0.6209033047504974","0.353637872197715","0.36931193545414476","1","","","","","","","",""
"","html-keyboard-response","135","643083","0.0-77.0-1.0","""event"",""trial"",""time""
""focus"",""0"",""0""
""fullscreenenter"",""0"",""9210""
""blur"",""42"",""276862""
""focus"",""42"",""278347""
","""event"",""trial"",""time""
""blur"",""42"",""276862""
","""event"",""trial"",""time""
""focus"",""0"",""0""
""focus"",""42"",""278347""
","""event"",""trial"",""time""
""fullscreenenter"",""0"",""9210""
","
","null","<p></p>","null","","","","","","","","","","","","","","","","","","","","","","",""
"","do_trial","136","648838","0.0-78.0-0.0","""event"",""trial"",""time""
""focus"",""0"",""0""
""fullscreenenter"",""0"",""9210""
""blur"",""42"",""276862""
""focus"",""42"",""278347""
","""event"",""trial"",""time""
""blur"",""42"",""276862""
","""event"",""trial"",""time""
""focus"",""0"",""0""
""focus"",""42"",""278347""
","""event"",""trial"",""time""
""fullscreenenter"",""0"",""9210""
","
","1206","","","","","","","","50","1,1,1","0","city","23","probe-27","0.7776415708022905","0.3952904999096978","0.39879462203687793","1","","","","","","","",""
"","html-keyboard-response","137","649843","0.0-78.0-1.0","""event"",""trial"",""time""
""focus"",""0"",""0""
""fullscreenenter"",""0"",""9210""
""blur"",""42"",""276862""
""focus"",""42"",""278347""
","""event"",""trial"",""time""
""blur"",""42"",""276862""
","""event"",""trial"",""time""
""focus"",""0"",""0""
""focus"",""42"",""278347""
","""event"",""trial"",""time""
""fullscreenenter"",""0"",""9210""
","
","null","<p></p>","null","","","","","","","","","","","","","","","","","","","","","","",""
"","do_trial","138","655618","0.0-79.0-0.0","""event"",""trial"",""time""
""focus"",""0"",""0""
""fullscreenenter"",""0"",""9210""
""blur"",""42"",""276862""
""focus"",""42"",""278347""
","""event"",""trial"",""time""
""blur"",""42"",""276862""
","""event"",""trial"",""time""
""focus"",""0"",""0""
""focus"",""42"",""278347""
","""event"",""trial"",""time""
""fullscreenenter"",""0"",""9210""
","
","1235","","","","","","","","51","1,0,0","0","city","24","probe-40","0.8341335851319738","0.424380350651938","0.3618898292959166","0","","","","","","","",""
"","html-keyboard-response","139","656628","0.0-79.0-1.0","""event"",""trial"",""time""
""focus"",""0"",""0""
""fullscreenenter"",""0"",""9210""
""blur"",""42"",""276862""
""focus"",""42"",""278347""
","""event"",""trial"",""time""
""blur"",""42"",""276862""
","""event"",""trial"",""time""
""focus"",""0"",""0""
""focus"",""42"",""278347""
","""event"",""trial"",""time""
""fullscreenenter"",""0"",""9210""
","
","null","<p></p>","null","","","","","","","","","","","","","","","","","","","","","","",""
"","do_trial","140","662262","0.0-80.0-0.0","""event"",""trial"",""time""
""focus"",""0"",""0""
""fullscreenenter"",""0"",""9210""
""blur"",""42"",""276862""
""focus"",""42"",""278347""
","""event"",""trial"",""time""
""blur"",""42"",""276862""
","""event"",""trial"",""time""
""focus"",""0"",""0""
""focus"",""42"",""278347""
","""event"",""trial"",""time""
""fullscreenenter"",""0"",""9210""
","
","1093","","","","","","","","49","0,0,0","0","city","25","probe-170","0.7669359727479081","0.575745088262578","0.30804367120855136","0","","","","","","","",""
"","html-keyboard-response","141","663273","0.0-80.0-1.0","""event"",""trial"",""time""
""focus"",""0"",""0""
""fullscreenenter"",""0"",""9210""
""blur"",""42"",""276862""
""focus"",""42"",""278347""
","""event"",""trial"",""time""
""blur"",""42"",""276862""
","""event"",""trial"",""time""
""focus"",""0"",""0""
""focus"",""42"",""278347""
","""event"",""trial"",""time""
""fullscreenenter"",""0"",""9210""
","
","null","<p></p>","null","","","","","","","","","","","","","","","","","","","","","","",""
"","do_trial","142","667898","0.0-81.0-0.0","""event"",""trial"",""time""
""focus"",""0"",""0""
""fullscreenenter"",""0"",""9210""
""blur"",""42"",""276862""
""focus"",""42"",""278347""
","""event"",""trial"",""time""
""blur"",""42"",""276862""
","""event"",""trial"",""time""
""focus"",""0"",""0""
""focus"",""42"",""278347""
","""event"",""trial"",""time""
""fullscreenenter"",""0"",""9210""
","
","78","","","","","","","","49","0,1,0","0","city","26","probe-225","0.6498576803444753","0.36593398868983273","0.3971880240254062","0","","","","","","","",""
"","html-keyboard-response","143","668903","0.0-81.0-1.0","""event"",""trial"",""time""
""focus"",""0"",""0""
""fullscreenenter"",""0"",""9210""
""blur"",""42"",""276862""
""focus"",""42"",""278347""
","""event"",""trial"",""time""
""blur"",""42"",""276862""
","""event"",""trial"",""time""
""focus"",""0"",""0""
""focus"",""42"",""278347""
","""event"",""trial"",""time""
""fullscreenenter"",""0"",""9210""
","
","null","<p></p>","null","","","","","","","","","","","","","","","","","","","","","","",""
"","do_trial","144","673719","0.0-82.0-0.0","""event"",""trial"",""time""
""focus"",""0"",""0""
""fullscreenenter"",""0"",""9210""
""blur"",""42"",""276862""
""focus"",""42"",""278347""
","""event"",""trial"",""time""
""blur"",""42"",""276862""
","""event"",""trial"",""time""
""focus"",""0"",""0""
""focus"",""42"",""278347""
","""event"",""trial"",""time""
""fullscreenenter"",""0"",""9210""
","
","267","","","","","","","","50","1,0,0","0","city","27","probe-218","0.6554640102882856","0.41800405765411686","0.17839344013355488","0","","","","","","","",""
"","html-keyboard-response","145","674727","0.0-82.0-1.0","""event"",""trial"",""time""
""focus"",""0"",""0""
""fullscreenenter"",""0"",""9210""
""blur"",""42"",""276862""
""focus"",""42"",""278347""
","""event"",""trial"",""time""
""blur"",""42"",""276862""
","""event"",""trial"",""time""
""focus"",""0"",""0""
""focus"",""42"",""278347""
","""event"",""trial"",""time""
""fullscreenenter"",""0"",""9210""
","
","null","<p></p>","null","","","","","","","","","","","","","","","","","","","","","","",""
"","do_trial","146","680693","0.0-83.0-0.0","""event"",""trial"",""time""
""focus"",""0"",""0""
""fullscreenenter"",""0"",""9210""
""blur"",""42"",""276862""
""focus"",""42"",""278347""
","""event"",""trial"",""time""
""blur"",""42"",""276862""
","""event"",""trial"",""time""
""focus"",""0"",""0""
""focus"",""42"",""278347""
","""event"",""trial"",""time""
""fullscreenenter"",""0"",""9210""
","
","1414","","","","","","","","50","1,1,0","0","city","28","probe-48","0.6780453561423798","0.31506894604588764","0.05298911875705521","1","","","","","","","",""
"","html-keyboard-response","147","681708","0.0-83.0-1.0","""event"",""trial"",""time""
""focus"",""0"",""0""
""fullscreenenter"",""0"",""9210""
""blur"",""42"",""276862""
""focus"",""42"",""278347""
","""event"",""trial"",""time""
""blur"",""42"",""276862""
","""event"",""trial"",""time""
""focus"",""0"",""0""
""focus"",""42"",""278347""
","""event"",""trial"",""time""
""fullscreenenter"",""0"",""9210""
","
","null","<p></p>","null","","","","","","","","","","","","","","","","","","","","","","",""
"","do_trial","148","686783","0.0-84.0-0.0","""event"",""trial"",""time""
""focus"",""0"",""0""
""fullscreenenter"",""0"",""9210""
""blur"",""42"",""276862""
""focus"",""42"",""278347""
","""event"",""trial"",""time""
""blur"",""42"",""276862""
","""event"",""trial"",""time""
""focus"",""0"",""0""
""focus"",""42"",""278347""
","""event"",""trial"",""time""
""fullscreenenter"",""0"",""9210""
","
","521","","","","","","","","50","1,0,0","0","city","29","probe-92","0.567631247368256","0.2628836541998001","0.10807921072778714","0","","","","","","","",""
"","html-keyboard-response","149","687793","0.0-84.0-1.0","""event"",""trial"",""time""
""focus"",""0"",""0""
""fullscreenenter"",""0"",""9210""
""blur"",""42"",""276862""
""focus"",""42"",""278347""
","""event"",""trial"",""time""
""blur"",""42"",""276862""
","""event"",""trial"",""time""
""focus"",""0"",""0""
""focus"",""42"",""278347""
","""event"",""trial"",""time""
""fullscreenenter"",""0"",""9210""
","
","null","<p></p>","null","","","","","","","","","","","","","","","","","","","","","","",""
"","do_bye","150","689308","0.0-85.0-0.0","""event"",""trial"",""time""
""focus"",""0"",""0""
""fullscreenenter"",""0"",""9210""
""blur"",""42"",""276862""
""focus"",""42"",""278347""
","""event"",""trial"",""time""
""blur"",""42"",""276862""
","""event"",""trial"",""time""
""focus"",""0"",""0""
""focus"",""42"",""278347""
","""event"",""trial"",""time""
""fullscreenenter"",""0"",""9210""
","
","null","","","","","","","","null","","","","","","","","","","","","","","","","",""
"","break","151","695921","0.0-85.0-1.0","""event"",""trial"",""time""
""focus"",""0"",""0""
""fullscreenenter"",""0"",""9210""
""blur"",""42"",""276862""
""focus"",""42"",""278347""
","""event"",""trial"",""time""
""blur"",""42"",""276862""
","""event"",""trial"",""time""
""focus"",""0"",""0""
""focus"",""42"",""278347""
","""event"",""trial"",""time""
""fullscreenenter"",""0"",""9210""
","
","6610","<div class='center'><p>Time to take a quick break! You have 2 minutes to rest, but you can move on sooner if you'd like.</p><p> Press the <b>space bar</b> to continue.</p></div>","32","","","","","","","","","","","","","","","","","","","","","","",""
"","do_travel","152","704936","0.0-86.0-0.0","""event"",""trial"",""time""
""focus"",""0"",""0""
""fullscreenenter"",""0"",""9210""
""blur"",""42"",""276862""
""focus"",""42"",""278347""
","""event"",""trial"",""time""
""blur"",""42"",""276862""
","""event"",""trial"",""time""
""focus"",""0"",""0""
""focus"",""42"",""278347""
","""event"",""trial"",""time""
""fullscreenenter"",""0"",""9210""
","
","null","","","","","","","","null","","","","","","","","","","","","","","","","",""
"","do_welcome","153","708951","0.0-86.0-1.0","""event"",""trial"",""time""
""focus"",""0"",""0""
""fullscreenenter"",""0"",""9210""
""blur"",""42"",""276862""
""focus"",""42"",""278347""
","""event"",""trial"",""time""
""blur"",""42"",""276862""
","""event"",""trial"",""time""
""focus"",""0"",""0""
""focus"",""42"",""278347""
","""event"",""trial"",""time""
""fullscreenenter"",""0"",""9210""
","
","null","","","","","","","","null","","","","","","","","","","","","","","","","",""
"","do_trial","154","715635","0.0-87.0-0.0","""event"",""trial"",""time""
""focus"",""0"",""0""
""fullscreenenter"",""0"",""9210""
""blur"",""42"",""276862""
""focus"",""42"",""278347""
","""event"",""trial"",""time""
""blur"",""42"",""276862""
","""event"",""trial"",""time""
""focus"",""0"",""0""
""focus"",""42"",""278347""
","""event"",""trial"",""time""
""fullscreenenter"",""0"",""9210""
","
","2139","","","","","","","","50","1,0,0","1","mountain","30","probe-100","1","0.17963784810022254","0.0937309433820166","0","","","","","","","",""
"","html-keyboard-response","155","716645","0.0-87.0-1.0","""event"",""trial"",""time""
""focus"",""0"",""0""
""fullscreenenter"",""0"",""9210""
""blur"",""42"",""276862""
""focus"",""42"",""278347""
","""event"",""trial"",""time""
""blur"",""42"",""276862""
","""event"",""trial"",""time""
""focus"",""0"",""0""
""focus"",""42"",""278347""
","""event"",""trial"",""time""
""fullscreenenter"",""0"",""9210""
","
","null","<p></p>","null","","","","","","","","","","","","","","","","","","","","","","",""
"","do_trial","156","721685","0.0-88.0-0.0","""event"",""trial"",""time""
""focus"",""0"",""0""
""fullscreenenter"",""0"",""9210""
""blur"",""42"",""276862""
""focus"",""42"",""278347""
","""event"",""trial"",""time""
""blur"",""42"",""276862""
","""event"",""trial"",""time""
""focus"",""0"",""0""
""focus"",""42"",""278347""
","""event"",""trial"",""time""
""fullscreenenter"",""0"",""9210""
","
","492","","","","","","","","50","1,0,0","1","mountain","31","probe-43","1","0.21808813749765943","0.23187765908166888","0","","","","","","","",""
"","html-keyboard-response","157","722705","0.0-88.0-1.0","""event"",""trial"",""time""
""focus"",""0"",""0""
""fullscreenenter"",""0"",""9210""
""blur"",""42"",""276862""
""focus"",""42"",""278347""
","""event"",""trial"",""time""
""blur"",""42"",""276862""
","""event"",""trial"",""time""
""focus"",""0"",""0""
""focus"",""42"",""278347""
","""event"",""trial"",""time""
""fullscreenenter"",""0"",""9210""
","
","null","<p></p>","null","","","","","","","","","","","","","","","","","","","","","","",""
"","do_trial","158","727514","0.0-89.0-0.0","""event"",""trial"",""time""
""focus"",""0"",""0""
""fullscreenenter"",""0"",""9210""
""blur"",""42"",""276862""
""focus"",""42"",""278347""
","""event"",""trial"",""time""
""blur"",""42"",""276862""
","""event"",""trial"",""time""
""focus"",""0"",""0""
""focus"",""42"",""278347""
","""event"",""trial"",""time""
""fullscreenenter"",""0"",""9210""
","
","270","","","","","","","","51","1,0,0","1","mountain","32","probe-98","1","0.19125263338765383","0.2219116615627113","0","","","","","","","",""
"","html-keyboard-response","159","728535","0.0-89.0-1.0","""event"",""trial"",""time""
""focus"",""0"",""0""
""fullscreenenter"",""0"",""9210""
""blur"",""42"",""276862""
""focus"",""42"",""278347""
","""event"",""trial"",""time""
""blur"",""42"",""276862""
","""event"",""trial"",""time""
""focus"",""0"",""0""
""focus"",""42"",""278347""
","""event"",""trial"",""time""
""fullscreenenter"",""0"",""9210""
","
","null","<p></p>","null","","","","","","","","","","","","","","","","","","","","","","",""
"","do_trial","160","733128","0.0-90.0-0.0","""event"",""trial"",""time""
""focus"",""0"",""0""
""fullscreenenter"",""0"",""9210""
""blur"",""42"",""276862""
""focus"",""42"",""278347""
","""event"",""trial"",""time""
""blur"",""42"",""276862""
","""event"",""trial"",""time""
""focus"",""0"",""0""
""focus"",""42"",""278347""
","""event"",""trial"",""time""
""fullscreenenter"",""0"",""9210""
","
","41","","","","","","","","50","1,1,0","1","mountain","33","probe-116","0.790402466503443","0.30533104197806343","0.17119775635742357","1","","","","","","","",""
"","html-keyboard-response","161","734130","0.0-90.0-1.0","""event"",""trial"",""time""
""focus"",""0"",""0""
""fullscreenenter"",""0"",""9210""
""blur"",""42"",""276862""
""focus"",""42"",""278347""
","""event"",""trial"",""time""
""blur"",""42"",""276862""
","""event"",""trial"",""time""
""focus"",""0"",""0""
""focus"",""42"",""278347""
","""event"",""trial"",""time""
""fullscreenenter"",""0"",""9210""
","
","null","<p></p>","null","","","","","","","","","","","","","","","","","","","","","","",""
"","do_trial","162","741062","0.0-91.0-0.0","""event"",""trial"",""time""
""focus"",""0"",""0""
""fullscreenenter"",""0"",""9210""
""blur"",""42"",""276862""
""focus"",""42"",""278347""
","""event"",""trial"",""time""
""blur"",""42"",""276862""
","""event"",""trial"",""time""
""focus"",""0"",""0""
""focus"",""42"",""278347""
","""event"",""trial"",""time""
""fullscreenenter"",""0"",""9210""
","
","2378","","","","","","","","50","1,0,0","1","mountain","34","probe-14","0.596515996424787","0.1918954404867992","0.18262665929003308","0","","","","","","","",""
"","html-keyboard-response","163","742069","0.0-91.0-1.0","""event"",""trial"",""time""
""focus"",""0"",""0""
""fullscreenenter"",""0"",""9210""
""blur"",""42"",""276862""
""focus"",""42"",""278347""
","""event"",""trial"",""time""
""blur"",""42"",""276862""
","""event"",""trial"",""time""
""focus"",""0"",""0""
""focus"",""42"",""278347""
","""event"",""trial"",""time""
""fullscreenenter"",""0"",""9210""
","
","null","<p></p>","null","","","","","","","","","","","","","","","","","","","","","","",""
"","do_trial","164","747158","0.0-92.0-0.0","""event"",""trial"",""time""
""focus"",""0"",""0""
""fullscreenenter"",""0"",""9210""
""blur"",""42"",""276862""
""focus"",""42"",""278347""
","""event"",""trial"",""time""
""blur"",""42"",""276862""
","""event"",""trial"",""time""
""focus"",""0"",""0""
""focus"",""42"",""278347""
","""event"",""trial"",""time""
""fullscreenenter"",""0"",""9210""
","
","535","","","","","","","","50","1,0,1","1","mountain","35","probe-49","0.4497045174220542","0.24085427656591785","0.3207687556059984","0","","","","","","","",""
"","html-keyboard-response","165","748173","0.0-92.0-1.0","""event"",""trial"",""time""
""focus"",""0"",""0""
""fullscreenenter"",""0"",""9210""
""blur"",""42"",""276862""
""focus"",""42"",""278347""
","""event"",""trial"",""time""
""blur"",""42"",""276862""
","""event"",""trial"",""time""
""focus"",""0"",""0""
""focus"",""42"",""278347""
","""event"",""trial"",""time""
""fullscreenenter"",""0"",""9210""
","
","null","<p></p>","null","","","","","","","","","","","","","","","","","","","","","","",""
"","do_trial","166","753279","0.0-93.0-0.0","""event"",""trial"",""time""
""focus"",""0"",""0""
""fullscreenenter"",""0"",""9210""
""blur"",""42"",""276862""
""focus"",""42"",""278347""
","""event"",""trial"",""time""
""blur"",""42"",""276862""
","""event"",""trial"",""time""
""focus"",""0"",""0""
""focus"",""42"",""278347""
","""event"",""trial"",""time""
""fullscreenenter"",""0"",""9210""
","
","561","","","","","","","","50","0,0,0","1","mountain","36","probe-193","0.557158482171741","0.23113986579241214","0.3749414003269921","0","","","","","","","",""
"","html-keyboard-response","167","754288","0.0-93.0-1.0","""event"",""trial"",""time""
""focus"",""0"",""0""
""fullscreenenter"",""0"",""9210""
""blur"",""42"",""276862""
""focus"",""42"",""278347""
","""event"",""trial"",""time""
""blur"",""42"",""276862""
","""event"",""trial"",""time""
""focus"",""0"",""0""
""focus"",""42"",""278347""
","""event"",""trial"",""time""
""fullscreenenter"",""0"",""9210""
","
","null","<p></p>","null","","","","","","","","","","","","","","","","","","","","","","",""
"","do_trial","168","759923","0.0-94.0-0.0","""event"",""trial"",""time""
""focus"",""0"",""0""
""fullscreenenter"",""0"",""9210""
""blur"",""42"",""276862""
""focus"",""42"",""278347""
","""event"",""trial"",""time""
""blur"",""42"",""276862""
","""event"",""trial"",""time""
""focus"",""0"",""0""
""focus"",""42"",""278347""
","""event"",""trial"",""time""
""fullscreenenter"",""0"",""9210""
","
","1086","","","","","","","","49","0,0,0","1","mountain","37","probe-210","0.599995481232474","0.07002642276192851","0.19805900266570134","0","","","","","","","",""
"","html-keyboard-response","169","760938","0.0-94.0-1.0","""event"",""trial"",""time""
""focus"",""0"",""0""
""fullscreenenter"",""0"",""9210""
""blur"",""42"",""276862""
""focus"",""42"",""278347""
","""event"",""trial"",""time""
""blur"",""42"",""276862""
","""event"",""trial"",""time""
""focus"",""0"",""0""
""focus"",""42"",""278347""
","""event"",""trial"",""time""
""fullscreenenter"",""0"",""9210""
","
","null","<p></p>","null","","","","","","","","","","","","","","","","","","","","","","",""
"","do_trial","170","765744","0.0-95.0-0.0","""event"",""trial"",""time""
""focus"",""0"",""0""
""fullscreenenter"",""0"",""9210""
""blur"",""42"",""276862""
""focus"",""42"",""278347""
","""event"",""trial"",""time""
""blur"",""42"",""276862""
","""event"",""trial"",""time""
""focus"",""0"",""0""
""focus"",""42"",""278347""
","""event"",""trial"",""time""
""fullscreenenter"",""0"",""9210""
","
","252","","","","","","","","51","0,0,0","1","mountain","38","probe-158","0.5194517818093071","0.09685509807293487","0.16989470628331826","0","","","","","","","",""
"","html-keyboard-response","171","766754","0.0-95.0-1.0","""event"",""trial"",""time""
""focus"",""0"",""0""
""fullscreenenter"",""0"",""9210""
""blur"",""42"",""276862""
""focus"",""42"",""278347""
","""event"",""trial"",""time""
""blur"",""42"",""276862""
","""event"",""trial"",""time""
""focus"",""0"",""0""
""focus"",""42"",""278347""
","""event"",""trial"",""time""
""fullscreenenter"",""0"",""9210""
","
","null","<p></p>","null","","","","","","","","","","","","","","","","","","","","","","",""
"","do_trial","172","771703","0.0-96.0-0.0","""event"",""trial"",""time""
""focus"",""0"",""0""
""fullscreenenter"",""0"",""9210""
""blur"",""42"",""276862""
""focus"",""42"",""278347""
","""event"",""trial"",""time""
