"success","trial_type","trial_index","time_elapsed","internal_node_id","interactions","blur_events","focus_events","fullscreenenter_events","fullscreenexit_events","rt","stimulus","key_press","subject_id","participant_id","age","gender","prompt","response","choice_outcomes","context_n","context_img_id","trial_n","probe_img_id","pR_red","pR_white","pR_black","outcome","contextArray_ind","validImageProbes","invalidImageProbes","pRew_Red","pRew_White","pRew_Black","availableForMemProbe","choice_blocks"
"true","fullscreen","0","9374","0.0-0.0","""event"",""trial"",""time""
""fullscreenenter"",""0"",""8400""
","
","
","""event"",""trial"",""time""
""fullscreenenter"",""0"",""8400""
","
","","","","","","","","","","","","","","","","","","","","","","","","","",""
"","pavlovia","1","9384","0.0-1.0","""event"",""trial"",""time""
""fullscreenenter"",""0"",""8400""
","
","
","""event"",""trial"",""time""
""fullscreenenter"",""0"",""8400""
","
","","","","","","","","","","","","","","","","","","","","","","","","","",""
"","instruc1","2","54694","0.0-2.0","""event"",""trial"",""time""
""fullscreenenter"",""0"",""8400""
","
","
","""event"",""trial"",""time""
""fullscreenenter"",""0"",""8400""
","
","null","run_exp/static/audio/clip_1_welcome.m4a","null","243","29","11","Male","<div class='center'><p>Welcome! This is the first part of the study. It will last ~30 minutes. In part 1 and part 2 of the study, you are the head captain of a pirate ship traveling around the world to different islands. You will play a few different games throughout these two parts. Here is an overview of them:</p><br><p>Part 1 (today)</p><p>1. Instructions, practice game, and quiz</p><p>2. Pick a pirate game on 6 different islands</p><br><p>Part 2 (tomorrow)</p><p>3. Pick a pirate game and memory game</p><p>4. Where did you see this ship? </p></div>","","","","","","","","","","","","","","","","","",""
"","html-keyboard-response","3","56101","0.0-3.0","""event"",""trial"",""time""
""fullscreenenter"",""0"",""8400""
","
","
","""event"",""trial"",""time""
""fullscreenenter"",""0"",""8400""
","
","1404","<div class='center'><p>Welcome! This is the first part of the study. It will last ~30 minutes. In part 1 and part 2 of the study, you are the head captain of a pirate ship traveling around the world to different islands. You will play a few different games throughout these two parts. Here is an overview of them:</p><br><p>Part 1 (today)</p><p>1. Instructions, practice game, and quiz</p><p>2. Pick a pirate game on 6 different islands</p><br><p>Part 2 (tomorrow)</p><p>3. Pick a pirate game and memory game</p><p>4. Where did you see this ship? </p><p><b>[Press the space bar to continue]</b></p></div>","32","","","","","","","","","","","","","","","","","","","","","","",""
"","instruc2","4","61413","0.0-4.0","""event"",""trial"",""time""
""fullscreenenter"",""0"",""8400""
","
","
","""event"",""trial"",""time""
""fullscreenenter"",""0"",""8400""
","
","null","run_exp/static/audio/clip_2_different_places.m4a","null","","","","","<div class='center'><p>Today, you’ll visit these 6 islands on your journey. You'll be able to see these islands from your ship.</p><p><img src='run_exp/static/images/contexts/all_contexts.png' height='500'></p></div>","","","","","","","","","","","","","","","","","",""
"","html-keyboard-response","5","62039","0.0-5.0","""event"",""trial"",""time""
""fullscreenenter"",""0"",""8400""
","
","
","""event"",""trial"",""time""
""fullscreenenter"",""0"",""8400""
","
","624.3999999761581","<div class='center'><p>Today, you’ll visit these 6 islands on your journey. You'll be able to see these islands from your ship.</p><p><img src='run_exp/static/images/contexts/all_contexts.png' height='500'></p><p><b>[Press the space bar to continue]</b></p></div>","32","","","","","","","","","","","","","","","","","","","","","","",""
"","instruc3","6","71734","0.0-6.0","""event"",""trial"",""time""
""fullscreenenter"",""0"",""8400""
","
","
","""event"",""trial"",""time""
""fullscreenenter"",""0"",""8400""
","
","null","run_exp/static/audio/clip_3_goal_of_game_1.m4a","null","","","","","<div class='center'><p> The pirates on your ship will rob other ships as they leave the island.</p> These ships have just sold their goods to the islanders, so they will be filled with lots and lots of gold.</p><p><img src='run_exp/static/images/tutorial/ship_center.png' height='400'></p></div>","","","","","","","","","","","","","","","","","",""
"","html-keyboard-response","7","72569","0.0-7.0","""event"",""trial"",""time""
""fullscreenenter"",""0"",""8400""
","
","
","""event"",""trial"",""time""
""fullscreenenter"",""0"",""8400""
","
","833.7999999523163","<div class='center'><p> The pirates on your ship will rob other ships as they leave the island.</p> These ships have just sold their goods to the islanders, so they will be filled with lots and lots of gold.</p><p><img src='run_exp/static/images/tutorial/ship_center.png' height='400'></p><p><b>[Press the space bar to continue]</b></p></div>","32","","","","","","","","","","","","","","","","","","","","","","",""
"","instruc4","8","100552","0.0-8.0","""event"",""trial"",""time""
""fullscreenenter"",""0"",""8400""
","
","
","""event"",""trial"",""time""
""fullscreenenter"",""0"",""8400""
","
","null","run_exp/static/audio/clip_4_goal_of_game_2.m4a","null","","","","","<div class='center'><p>As the head captain, you do not have to rob any ships yourself. Another pirate will be doing the robbing for you. First, you will choose a pirate to rob the next ship.</p><p><img src='run_exp/static/images/tutorial/pirates_all_crop.png' height='200'></p><p>Then, you'll see if the pirate successfully robbed the ship of their gold. If they were successful, then you'll get a stack of gold coins like this:</p><p><img src='run_exp/static/images/tutorial/reward.png' height='150'></p><p> If they were <b>not</b> successful, then you'll get no gold coins, and you'll see a big red x like this: </p><p><img src='run_exp/static/images/tutorial/reward_no.png' height='150'></p><p> How much bonus money you make is based on how many gold coins you collect.</p><div>","","","","","","","","","","","","","","","","","",""
"","html-keyboard-response","9","101688","0.0-9.0","""event"",""trial"",""time""
""fullscreenenter"",""0"",""8400""
","
","
","""event"",""trial"",""time""
""fullscreenenter"",""0"",""8400""
","
","1133.6999999284744","<div class='center'><p>As the head captain, you do not have to rob any ships yourself. Another pirate will be doing the robbing for you. First, you will choose a pirate to rob the next ship.</p><p><img src='run_exp/static/images/tutorial/pirates_all_crop.png' height='200'></p><p>Then, you'll see if the pirate successfully robbed the ship of their gold. If they were successful, then you'll get a stack of gold coins like this:</p><p><img src='run_exp/static/images/tutorial/reward.png' height='150'></p><p> If they were <b>not</b> successful, then you'll get no gold coins, and you'll see a big red x like this: </p><p><img src='run_exp/static/images/tutorial/reward_no.png' height='150'></p><p> How much bonus money you make is based on how many gold coins you collect.</p<p><b>[Press the space bar to continue]</b></p></div>","32","","","","","","","","","","","","","","","","","","","","","","",""
"","instruc5","10","121927","0.0-10.0","""event"",""trial"",""time""
""fullscreenenter"",""0"",""8400""
","
","
","""event"",""trial"",""time""
""fullscreenenter"",""0"",""8400""
","
","20237.899999976158","run_exp/static/audio/clip_5_probabilistic.m4a","49","","","","","<div class='center'><p>Even the most skilled pirate can not rob EVERY ship.</p><p> Some ships will have very strong protections against pirate attacks.</p><p> Blue beard, here, is very, very good at robbing ships, but he won't be successful every time he tries to rob one.</p><p> You can press the <b>‘1’</b> key on the keyboard to choose him.</p><p> Try choosing him 10 times to see how often he succeeds at robbing a ship. </p><p><img src='run_exp/static/images/tutorial/blue.png' height='500'></p></div>","","","","","","","","","","","","","","","","","",""
"","html-keyboard-response","11","123436","0.0-11.0","""event"",""trial"",""time""
""fullscreenenter"",""0"",""8400""
","
","
","""event"",""trial"",""time""
""fullscreenenter"",""0"",""8400""
","
","null","<div class='center'><p><img src='run_exp/static/images/tutorial/blue_win.png' height='500'></p></div>","null","","","","","","","","","","","","","","","","","","","","","","",""
"","html-keyboard-response","12","124847","0.0-12.0","""event"",""trial"",""time""
""fullscreenenter"",""0"",""8400""
","
","
","""event"",""trial"",""time""
""fullscreenenter"",""0"",""8400""
","
","1409.5","<div class='center'><img src='run_exp/static/images/tutorial/blue.png' height='500'></p></div>","49","","","","","","","","","","","","","","","","","","","","","","",""
"","html-keyboard-response","13","126351","0.0-13.0","""event"",""trial"",""time""
""fullscreenenter"",""0"",""8400""
","
","
","""event"",""trial"",""time""
""fullscreenenter"",""0"",""8400""
","
","null","<div class='center'><p><img src='run_exp/static/images/tutorial/blue_win.png' height='500'></p></div>","null","","","","","","","","","","","","","","","","","","","","","","",""
"","html-keyboard-response","14","126957","0.0-14.0","""event"",""trial"",""time""
""fullscreenenter"",""0"",""8400""
","
","
","""event"",""trial"",""time""
""fullscreenenter"",""0"",""8400""
","
","604.8999999761581","<div class='center'><img src='run_exp/static/images/tutorial/blue.png' height='500'></p></div>","49","","","","","","","","","","","","","","","","","","","","","","",""
"","html-keyboard-response","15","128471","0.0-15.0","""event"",""trial"",""time""
""fullscreenenter"",""0"",""8400""
","
","
","""event"",""trial"",""time""
""fullscreenenter"",""0"",""8400""
","
","null","<div class='center'><p><img src='run_exp/static/images/tutorial/blue_win.png' height='500'></p></div>","null","","","","","","","","","","","","","","","","","","","","","","",""
"","html-keyboard-response","16","128997","0.0-16.0","""event"",""trial"",""time""
""fullscreenenter"",""0"",""8400""
","
","
","""event"",""trial"",""time""
""fullscreenenter"",""0"",""8400""
","
","525.1000000238419","<div class='center'><img src='run_exp/static/images/tutorial/blue.png' height='500'></p></div>","49","","","","","","","","","","","","","","","","","","","","","","",""
"","html-keyboard-response","17","130501","0.0-17.0","""event"",""trial"",""time""
""fullscreenenter"",""0"",""8400""
","
","
","""event"",""trial"",""time""
""fullscreenenter"",""0"",""8400""
","
","null","<div class='center'><p><img src='run_exp/static/images/tutorial/blue_no_win.png' height='500'></p></div>","null","","","","","","","","","","","","","","","","","","","","","","",""
"","html-keyboard-response","18","130907","0.0-18.0","""event"",""trial"",""time""
""fullscreenenter"",""0"",""8400""
","
","
","""event"",""trial"",""time""
""fullscreenenter"",""0"",""8400""
","
","404.39999997615814","<div class='center'><img src='run_exp/static/images/tutorial/blue.png' height='500'></p></div>","49","","","","","","","","","","","","","","","","","","","","","","",""
"","html-keyboard-response","19","132417","0.0-19.0","""event"",""trial"",""time""
""fullscreenenter"",""0"",""8400""
","
","
","""event"",""trial"",""time""
""fullscreenenter"",""0"",""8400""
","
","null","<div class='center'><p><img src='run_exp/static/images/tutorial/blue_win.png' height='500'></p></div>","null","","","","","","","","","","","","","","","","","","","","","","",""
"","html-keyboard-response","20","133457","0.0-20.0","""event"",""trial"",""time""
""fullscreenenter"",""0"",""8400""
","
","
","""event"",""trial"",""time""
""fullscreenenter"",""0"",""8400""
","
","1038.5","<div class='center'><img src='run_exp/static/images/tutorial/blue.png' height='500'></p></div>","49","","","","","","","","","","","","","","","","","","","","","","",""
"","html-keyboard-response","21","134961","0.0-21.0","""event"",""trial"",""time""
""fullscreenenter"",""0"",""8400""
","
","
","""event"",""trial"",""time""
""fullscreenenter"",""0"",""8400""
","
","null","<div class='center'><p><img src='run_exp/static/images/tutorial/blue_win.png' height='500'></p></div>","null","","","","","","","","","","","","","","","","","","","","","","",""
"","html-keyboard-response","22","135287","0.0-22.0","""event"",""trial"",""time""
""fullscreenenter"",""0"",""8400""
","
","
","""event"",""trial"",""time""
""fullscreenenter"",""0"",""8400""
","
","324.89999997615814","<div class='center'><img src='run_exp/static/images/tutorial/blue.png' height='500'></p></div>","49","","","","","","","","","","","","","","","","","","","","","","",""
"","html-keyboard-response","23","136796","0.0-23.0","""event"",""trial"",""time""
""fullscreenenter"",""0"",""8400""
","
","
","""event"",""trial"",""time""
""fullscreenenter"",""0"",""8400""
","
","null","<div class='center'><p><img src='run_exp/static/images/tutorial/blue_win.png' height='500'></p></div>","null","","","","","","","","","","","","","","","","","","","","","","",""
"","html-keyboard-response","24","137327","0.0-24.0","""event"",""trial"",""time""
""fullscreenenter"",""0"",""8400""
","
","
","""event"",""trial"",""time""
""fullscreenenter"",""0"",""8400""
","
","529.7999999523163","<div class='center'><img src='run_exp/static/images/tutorial/blue.png' height='500'></p></div>","49","","","","","","","","","","","","","","","","","","","","","","",""
"","html-keyboard-response","25","138836","0.0-25.0","""event"",""trial"",""time""
""fullscreenenter"",""0"",""8400""
","
","
","""event"",""trial"",""time""
""fullscreenenter"",""0"",""8400""
","
","null","<div class='center'><p><img src='run_exp/static/images/tutorial/blue_no_win.png' height='500'></p></div>","null","","","","","","","","","","","","","","","","","","","","","","",""
"","html-keyboard-response","26","139257","0.0-26.0","""event"",""trial"",""time""
""fullscreenenter"",""0"",""8400""
","
","
","""event"",""trial"",""time""
""fullscreenenter"",""0"",""8400""
","
","419.7999999523163","<div class='center'><img src='run_exp/static/images/tutorial/blue.png' height='500'></p></div>","49","","","","","","","","","","","","","","","","","","","","","","",""
"","html-keyboard-response","27","140772","0.0-27.0","""event"",""trial"",""time""
""fullscreenenter"",""0"",""8400""
","
","
","""event"",""trial"",""time""
""fullscreenenter"",""0"",""8400""
","
","null","<div class='center'><p><img src='run_exp/static/images/tutorial/blue_win.png' height='500'></p></div>","null","","","","","","","","","","","","","","","","","","","","","","",""
"","html-keyboard-response","28","141197","0.0-28.0","""event"",""trial"",""time""
""fullscreenenter"",""0"",""8400""
","
","
","""event"",""trial"",""time""
""fullscreenenter"",""0"",""8400""
","
","423.8000000715256","<div class='center'><img src='run_exp/static/images/tutorial/blue.png' height='500'></p></div>","49","","","","","","","","","","","","","","","","","","","","","","",""
"","html-keyboard-response","29","142712","0.0-29.0","""event"",""trial"",""time""
""fullscreenenter"",""0"",""8400""
","
","
","""event"",""trial"",""time""
""fullscreenenter"",""0"",""8400""
","
","null","<div class='center'><p><img src='run_exp/static/images/tutorial/blue_win.png' height='500'></p></div>","null","","","","","","","","","","","","","","","","","","","","","","",""
"","instruc6","30","148279","0.0-30.0","""event"",""trial"",""time""
""fullscreenenter"",""0"",""8400""
","
","
","""event"",""trial"",""time""
""fullscreenenter"",""0"",""8400""
","
","null","run_exp/static/audio/clip_6_blue_beard_outcome.m4a","null","","","","","<div class='center'><p> See, he succeeded in robbing the ships most of the time but not every time. </p></div>","","","","","","","","","","","","","","","","","",""
"","html-keyboard-response","31","149157","0.0-31.0","""event"",""trial"",""time""
""fullscreenenter"",""0"",""8400""
","
","
","""event"",""trial"",""time""
""fullscreenenter"",""0"",""8400""
","
","877","<div class='center'><p> See, he succeeded in robbing the ships most of the time but not every time. </p><p><b>[Press the space bar to continue]</b></p></div>","32","","","","","","","","","","","","","","","","","","","","","","",""
"","audio-keyboard-response","32","161289","0.0-32.0","""event"",""trial"",""time""
""fullscreenenter"",""0"",""8400""
","
","
","""event"",""trial"",""time""
""fullscreenenter"",""0"",""8400""
","
","12128.800000071526","run_exp/static/audio/clip_7_pick_pirate.m4a","49","","","","","","","","","","","","","","","","","","","","","","",""
"","audio-keyboard-response","33","164768","0.0-33.0-0.0","""event"",""trial"",""time""
""fullscreenenter"",""0"",""8400""
","
","
","""event"",""trial"",""time""
""fullscreenenter"",""0"",""8400""
","
","3477","run_exp/static/audio/clip_8_chosen_pirate_win.m4a","32","","","","","","","","","","","","","","","","","","","","","","",""
"","audio-keyboard-response","34","165659","0.0-33.0-1.0","""event"",""trial"",""time""
""fullscreenenter"",""0"",""8400""
","
","
","""event"",""trial"",""time""
""fullscreenenter"",""0"",""8400""
","
","888.6000000238419","run_exp/static/audio/clip_9_pick_a_pirate_again.m4a","50","","","","","","","","","","","","","","","","","","","","","","",""
"","audio-keyboard-response","35","169598","0.0-34.0-0.0","""event"",""trial"",""time""
""fullscreenenter"",""0"",""8400""
","
","
","""event"",""trial"",""time""
""fullscreenenter"",""0"",""8400""
","
","3937.399999976158","run_exp/static/audio/clip_10_chosen_pirate_loss.m4a","32","","","","","","","","","","","","","","","","","","","","","","",""
"","instruc9","36","175080","0.0-35.0-0.0","""event"",""trial"",""time""
""fullscreenenter"",""0"",""8400""
","
","
","""event"",""trial"",""time""
""fullscreenenter"",""0"",""8400""
","
","null","run_exp/static/audio/clip_11_time_out.m4a","null","","","","","<div class='center'><p>If you don’t make your choice fast enough, you’ll have to wait a few seconds before you can make another one. </p><p><img src='run_exp/static/images/miscellaneous/hurry_up.png' height='500'></p></div>","","","","","","","","","","","","","","","","","",""
"","html-keyboard-response","37","175838","0.0-35.0-1.0","""event"",""trial"",""time""
""fullscreenenter"",""0"",""8400""
","
","
","""event"",""trial"",""time""
""fullscreenenter"",""0"",""8400""
","
","756.2999999523163","<div class='center'><p>If you don’t make your choice fast enough, you’ll have to wait a few seconds before you can make another one. </p><p><img src='run_exp/static/images/miscellaneous/hurry_up.png' height='500'></p><p><b>[Press the space bar to continue]</b></p></div>","32","","","","","","","","","","","","","","","","","","","","","","",""
"","instruc10","38","214923","0.0-35.0-2.0","""event"",""trial"",""time""
""fullscreenenter"",""0"",""8400""
","
","
","""event"",""trial"",""time""
""fullscreenenter"",""0"",""8400""
","
","null","run_exp/static/audio/clip_12_probe.m4a","null","","","","","<div class='center'><p>Once you've chosen a pirate, you’ll be shown the ship they are robbing. You will never rob the same ship twice. Ships can be told apart from one another by the image on them. These are the goods that they sell. See, this ship has a travel mug on it. </p><p> You’ll have to remember which island you saw each ship on. You will win more gold coins and hence more bonus money if you remember correctly! To help you remember, you can imagine a story. For example, here, you could imagine a mug full of water in the desert. Or, as another example, if on the forest island, your pirate robbed a ship with an apple on it, you could imagine an apple falling from a tree in the forest. </p><p><img src='run_exp/static/images/tutorial/example_probe.png' height='500'></p></div>","","","","","","","","","","","","","","","","","",""
"","html-keyboard-response","39","215319","0.0-35.0-3.0","""event"",""trial"",""time""
""fullscreenenter"",""0"",""8400""
","
","
","""event"",""trial"",""time""
""fullscreenenter"",""0"",""8400""
","
","392","<div class='center'><p>Once you've chosen a pirate, you’ll be shown the ship they are robbing. You will never rob the same ship twice. Ships can be told apart from one another by the image on them. These are the goods that they sell. See, this ship has a travel mug on it. </p><p> You’ll have to remember which island you saw each ship on. You will win more gold coins and hence more bonus money if you remember correctly! To help you remember, you can imagine a story. For example, here, you could imagine a mug full of water in the desert. Or, as another example, if on the forest island, your pirate robbed a ship with an apple on it, you could imagine an apple falling from a tree in the forest. </p><p><img src='run_exp/static/images/tutorial/example_probe.png' height='500'></p><p><b>[Press the space bar to continue]</b></p></div>","32","","","","","","","","","","","","","","","","","","","","","","",""
"","instruc11","40","231719","0.0-35.0-4.0","""event"",""trial"",""time""
""fullscreenenter"",""0"",""8400""
","
","
","""event"",""trial"",""time""
""fullscreenenter"",""0"",""8400""
","
","null","run_exp/static/audio/clip_13_changepoint.m4a","null","","","","","<div class='center'><p>How successful a pirate is at robbing ships will depend on the island you’re on.</p><p> A pirate may have visited this island many times before and gained a lot of practice robbing ships there.</p><p>So, they’re more likely to be successful than a pirate who has never visited the island before.</p></div>","","","","","","","","","","","","","","","","","",""
"","html-keyboard-response","41","232466","0.0-35.0-5.0","""event"",""trial"",""time""
""fullscreenenter"",""0"",""8400""
","
","
","""event"",""trial"",""time""
""fullscreenenter"",""0"",""8400""
","
","743","<div class='center'><p>How successful a pirate is at robbing ships will depend on the island you’re on.</p><p> A pirate may have visited this island many times before and gained a lot of practice robbing ships there.</p><p>So, they’re more likely to be successful than a pirate who has never visited the island before.</p><p><b>[Press the space bar to continue]</b></p></div>","32","","","","","","","","","","","","","","","","","","","","","","",""
"","instruc12","42","273560","0.0-35.0-6.0","""event"",""trial"",""time""
""fullscreenenter"",""0"",""8400""
","
","
","""event"",""trial"",""time""
""fullscreenenter"",""0"",""8400""
","
","null","run_exp/static/audio/clip_14_drift.m4a","null","","","","","<div class='center'><p>How successful a pirate is at robbing ships can also change over the time spent on the island. </p><p> Ships may hear from islanders about the pirates coming and will improve their protections against the attack. This may make it harder to rob them.</p><p> Ships may also become lazy and weaken the strength of their protections. This may make it easier to rob them.</p><br><p>Things are always changing on the high seas! So, try your best to pay attention!</p><p><img src='run_exp/static/images/tutorial/contingency.png' height='500'></p></div>","","","","","","","","","","","","","","","","","",""
"","html-keyboard-response","43","275653","0.0-35.0-7.0","""event"",""trial"",""time""
""fullscreenenter"",""0"",""8400""
","
","
","""event"",""trial"",""time""
""fullscreenenter"",""0"",""8400""
","
","2088","<div class='center'><p>How successful a pirate is at robbing ships can also change over the time spent on the island. </p><p> Ships may hear from islanders about the pirates coming and will improve their protections against the attack. This may make it harder to rob them.</p><p> Ships may also become lazy and weaken the strength of their protections. This may make it easier to rob them.</p><br><p>Things are always changing on the high seas! So, try your best to pay attention!</p><p><img src='run_exp/static/images/tutorial/contingency.png' height='500'></p><p><b>[Press the space bar to continue]</b></p></div>","32","","","","","","","","","","","","","","","","","","","","","","",""
"","instruc13","44","310839","0.0-35.0-8.0","""event"",""trial"",""time""
""fullscreenenter"",""0"",""8400""
","
","
","""event"",""trial"",""time""
""fullscreenenter"",""0"",""8400""
","
","null","run_exp/static/audio/clip_15_summary.m4a","null","","","","","<div class='center'><p>Let's go over the instructions quickly again. You have two important things to do: </p><b><p> 1. Pick the pirate who is the best at robbing ships on the current island. </p></b><b><p> 2. Remember on which island a ship was robbed.</p> </b><p>The amount of bonus money you can win depends on both.</p><p><br><p>Let’s try a practice game. The game will start by showing you the pirates. First, pick a pirate using the <b> 1, 2, 3 </b> keys on your keyboard. When you are shown a ship, try to remember which island you’re on by making up a story.</p><p>This is just a practice game, so you’re not playing for money. </p><p> Good luck! This game will be very difficult but try your best!</p></div>","","","","","","","","","","","","","","","","","",""
"","html-keyboard-response","45","310967","0.0-35.0-9.0","""event"",""trial"",""time""
""fullscreenenter"",""0"",""8400""
","
","
","""event"",""trial"",""time""
""fullscreenenter"",""0"",""8400""
","
","124.5","<div class='center'><p>Let's go over the instructions quickly again. You have two important things to do: </p><b><p> 1. Pick the pirate who is the best at robbing ships on the current island. </p></b><b><p> 2. Remember on which island a ship was robbed.</p> </b><p>The amount of bonus money you can win depends on both.</p><p><br><p>Let’s try a practice game. The game will start by showing you the pirates. First, pick a pirate using the <b> 1, 2, 3 </b> keys on your keyboard. When you are shown a ship, try to remember which island you’re on by making up a story.</p><p>This is just a practice game, so you’re not playing for money. </p><p> Good luck! This game will be very difficult but try your best!</p><p><b>[Press the space bar to continue]</b></p></div>","32","","","","","","","","","","","","","","","","","","","","","","",""
"","do_welcome","46","315007","0.0-35.0-10.0","""event"",""trial"",""time""
""fullscreenenter"",""0"",""8400""
","
","
","""event"",""trial"",""time""
""fullscreenenter"",""0"",""8400""
","
","null","","","","","","","","null","","","","","","","","","","","","","","","","",""
"","do_trial","47","321487","0.0-35.0-11.0","""event"",""trial"",""time""
""fullscreenenter"",""0"",""8400""
","
","
","""event"",""trial"",""time""
""fullscreenenter"",""0"",""8400""
","
","1947.8999999761581","","","","","","","","49","1,0,0","","","","","","","","","","","","","","","",""
"","html-keyboard-response","48","322507","0.0-36.0-0.0","""event"",""trial"",""time""
""fullscreenenter"",""0"",""8400""
","
","
","""event"",""trial"",""time""
""fullscreenenter"",""0"",""8400""
","
","null","<p></p>","null","","","","","","","","","","","","","","","","","","","","","","",""
"","do_trial","49","327791","0.0-36.0-1.0","""event"",""trial"",""time""
""fullscreenenter"",""0"",""8400""
","
","
","""event"",""trial"",""time""
""fullscreenenter"",""0"",""8400""
","
","745","","","","","","","","50","1,1,0","","","","","","","","","","","","","","","",""
"","html-keyboard-response","50","328794","0.0-37.0-0.0","""event"",""trial"",""time""
""fullscreenenter"",""0"",""8400""
","
","
","""event"",""trial"",""time""
""fullscreenenter"",""0"",""8400""
","
","null","<p></p>","null","","","","","","","","","","","","","","","","","","","","","","",""
"","do_trial","51","333801","0.0-37.0-1.0","""event"",""trial"",""time""
""fullscreenenter"",""0"",""8400""
","
","
","""event"",""trial"",""time""
""fullscreenenter"",""0"",""8400""
","
","490","","","","","","","","51","1,0,1","","","","","","","","","","","","","","","",""
"","html-keyboard-response","52","334813","0.0-38.0-0.0","""event"",""trial"",""time""
""fullscreenenter"",""0"",""8400""
","
","
","""event"",""trial"",""time""
""fullscreenenter"",""0"",""8400""
","
","null","<p></p>","null","","","","","","","","","","","","","","","","","","","","","","",""
"","do_trial","53","340840","0.0-38.0-1.0","""event"",""trial"",""time""
""fullscreenenter"",""0"",""8400""
","
","
","""event"",""trial"",""time""
""fullscreenenter"",""0"",""8400""
","
","null","","","","","","","","null","0,1,0","","","","","","","","","","","","","","","",""
"","html-keyboard-response","54","341857","0.0-39.0-0.0","""event"",""trial"",""time""
""fullscreenenter"",""0"",""8400""
","
","
","""event"",""trial"",""time""
""fullscreenenter"",""0"",""8400""
","
","null","<p></p>","null","","","","","","","","","","","","","","","","","","","","","","",""
"","do_trial","55","347076","0.0-39.0-1.0","""event"",""trial"",""time""
""fullscreenenter"",""0"",""8400""
","
","
","""event"",""trial"",""time""
""fullscreenenter"",""0"",""8400""
","
","706.3999999761581","","","","","","","","49","0,1,0","","","","","","","","","","","","","","","",""
"","html-keyboard-response","56","348092","0.0-40.0-0.0","""event"",""trial"",""time""
""fullscreenenter"",""0"",""8400""
","
","
","""event"",""trial"",""time""
""fullscreenenter"",""0"",""8400""
","
","null","<p></p>","null","","","","","","","","","","","","","","","","","","","","","","",""
"","do_trial","57","353912","0.0-40.0-1.0","""event"",""trial"",""time""
""fullscreenenter"",""0"",""8400""
","
","
","""event"",""trial"",""time""
""fullscreenenter"",""0"",""8400""
","
","1300.1000000238419","","","","","","","","50","1,0,0","","","","","","","","","","","","","","","",""
"","do_bye","58","355423","0.0-41.0-0.0","""event"",""trial"",""time""
""fullscreenenter"",""0"",""8400""
","
","
","""event"",""trial"",""time""
""fullscreenenter"",""0"",""8400""
","
","null","","","","","","","","null","","","","","","","","","","","","","","","","",""
"","do_travel","59","364452","0.0-41.0-1.0","""event"",""trial"",""time""
""fullscreenenter"",""0"",""8400""
","
","
","""event"",""trial"",""time""
""fullscreenenter"",""0"",""8400""
","
","null","","","","","","","","null","","","","","","","","","","","","","","","","",""
"","do_welcome","60","368476","0.0-41.0-2.0","""event"",""trial"",""time""
""fullscreenenter"",""0"",""8400""
","
","
","""event"",""trial"",""time""
""fullscreenenter"",""0"",""8400""
","
","null","","","","","","","","null","","","","","","","","","","","","","","","","",""
"","do_trial","61","374036","0.0-41.0-3.0","""event"",""trial"",""time""
""fullscreenenter"",""0"",""8400""
","
","
","""event"",""trial"",""time""
""fullscreenenter"",""0"",""8400""
","
","1046.3999999761581","","","","","","","","49","1,0,0","","","","","","","","","","","","","","","",""
"","html-keyboard-response","62","375055","0.0-42.0-0.0","""event"",""trial"",""time""
""fullscreenenter"",""0"",""8400""
","
","
","""event"",""trial"",""time""
""fullscreenenter"",""0"",""8400""
","
","null","<p></p>","null","","","","","","","","","","","","","","","","","","","","","","",""
"","do_trial","63","379833","0.0-42.0-1.0","""event"",""trial"",""time""
""fullscreenenter"",""0"",""8400""
","
","
","""event"",""trial"",""time""
""fullscreenenter"",""0"",""8400""
","
","263.5","","","","","","","","50","1,0,1","","","","","","","","","","","","","","","",""
"","html-keyboard-response","64","380847","0.0-43.0-0.0","""event"",""trial"",""time""
""fullscreenenter"",""0"",""8400""
","
","
","""event"",""trial"",""time""
""fullscreenenter"",""0"",""8400""
","
","null","<p></p>","null","","","","","","","","","","","","","","","","","","","","","","",""
"","do_trial","65","386004","0.0-43.0-1.0","""event"",""trial"",""time""
""fullscreenenter"",""0"",""8400""
","
","
","""event"",""trial"",""time""
""fullscreenenter"",""0"",""8400""
","
","625.5","","","","","","","","51","1,1,0","","","","","","","","","","","","","","","",""
"","html-keyboard-response","66","387017","0.0-44.0-0.0","""event"",""trial"",""time""
""fullscreenenter"",""0"",""8400""
","
","
","""event"",""trial"",""time""
""fullscreenenter"",""0"",""8400""
","
","null","<p></p>","null","","","","","","","","","","","","","","","","","","","","","","",""
"","do_trial","67","392731","0.0-44.0-1.0","""event"",""trial"",""time""
""fullscreenenter"",""0"",""8400""
","
","
","""event"",""trial"",""time""
""fullscreenenter"",""0"",""8400""
","
","1190.7999999523163","","","","","","","","49","0,0,1","","","","","","","","","","","","","","","",""
"","html-keyboard-response","68","393745","0.0-45.0-0.0","""event"",""trial"",""time""
""fullscreenenter"",""0"",""8400""
","
","
","""event"",""trial"",""time""
""fullscreenenter"",""0"",""8400""
","
","null","<p></p>","null","","","","","","","","","","","","","","","","","","","","","","",""
"","do_trial","69","398782","0.0-45.0-1.0","""event"",""trial"",""time""
""fullscreenenter"",""0"",""8400""
","
","
","""event"",""trial"",""time""
""fullscreenenter"",""0"",""8400""
","
","524","","","","","","","","50","1,0,1","","","","","","","","","","","","","","","",""
"","html-keyboard-response","70","401394","0.0-46.0-0.0","""event"",""trial"",""time""
""fullscreenenter"",""0"",""8400""
","
","
","""event"",""trial"",""time""
""fullscreenenter"",""0"",""8400""
","
","2608.600000023842","<div class='center'><p><img src='run_exp/static/images/tutorial/prac_best_pirate.png'  height='500'></p></div>","51","","","","","","","","","","","","","","","","","","","","","","",""
"","html-keyboard-response","71","403216","0.0-47.0-0.0","""event"",""trial"",""time""
""fullscreenenter"",""0"",""8400""
","
","
","""event"",""trial"",""time""
""fullscreenenter"",""0"",""8400""
","
","1820.6000000238419","<div class='center'><p>That's incorrect! Red beard was the best.</p><p><b>[Press the space bar to continue]</b></p></div>","32","","","","","","","","","","","","","","","","","","","","","","",""
"","html-keyboard-response","72","408817","0.0-47.0-1.0","""event"",""trial"",""time""
""fullscreenenter"",""0"",""8400""
","
","
","""event"",""trial"",""time""
""fullscreenenter"",""0"",""8400""
","
","5598.199999928474","<div class='center'><p><img src='run_exp/static/images/tutorial/prac_source.png'  height='500'></p></div>","50","","","","","","","","","","","","","","","","","","","","","","",""
"","html-keyboard-response","73","410256","0.0-48.0-0.0","""event"",""trial"",""time""
""fullscreenenter"",""0"",""8400""
","
","
","""event"",""trial"",""time""
""fullscreenenter"",""0"",""8400""
","
","1434.6000000238419","<div class='center'><p>That's correct! You saw this ship on the cavern island.</p><p><b>[Press the space bar to continue]</b></p></div>","32","","","","","","","","","","","","","","","","","","","","","","",""
"","quiz_beginning","74","421696","0.0-48.0-1.0","""event"",""trial"",""time""
""fullscreenenter"",""0"",""8400""
","
","
","""event"",""trial"",""time""
""fullscreenenter"",""0"",""8400""
","
","null","run_exp/static/audio/clip_16_quiz_intro.m4a","null","","","","","<div class='center'><p>Good job on the practice game! Now, you will be asked some true or false questions to make sure you really understand the rules of the game.</p><p> Press <b>'1'</b> on the keyboard for true and press <b>'2'</b> for false.</p></div>","","","","","","","","","","","","","","","","","",""
"","audio-keyboard-response","75","431527","0.0-48.0-2.0","""event"",""trial"",""time""
""fullscreenenter"",""0"",""8400""
","
","
","""event"",""trial"",""time""
""fullscreenenter"",""0"",""8400""
","
","9825.799999952316","run_exp/static/audio/clip_17_q1.m4a","49","","","","","","","","","","","","","","","","","","","","","","",""
"","correct","76","433933","0.0-49.0-0.0","""event"",""trial"",""time""
""fullscreenenter"",""0"",""8400""
","
","
","""event"",""trial"",""time""
""fullscreenenter"",""0"",""8400""
","
","null","run_exp/static/audio/clip_18_correct.m4a","null","","","","","<div class='center'><p>That's correct!</p></div>","","","","","","","","","","","","","","","","","",""
"","html-keyboard-response","77","435015","0.0-49.0-1.0","""event"",""trial"",""time""
""fullscreenenter"",""0"",""8400""
","
","
","""event"",""trial"",""time""
""fullscreenenter"",""0"",""8400""
","
","1080.3999999761581","<div class='center'><p>That's correct!</p><p><b>[Press the space bar to continue]</b></p></div>","32","","","","","","","","","","","","","","","","","","","","","","",""
"","audio-keyboard-response","78","443235","0.0-49.0-2.0","""event"",""trial"",""time""
""fullscreenenter"",""0"",""8400""
","
","
","""event"",""trial"",""time""
""fullscreenenter"",""0"",""8400""
","
","8218","run_exp/static/audio/clip_20_q2.m4a","49","","","","","","","","","","","","","","","","","","","","","","",""
"","q2_err","79","448735","0.0-50.0-0.0","""event"",""trial"",""time""
""fullscreenenter"",""0"",""8400""
","
","
","""event"",""trial"",""time""
""fullscreenenter"",""0"",""8400""
","
","null","run_exp/static/audio/clip_21_wrong_q2.m4a","null","","","","","<div class='center'><p>That’s incorrect. Which pirate is the best may change during your time on the island.</p></div>","","","","","","","","","","","","","","","","","",""
"","html-keyboard-response","80","449655","0.0-50.0-1.0","""event"",""trial"",""time""
""fullscreenenter"",""0"",""8400""
","
","
","""event"",""trial"",""time""
""fullscreenenter"",""0"",""8400""
","
","917.2000000476837","<div class='center'><p>That’s incorrect. Which pirate is the best may change during your time on the island.</p><p><b>[Press the space bar to continue]</b></p></div>","32","","","","","","","","","","","","","","","","","","","","","","",""
"","audio-keyboard-response","81","455016","0.0-50.0-2.0","""event"",""trial"",""time""
""fullscreenenter"",""0"",""8400""
","
","
","""event"",""trial"",""time""
""fullscreenenter"",""0"",""8400""
","
","5358.299999952316","run_exp/static/audio/clip_22_q3.m4a","50","","","","","","","","","","","","","","","","","","","","","","",""
"","correct","82","457434","0.0-51.0-0.0","""event"",""trial"",""time""
""fullscreenenter"",""0"",""8400""
","
","
","""event"",""trial"",""time""
""fullscreenenter"",""0"",""8400""
","
","null","run_exp/static/audio/clip_18_correct.m4a","null","","","","","<div class='center'><p>That's correct!</p></div>","","","","","","","","","","","","","","","","","",""
"","html-keyboard-response","83","458155","0.0-51.0-1.0","""event"",""trial"",""time""
""fullscreenenter"",""0"",""8400""
","
","
","""event"",""trial"",""time""
""fullscreenenter"",""0"",""8400""
","
","717.7000000476837","<div class='center'><p>That's correct!</p><p><b>[Press the space bar to continue]</b></p></div>","32","","","","","","","","","","","","","","","","","","","","","","",""
"","audio-keyboard-response","84","463805","0.0-51.0-2.0","""event"",""trial"",""time""
""fullscreenenter"",""0"",""8400""
","
","
","""event"",""trial"",""time""
""fullscreenenter"",""0"",""8400""
","
","5646.399999976158","run_exp/static/audio/clip_24_q4.m4a","49","","","","","","","","","","","","","","","","","","","","","","",""
"","correct","85","466214","0.0-52.0-0.0","""event"",""trial"",""time""
""fullscreenenter"",""0"",""8400""
","
","
","""event"",""trial"",""time""
""fullscreenenter"",""0"",""8400""
","
","null","run_exp/static/audio/clip_18_correct.m4a","null","","","","","<div class='center'><p>That's correct!</p></div>","","","","","","","","","","","","","","","","","",""
"","html-keyboard-response","86","466234","0.0-52.0-1.0","""event"",""trial"",""time""
""fullscreenenter"",""0"",""8400""
","
","
","""event"",""trial"",""time""
""fullscreenenter"",""0"",""8400""
","
","17.899999976158142","<div class='center'><p>That's correct!</p><p><b>[Press the space bar to continue]</b></p></div>","32","","","","","","","","","","","","","","","","","","","","","","",""
"","q_all_err","87","472435","0.0-53.0-0.0","""event"",""trial"",""time""
""fullscreenenter"",""0"",""8400""
","
","
","""event"",""trial"",""time""
""fullscreenenter"",""0"",""8400""
","
","null","run_exp/static/audio/clip_26_quiz_redo.m4a","null","","","","","<div class='center'><p>Oops, you missed some questions. Now that you’ve heard the correct answers. Try the quiz again! </p></div>","","","","","","","","","","","","","","","","","",""
"","html-keyboard-response","88","472493","0.0-53.0-1.0","""event"",""trial"",""time""
""fullscreenenter"",""0"",""8400""
","
","
","""event"",""trial"",""time""
""fullscreenenter"",""0"",""8400""
","
","55.39999997615814","<div class='center'><p>Oops, you missed some questions. Now that you’ve heard the correct answers. Try the quiz again! </p><p><b>[Press the space bar to continue]</b></p></div>","32","","","","","","","","","","","","","","","","","","","","","","",""
"","audio-keyboard-response","89","475655","0.0-53.0-2.0","""event"",""trial"",""time""
""fullscreenenter"",""0"",""8400""
","
","
","""event"",""trial"",""time""
""fullscreenenter"",""0"",""8400""
","
","3161.0999999046326","run_exp/static/audio/clip_17_q1.m4a","49","","","","","","","","","","","","","","","","","","","","","","",""
"","correct","90","478055","0.0-54.0-0.0","""event"",""trial"",""time""
""fullscreenenter"",""0"",""8400""
","
","
","""event"",""trial"",""time""
""fullscreenenter"",""0"",""8400""
","
","null","run_exp/static/audio/clip_18_correct.m4a","null","","","","","<div class='center'><p>That's correct!</p></div>","","","","","","","","","","","","","","","","","",""
"","html-keyboard-response","91","478942","0.0-54.0-1.0","""event"",""trial"",""time""
""fullscreenenter"",""0"",""8400""
","
","
","""event"",""trial"",""time""
""fullscreenenter"",""0"",""8400""
","
","885.5999999046326","<div class='center'><p>That's correct!</p><p><b>[Press the space bar to continue]</b></p></div>","32","","","","","","","","","","","","","","","","","","","","","","",""
"","audio-keyboard-response","92","481025","0.0-54.0-2.0","""event"",""trial"",""time""
""fullscreenenter"",""0"",""8400""
","
","
","""event"",""trial"",""time""
""fullscreenenter"",""0"",""8400""
","
","2080.7000000476837","run_exp/static/audio/clip_20_q2.m4a","50","","","","","","","","","","","","","","","","","","","","","","",""
"","correct","93","483435","0.0-55.0-0.0","""event"",""trial"",""time""
""fullscreenenter"",""0"",""8400""
","
","
","""event"",""trial"",""time""
""fullscreenenter"",""0"",""8400""
","
","null","run_exp/static/audio/clip_18_correct.m4a","null","","","","","<div class='center'><p>That's correct!</p></div>","","","","","","","","","","","","","","","","","",""
"","html-keyboard-response","94","484306","0.0-55.0-1.0","""event"",""trial"",""time""
""fullscreenenter"",""0"",""8400""
","
","
","""event"",""trial"",""time""
""fullscreenenter"",""0"",""8400""
","
","868.6000000238419","<div class='center'><p>That's correct!</p><p><b>[Press the space bar to continue]</b></p></div>","32","","","","","","","","","","","","","","","","","","","","","","",""
"","audio-keyboard-response","95","487664","0.0-55.0-2.0","""event"",""trial"",""time""
""fullscreenenter"",""0"",""8400""
","
","
","""event"",""trial"",""time""
""fullscreenenter"",""0"",""8400""
","
","3355.7999999523163","run_exp/static/audio/clip_22_q3.m4a","50","","","","","","","","","","","","","","","","","","","","","","",""
"","correct","96","490054","0.0-56.0-0.0","""event"",""trial"",""time""
""fullscreenenter"",""0"",""8400""
","
","
","""event"",""trial"",""time""
""fullscreenenter"",""0"",""8400""
","
","null","run_exp/static/audio/clip_18_correct.m4a","null","","","","","<div class='center'><p>That's correct!</p></div>","","","","","","","","","","","","","","","","","",""
"","html-keyboard-response","97","490771","0.0-56.0-1.0","""event"",""trial"",""time""
""fullscreenenter"",""0"",""8400""
","
","
","""event"",""trial"",""time""
""fullscreenenter"",""0"",""8400""
","
","715.7999999523163","<div class='center'><p>That's correct!</p><p><b>[Press the space bar to continue]</b></p></div>","32","","","","","","","","","","","","","","","","","","","","","","",""
"","audio-keyboard-response","98","494956","0.0-56.0-2.0","""event"",""trial"",""time""
""fullscreenenter"",""0"",""8400""
","
","
","""event"",""trial"",""time""
""fullscreenenter"",""0"",""8400""
","
","4181","run_exp/static/audio/clip_24_q4.m4a","49","","","","","","","","","","","","","","","","","","","","","","",""
"","correct","99","497436","0.0-57.0-0.0","""event"",""trial"",""time""
""fullscreenenter"",""0"",""8400""
","
","
","""event"",""trial"",""time""
""fullscreenenter"",""0"",""8400""
","
","null","run_exp/static/audio/clip_18_correct.m4a","null","","","","","<div class='center'><p>That's correct!</p></div>","","","","","","","","","","","","","","","","","",""
"","html-keyboard-response","100","498408","0.0-57.0-1.0","""event"",""trial"",""time""
""fullscreenenter"",""0"",""8400""
","
","
","""event"",""trial"",""time""
""fullscreenenter"",""0"",""8400""
","
","968.3999999761581","<div class='center'><p>That's correct!</p><p><b>[Press the space bar to continue]</b></p></div>","32","","","","","","","","","","","","","","","","","","","","","","",""
"","q_all_corr","101","506897","0.0-58.0-0.0","""event"",""trial"",""time""
""fullscreenenter"",""0"",""8400""
","
","
","""event"",""trial"",""time""
""fullscreenenter"",""0"",""8400""
","
","null","run_exp/static/audio/clip_27_quiz_all_correct.m4a","null","","","","","<div class='center'><p>Good job! You’re now ready to move on to the real game! Remember this game will be difficult but don't get discouraged and try your best!</p></div>","","","","","","","","","","","","","","","","","",""
"","html-keyboard-response","102","507536","0.0-58.0-1.0","""event"",""trial"",""time""
""fullscreenenter"",""0"",""8400""
","
","
","""event"",""trial"",""time""
""fullscreenenter"",""0"",""8400""
","
","635.8000000715256","<div class='center'><p>Good job! You’re now ready to move on to the real game! Remember this game will be difficult but don't get discouraged and try your best!</p><p><b>[Press the space bar to continue]</b></p></div>","32","","","","","","","","","","","","","","","","","","","","","","",""
"","do_welcome","103","511555","0.0-59.0-0.0","""event"",""trial"",""time""
""fullscreenenter"",""0"",""8400""
","
","
","""event"",""trial"",""time""
""fullscreenenter"",""0"",""8400""
","
","null","","","","","","","","null","","","","","","","","","","","","","","","","",""
"","do_trial","104","517315","0.0-60.0-0.0","""event"",""trial"",""time""
""fullscreenenter"",""0"",""8400""
","
","
","""event"",""trial"",""time""
""fullscreenenter"",""0"",""8400""
","
","1180","","","","","","","","49","0,1,0","0","highway","0","probe-218","0.6","0.3","0.1","0","","","","","","","",""
"","html-keyboard-response","105","518340","0.0-60.0-1.0","""event"",""trial"",""time""
""fullscreenenter"",""0"",""8400""
","
","
","""event"",""trial"",""time""
""fullscreenenter"",""0"",""8400""
","
","null","<p></p>","null","","","","","","","","","","","","","","","","","","","","","","",""
"","do_trial","106","523709","0.0-61.0-0.0","""event"",""trial"",""time""
""fullscreenenter"",""0"",""8400""
","
","
","""event"",""trial"",""time""
""fullscreenenter"",""0"",""8400""
","
","819.3999999761581","","","","","","","","49","0,0,1","0","highway","1","probe-58","0.5572060238658755","0.19097165530115917","0.23396216662729818","0","","","","","","","",""
"","html-keyboard-response","107","524720","0.0-61.0-1.0","""event"",""trial"",""time""
""fullscreenenter"",""0"",""8400""
","
","
","""event"",""trial"",""time""
""fullscreenenter"",""0"",""8400""
","
","null","<p></p>","null","","","","","","","","","","","","","","","","","","","","","","",""
"","do_trial","108","529737","0.0-62.0-0.0","""event"",""trial"",""time""
""fullscreenenter"",""0"",""8400""
","
","
","""event"",""trial"",""time""
""fullscreenenter"",""0"",""8400""
","
","453.1999999284744","","","","","","","","51","0,1,0","0","highway","2","probe-155","0.5142950670489759","0.231515086967617","0.1309856999811717","0","","","","","","","",""
"","html-keyboard-response","109","530742","0.0-62.0-1.0","""event"",""trial"",""time""
""fullscreenenter"",""0"",""8400""
","
","
","""event"",""trial"",""time""
""fullscreenenter"",""0"",""8400""
","
","null","<p></p>","null","","","","","","","","","","","","","","","","","","","","","","",""
"","do_trial","110","535624","0.0-63.0-0.0","""event"",""trial"",""time""
""fullscreenenter"",""0"",""8400""
","
","
","""event"",""trial"",""time""
""fullscreenenter"",""0"",""8400""
","
","328.1999999284744","","","","","","","","50","1,1,0","0","highway","3","probe-222","0.49188919311264534","0.2839408739032914","0.11004718959822331","1","","","","","","","",""
"","html-keyboard-response","111","536641","0.0-63.0-1.0","""event"",""trial"",""time""
""fullscreenenter"",""0"",""8400""
","
","
","""event"",""trial"",""time""
""fullscreenenter"",""0"",""8400""
","
","null","<p></p>","null","","","","","","","","","","","","","","","","","","","","","","",""
"","do_trial","112","541710","0.0-64.0-0.0","""event"",""trial"",""time""
""fullscreenenter"",""0"",""8400""
","
","
","""event"",""trial"",""time""
""fullscreenenter"",""0"",""8400""
","
","508.5","","","","","","","","50","0,0,0","0","highway","4","probe-180","0.5779105872628698","0.208067320690013","0.08949022426464001","0","","","","","","","",""
"","html-keyboard-response","113","542717","0.0-64.0-1.0","""event"",""trial"",""time""
""fullscreenenter"",""0"",""8400""
","
","
","""event"",""trial"",""time""
""fullscreenenter"",""0"",""8400""
","
","null","<p></p>","null","","","","","","","","","","","","","","","","","","","","","","",""
"","do_trial","114","547787","0.0-65.0-0.0","""event"",""trial"",""time""
""fullscreenenter"",""0"",""8400""
","
","
","""event"",""trial"",""time""
""fullscreenenter"",""0"",""8400""
","
","511.39999997615814","","","","","","","","50","1,0,0","0","highway","5","probe-210","0.6412942899483446","0.23641105548711752","0.08628429838108473","0","","","","","","","",""
"","html-keyboard-response","115","548794","0.0-65.0-1.0","""event"",""trial"",""time""
""fullscreenenter"",""0"",""8400""
","
","
","""event"",""trial"",""time""
""fullscreenenter"",""0"",""8400""
","
","null","<p></p>","null","","","","","","","","","","","","","","","","","","","","","","",""
"","do_trial","116","553708","0.0-66.0-0.0","""event"",""trial"",""time""
""fullscreenenter"",""0"",""8400""
","
","
","""event"",""trial"",""time""
""fullscreenenter"",""0"",""8400""
","
","355.7000000476837","","","","","","","","51","1,0,0","0","highway","6","probe-121","0.6467959267139776","0.2640792210070363","0.25591681540249367","0","","","","","","","",""
"","html-keyboard-response","117","554725","0.0-66.0-1.0","""event"",""trial"",""time""
""fullscreenenter"",""0"",""8400""
","
","
","""event"",""trial"",""time""
""fullscreenenter"",""0"",""8400""
","
","null","<p></p>","null","","","","","","","","","","","","","","","","","","","","","","",""
"","do_trial","118","559919","0.0-67.0-0.0","""event"",""trial"",""time""
""fullscreenenter"",""0"",""8400""
","
","
","""event"",""trial"",""time""
""fullscreenenter"",""0"",""8400""
","
","566.5","","","","","","","","49","1,1,0","0","highway","7","probe-190","0.699203740443765","0.3446246755998591","0.18066088444676603","1","","","","","","","",""
"","html-keyboard-response","119","560923","0.0-67.0-1.0","""event"",""trial"",""time""
""fullscreenenter"",""0"",""8400""
","
","
","""event"",""trial"",""time""
""fullscreenenter"",""0"",""8400""
","
","null","<p></p>","null","","","","","","","","","","","","","","","","","","","","","","",""
"","do_trial","120","566187","0.0-68.0-0.0","""event"",""trial"",""time""
""fullscreenenter"",""0"",""8400""
","
","
","""event"",""trial"",""time""
""fullscreenenter"",""0"",""8400""
","
","692.8000000715256","","","","","","","","49","1,0,1","0","highway","8","probe-21","0.6231300713183902","0.3077354496724451","0.09063132034333066","1","","","","","","","",""
"","html-keyboard-response","121","567197","0.0-68.0-1.0","""event"",""trial"",""time""
""fullscreenenter"",""0"",""8400""
","
","
","""event"",""trial"",""time""
""fullscreenenter"",""0"",""8400""
","
","null","<p></p>","null","","","","","","","","","","","","","","","","","","","","","","",""
"","do_trial","122","572155","0.0-69.0-0.0","""event"",""trial"",""time""
""fullscreenenter"",""0"",""8400""
","
","
","""event"",""trial"",""time""
""fullscreenenter"",""0"",""8400""
","
","398.7999999523163","","","","","","","","49","1,0,0","0","highway","9","probe-87","0.6616587053109527","0.18477729283522293","0.15281043990971632","1","","","","","","","",""
"","html-keyboard-response","123","573172","0.0-69.0-1.0","""event"",""trial"",""time""
""fullscreenenter"",""0"",""8400""
","
","
","""event"",""trial"",""time""
""fullscreenenter"",""0"",""8400""
","
","null","<p></p>","null","","","","","","","","","","","","","","","","","","","","","","",""
"","do_trial","124","578301","0.0-70.0-0.0","""event"",""trial"",""time""
""fullscreenenter"",""0"",""8400""
","
","
","""event"",""trial"",""time""
""fullscreenenter"",""0"",""8400""
","
","563.7000000476837","","","","","","","","49","1,0,0","0","highway","10","probe-193","0.5544879028752873","0.18249845512893423","0.10449730009845869","1","","","","","","","",""
"","html-keyboard-response","125","579317","0.0-70.0-1.0","""event"",""trial"",""time""
""fullscreenenter"",""0"",""8400""
","
","
","""event"",""trial"",""time""
""fullscreenenter"",""0"",""8400""
","
","null","<p></p>","null","","","","","","","","","","","","","","","","","","","","","","",""
"","do_trial","126","584303","0.0-71.0-0.0","""event"",""trial"",""time""
""fullscreenenter"",""0"",""8400""
","
","
","""event"",""trial"",""time""
""fullscreenenter"",""0"",""8400""
","
","432.39999997615814","","","","","","","","49","1,0,0","0","highway","11","probe-47","0.4353512568015417","0.3430444299816936","0.0942662388298454","1","","","","","","","",""
"","html-keyboard-response","127","585314","0.0-71.0-1.0","""event"",""trial"",""time""
""fullscreenenter"",""0"",""8400""
","
","
","""event"",""trial"",""time""
""fullscreenenter"",""0"",""8400""
","
","null","<p></p>","null","","","","","","","","","","","","","","","","","","","","","","",""
"","do_trial","128","590256","0.0-72.0-0.0","""event"",""trial"",""time""
""fullscreenenter"",""0"",""8400""
","
","
","""event"",""trial"",""time""
""fullscreenenter"",""0"",""8400""
","
","369","","","","","","","","49","1,0,0","0","highway","12","probe-46","0.535634361553069","0.48772724241523707","0.13140533510406768","1","","","","","","","",""
"","html-keyboard-response","129","591272","0.0-72.0-1.0","""event"",""trial"",""time""
""fullscreenenter"",""0"",""8400""
","
","
","""event"",""trial"",""time""
""fullscreenenter"",""0"",""8400""
","
","null","<p></p>","null","","","","","","","","","","","","","","","","","","","","","","",""
"","do_trial","130","596155","0.0-73.0-0.0","""event"",""trial"",""time""
""fullscreenenter"",""0"",""8400""
","
","
","""event"",""trial"",""time""
""fullscreenenter"",""0"",""8400""
","
","305.60000002384186","","","","","","","","49","0,0,0","0","highway","13","probe-50","0.48518654398880695","0.40947358716498294","0.08324572828550678","0","","","","","","","",""
"","html-keyboard-response","131","597171","0.0-73.0-1.0","""event"",""trial"",""time""
""fullscreenenter"",""0"",""8400""
","
","
","""event"",""trial"",""time""
""fullscreenenter"",""0"",""8400""
","
","null","<p></p>","null","","","","","","","","","","","","","","","","","","","","","","",""
"","do_trial","132","602054","0.0-74.0-0.0","""event"",""trial"",""time""
""fullscreenenter"",""0"",""8400""
","
","
","""event"",""trial"",""time""
""fullscreenenter"",""0"",""8400""
","
","328.1999999284744","","","","","","","","49","0,0,0","0","highway","14","probe-24","0.4998803059780336","0.39441988976643105","0.051560818509371005","0","","","","","","","",""
"","html-keyboard-response","133","603070","0.0-74.0-1.0","""event"",""trial"",""time""
""fullscreenenter"",""0"",""8400""
","
","
","""event"",""trial"",""time""
""fullscreenenter"",""0"",""8400""
","
","null","<p></p>","null","","","","","","","","","","","","","","","","","","","","","","",""
"","do_trial","134","608031","0.0-75.0-0.0","""event"",""trial"",""time""
""fullscreenenter"",""0"",""8400""
","
","
","""event"",""trial"",""time""
""fullscreenenter"",""0"",""8400""
","
","386.3000000715256","","","","","","","","49","1,0,0","0","highway","15","probe-111","0.5224166350116681","0.47872778115160564","0.06706932879081513","1","","","","","","","",""
"","html-keyboard-response","135","609040","0.0-75.0-1.0","""event"",""trial"",""time""
""fullscreenenter"",""0"",""8400""
","
","
","""event"",""trial"",""time""
""fullscreenenter"",""0"",""8400""
","
","null","<p></p>","null","","","","","","","","","","","","","","","","","","","","","","",""
"","do_trial","136","614049","0.0-76.0-0.0","""event"",""trial"",""time""
""fullscreenenter"",""0"",""8400""
","
","
","""event"",""trial"",""time""
""fullscreenenter"",""0"",""8400""
","
","446.89999997615814","","","","","","","","49","1,1,0","0","highway","16","probe-154","0.5768396583981509","0.543671771399389","0.07134964448074184","1","","","","","","","",""
"","html-keyboard-response","137","615065","0.0-76.0-1.0","""event"",""trial"",""time""
""fullscreenenter"",""0"",""8400""
","
","
","""event"",""trial"",""time""
""fullscreenenter"",""0"",""8400""
","
","null","<p></p>","null","","","","","","","","","","","","","","","","","","","","","","",""
"","do_trial","138","620191","0.0-77.0-0.0","""event"",""trial"",""time""
""fullscreenenter"",""0"",""8400""
","
","
","""event"",""trial"",""time""
""fullscreenenter"",""0"",""8400""
","
","571.2000000476837","","","","","","","","49","1,0,1","0","highway","17","probe-80","0.5644055391162432","0.5130989945253267","0.06280837366268725","1","","","","","","","",""
"","html-keyboard-response","139","621213","0.0-77.0-1.0","""event"",""trial"",""time""
""fullscreenenter"",""0"",""8400""
","
","
","""event"",""trial"",""time""
""fullscreenenter"",""0"",""8400""
","
","null","<p></p>","null","","","","","","","","","","","","","","","","","","","","","","",""
"","do_trial","140","625949","0.0-78.0-0.0","""event"",""trial"",""time""
""fullscreenenter"",""0"",""8400""
","
","
","""event"",""trial"",""time""
""fullscreenenter"",""0"",""8400""
","
","184.79999995231628","","","","","","","","49","1,1,1","0","highway","18","probe-91","0.6783529235401617","0.47974370505971836","0.0832707634904968","1","","","","","","","",""
"","html-keyboard-response","141","626959","0.0-78.0-1.0","""event"",""trial"",""time""
""fullscreenenter"",""0"",""8400""
","
","
","""event"",""trial"",""time""
""fullscreenenter"",""0"",""8400""
","
","null","<p></p>","null","","","","","","","","","","","","","","","","","","","","","","",""
"","do_trial","142","632245","0.0-79.0-0.0","""event"",""trial"",""time""
""fullscreenenter"",""0"",""8400""
","
","
","""event"",""trial"",""time""
""fullscreenenter"",""0"",""8400""
","
","724.3999999761581","","","","","","","","49","0,0,0","0","highway","19","probe-178","0.5964939998975617","0.23180413215640538","0.06825442997205396","0","","","","","","","",""
"","html-keyboard-response","143","633262","0.0-79.0-1.0","""event"",""trial"",""time""
""fullscreenenter"",""0"",""8400""
","
","
","""event"",""trial"",""time""
""fullscreenenter"",""0"",""8400""
","
","null","<p></p>","null","","","","","","","","","","","","","","","","","","","","","","",""
"","do_trial","144","638671","0.0-80.0-0.0","""event"",""trial"",""time""
""fullscreenenter"",""0"",""8400""
","
","
","""event"",""trial"",""time""
""fullscreenenter"",""0"",""8400""
","
","854.8999999761581","","","","","","","","49","1,1,1","0","highway","20","probe-230","0.6093552655491685","0.2727804828144378","0.09657987718621104","1","","","","","","","",""
"","html-keyboard-response","145","639682","0.0-80.0-1.0","""event"",""trial"",""time""
""fullscreenenter"",""0"",""8400""
","
","
","""event"",""trial"",""time""
""fullscreenenter"",""0"",""8400""
","
","null","<p></p>","null","","","","","","","","","","","","","","","","","","","","","","",""
"","do_trial","146","645381","0.0-81.0-0.0","""event"",""trial"",""time""
""fullscreenenter"",""0"",""8400""
","
","
","""event"",""trial"",""time""
""fullscreenenter"",""0"",""8400""
","
","1146.2999999523163","","","","","","","","49","0,0,0","0","highway","21","probe-92","0.516553673059457","0.33115936091022646","0.10234287862211418","0","","","","","","","",""
"","html-keyboard-response","147","646384","0.0-81.0-1.0","""event"",""trial"",""time""
""fullscreenenter"",""0"",""8400""
","
","
","""event"",""trial"",""time""
""fullscreenenter"",""0"",""8400""
","
","null","<p></p>","null","","","","","","","","","","","","","","","","","","","","","","",""
"","do_trial","148","651304","0.0-82.0-0.0","""event"",""trial"",""time""
""fullscreenenter"",""0"",""8400""
","
","
","""event"",""trial"",""time""
""fullscreenenter"",""0"",""8400""
","
","340.5","","","","","","","","49","0,0,0","0","highway","22","probe-129","0.5309372531747483","0.4100262209962296","0.08242626592566601","0","","","","","","","",""
"","html-keyboard-response","149","652313","0.0-82.0-1.0","""event"",""trial"",""time""
""fullscreenenter"",""0"",""8400""
","
","
","""event"",""trial"",""time""
""fullscreenenter"",""0"",""8400""
","
","null","<p></p>","null","","","","","","","","","","","","","","","","","","","","","","",""
"","do_trial","150","657068","0.0-83.0-0.0","""event"",""trial"",""time""
""fullscreenenter"",""0"",""8400""
","
","
","""event"",""trial"",""time""
""fullscreenenter"",""0"",""8400""
","
","204.79999995231628","","","","","","","","49","0,0,0","0","highway","23","probe-65","0.5128523996663907","0.4344030933733244","0.21835166373046966","0","","","","","","","",""
"","html-keyboard-response","151","658074","0.0-83.0-1.0","""event"",""trial"",""time""
""fullscreenenter"",""0"",""8400""
","
","
","""event"",""trial"",""time""
""fullscreenenter"",""0"",""8400""
","
","null","<p></p>","null","","","","","","","","","","","","","","","","","","","","","","",""
"","do_trial","152","663044","0.0-84.0-0.0","""event"",""trial"",""time""
""fullscreenenter"",""0"",""8400""
","
","
","""event"",""trial"",""time""
""fullscreenenter"",""0"",""8400""
","
","393.2999999523163","","","","","","","","49","1,1,1","0","highway","24","probe-39","0.5801855648691587","0.5169335908087687","0.09579869437913403","1","","","","","","","",""
"","html-keyboard-response","153","664066","0.0-84.0-1.0","""event"",""trial"",""time""
""fullscreenenter"",""0"",""8400""
","
","
","""event"",""trial"",""time""
""fullscreenenter"",""0"",""8400""
","
","null","<p></p>","null","","","","","","","","","","","","","","","","","","","","","","",""
"","do_trial","154","669062","0.0-85.0-0.0","""event"",""trial"",""time""
""fullscreenenter"",""0"",""8400""
","
","
","""event"",""trial"",""time""
""fullscreenenter"",""0"",""8400""
","
","442.09999990463257","","","","","","","","49","0,1,0","0","highway","25","probe-176","0.4051886742788006","0.5470362284892919","0.07179660678135726","0","","","","","","","",""
"","html-keyboard-response","155","670075","0.0-85.0-1.0","""event"",""trial"",""time""
""fullscreenenter"",""0"",""8400""
","
","
","""event"",""trial"",""time""
""fullscreenenter"",""0"",""8400""
","
","null","<p></p>","null","","","","","","","","","","","","","","","","","","","","","","",""
"","do_trial","156","675337","0.0-86.0-0.0","""event"",""trial"",""time""
""fullscreenenter"",""0"",""8400""
","
","
","""event"",""trial"",""time""
""fullscreenenter"",""0"",""8400""
","
","710.7999999523163","","","","","","","","50","1,1,0","0","highway","26","probe-132","0.515895342737738","0.3416236293962481","0.14709781175984213","1","","","","","","","",""
"","html-keyboard-response","157","676344","0.0-86.0-1.0","""event"",""trial"",""time""
""fullscreenenter"",""0"",""8400""
","
","
","""event"",""trial"",""time""
""fullscreenenter"",""0"",""8400""
","
","null","<p></p>","null","","","","","","","","","","","","","","","","","","","","","","",""
"","do_trial","158","681577","0.0-87.0-0.0","""event"",""trial"",""time""
""fullscreenenter"",""0"",""8400""
","
","
","""event"",""trial"",""time""
""fullscreenenter"",""0"",""8400""
","
","678.2999999523163","","","","","","","","50","1,0,1","0","highway","27","probe-173","0.7288503915231919","0.3790269193256776","0.1740862684894681","0","","","","","","","",""
"","html-keyboard-response","159","682586","0.0-87.0-1.0","""event"",""trial"",""time""
""fullscreenenter"",""0"",""8400""
","
","
","""event"",""trial"",""time""
""fullscreenenter"",""0"",""8400""
","
","null","<p></p>","null","","","","","","","","","","","","","","","","","","","","","","",""
"","do_trial","160","687998","0.0-88.0-0.0","""event"",""trial"",""time""
""fullscreenenter"",""0"",""8400""
","
","
","""event"",""trial"",""time""
""fullscreenenter"",""0"",""8400""
","
","849.6999999284744","","","","","","","","50","1,0,0","0","highway","28","probe-112","0.677140690751407","0.15676611860270512","0.20645713764394927","0","","","","","","","",""
"","html-keyboard-response","161","689002","0.0-88.0-1.0","""event"",""trial"",""time""
""fullscreenenter"",""0"",""8400""
","
","
","""event"",""trial"",""time""
""fullscreenenter"",""0"",""8400""
","
","null","<p></p>","null","","","","","","","","","","","","","","","","","","","","","","",""
"","do_trial","162","693918","0.0-89.0-0.0","""event"",""trial"",""time""
""fullscreenenter"",""0"",""8400""
","
","
","""event"",""trial"",""time""
""fullscreenenter"",""0"",""8400""
","
","343.6999999284744","","","","","","","","51","1,0,0","0","highway","29","probe-96","0.606277142704095","0.2434385785776363","0.10985519070150122","0","","","","","","","",""
"","html-keyboard-response","163","694922","0.0-89.0-1.0","""event"",""trial"",""time""
""fullscreenenter"",""0"",""8400""
","
","
","""event"",""trial"",""time""
""fullscreenenter"",""0"",""8400""
","
","null","<p></p>","null","","","","","","","","","","","","","","","","","","","","","","",""
"","do_bye","164","696429","0.0-90.0-0.0","""event"",""trial"",""time""
""fullscreenenter"",""0"",""8400""
","
","
","""event"",""trial"",""time""
""fullscreenenter"",""0"",""8400""
","
","null","","","","","","","","null","","","","","","","","","","","","","","","","",""
"","break","165","696566","0.0-90.0-1.0","""event"",""trial"",""time""
""fullscreenenter"",""0"",""8400""
","
","
","""event"",""trial"",""time""
""fullscreenenter"",""0"",""8400""
","
","133.39999997615814","<div class='center'><p>Time to take a quick break! You have 2 minutes to rest, but you can move on sooner if you'd like.</p><p> Press the <b>space bar</b> to continue.</p></div>","32","","","","","","","","","","","","","","","","","","","","","","",""
"","do_travel","166","705582","0.0-91.0-0.0","""event"",""trial"",""time""
""fullscreenenter"",""0"",""8400""
","
","
","""event"",""trial"",""time""
""fullscreenenter"",""0"",""8400""
","
","null","","","","","","","","null","","","","","","","","","","","","","","","","",""
"","do_welcome","167","709591","0.0-91.0-1.0","""event"",""trial"",""time""
""fullscreenenter"",""0"",""8400""
","
","
","""event"",""trial"",""time""
""fullscreenenter"",""0"",""8400""
","
","null","","","","","","","","null","","","","","","","","","","","","","","","","",""
"","do_trial","168","715162","0.0-92.0-0.0","""event"",""trial"",""time""
""fullscreenenter"",""0"",""8400""
","
","
","""event"",""trial"",""time""
""fullscreenenter"",""0"",""8400""
","
","1006.5","","","","","","","","49","1,0,0","1","countryside","30","probe-59","1","0.29037444960781583","0.1368123999501767","1","","","","","","","",""
"","html-keyboard-response","169","716173","0.0-92.0-1.0","""event"",""trial"",""time""
""fullscreenenter"",""0"",""8400""
","
","
","""event"",""trial"",""time""
""fullscreenenter"",""0"",""8400""
","
","null","<p></p>","null","","","","","","","","","","","","","","","","","","","","","","",""
"","do_trial","170","721129","0.0-93.0-0.0","""event"",""trial"",""time""
""fullscreenenter"",""0"",""8400""
","
","
","""event"",""trial"",""time""
""fullscreenenter"",""0"",""8400""
","
","388","","","","","","","","49","1,0,0","1","countryside","31","probe-78","1","0.29661877739884684","0.05619534090523569","1","","","","","","","",""
"","html-keyboard-response","171","722135","0.0-93.0-1.0","""event"",""trial"",""time""
""fullscreenenter"",""0"",""8400""
","
","
","""event"",""trial"",""time""
""fullscreenenter"",""0"",""8400""
","
","null","<p></p>","null","","","","","","","","","","","","","","","","","","","","","","",""
"","do_trial","172","727841","0.0-94.0-0.0","""event"",""trial"",""time""
""fullscreenenter"",""0"",""8400""
","
","
","""event"",""trial"",""time""
""fullscreenenter"",""0"",""8400""
","
","1151.7999999523163","","","","","","","","49","1,0,0","1","countryside","32","probe-206","1","0.31159586059938327","0.11331707590019416","1","","","","","","","",""
"","html-keyboard-response","173","728846","0.0-94.0-1.0","""event"",""trial"",""time""
""fullscreenenter"",""0"",""8400""
","
","
","""event"",""trial"",""time""
""fullscreenenter"",""0"",""8400""
","
","null","<p></p>","null","","","","","","","","","","","","","","","","","","","","","","",""
"","do_trial","174","733853","0.0-95.0-0.0","""event"",""trial"",""time""
""fullscreenenter"",""0"",""8400""
","
","
","""event"",""trial"",""time""
""fullscreenenter"",""0"",""8400""
","
","451.2999999523163","","","","","","","","49","0,0,1","1","countryside","33","probe-149","0.7617436106796008","0.31870000612638355","0.23410480757824212","0","","","","","","","",""
"","html-keyboard-response","175","734864","0.0-95.0-1.0","""event"",""trial"",""time""
""fullscreenenter"",""0"",""8400""
","
","
","""event"",""trial"",""time""
""fullscreenenter"",""0"",""8400""
","
","null","<p></p>","null","","","","","","","","","","","","","","","","","","","","","","",""
"","do_trial","176","740156","0.0-96.0-0.0","""event"",""trial"",""time""
""fullscreenenter"",""0"",""8400""
","
","
","""event"",""trial"",""time""
""fullscreenenter"",""0"",""8400""
","
","733.1000000238419","","","","","","","","49","0,1,1","1","countryside","34","probe-183","0.5558365250852826","0.40188043211408364","0.24268885425964734","0","","","","","","","",""
"","html-keyboard-response","177","741169","0.0-96.0-1.0","""event"",""trial"",""time""
""fullscreenenter"",""0"",""8400""
","
","
","""event"",""trial"",""time""
""fullscreenenter"",""0"",""8400""
","
","null","<p></p>","null","","","","","","","","","","","","","","","","","","","","","","",""
"","do_trial","178","746207","0.0-97.0-0.0","""event"",""trial"",""time""
""fullscreenenter"",""0"",""8400""
","
","
","""event"",""trial"",""time""
""fullscreenenter"",""0"",""8400""
","
","479.7999999523163","","","","","","","","49","0,1,0","1","countryside","35","probe-83","0.4825797777460344","0.2837158841881945","0.2011800101396322","0","","","","","","","",""
"","html-keyboard-response","179","747220","0.0-97.0-1.0","""event"",""trial"",""time""
""fullscreenenter"",""0"",""8400""
","
","
","""event"",""trial"",""time""
""fullscreenenter"",""0"",""8400""
","
","null","<p></p>","null","","","","","","","","","","","","","","","","","","","","","","",""
"","do_trial","180","752310","0.0-98.0-0.0","""event"",""trial"",""time""
""fullscreenenter"",""0"",""8400""
","
","
","""event"",""trial"",""time""
""fullscreenenter"",""0"",""8400""
","
","528.4000000953674","","","","","","","","50","0,0,0","1","countryside","36","probe-66","0.47851869743978614","0.3123821514782267","0.1387962180721315","0","","","","","","","",""
"","html-keyboard-response","181","753324","0.0-98.0-1.0","""event"",""trial"",""time""
""fullscreenenter"",""0"",""8400""
","
","
","""event"",""trial"",""time""
""fullscreenenter"",""0"",""8400""
","
","null","<p></p>","null","","","","","","","","","","","","","","","","","","","","","","",""
"","do_trial","182","758446","0.0-99.0-0.0","""event"",""trial"",""time""
""fullscreenenter"",""0"",""8400""
","
","
","""event"",""trial"",""time""
""fullscreenenter"",""0"",""8400""
","
","561.5","","","","","","","","51","0,0,0","1","countryside","37","probe-25","0.5353120580878155","0.25747162491151115","0.13697301677950563","0","","","","","","","",""
"","html-keyboard-response","183","759450","0.0-99.0-1.0","""event"",""trial"",""time""
""fullscreenenter"",""0"",""8400""
","
","
","""event"",""trial"",""time""
""fullscreenenter"",""0"",""8400""
","
","null","<p></p>","null","","","","","","","","","","","","","","","","","","","","","","",""
"","do_trial","184","764471","0.0-100.0-0.0","""event"",""trial"",""time""
""fullscreenenter"",""0"",""8400""
","
","
","""event"",""trial"",""time""
""fullscreenenter"",""0"",""8400""
","
","467.1999999284744","","","","","","","","51","1,0,0","1","countryside","38","probe-224","0.6556794107588261","0.30605784884331466","0.14439213938410647","0","","","","","","","",""
"","html-keyboard-response","185","765486","0.0-100.0-1.0","""event"",""trial"",""time""
""fullscreenenter"",""0"",""8400""
","
","
","""event"",""trial"",""time""
""fullscreenenter"",""0"",""8400""
","
","null","<p></p>","null","","","","","","","","","","","","","","","","","","","","","","",""
"","do_trial","186","770626","0.0-101.0-0.0","""event"",""trial"",""time""
""fullscreenenter"",""0"",""8400""
","
","
","""event"",""trial"",""time""
""fullscreenenter"",""0"",""8400""
","
","591.7999999523163","","","","","","","","51","1,0,0","1","countryside","39","probe-170","0.7134834268506819","0.23164913015934904","0.14143939864346552","0","","","","","","","",""
"","html-keyboard-response","187","771634","0.0-101.0-1.0","""event"",""trial"",""time""
""fullscreenenter"",""0"",""8400""
","
","
","""event"",""trial"",""time""
""fullscreenenter"",""0"",""8400""
","
","null","<p></p>","null","","","","","","","","","","","","","","","","","","","","","","",""
"","do_trial","188","777051","0.0-102.0-0.0","""event"",""trial"",""time""
""fullscreenenter"",""0"",""8400""
","
","
","""event"",""trial"",""time""
""fullscreenenter"",""0"",""8400""
","
","834.6000000238419","","","","","","","","51","0,0,0","1","countryside","40","probe-179","0.6684997715385993","0.21325204137285947","0.10023950342098617","0","","","","","","","",""
"","html-keyboard-response","189","778056","0.0-102.0-1.0","""event"",""trial"",""time""
""fullscreenenter"",""0"",""8400""
","
","
","""event"",""trial"",""time""
""fullscreenenter"",""0"",""8400""
","
","null","<p></p>","null","","","","","","","","","","","","","","","","","","","","","","",""
"","do_trial","190","782922","0.0-103.0-0.0","""event"",""trial"",""time""
""fullscreenenter"",""0"",""8400""
","
","
","""event"",""trial"",""time""
""fullscreenenter"",""0"",""8400""
","
","289.10000002384186","","","","","","","","50","0,0,0","1","countryside","41","probe-44","0.6724440825130177","0.26148876137939814","0.2033797056293701","0","","","","","","","",""
"","html-keyboard-response","191","783936","0.0-103.0-1.0","""event"",""trial"",""time""
""fullscreenenter"",""0"",""8400""
","
","
","""event"",""trial"",""time""
""fullscreenenter"",""0"",""8400""
","
","null","<p></p>","null","","","","","","","","","","","","","","","","","","","","","","",""
"","do_trial","192","788818","0.0-104.0-0.0","""event"",""trial"",""time""
""fullscreenenter"",""0"",""8400""
","
","
","""event"",""trial"",""time""
""fullscreenenter"",""0"",""8400""
","
","330.60000002384186","","","","","","","","50","1,1,0","1","countryside","42","probe-101","0.5136798955521642","0.15101536873365837","0.34763852416281654","1","","","","","","","",""
"","html-keyboard-response","193","789828","0.0-104.0-1.0","""event"",""trial"",""time""
""fullscreenenter"",""0"",""8400""
","
","
","""event"",""trial"",""time""
""fullscreenenter"",""0"",""8400""
","
","null","<p></p>","null","","","","","","","","","","","","","","","","","","","","","","",""
"","do_trial","194","794976","0.0-105.0-0.0","""event"",""trial"",""time""
""fullscreenenter"",""0"",""8400""
","
","
","""event"",""trial"",""time""
""fullscreenenter"",""0"",""8400""
","
","597.5","","","","","","","","50","0,0,0","1","countryside","43","probe-158","0.39269533931125816","0.20466582325571964","0.44682877129556714","0","","","","","","","",""
"","html-keyboard-response","195","795982","0.0-105.0-1.0","""event"",""trial"",""time""
""fullscreenenter"",""0"",""8400""
","
","
","""event"",""trial"",""time""
""fullscreenenter"",""0"",""8400""
","
","null","<p></p>","null","","","","","","","","","","","","","","","","","","","","","","",""
"","do_trial","196","801196","0.0-106.0-0.0","""event"",""trial"",""time""
""fullscreenenter"",""0"",""8400""
","
","
","""event"",""trial"",""time""
""fullscreenenter"",""0"",""8400""
","
","640.2000000476837","","","","","","","","50","0,0,0","1","countryside","44","probe-125","0.3794189963091651","0.1997915043319594","0.47042871637367845","0","","","","","","","",""
"","html-keyboard-response","197","802215","0.0-106.0-1.0","""event"",""trial"",""time""
""fullscreenenter"",""0"",""8400""
","
","
","""event"",""trial"",""time""
""fullscreenenter"",""0"",""8400""
","
","null","<p></p>","null","","","","","","","","","","","","","","","","","","","","","","",""
"","do_trial","198","806861","0.0-107.0-0.0","""event"",""trial"",""time""
""fullscreenenter"",""0"",""8400""
","
","
","""event"",""trial"",""time""
""fullscreenenter"",""0"",""8400""
","
","90.30000007152557","","","","","","","","49","0,1,1","1","countryside","45","probe-228","0.3372030056461194","0.26182675617271983","0.5227480717161529","0","","","","","","","",""
"","html-keyboard-response","199","807864","0.0-107.0-1.0","""event"",""trial"",""time""
""fullscreenenter"",""0"",""8400""
","
","
","""event"",""trial"",""time""
""fullscreenenter"",""0"",""8400""
","
","null","<p></p>","null","","","","","","","","","","","","","","","","","","","","","","",""
"","do_trial","200","812852","0.0-108.0-0.0","""event"",""trial"",""time""
""fullscreenenter"",""0"",""8400""
","
","
","""event"",""trial"",""time""
""fullscreenenter"",""0"",""8400""
","
","433.5","","","","","","","","50","1,0,1","1","countryside","46","probe-205","0.4397731519196085","0.1254891428739439","0.4771290112672821","0","","","","","","","",""
"","html-keyboard-response","201","813867","0.0-108.0-1.0","""event"",""trial"",""time""
""fullscreenenter"",""0"",""8400""
","
","
","""event"",""trial"",""time""
""fullscreenenter"",""0"",""8400""
","
","null","<p></p>","null","","","","","","","","","","","","","","","","","","","","","","",""
"","do_trial","202","818871","0.0-109.0-0.0","""event"",""trial"",""time""
""fullscreenenter"",""0"",""8400""
","
","
","""event"",""trial"",""time""
""fullscreenenter"",""0"",""8400""
","
","437.90000009536743","","","","","","","","49","0,0,1","1","countryside","47","probe-163","0.33834390637123607","0.13753785232844262","0.5537278466273322","0","","","","","","","",""
"","html-keyboard-response","203","819881","0.0-109.0-1.0","""event"",""trial"",""time""
""fullscreenenter"",""0"",""8400""
","
","
","""event"",""trial"",""time""
""fullscreenenter"",""0"",""8400""
","
","null","<p></p>","null","","","","","","","","","","","","","","","","","","","","","","",""
"","do_trial","204","824685","0.0-110.0-0.0","""event"",""trial"",""time""
""fullscreenenter"",""0"",""8400""
","
","
","""event"",""trial"",""time""
""fullscreenenter"",""0"",""8400""
","
","244.10000002384186","","","","","","","","50","0,0,0","1","countryside","48","probe-118","0.2908463160125939","0.18579470156971187","0.662120513673491","0","","","","","","","",""
"","html-keyboard-response","205","825700","0.0-110.0-1.0","""event"",""trial"",""time""
""fullscreenenter"",""0"",""8400""
","
","
","""event"",""trial"",""time""
""fullscreenenter"",""0"",""8400""
","
","null","<p></p>","null","","","","","","","","","","","","","","","","","","","","","","",""
"","do_trial","206","830533","0.0-111.0-0.0","""event"",""trial"",""time""
""fullscreenenter"",""0"",""8400""
","
","
","""event"",""trial"",""time""
""fullscreenenter"",""0"",""8400""
","
","275.59999990463257","","","","","","","","51","1,0,0","1","countryside","49","probe-175","0.2709758313233564","0.2163273476625976","0.5952808021389335","0","","","","","","","",""
"","html-keyboard-response","207","831544","0.0-111.0-1.0","""event"",""trial"",""time""
""fullscreenenter"",""0"",""8400""
","
","
","""event"",""trial"",""time""
""fullscreenenter"",""0"",""8400""
","
","null","<p></p>","null","","","","","","","","","","","","","","","","","","","","","","",""
"","do_trial","208","836443","0.0-112.0-0.0","""event"",""trial"",""time""
""fullscreenenter"",""0"",""8400""
","
","
","""event"",""trial"",""time""
""fullscreenenter"",""0"",""8400""
","
","337.1999999284744","","","","","","","","51","0,1,0","1","countryside","50","probe-70","0.14291077498649496","0.09776435710264583","0.5159151072813599","0","","","","","","","",""
"","html-keyboard-response","209","837451","0.0-112.0-1.0","""event"",""trial"",""time""
""fullscreenenter"",""0"",""8400""
","
","
","""event"",""trial"",""time""
""fullscreenenter"",""0"",""8400""
","
","null","<p></p>","null","","","","","","","","","","","","","","","","","","","","","","",""
"","do_trial","210","842370","0.0-113.0-0.0","""event"",""trial"",""time""
""fullscreenenter"",""0"",""8400""
","
","
","""event"",""trial"",""time""
""fullscreenenter"",""0"",""8400""
","
","353","","","","","","","","51","0,0,0","1","countryside","51","probe-51","0.21549059701234152","0.11472136107071695","0.5375260121571603","0","","","","","","","",""
"","html-keyboard-response","211","843378","0.0-113.0-1.0","""event"",""trial"",""time""
""fullscreenenter"",""0"",""8400""
","
","
","""event"",""trial"",""time""
""fullscreenenter"",""0"",""8400""
","
","null","<p></p>","null","","","","","","","","","","","","","","","","","","","","","","",""
"","do_trial","212","848393","0.0-114.0-0.0","""event"",""trial"",""time""
""fullscreenenter"",""0"",""8400""
","
","
","""event"",""trial"",""time""
""fullscreenenter"",""0"",""8400""
","
","458.2000000476837","","","","","","","","49","0,1,1","1","countryside","52","probe-36","0.22499328091233506","0.15816714384588657","0.6189381162650783","0","","","","","","","",""
"","html-keyboard-response","213","849408","0.0-114.0-1.0","""event"",""trial"",""time""
""fullscreenenter"",""0"",""8400""
","
","
","""event"",""trial"",""time""
""fullscreenenter"",""0"",""8400""
","
","null","<p></p>","null","","","","","","","","","","","","","","","","","","","","","","",""
"","do_trial","214","854308","0.0-115.0-0.0","""event"",""trial"",""time""
""fullscreenenter"",""0"",""8400""
","
","
","""event"",""trial"",""time""
""fullscreenenter"",""0"",""8400""
","
","336.2000000476837","","","","","","","","50","0,1,1","1","countryside","53","probe-60","0.2636645183114433","0.15085143599697895","0.5494376310479474","1","","","","","","","",""
"","html-keyboard-response","215","855318","0.0-115.0-1.0","""event"",""trial"",""time""
""fullscreenenter"",""0"",""8400""
","
","
","""event"",""trial"",""time""
""fullscreenenter"",""0"",""8400""
","
","null","<p></p>","null","","","","","","","","","","","","","","","","","","","","","","",""
"","do_trial","216","860093","0.0-116.0-0.0","""event"",""trial"",""time""
""fullscreenenter"",""0"",""8400""
","
","
","""event"",""trial"",""time""
""fullscreenenter"",""0"",""8400""
","
","214.60000002384186","","","","","","","","50","0,0,0","1","countryside","54","probe-57","0.3214567289444185","0.05580300745113893","0.5845480292022329","0","","","","","","","",""
"","html-keyboard-response","217","861106","0.0-116.0-1.0","""event"",""trial"",""time""
""fullscreenenter"",""0"",""8400""
","
","
","""event"",""trial"",""time""
""fullscreenenter"",""0"",""8400""
","
","null","<p></p>","null","","","","","","","","","","","","","","","","","","","","","","",""
"","do_trial","218","866411","0.0-117.0-0.0","""event"",""trial"",""time""
""fullscreenenter"",""0"",""8400""
","
","
","""event"",""trial"",""time""
""fullscreenenter"",""0"",""8400""
","
","753.6000000238419","","","","","","","","50","0,0,1","1","countryside","55","probe-77","0.19204351902018807","0.08650300322919495","0.5481431230852534","0","","","","","","","",""
"","html-keyboard-response","219","867427","0.0-117.0-1.0","""event"",""trial"",""time""
""fullscreenenter"",""0"",""8400""
","
","
","""event"",""trial"",""time""
""fullscreenenter"",""0"",""8400""
","
","null","<p></p>","null","","","","","","","","","","","","","","","","","","","","","","",""
"","do_trial","220","872130","0.0-118.0-0.0","""event"",""trial"",""time""
""fullscreenenter"",""0"",""8400""
","
","
","""event"",""trial"",""time""
""fullscreenenter"",""0"",""8400""
","
","147.70000004768372","","","","","","","","50","0,0,1","1","countryside","56","probe-94","0.15135286826847158","0.14955423588618064","0.48068435040168767","0","","","","","","","",""
"","html-keyboard-response","221","873137","0.0-118.0-1.0","""event"",""trial"",""time""
""fullscreenenter"",""0"",""8400""
","
","
","""event"",""trial"",""time""
""fullscreenenter"",""0"",""8400""
","
","null","<p></p>","null","","","","","","","","","","","","","","","","","","","","","","",""
"","do_trial","222","877767","0.0-119.0-0.0","""event"",""trial"",""time""
""fullscreenenter"",""0"",""8400""
","
","
","""event"",""trial"",""time""
""fullscreenenter"",""0"",""8400""
","
","71.10000002384186","","","","","","","","49","0,0,1","1","countryside","57","probe-201","0.2338945447181845","0.0752485745307707","0.5616712778613061","0","","","","","","","",""
"","html-keyboard-response","223","878771","0.0-119.0-1.0","""event"",""trial"",""time""
""fullscreenenter"",""0"",""8400""
","
","
","""event"",""trial"",""time""
""fullscreenenter"",""0"",""8400""
","
","null","<p></p>","null","","","","","","","","","","","","","","","","","","","","","","",""
"","do_trial","224","883344","0.0-120.0-0.0","""event"",""trial"",""time""
""fullscreenenter"",""0"",""8400""
","
","
","""event"",""trial"",""time""
""fullscreenenter"",""0"",""8400""
","
","21.899999976158142","","","","","","","","51","0,0,1","1","countryside","58","probe-147","0.3326551601917791","0.11933693579790564","0.5211439755387002","1","","","","","","","",""
"","html-keyboard-response","225","884349","0.0-120.0-1.0","""event"",""trial"",""time""
""fullscreenenter"",""0"",""8400""
","
","
","""event"",""trial"",""time""
""fullscreenenter"",""0"",""8400""
","
","null","<p></p>","null","","","","","","","","","","","","","","","","","","","","","","",""
"","do_trial","226","889697","0.0-121.0-0.0","""event"",""trial"",""time""
""fullscreenenter"",""0"",""8400""
","
","
","""event"",""trial"",""time""
""fullscreenenter"",""0"",""8400""
","
","799.5","","","","","","","","51","0,0,1","1","countryside","59","probe-106","0.1329581608700059","0.12369208847733151","0.6239413964784506","1","","","","","","","",""
"","html-keyboard-response","227","890708","0.0-121.0-1.0","""event"",""trial"",""time""
""fullscreenenter"",""0"",""8400""
","
","
","""event"",""trial"",""time""
""fullscreenenter"",""0"",""8400""
","
","null","<p></p>","null","","","","","","","","","","","","","","","","","","","","","","",""
"","do_trial","228","895735","0.0-122.0-0.0","""event"",""trial"",""time""
""fullscreenenter"",""0"",""8400""
","
","
","""event"",""trial"",""time""
""fullscreenenter"",""0"",""8400""
","
","452.1999999284744","","","","","","","","51","1,0,1","1","countryside","60","probe-161","0.28969752049260605","0.07717648410166529","0.5742020084178896","1","","","","","","","",""
"","html-keyboard-response","229","896739","0.0-122.0-1.0","""event"",""trial"",""time""
""fullscreenenter"",""0"",""8400""
","
","
","""event"",""trial"",""time""
""fullscreenenter"",""0"",""8400""
","
","null","<p></p>","null","","","","","","","","","","","","","","","","","","","","","","",""
"","do_trial","230","901638","0.0-123.0-0.0","""event"",""trial"",""time""
""fullscreenenter"",""0"",""8400""
","
","
","""event"",""trial"",""time""
""fullscreenenter"",""0"",""8400""
","
","306.39999997615814","","","","","","","","51","0,0,0","1","countryside","61","probe-135","0.32518026841039965","0.052057869437778743","0.5428789328741342","0","","","","","","","",""
"","html-keyboard-response","231","902649","0.0-123.0-1.0","""event"",""trial"",""time""
""fullscreenenter"",""0"",""8400""
","
","
","""event"",""trial"",""time""
""fullscreenenter"",""0"",""8400""
","
","null","<p></p>","null","","","","","","","","","","","","","","","","","","","","","","",""
"","do_trial","232","907777","0.0-124.0-0.0","""event"",""trial"",""time""
""fullscreenenter"",""0"",""8400""
","
","
","""event"",""trial"",""time""
""fullscreenenter"",""0"",""8400""
","
","569.6000000238419","","","","","","","","51","1,0,0","1","countryside","62","probe-199","0.3288088675902573","0.19537663979640485","0.4556577971308168","0","","","","","","","",""
"","html-keyboard-response","233","908779","0.0-124.0-1.0","""event"",""trial"",""time""
""fullscreenenter"",""0"",""8400""
","
","
","""event"",""trial"",""time""
""fullscreenenter"",""0"",""8400""
","
","null","<p></p>","null","","","","","","","","","","","","","","","","","","","","","","",""
"","do_trial","234","913939","0.0-125.0-0.0","""event"",""trial"",""time""
""fullscreenenter"",""0"",""8400""
","
","
","""event"",""trial"",""time""
""fullscreenenter"",""0"",""8400""
","
","580.2000000476837","","","","","","","","51","0,0,1","1","countryside","63","probe-95","0.43029974318289704","0.05652611504681561","0.6080864711062246","1","","","","","","","",""
"","html-keyboard-response","235","914947","0.0-125.0-1.0","""event"",""trial"",""time""
""fullscreenenter"",""0"",""8400""
","
","
","""event"",""trial"",""time""
""fullscreenenter"",""0"",""8400""
","
","null","<p></p>","null","","","","","","","","","","","","","","","","","","","","","","",""
"","do_trial","236","921348","0.0-126.0-0.0","""event"",""trial"",""time""
""fullscreenenter"",""0"",""8400""
","
","
","""event"",""trial"",""time""
""fullscreenenter"",""0"",""8400""
","
","1841.5","","","","","","","","51","0,0,1","1","countryside","64","probe-197","0.2950765137600555","0.06604576583840664","0.6569089764501247","1","","","","","","","",""
"","html-keyboard-response","237","922353","0.0-126.0-1.0","""event"",""trial"",""time""
""fullscreenenter"",""0"",""8400""
","
","
","""event"",""trial"",""time""
""fullscreenenter"",""0"",""8400""
","
","null","<p></p>","null","","","","","","","","","","","","","","","","","","","","","","",""
"","do_trial","238","927887","0.0-127.0-0.0","""event"",""trial"",""time""
""fullscreenenter"",""0"",""8400""
","
","
","""event"",""trial"",""time""
""fullscreenenter"",""0"",""8400""
","
","985.8000000715256","","","","","","","","51","0,0,0","1","countryside","65","probe-120","0.36997170052676276","0.058341104906986185","0.8358143837043978","0","","","","","","","",""
"","html-keyboard-response","239","928889","0.0-127.0-1.0","""event"",""trial"",""time""
""fullscreenenter"",""0"",""8400""
","
","
","""event"",""trial"",""time""
""fullscreenenter"",""0"",""8400""
","
","null","<p></p>","null","","","","","","","","","","","","","","","","","","","","","","",""
"","do_trial","240","934156","0.0-128.0-0.0","""event"",""trial"",""time""
""fullscreenenter"",""0"",""8400""
","
","
","""event"",""trial"",""time""
""fullscreenenter"",""0"",""8400""
","
","718.2999999523163","","","","","","","","51","0,0,0","1","countryside","66","probe-113","0.3506076334648919","0.12993479312965112","0.6485577309311195","0","","","","","","","",""
"","html-keyboard-response","241","935174","0.0-128.0-1.0","""event"",""trial"",""time""
""fullscreenenter"",""0"",""8400""
","
","
","""event"",""trial"",""time""
""fullscreenenter"",""0"",""8400""
","
","null","<p></p>","null","","","","","","","","","","","","","","","","","","","","","","",""
"","do_trial","242","940362","0.0-129.0-0.0","""event"",""trial"",""time""
""fullscreenenter"",""0"",""8400""
","
","
","""event"",""trial"",""time""
""fullscreenenter"",""0"",""8400""
","
","630.7000000476837","","","","","","","","51","0,0,1","1","countryside","67","probe-171","0.29364837569004704","0.1683034788448573","0.716503404643714","1","","","","","","","",""
"","html-keyboard-response","243","941376","0.0-129.0-1.0","""event"",""trial"",""time""
""fullscreenenter"",""0"",""8400""
","
","
","""event"",""trial"",""time""
""fullscreenenter"",""0"",""8400""
","
","null","<p></p>","null","","","","","","","","","","","","","","","","","","","","","","",""
"","do_trial","244","946249","0.0-130.0-0.0","""event"",""trial"",""time""
""fullscreenenter"",""0"",""8400""
","
","
","""event"",""trial"",""time""
""fullscreenenter"",""0"",""8400""
","
","318.1999999284744","","","","","","","","51","1,1,1","1","countryside","68","probe-185","0.31374380099825755","0.2321011648715835","0.8121957305473672","1","","","","","","","",""
"","html-keyboard-response","245","947266","0.0-130.0-1.0","""event"",""trial"",""time""
""fullscreenenter"",""0"",""8400""
","
","
","""event"",""trial"",""time""
""fullscreenenter"",""0"",""8400""
","
","null","<p></p>","null","","","","","","","","","","","","","","","","","","","","","","",""
"","do_trial","246","952575","0.0-131.0-0.0","""event"",""trial"",""time""
""fullscreenenter"",""0"",""8400""
","
","
","""event"",""trial"",""time""
""fullscreenenter"",""0"",""8400""
","
","761.8000000715256","","","","","","","","51","1,1,1","1","countryside","69","probe-174","0.363070897168695","0.1389818843034771","0.58168505198339","1","","","","","","","",""
"","html-keyboard-response","247","953583","0.0-131.0-1.0","""event"",""trial"",""time""
""fullscreenenter"",""0"",""8400""
","
","
","""event"",""trial"",""time""
""fullscreenenter"",""0"",""8400""
","
","null","<p></p>","null","","","","","","","","","","","","","","","","","","","","","","",""
"","do_bye","248","955094","0.0-132.0-0.0","""event"",""trial"",""time""
""fullscreenenter"",""0"",""8400""
","
","
","""event"",""trial"",""time""
""fullscreenenter"",""0"",""8400""
","
","null","","","","","","","","null","","","","","","","","","","","","","","","","",""
"","break","249","958483","0.0-132.0-1.0","""event"",""trial"",""time""
""fullscreenenter"",""0"",""8400""
","
","
","""event"",""trial"",""time""
""fullscreenenter"",""0"",""8400""
","
","3385.2000000476837","<div class='center'><p>Time to take a quick break! You have 2 minutes to rest, but you can move on sooner if you'd like.</p><p> Press the <b>space bar</b> to continue.</p></div>","32","","","","","","","","","","","","","","","","","","","","","","",""
"","do_travel","250","967496","0.0-133.0-0.0","""event"",""trial"",""time""
""fullscreenenter"",""0"",""8400""
","
","
","""event"",""trial"",""time""
""fullscreenenter"",""0"",""8400""
","
","null","","","","","","","","null","","","","","","","","","","","","","","","","",""
"","do_welcome","251","971516","0.0-133.0-1.0","""event"",""trial"",""time""
""fullscreenenter"",""0"",""8400""
","
","
","""event"",""trial"",""time""
""fullscreenenter"",""0"",""8400""
","
","null","","","","","","","","null","","","","","","","","","","","","","","","","",""
"","do_trial","252","978567","0.0-134.0-0.0","""event"",""trial"",""time""
""fullscreenenter"",""0"",""8400""
","
","
","""event"",""trial"",""time""
""fullscreenenter"",""0"",""8400""
","
","2499.2000000476837","","","","","","","","50","1,0,1","2","coast","70","probe-140","0.30822864877852924","0.14725942686655935","1","0","","","","","","","",""
"","html-keyboard-response","253","979576","0.0-134.0-1.0","""event"",""trial"",""time""
""fullscreenenter"",""0"",""8400""
","
","
","""event"",""trial"",""time""
""fullscreenenter"",""0"",""8400""
","
","null","<p></p>","null","","","","","","","","","","","","","","","","","","","","","","",""
"","do_trial","254","984130","0.0-135.0-0.0","""event"",""trial"",""time""
""fullscreenenter"",""0"",""8400""
","
","
","""event"",""trial"",""time""
""fullscreenenter"",""0"",""8400""
","
","0.10000002384185791","","","","","","","","50","0,1,1","2","coast","71","probe-229","0.37193362461925","0.12373234779972705","1","1","","","","","","","",""
"","html-keyboard-response","255","985134","0.0-135.0-1.0","""event"",""trial"",""time""
""fullscreenenter"",""0"",""8400""
","
","
","""event"",""trial"",""time""
""fullscreenenter"",""0"",""8400""
","
","null","<p></p>","null","","","","","","","","","","","","","","","","","","","","","","",""
"","do_trial","256","989737","0.0-136.0-0.0","""event"",""trial"",""time""
""fullscreenenter"",""0"",""8400""
","
","
","""event"",""trial"",""time""
""fullscreenenter"",""0"",""8400""
","
","27.800000071525574","","","","","","","","50","0,0,1","2","coast","72","probe-86","0.32294378971651355","0.14742655334621346","0.906977104830277","0","","","","","","","",""
"","html-keyboard-response","257","990750","0.0-136.0-1.0","""event"",""trial"",""time""
""fullscreenenter"",""0"",""8400""
","
","
","""event"",""trial"",""time""
""fullscreenenter"",""0"",""8400""
","
","null","<p></p>","null","","","","","","","","","","","","","","","","","","","","","","",""
"","do_trial","258","995775","0.0-137.0-0.0","""event"",""trial"",""time""
""fullscreenenter"",""0"",""8400""
","
","
","""event"",""trial"",""time""
""fullscreenenter"",""0"",""8400""
","
","465.8000000715256","","","","","","","","50","1,0,1","2","coast","73","probe-207","0.34139697693696003","0.22814891776486534","0.7809004182704976","0","","","","","","","",""
