"success","trial_type","trial_index","time_elapsed","internal_node_id","interactions","blur_events","focus_events","fullscreenenter_events","fullscreenexit_events","rt","stimulus","key_press","subject_id","participant_id","age","gender","prompt","response","choice_outcomes","context_n","context_img_id","trial_n","probe_img_id","pR_red","pR_white","pR_black","outcome","contextArray_ind","validImageProbes","invalidImageProbes","pRew_Red","pRew_White","pRew_Black","availableForMemProbe","choice_blocks"
"true","fullscreen","0","1931","0.0-0.0","""event"",""trial"",""time""
""fullscreenenter"",""0"",""957""
","
","
","""event"",""trial"",""time""
""fullscreenenter"",""0"",""957""
","
","","","","","","","","","","","","","","","","","","","","","","","","","",""
"","pavlovia","1","1935","0.0-1.0","""event"",""trial"",""time""
""fullscreenenter"",""0"",""957""
""blur"",""2"",""29421""
""focus"",""2"",""32470""
""blur"",""2"",""39277""
""focus"",""2"",""43379""
","""event"",""trial"",""time""
""blur"",""2"",""29421""
""blur"",""2"",""39277""
","""event"",""trial"",""time""
""focus"",""2"",""32470""
""focus"",""2"",""43379""
","""event"",""trial"",""time""
""fullscreenenter"",""0"",""957""
","
","","","","","","","","","","","","","","","","","","","","","","","","","",""
"","instruc1","2","47082","0.0-2.0","""event"",""trial"",""time""
""fullscreenenter"",""0"",""957""
""blur"",""2"",""29421""
""focus"",""2"",""32470""
""blur"",""2"",""39277""
""focus"",""2"",""43379""
","""event"",""trial"",""time""
""blur"",""2"",""29421""
""blur"",""2"",""39277""
","""event"",""trial"",""time""
""focus"",""2"",""32470""
""focus"",""2"",""43379""
","""event"",""trial"",""time""
""fullscreenenter"",""0"",""957""
","
","null","run_exp/static/audio/clip_1_welcome.m4a","null","349","592","22","Male","<div class='center'><p>Welcome! This is the first part of the study. It will last ~30 minutes. In part 1 and part 2 of the study, you are the head captain of a pirate ship traveling around the world to different islands. You will play a few different games throughout these two parts. Here is an overview of them:</p><br><p>Part 1 (today)</p><p>1. Instructions, practice game, and quiz</p><p>2. Pick a pirate game on 6 different islands</p><br><p>Part 2 (tomorrow)</p><p>3. Pick a pirate game and memory game</p><p>4. Where did you see this ship? </p></div>","","","","","","","","","","","","","","","","","",""
"","html-keyboard-response","3","48708","0.0-3.0","""event"",""trial"",""time""
""fullscreenenter"",""0"",""957""
""blur"",""2"",""29421""
""focus"",""2"",""32470""
""blur"",""2"",""39277""
""focus"",""2"",""43379""
","""event"",""trial"",""time""
""blur"",""2"",""29421""
""blur"",""2"",""39277""
","""event"",""trial"",""time""
""focus"",""2"",""32470""
""focus"",""2"",""43379""
","""event"",""trial"",""time""
""fullscreenenter"",""0"",""957""
","
","1625.0999999998603","<div class='center'><p>Welcome! This is the first part of the study. It will last ~30 minutes. In part 1 and part 2 of the study, you are the head captain of a pirate ship traveling around the world to different islands. You will play a few different games throughout these two parts. Here is an overview of them:</p><br><p>Part 1 (today)</p><p>1. Instructions, practice game, and quiz</p><p>2. Pick a pirate game on 6 different islands</p><br><p>Part 2 (tomorrow)</p><p>3. Pick a pirate game and memory game</p><p>4. Where did you see this ship? </p><p><b>[Press the space bar to continue]</b></p></div>","32","","","","","","","","","","","","","","","","","","","","","","",""
"","instruc2","4","54014","0.0-4.0","""event"",""trial"",""time""
""fullscreenenter"",""0"",""957""
""blur"",""2"",""29421""
""focus"",""2"",""32470""
""blur"",""2"",""39277""
""focus"",""2"",""43379""
","""event"",""trial"",""time""
""blur"",""2"",""29421""
""blur"",""2"",""39277""
","""event"",""trial"",""time""
""focus"",""2"",""32470""
""focus"",""2"",""43379""
","""event"",""trial"",""time""
""fullscreenenter"",""0"",""957""
","
","null","run_exp/static/audio/clip_2_different_places.m4a","null","","","","","<div class='center'><p>Today, you’ll visit these 6 islands on your journey. You'll be able to see these islands from your ship.</p><p><img src='run_exp/static/images/contexts/all_contexts.png' height='500'></p></div>","","","","","","","","","","","","","","","","","",""
"","html-keyboard-response","5","55868","0.0-5.0","""event"",""trial"",""time""
""fullscreenenter"",""0"",""957""
""blur"",""2"",""29421""
""focus"",""2"",""32470""
""blur"",""2"",""39277""
""focus"",""2"",""43379""
","""event"",""trial"",""time""
""blur"",""2"",""29421""
""blur"",""2"",""39277""
","""event"",""trial"",""time""
""focus"",""2"",""32470""
""focus"",""2"",""43379""
","""event"",""trial"",""time""
""fullscreenenter"",""0"",""957""
","
","1852.3999999999069","<div class='center'><p>Today, you’ll visit these 6 islands on your journey. You'll be able to see these islands from your ship.</p><p><img src='run_exp/static/images/contexts/all_contexts.png' height='500'></p><p><b>[Press the space bar to continue]</b></p></div>","32","","","","","","","","","","","","","","","","","","","","","","",""
"","instruc3","6","65556","0.0-6.0","""event"",""trial"",""time""
""fullscreenenter"",""0"",""957""
""blur"",""2"",""29421""
""focus"",""2"",""32470""
""blur"",""2"",""39277""
""focus"",""2"",""43379""
","""event"",""trial"",""time""
""blur"",""2"",""29421""
""blur"",""2"",""39277""
","""event"",""trial"",""time""
""focus"",""2"",""32470""
""focus"",""2"",""43379""
","""event"",""trial"",""time""
""fullscreenenter"",""0"",""957""
","
","null","run_exp/static/audio/clip_3_goal_of_game_1.m4a","null","","","","","<div class='center'><p> The pirates on your ship will rob other ships as they leave the island.</p> These ships have just sold their goods to the islanders, so they will be filled with lots and lots of gold.</p><p><img src='run_exp/static/images/tutorial/ship_center.png' height='400'></p></div>","","","","","","","","","","","","","","","","","",""
"","html-keyboard-response","7","67193","0.0-7.0","""event"",""trial"",""time""
""fullscreenenter"",""0"",""957""
""blur"",""2"",""29421""
""focus"",""2"",""32470""
""blur"",""2"",""39277""
""focus"",""2"",""43379""
","""event"",""trial"",""time""
""blur"",""2"",""29421""
""blur"",""2"",""39277""
","""event"",""trial"",""time""
""focus"",""2"",""32470""
""focus"",""2"",""43379""
","""event"",""trial"",""time""
""fullscreenenter"",""0"",""957""
","
","1635.8999999999069","<div class='center'><p> The pirates on your ship will rob other ships as they leave the island.</p> These ships have just sold their goods to the islanders, so they will be filled with lots and lots of gold.</p><p><img src='run_exp/static/images/tutorial/ship_center.png' height='400'></p><p><b>[Press the space bar to continue]</b></p></div>","32","","","","","","","","","","","","","","","","","","","","","","",""
"","instruc4","8","95188","0.0-8.0","""event"",""trial"",""time""
""fullscreenenter"",""0"",""957""
""blur"",""2"",""29421""
""focus"",""2"",""32470""
""blur"",""2"",""39277""
""focus"",""2"",""43379""
","""event"",""trial"",""time""
""blur"",""2"",""29421""
""blur"",""2"",""39277""
","""event"",""trial"",""time""
""focus"",""2"",""32470""
""focus"",""2"",""43379""
","""event"",""trial"",""time""
""fullscreenenter"",""0"",""957""
","
","null","run_exp/static/audio/clip_4_goal_of_game_2.m4a","null","","","","","<div class='center'><p>As the head captain, you do not have to rob any ships yourself. Another pirate will be doing the robbing for you. First, you will choose a pirate to rob the next ship.</p><p><img src='run_exp/static/images/tutorial/pirates_all_crop.png' height='200'></p><p>Then, you'll see if the pirate successfully robbed the ship of their gold. If they were successful, then you'll get a stack of gold coins like this:</p><p><img src='run_exp/static/images/tutorial/reward.png' height='150'></p><p> If they were <b>not</b> successful, then you'll get no gold coins, and you'll see a big red x like this: </p><p><img src='run_exp/static/images/tutorial/reward_no.png' height='150'></p><p> How much bonus money you make is based on how many gold coins you collect.</p><div>","","","","","","","","","","","","","","","","","",""
"","html-keyboard-response","9","102546","0.0-9.0","""event"",""trial"",""time""
""fullscreenenter"",""0"",""957""
""blur"",""2"",""29421""
""focus"",""2"",""32470""
""blur"",""2"",""39277""
""focus"",""2"",""43379""
","""event"",""trial"",""time""
""blur"",""2"",""29421""
""blur"",""2"",""39277""
","""event"",""trial"",""time""
""focus"",""2"",""32470""
""focus"",""2"",""43379""
","""event"",""trial"",""time""
""fullscreenenter"",""0"",""957""
","
","7355.90000000014","<div class='center'><p>As the head captain, you do not have to rob any ships yourself. Another pirate will be doing the robbing for you. First, you will choose a pirate to rob the next ship.</p><p><img src='run_exp/static/images/tutorial/pirates_all_crop.png' height='200'></p><p>Then, you'll see if the pirate successfully robbed the ship of their gold. If they were successful, then you'll get a stack of gold coins like this:</p><p><img src='run_exp/static/images/tutorial/reward.png' height='150'></p><p> If they were <b>not</b> successful, then you'll get no gold coins, and you'll see a big red x like this: </p><p><img src='run_exp/static/images/tutorial/reward_no.png' height='150'></p><p> How much bonus money you make is based on how many gold coins you collect.</p<p><b>[Press the space bar to continue]</b></p></div>","32","","","","","","","","","","","","","","","","","","","","","","",""
"","instruc5","10","129924","0.0-10.0","""event"",""trial"",""time""
""fullscreenenter"",""0"",""957""
""blur"",""2"",""29421""
""focus"",""2"",""32470""
""blur"",""2"",""39277""
""focus"",""2"",""43379""
","""event"",""trial"",""time""
""blur"",""2"",""29421""
""blur"",""2"",""39277""
","""event"",""trial"",""time""
""focus"",""2"",""32470""
""focus"",""2"",""43379""
","""event"",""trial"",""time""
""fullscreenenter"",""0"",""957""
","
","27376.200000000186","run_exp/static/audio/clip_5_probabilistic.m4a","49","","","","","<div class='center'><p>Even the most skilled pirate can not rob EVERY ship.</p><p> Some ships will have very strong protections against pirate attacks.</p><p> Blue beard, here, is very, very good at robbing ships, but he won't be successful every time he tries to rob one.</p><p> You can press the <b>‘1’</b> key on the keyboard to choose him.</p><p> Try choosing him 10 times to see how often he succeeds at robbing a ship. </p><p><img src='run_exp/static/images/tutorial/blue.png' height='500'></p></div>","","","","","","","","","","","","","","","","","",""
"","html-keyboard-response","11","131429","0.0-11.0","""event"",""trial"",""time""
""fullscreenenter"",""0"",""957""
""blur"",""2"",""29421""
""focus"",""2"",""32470""
""blur"",""2"",""39277""
""focus"",""2"",""43379""
","""event"",""trial"",""time""
""blur"",""2"",""29421""
""blur"",""2"",""39277""
","""event"",""trial"",""time""
""focus"",""2"",""32470""
""focus"",""2"",""43379""
","""event"",""trial"",""time""
""fullscreenenter"",""0"",""957""
","
","null","<div class='center'><p><img src='run_exp/static/images/tutorial/blue_win.png' height='500'></p></div>","null","","","","","","","","","","","","","","","","","","","","","","",""
"","html-keyboard-response","12","133945","0.0-12.0","""event"",""trial"",""time""
""fullscreenenter"",""0"",""957""
""blur"",""2"",""29421""
""focus"",""2"",""32470""
""blur"",""2"",""39277""
""focus"",""2"",""43379""
","""event"",""trial"",""time""
""blur"",""2"",""29421""
""blur"",""2"",""39277""
","""event"",""trial"",""time""
""focus"",""2"",""32470""
""focus"",""2"",""43379""
","""event"",""trial"",""time""
""fullscreenenter"",""0"",""957""
","
","2514.899999999907","<div class='center'><img src='run_exp/static/images/tutorial/blue.png' height='500'></p></div>","49","","","","","","","","","","","","","","","","","","","","","","",""
"","html-keyboard-response","13","135448","0.0-13.0","""event"",""trial"",""time""
""fullscreenenter"",""0"",""957""
""blur"",""2"",""29421""
""focus"",""2"",""32470""
""blur"",""2"",""39277""
""focus"",""2"",""43379""
","""event"",""trial"",""time""
""blur"",""2"",""29421""
""blur"",""2"",""39277""
","""event"",""trial"",""time""
""focus"",""2"",""32470""
""focus"",""2"",""43379""
","""event"",""trial"",""time""
""fullscreenenter"",""0"",""957""
","
","null","<div class='center'><p><img src='run_exp/static/images/tutorial/blue_win.png' height='500'></p></div>","null","","","","","","","","","","","","","","","","","","","","","","",""
"","html-keyboard-response","14","136616","0.0-14.0","""event"",""trial"",""time""
""fullscreenenter"",""0"",""957""
""blur"",""2"",""29421""
""focus"",""2"",""32470""
""blur"",""2"",""39277""
""focus"",""2"",""43379""
","""event"",""trial"",""time""
""blur"",""2"",""29421""
""blur"",""2"",""39277""
","""event"",""trial"",""time""
""focus"",""2"",""32470""
""focus"",""2"",""43379""
","""event"",""trial"",""time""
""fullscreenenter"",""0"",""957""
","
","1166.9000000001397","<div class='center'><img src='run_exp/static/images/tutorial/blue.png' height='500'></p></div>","49","","","","","","","","","","","","","","","","","","","","","","",""
"","html-keyboard-response","15","138122","0.0-15.0","""event"",""trial"",""time""
""fullscreenenter"",""0"",""957""
""blur"",""2"",""29421""
""focus"",""2"",""32470""
""blur"",""2"",""39277""
""focus"",""2"",""43379""
","""event"",""trial"",""time""
""blur"",""2"",""29421""
""blur"",""2"",""39277""
","""event"",""trial"",""time""
""focus"",""2"",""32470""
""focus"",""2"",""43379""
","""event"",""trial"",""time""
""fullscreenenter"",""0"",""957""
","
","null","<div class='center'><p><img src='run_exp/static/images/tutorial/blue_win.png' height='500'></p></div>","null","","","","","","","","","","","","","","","","","","","","","","",""
"","html-keyboard-response","16","139212","0.0-16.0","""event"",""trial"",""time""
""fullscreenenter"",""0"",""957""
""blur"",""2"",""29421""
""focus"",""2"",""32470""
""blur"",""2"",""39277""
""focus"",""2"",""43379""
","""event"",""trial"",""time""
""blur"",""2"",""29421""
""blur"",""2"",""39277""
","""event"",""trial"",""time""
""focus"",""2"",""32470""
""focus"",""2"",""43379""
","""event"",""trial"",""time""
""fullscreenenter"",""0"",""957""
","
","1088.3000000000466","<div class='center'><img src='run_exp/static/images/tutorial/blue.png' height='500'></p></div>","49","","","","","","","","","","","","","","","","","","","","","","",""
"","html-keyboard-response","17","140717","0.0-17.0","""event"",""trial"",""time""
""fullscreenenter"",""0"",""957""
""blur"",""2"",""29421""
""focus"",""2"",""32470""
""blur"",""2"",""39277""
""focus"",""2"",""43379""
","""event"",""trial"",""time""
""blur"",""2"",""29421""
""blur"",""2"",""39277""
","""event"",""trial"",""time""
""focus"",""2"",""32470""
""focus"",""2"",""43379""
","""event"",""trial"",""time""
""fullscreenenter"",""0"",""957""
","
","null","<div class='center'><p><img src='run_exp/static/images/tutorial/blue_no_win.png' height='500'></p></div>","null","","","","","","","","","","","","","","","","","","","","","","",""
"","html-keyboard-response","18","141228","0.0-18.0","""event"",""trial"",""time""
""fullscreenenter"",""0"",""957""
""blur"",""2"",""29421""
""focus"",""2"",""32470""
""blur"",""2"",""39277""
""focus"",""2"",""43379""
","""event"",""trial"",""time""
""blur"",""2"",""29421""
""blur"",""2"",""39277""
","""event"",""trial"",""time""
""focus"",""2"",""32470""
""focus"",""2"",""43379""
","""event"",""trial"",""time""
""fullscreenenter"",""0"",""957""
","
","510.10000000009313","<div class='center'><img src='run_exp/static/images/tutorial/blue.png' height='500'></p></div>","49","","","","","","","","","","","","","","","","","","","","","","",""
"","html-keyboard-response","19","142733","0.0-19.0","""event"",""trial"",""time""
""fullscreenenter"",""0"",""957""
""blur"",""2"",""29421""
""focus"",""2"",""32470""
""blur"",""2"",""39277""
""focus"",""2"",""43379""
","""event"",""trial"",""time""
""blur"",""2"",""29421""
""blur"",""2"",""39277""
","""event"",""trial"",""time""
""focus"",""2"",""32470""
""focus"",""2"",""43379""
","""event"",""trial"",""time""
""fullscreenenter"",""0"",""957""
","
","null","<div class='center'><p><img src='run_exp/static/images/tutorial/blue_win.png' height='500'></p></div>","null","","","","","","","","","","","","","","","","","","","","","","",""
"","html-keyboard-response","20","143192","0.0-20.0","""event"",""trial"",""time""
""fullscreenenter"",""0"",""957""
""blur"",""2"",""29421""
""focus"",""2"",""32470""
""blur"",""2"",""39277""
""focus"",""2"",""43379""
","""event"",""trial"",""time""
""blur"",""2"",""29421""
""blur"",""2"",""39277""
","""event"",""trial"",""time""
""focus"",""2"",""32470""
""focus"",""2"",""43379""
","""event"",""trial"",""time""
""fullscreenenter"",""0"",""957""
","
","458.10000000009313","<div class='center'><img src='run_exp/static/images/tutorial/blue.png' height='500'></p></div>","49","","","","","","","","","","","","","","","","","","","","","","",""
"","html-keyboard-response","21","144698","0.0-21.0","""event"",""trial"",""time""
""fullscreenenter"",""0"",""957""
""blur"",""2"",""29421""
""focus"",""2"",""32470""
""blur"",""2"",""39277""
""focus"",""2"",""43379""
","""event"",""trial"",""time""
""blur"",""2"",""29421""
""blur"",""2"",""39277""
","""event"",""trial"",""time""
""focus"",""2"",""32470""
""focus"",""2"",""43379""
","""event"",""trial"",""time""
""fullscreenenter"",""0"",""957""
","
","null","<div class='center'><p><img src='run_exp/static/images/tutorial/blue_win.png' height='500'></p></div>","null","","","","","","","","","","","","","","","","","","","","","","",""
"","html-keyboard-response","22","145093","0.0-22.0","""event"",""trial"",""time""
""fullscreenenter"",""0"",""957""
""blur"",""2"",""29421""
""focus"",""2"",""32470""
""blur"",""2"",""39277""
""focus"",""2"",""43379""
","""event"",""trial"",""time""
""blur"",""2"",""29421""
""blur"",""2"",""39277""
","""event"",""trial"",""time""
""focus"",""2"",""32470""
""focus"",""2"",""43379""
","""event"",""trial"",""time""
""fullscreenenter"",""0"",""957""
","
","393.60000000009313","<div class='center'><img src='run_exp/static/images/tutorial/blue.png' height='500'></p></div>","49","","","","","","","","","","","","","","","","","","","","","","",""
"","html-keyboard-response","23","146599","0.0-23.0","""event"",""trial"",""time""
""fullscreenenter"",""0"",""957""
""blur"",""2"",""29421""
""focus"",""2"",""32470""
""blur"",""2"",""39277""
""focus"",""2"",""43379""
","""event"",""trial"",""time""
""blur"",""2"",""29421""
""blur"",""2"",""39277""
","""event"",""trial"",""time""
""focus"",""2"",""32470""
""focus"",""2"",""43379""
","""event"",""trial"",""time""
""fullscreenenter"",""0"",""957""
","
","null","<div class='center'><p><img src='run_exp/static/images/tutorial/blue_win.png' height='500'></p></div>","null","","","","","","","","","","","","","","","","","","","","","","",""
"","html-keyboard-response","24","146964","0.0-24.0","""event"",""trial"",""time""
""fullscreenenter"",""0"",""957""
""blur"",""2"",""29421""
""focus"",""2"",""32470""
""blur"",""2"",""39277""
""focus"",""2"",""43379""
","""event"",""trial"",""time""
""blur"",""2"",""29421""
""blur"",""2"",""39277""
","""event"",""trial"",""time""
""focus"",""2"",""32470""
""focus"",""2"",""43379""
","""event"",""trial"",""time""
""fullscreenenter"",""0"",""957""
","
","364","<div class='center'><img src='run_exp/static/images/tutorial/blue.png' height='500'></p></div>","49","","","","","","","","","","","","","","","","","","","","","","",""
"","html-keyboard-response","25","148470","0.0-25.0","""event"",""trial"",""time""
""fullscreenenter"",""0"",""957""
""blur"",""2"",""29421""
""focus"",""2"",""32470""
""blur"",""2"",""39277""
""focus"",""2"",""43379""
","""event"",""trial"",""time""
""blur"",""2"",""29421""
""blur"",""2"",""39277""
","""event"",""trial"",""time""
""focus"",""2"",""32470""
""focus"",""2"",""43379""
","""event"",""trial"",""time""
""fullscreenenter"",""0"",""957""
","
","null","<div class='center'><p><img src='run_exp/static/images/tutorial/blue_no_win.png' height='500'></p></div>","null","","","","","","","","","","","","","","","","","","","","","","",""
"","html-keyboard-response","26","148879","0.0-26.0","""event"",""trial"",""time""
""fullscreenenter"",""0"",""957""
""blur"",""2"",""29421""
""focus"",""2"",""32470""
""blur"",""2"",""39277""
""focus"",""2"",""43379""
","""event"",""trial"",""time""
""blur"",""2"",""29421""
""blur"",""2"",""39277""
","""event"",""trial"",""time""
""focus"",""2"",""32470""
""focus"",""2"",""43379""
","""event"",""trial"",""time""
""fullscreenenter"",""0"",""957""
","
","407.30000000004657","<div class='center'><img src='run_exp/static/images/tutorial/blue.png' height='500'></p></div>","49","","","","","","","","","","","","","","","","","","","","","","",""
"","html-keyboard-response","27","150385","0.0-27.0","""event"",""trial"",""time""
""fullscreenenter"",""0"",""957""
""blur"",""2"",""29421""
""focus"",""2"",""32470""
""blur"",""2"",""39277""
""focus"",""2"",""43379""
","""event"",""trial"",""time""
""blur"",""2"",""29421""
""blur"",""2"",""39277""
","""event"",""trial"",""time""
""focus"",""2"",""32470""
""focus"",""2"",""43379""
","""event"",""trial"",""time""
""fullscreenenter"",""0"",""957""
","
","null","<div class='center'><p><img src='run_exp/static/images/tutorial/blue_win.png' height='500'></p></div>","null","","","","","","","","","","","","","","","","","","","","","","",""
"","html-keyboard-response","28","150711","0.0-28.0","""event"",""trial"",""time""
""fullscreenenter"",""0"",""957""
""blur"",""2"",""29421""
""focus"",""2"",""32470""
""blur"",""2"",""39277""
""focus"",""2"",""43379""
","""event"",""trial"",""time""
""blur"",""2"",""29421""
""blur"",""2"",""39277""
","""event"",""trial"",""time""
""focus"",""2"",""32470""
""focus"",""2"",""43379""
","""event"",""trial"",""time""
""fullscreenenter"",""0"",""957""
","
","325.60000000009313","<div class='center'><img src='run_exp/static/images/tutorial/blue.png' height='500'></p></div>","49","","","","","","","","","","","","","","","","","","","","","","",""
"","html-keyboard-response","29","152213","0.0-29.0","""event"",""trial"",""time""
""fullscreenenter"",""0"",""957""
""blur"",""2"",""29421""
""focus"",""2"",""32470""
""blur"",""2"",""39277""
""focus"",""2"",""43379""
","""event"",""trial"",""time""
""blur"",""2"",""29421""
""blur"",""2"",""39277""
","""event"",""trial"",""time""
""focus"",""2"",""32470""
""focus"",""2"",""43379""
","""event"",""trial"",""time""
""fullscreenenter"",""0"",""957""
","
","null","<div class='center'><p><img src='run_exp/static/images/tutorial/blue_win.png' height='500'></p></div>","null","","","","","","","","","","","","","","","","","","","","","","",""
"","instruc6","30","157661","0.0-30.0","""event"",""trial"",""time""
""fullscreenenter"",""0"",""957""
""blur"",""2"",""29421""
""focus"",""2"",""32470""
""blur"",""2"",""39277""
""focus"",""2"",""43379""
","""event"",""trial"",""time""
""blur"",""2"",""29421""
""blur"",""2"",""39277""
","""event"",""trial"",""time""
""focus"",""2"",""32470""
""focus"",""2"",""43379""
","""event"",""trial"",""time""
""fullscreenenter"",""0"",""957""
","
","null","run_exp/static/audio/clip_6_blue_beard_outcome.m4a","null","","","","","<div class='center'><p> See, he succeeded in robbing the ships most of the time but not every time. </p></div>","","","","","","","","","","","","","","","","","",""
"","html-keyboard-response","31","159032","0.0-31.0","""event"",""trial"",""time""
""fullscreenenter"",""0"",""957""
""blur"",""2"",""29421""
""focus"",""2"",""32470""
""blur"",""2"",""39277""
""focus"",""2"",""43379""
","""event"",""trial"",""time""
""blur"",""2"",""29421""
""blur"",""2"",""39277""
","""event"",""trial"",""time""
""focus"",""2"",""32470""
""focus"",""2"",""43379""
","""event"",""trial"",""time""
""fullscreenenter"",""0"",""957""
","
","1370","<div class='center'><p> See, he succeeded in robbing the ships most of the time but not every time. </p><p><b>[Press the space bar to continue]</b></p></div>","32","","","","","","","","","","","","","","","","","","","","","","",""
"","audio-keyboard-response","32","168568","0.0-32.0","""event"",""trial"",""time""
""fullscreenenter"",""0"",""957""
""blur"",""2"",""29421""
""focus"",""2"",""32470""
""blur"",""2"",""39277""
""focus"",""2"",""43379""
","""event"",""trial"",""time""
""blur"",""2"",""29421""
""blur"",""2"",""39277""
","""event"",""trial"",""time""
""focus"",""2"",""32470""
""focus"",""2"",""43379""
","""event"",""trial"",""time""
""fullscreenenter"",""0"",""957""
","
","9535.300000000047","run_exp/static/audio/clip_7_pick_pirate.m4a","51","","","","","","","","","","","","","","","","","","","","","","",""
"","audio-keyboard-response","33","172316","0.0-33.0-0.0","""event"",""trial"",""time""
""fullscreenenter"",""0"",""957""
""blur"",""2"",""29421""
""focus"",""2"",""32470""
""blur"",""2"",""39277""
""focus"",""2"",""43379""
","""event"",""trial"",""time""
""blur"",""2"",""29421""
""blur"",""2"",""39277""
","""event"",""trial"",""time""
""focus"",""2"",""32470""
""focus"",""2"",""43379""
","""event"",""trial"",""time""
""fullscreenenter"",""0"",""957""
","
","3745.2000000001863","run_exp/static/audio/clip_8_chosen_pirate_win.m4a","32","","","","","","","","","","","","","","","","","","","","","","",""
"","audio-keyboard-response","34","174188","0.0-33.0-1.0","""event"",""trial"",""time""
""fullscreenenter"",""0"",""957""
""blur"",""2"",""29421""
""focus"",""2"",""32470""
""blur"",""2"",""39277""
""focus"",""2"",""43379""
","""event"",""trial"",""time""
""blur"",""2"",""29421""
""blur"",""2"",""39277""
","""event"",""trial"",""time""
""focus"",""2"",""32470""
""focus"",""2"",""43379""
","""event"",""trial"",""time""
""fullscreenenter"",""0"",""957""
","
","1871","run_exp/static/audio/clip_9_pick_a_pirate_again.m4a","50","","","","","","","","","","","","","","","","","","","","","","",""
"","audio-keyboard-response","35","176986","0.0-34.0-0.0","""event"",""trial"",""time""
""fullscreenenter"",""0"",""957""
""blur"",""2"",""29421""
""focus"",""2"",""32470""
""blur"",""2"",""39277""
""focus"",""2"",""43379""
","""event"",""trial"",""time""
""blur"",""2"",""29421""
""blur"",""2"",""39277""
","""event"",""trial"",""time""
""focus"",""2"",""32470""
""focus"",""2"",""43379""
","""event"",""trial"",""time""
""fullscreenenter"",""0"",""957""
","
","2795.7000000001863","run_exp/static/audio/clip_10_chosen_pirate_loss.m4a","32","","","","","","","","","","","","","","","","","","","","","","",""
"","instruc9","36","182472","0.0-35.0-0.0","""event"",""trial"",""time""
""fullscreenenter"",""0"",""957""
""blur"",""2"",""29421""
""focus"",""2"",""32470""
""blur"",""2"",""39277""
""focus"",""2"",""43379""
","""event"",""trial"",""time""
""blur"",""2"",""29421""
""blur"",""2"",""39277""
","""event"",""trial"",""time""
""focus"",""2"",""32470""
""focus"",""2"",""43379""
","""event"",""trial"",""time""
""fullscreenenter"",""0"",""957""
","
","null","run_exp/static/audio/clip_11_time_out.m4a","null","","","","","<div class='center'><p>If you don’t make your choice fast enough, you’ll have to wait a few seconds before you can make another one. </p><p><img src='run_exp/static/images/miscellaneous/hurry_up.png' height='500'></p></div>","","","","","","","","","","","","","","","","","",""
"","html-keyboard-response","37","183629","0.0-35.0-1.0","""event"",""trial"",""time""
""fullscreenenter"",""0"",""957""
""blur"",""2"",""29421""
""focus"",""2"",""32470""
""blur"",""2"",""39277""
""focus"",""2"",""43379""
","""event"",""trial"",""time""
""blur"",""2"",""29421""
""blur"",""2"",""39277""
","""event"",""trial"",""time""
""focus"",""2"",""32470""
""focus"",""2"",""43379""
","""event"",""trial"",""time""
""fullscreenenter"",""0"",""957""
","
","1155.5999999998603","<div class='center'><p>If you don’t make your choice fast enough, you’ll have to wait a few seconds before you can make another one. </p><p><img src='run_exp/static/images/miscellaneous/hurry_up.png' height='500'></p><p><b>[Press the space bar to continue]</b></p></div>","32","","","","","","","","","","","","","","","","","","","","","","",""
"","instruc10","38","222707","0.0-35.0-2.0","""event"",""trial"",""time""
""fullscreenenter"",""0"",""957""
""blur"",""2"",""29421""
""focus"",""2"",""32470""
""blur"",""2"",""39277""
""focus"",""2"",""43379""
","""event"",""trial"",""time""
""blur"",""2"",""29421""
""blur"",""2"",""39277""
","""event"",""trial"",""time""
""focus"",""2"",""32470""
""focus"",""2"",""43379""
","""event"",""trial"",""time""
""fullscreenenter"",""0"",""957""
","
","null","run_exp/static/audio/clip_12_probe.m4a","null","","","","","<div class='center'><p>Once you've chosen a pirate, you’ll be shown the ship they are robbing. You will never rob the same ship twice. Ships can be told apart from one another by the image on them. These are the goods that they sell. See, this ship has a travel mug on it. </p><p> You’ll have to remember which island you saw each ship on. You will win more gold coins and hence more bonus money if you remember correctly! To help you remember, you can imagine a story. For example, here, you could imagine a mug full of water in the desert. Or, as another example, if on the forest island, your pirate robbed a ship with an apple on it, you could imagine an apple falling from a tree in the forest. </p><p><img src='run_exp/static/images/tutorial/example_probe.png' height='500'></p></div>","","","","","","","","","","","","","","","","","",""
"","html-keyboard-response","39","239170","0.0-35.0-3.0","""event"",""trial"",""time""
""fullscreenenter"",""0"",""957""
""blur"",""2"",""29421""
""focus"",""2"",""32470""
""blur"",""2"",""39277""
""focus"",""2"",""43379""
","""event"",""trial"",""time""
""blur"",""2"",""29421""
""blur"",""2"",""39277""
","""event"",""trial"",""time""
""focus"",""2"",""32470""
""focus"",""2"",""43379""
","""event"",""trial"",""time""
""fullscreenenter"",""0"",""957""
","
","16460.800000000047","<div class='center'><p>Once you've chosen a pirate, you’ll be shown the ship they are robbing. You will never rob the same ship twice. Ships can be told apart from one another by the image on them. These are the goods that they sell. See, this ship has a travel mug on it. </p><p> You’ll have to remember which island you saw each ship on. You will win more gold coins and hence more bonus money if you remember correctly! To help you remember, you can imagine a story. For example, here, you could imagine a mug full of water in the desert. Or, as another example, if on the forest island, your pirate robbed a ship with an apple on it, you could imagine an apple falling from a tree in the forest. </p><p><img src='run_exp/static/images/tutorial/example_probe.png' height='500'></p><p><b>[Press the space bar to continue]</b></p></div>","32","","","","","","","","","","","","","","","","","","","","","","",""
"","instruc11","40","255625","0.0-35.0-4.0","""event"",""trial"",""time""
""fullscreenenter"",""0"",""957""
""blur"",""2"",""29421""
""focus"",""2"",""32470""
""blur"",""2"",""39277""
""focus"",""2"",""43379""
","""event"",""trial"",""time""
""blur"",""2"",""29421""
""blur"",""2"",""39277""
","""event"",""trial"",""time""
""focus"",""2"",""32470""
""focus"",""2"",""43379""
","""event"",""trial"",""time""
""fullscreenenter"",""0"",""957""
","
","null","run_exp/static/audio/clip_13_changepoint.m4a","null","","","","","<div class='center'><p>How successful a pirate is at robbing ships will depend on the island you’re on.</p><p> A pirate may have visited this island many times before and gained a lot of practice robbing ships there.</p><p>So, they’re more likely to be successful than a pirate who has never visited the island before.</p></div>","","","","","","","","","","","","","","","","","",""
"","html-keyboard-response","41","261043","0.0-35.0-5.0","""event"",""trial"",""time""
""fullscreenenter"",""0"",""957""
""blur"",""2"",""29421""
""focus"",""2"",""32470""
""blur"",""2"",""39277""
""focus"",""2"",""43379""
","""event"",""trial"",""time""
""blur"",""2"",""29421""
""blur"",""2"",""39277""
","""event"",""trial"",""time""
""focus"",""2"",""32470""
""focus"",""2"",""43379""
","""event"",""trial"",""time""
""fullscreenenter"",""0"",""957""
","
","5417.199999999953","<div class='center'><p>How successful a pirate is at robbing ships will depend on the island you’re on.</p><p> A pirate may have visited this island many times before and gained a lot of practice robbing ships there.</p><p>So, they’re more likely to be successful than a pirate who has never visited the island before.</p><p><b>[Press the space bar to continue]</b></p></div>","32","","","","","","","","","","","","","","","","","","","","","","",""
"","instruc12","42","302132","0.0-35.0-6.0","""event"",""trial"",""time""
""fullscreenenter"",""0"",""957""
""blur"",""2"",""29421""
""focus"",""2"",""32470""
""blur"",""2"",""39277""
""focus"",""2"",""43379""
","""event"",""trial"",""time""
""blur"",""2"",""29421""
""blur"",""2"",""39277""
","""event"",""trial"",""time""
""focus"",""2"",""32470""
""focus"",""2"",""43379""
","""event"",""trial"",""time""
""fullscreenenter"",""0"",""957""
","
","null","run_exp/static/audio/clip_14_drift.m4a","null","","","","","<div class='center'><p>How successful a pirate is at robbing ships can also change over the time spent on the island. </p><p> Ships may hear from islanders about the pirates coming and will improve their protections against the attack. This may make it harder to rob them.</p><p> Ships may also become lazy and weaken the strength of their protections. This may make it easier to rob them.</p><br><p>Things are always changing on the high seas! So, try your best to pay attention!</p><p><img src='run_exp/static/images/tutorial/contingency.png' height='500'></p></div>","","","","","","","","","","","","","","","","","",""
"","html-keyboard-response","43","303494","0.0-35.0-7.0","""event"",""trial"",""time""
""fullscreenenter"",""0"",""957""
""blur"",""2"",""29421""
""focus"",""2"",""32470""
""blur"",""2"",""39277""
""focus"",""2"",""43379""
","""event"",""trial"",""time""
""blur"",""2"",""29421""
""blur"",""2"",""39277""
","""event"",""trial"",""time""
""focus"",""2"",""32470""
""focus"",""2"",""43379""
","""event"",""trial"",""time""
""fullscreenenter"",""0"",""957""
","
","1360.2999999998137","<div class='center'><p>How successful a pirate is at robbing ships can also change over the time spent on the island. </p><p> Ships may hear from islanders about the pirates coming and will improve their protections against the attack. This may make it harder to rob them.</p><p> Ships may also become lazy and weaken the strength of their protections. This may make it easier to rob them.</p><br><p>Things are always changing on the high seas! So, try your best to pay attention!</p><p><img src='run_exp/static/images/tutorial/contingency.png' height='500'></p><p><b>[Press the space bar to continue]</b></p></div>","32","","","","","","","","","","","","","","","","","","","","","","",""
"","instruc13","44","338677","0.0-35.0-8.0","""event"",""trial"",""time""
""fullscreenenter"",""0"",""957""
""blur"",""2"",""29421""
""focus"",""2"",""32470""
""blur"",""2"",""39277""
""focus"",""2"",""43379""
","""event"",""trial"",""time""
""blur"",""2"",""29421""
""blur"",""2"",""39277""
","""event"",""trial"",""time""
""focus"",""2"",""32470""
""focus"",""2"",""43379""
","""event"",""trial"",""time""
""fullscreenenter"",""0"",""957""
","
","null","run_exp/static/audio/clip_15_summary.m4a","null","","","","","<div class='center'><p>Let's go over the instructions quickly again. You have two important things to do: </p><b><p> 1. Pick the pirate who is the best at robbing ships on the current island. </p></b><b><p> 2. Remember on which island a ship was robbed.</p> </b><p>The amount of bonus money you can win depends on both.</p><p><br><p>Let’s try a practice game. The game will start by showing you the pirates. First, pick a pirate using the <b> 1, 2, 3 </b> keys on your keyboard. When you are shown a ship, try to remember which island you’re on by making up a story.</p><p>This is just a practice game, so you’re not playing for money. </p><p> Good luck! This game will be very difficult but try your best!</p></div>","","","","","","","","","","","","","","","","","",""
"","html-keyboard-response","45","339597","0.0-35.0-9.0","""event"",""trial"",""time""
""fullscreenenter"",""0"",""957""
""blur"",""2"",""29421""
""focus"",""2"",""32470""
""blur"",""2"",""39277""
""focus"",""2"",""43379""
","""event"",""trial"",""time""
""blur"",""2"",""29421""
""blur"",""2"",""39277""
","""event"",""trial"",""time""
""focus"",""2"",""32470""
""focus"",""2"",""43379""
","""event"",""trial"",""time""
""fullscreenenter"",""0"",""957""
","
","918.9000000001397","<div class='center'><p>Let's go over the instructions quickly again. You have two important things to do: </p><b><p> 1. Pick the pirate who is the best at robbing ships on the current island. </p></b><b><p> 2. Remember on which island a ship was robbed.</p> </b><p>The amount of bonus money you can win depends on both.</p><p><br><p>Let’s try a practice game. The game will start by showing you the pirates. First, pick a pirate using the <b> 1, 2, 3 </b> keys on your keyboard. When you are shown a ship, try to remember which island you’re on by making up a story.</p><p>This is just a practice game, so you’re not playing for money. </p><p> Good luck! This game will be very difficult but try your best!</p><p><b>[Press the space bar to continue]</b></p></div>","32","","","","","","","","","","","","","","","","","","","","","","",""
"","do_welcome","46","343604","0.0-35.0-10.0","""event"",""trial"",""time""
""fullscreenenter"",""0"",""957""
""blur"",""2"",""29421""
""focus"",""2"",""32470""
""blur"",""2"",""39277""
""focus"",""2"",""43379""
","""event"",""trial"",""time""
""blur"",""2"",""29421""
""blur"",""2"",""39277""
","""event"",""trial"",""time""
""focus"",""2"",""32470""
""focus"",""2"",""43379""
","""event"",""trial"",""time""
""fullscreenenter"",""0"",""957""
","
","null","","","","","","","","null","","","","","","","","","","","","","","","","",""
"","do_trial","47","349734","0.0-35.0-11.0","""event"",""trial"",""time""
""fullscreenenter"",""0"",""957""
""blur"",""2"",""29421""
""focus"",""2"",""32470""
""blur"",""2"",""39277""
""focus"",""2"",""43379""
","""event"",""trial"",""time""
""blur"",""2"",""29421""
""blur"",""2"",""39277""
","""event"",""trial"",""time""
""focus"",""2"",""32470""
""focus"",""2"",""43379""
","""event"",""trial"",""time""
""fullscreenenter"",""0"",""957""
","
","1621.8999999999069","","","","","","","","50","1,0,0","","","","","","","","","","","","","","","",""
"","html-keyboard-response","48","350736","0.0-36.0-0.0","""event"",""trial"",""time""
""fullscreenenter"",""0"",""957""
""blur"",""2"",""29421""
""focus"",""2"",""32470""
""blur"",""2"",""39277""
""focus"",""2"",""43379""
","""event"",""trial"",""time""
""blur"",""2"",""29421""
""blur"",""2"",""39277""
","""event"",""trial"",""time""
""focus"",""2"",""32470""
""focus"",""2"",""43379""
","""event"",""trial"",""time""
""fullscreenenter"",""0"",""957""
","
","null","<p></p>","null","","","","","","","","","","","","","","","","","","","","","","",""
"","do_trial","49","356943","0.0-36.0-1.0","""event"",""trial"",""time""
""fullscreenenter"",""0"",""957""
""blur"",""2"",""29421""
""focus"",""2"",""32470""
""blur"",""2"",""39277""
""focus"",""2"",""43379""
","""event"",""trial"",""time""
""blur"",""2"",""29421""
""blur"",""2"",""39277""
","""event"",""trial"",""time""
""focus"",""2"",""32470""
""focus"",""2"",""43379""
","""event"",""trial"",""time""
""fullscreenenter"",""0"",""957""
","
","1695.6999999999534","","","","","","","","51","1,1,0","","","","","","","","","","","","","","","",""
"","html-keyboard-response","50","357950","0.0-37.0-0.0","""event"",""trial"",""time""
""fullscreenenter"",""0"",""957""
""blur"",""2"",""29421""
""focus"",""2"",""32470""
""blur"",""2"",""39277""
""focus"",""2"",""43379""
","""event"",""trial"",""time""
""blur"",""2"",""29421""
""blur"",""2"",""39277""
","""event"",""trial"",""time""
""focus"",""2"",""32470""
""focus"",""2"",""43379""
","""event"",""trial"",""time""
""fullscreenenter"",""0"",""957""
","
","null","<p></p>","null","","","","","","","","","","","","","","","","","","","","","","",""
"","do_trial","51","363797","0.0-37.0-1.0","""event"",""trial"",""time""
""fullscreenenter"",""0"",""957""
""blur"",""2"",""29421""
""focus"",""2"",""32470""
""blur"",""2"",""39277""
""focus"",""2"",""43379""
","""event"",""trial"",""time""
""blur"",""2"",""29421""
""blur"",""2"",""39277""
","""event"",""trial"",""time""
""focus"",""2"",""32470""
""focus"",""2"",""43379""
","""event"",""trial"",""time""
""fullscreenenter"",""0"",""957""
","
","1336.6000000000931","","","","","","","","49","1,0,1","","","","","","","","","","","","","","","",""
"","html-keyboard-response","52","364804","0.0-38.0-0.0","""event"",""trial"",""time""
""fullscreenenter"",""0"",""957""
""blur"",""2"",""29421""
""focus"",""2"",""32470""
""blur"",""2"",""39277""
""focus"",""2"",""43379""
","""event"",""trial"",""time""
""blur"",""2"",""29421""
""blur"",""2"",""39277""
","""event"",""trial"",""time""
""focus"",""2"",""32470""
""focus"",""2"",""43379""
","""event"",""trial"",""time""
""fullscreenenter"",""0"",""957""
","
","null","<p></p>","null","","","","","","","","","","","","","","","","","","","","","","",""
"","do_trial","53","370877","0.0-38.0-1.0","""event"",""trial"",""time""
""fullscreenenter"",""0"",""957""
""blur"",""2"",""29421""
""focus"",""2"",""32470""
""blur"",""2"",""39277""
""focus"",""2"",""43379""
","""event"",""trial"",""time""
""blur"",""2"",""29421""
""blur"",""2"",""39277""
","""event"",""trial"",""time""
""focus"",""2"",""32470""
""focus"",""2"",""43379""
","""event"",""trial"",""time""
""fullscreenenter"",""0"",""957""
","
","1564.8000000000466","","","","","","","","49","0,1,0","","","","","","","","","","","","","","","",""
"","html-keyboard-response","54","371884","0.0-39.0-0.0","""event"",""trial"",""time""
""fullscreenenter"",""0"",""957""
""blur"",""2"",""29421""
""focus"",""2"",""32470""
""blur"",""2"",""39277""
""focus"",""2"",""43379""
","""event"",""trial"",""time""
""blur"",""2"",""29421""
""blur"",""2"",""39277""
","""event"",""trial"",""time""
""focus"",""2"",""32470""
""focus"",""2"",""43379""
","""event"",""trial"",""time""
""fullscreenenter"",""0"",""957""
","
","null","<p></p>","null","","","","","","","","","","","","","","","","","","","","","","",""
"","do_trial","55","377655","0.0-39.0-1.0","""event"",""trial"",""time""
""fullscreenenter"",""0"",""957""
""blur"",""2"",""29421""
""focus"",""2"",""32470""
""blur"",""2"",""39277""
""focus"",""2"",""43379""
","""event"",""trial"",""time""
""blur"",""2"",""29421""
""blur"",""2"",""39277""
","""event"",""trial"",""time""
""focus"",""2"",""32470""
""focus"",""2"",""43379""
","""event"",""trial"",""time""
""fullscreenenter"",""0"",""957""
","
","1264","","","","","","","","50","1,0,0","","","","","","","","","","","","","","","",""
"","do_bye","56","379165","0.0-40.0-0.0","""event"",""trial"",""time""
""fullscreenenter"",""0"",""957""
""blur"",""2"",""29421""
""focus"",""2"",""32470""
""blur"",""2"",""39277""
""focus"",""2"",""43379""
","""event"",""trial"",""time""
""blur"",""2"",""29421""
""blur"",""2"",""39277""
","""event"",""trial"",""time""
""focus"",""2"",""32470""
""focus"",""2"",""43379""
","""event"",""trial"",""time""
""fullscreenenter"",""0"",""957""
","
","null","","","","","","","","null","","","","","","","","","","","","","","","","",""
"","do_travel","57","388171","0.0-40.0-1.0","""event"",""trial"",""time""
""fullscreenenter"",""0"",""957""
""blur"",""2"",""29421""
""focus"",""2"",""32470""
""blur"",""2"",""39277""
""focus"",""2"",""43379""
","""event"",""trial"",""time""
""blur"",""2"",""29421""
""blur"",""2"",""39277""
","""event"",""trial"",""time""
""focus"",""2"",""32470""
""focus"",""2"",""43379""
","""event"",""trial"",""time""
""fullscreenenter"",""0"",""957""
","
","null","","","","","","","","null","","","","","","","","","","","","","","","","",""
"","do_welcome","58","392181","0.0-40.0-2.0","""event"",""trial"",""time""
""fullscreenenter"",""0"",""957""
""blur"",""2"",""29421""
""focus"",""2"",""32470""
""blur"",""2"",""39277""
""focus"",""2"",""43379""
","""event"",""trial"",""time""
""blur"",""2"",""29421""
""blur"",""2"",""39277""
","""event"",""trial"",""time""
""focus"",""2"",""32470""
""focus"",""2"",""43379""
","""event"",""trial"",""time""
""fullscreenenter"",""0"",""957""
","
","null","","","","","","","","null","","","","","","","","","","","","","","","","",""
"","do_trial","59","398197","0.0-40.0-3.0","""event"",""trial"",""time""
""fullscreenenter"",""0"",""957""
""blur"",""2"",""29421""
""focus"",""2"",""32470""
""blur"",""2"",""39277""
""focus"",""2"",""43379""
","""event"",""trial"",""time""
""blur"",""2"",""29421""
""blur"",""2"",""39277""
","""event"",""trial"",""time""
""focus"",""2"",""32470""
""focus"",""2"",""43379""
","""event"",""trial"",""time""
""fullscreenenter"",""0"",""957""
","
","null","","","","","","","","null","1,0,0","","","","","","","","","","","","","","","",""
"","do_bye","60","399706","0.0-41.0-0.0","""event"",""trial"",""time""
""fullscreenenter"",""0"",""957""
""blur"",""2"",""29421""
""focus"",""2"",""32470""
""blur"",""2"",""39277""
""focus"",""2"",""43379""
","""event"",""trial"",""time""
""blur"",""2"",""29421""
""blur"",""2"",""39277""
","""event"",""trial"",""time""
""focus"",""2"",""32470""
""focus"",""2"",""43379""
","""event"",""trial"",""time""
""fullscreenenter"",""0"",""957""
","
","null","","","","","","","","null","","","","","","","","","","","","","","","","",""
"","do_travel","61","408716","0.0-41.0-1.0","""event"",""trial"",""time""
""fullscreenenter"",""0"",""957""
""blur"",""2"",""29421""
""focus"",""2"",""32470""
""blur"",""2"",""39277""
""focus"",""2"",""43379""
","""event"",""trial"",""time""
""blur"",""2"",""29421""
""blur"",""2"",""39277""
","""event"",""trial"",""time""
""focus"",""2"",""32470""
""focus"",""2"",""43379""
","""event"",""trial"",""time""
""fullscreenenter"",""0"",""957""
","
","null","","","","","","","","null","","","","","","","","","","","","","","","","",""
"","do_welcome","62","412726","0.0-41.0-2.0","""event"",""trial"",""time""
""fullscreenenter"",""0"",""957""
""blur"",""2"",""29421""
""focus"",""2"",""32470""
""blur"",""2"",""39277""
""focus"",""2"",""43379""
","""event"",""trial"",""time""
""blur"",""2"",""29421""
""blur"",""2"",""39277""
","""event"",""trial"",""time""
""focus"",""2"",""32470""
""focus"",""2"",""43379""
","""event"",""trial"",""time""
""fullscreenenter"",""0"",""957""
","
","null","","","","","","","","null","","","","","","","","","","","","","","","","",""
"","do_trial","63","417655","0.0-41.0-3.0","""event"",""trial"",""time""
""fullscreenenter"",""0"",""957""
""blur"",""2"",""29421""
""focus"",""2"",""32470""
""blur"",""2"",""39277""
""focus"",""2"",""43379""
","""event"",""trial"",""time""
""blur"",""2"",""29421""
""blur"",""2"",""39277""
","""event"",""trial"",""time""
""focus"",""2"",""32470""
""focus"",""2"",""43379""
","""event"",""trial"",""time""
""fullscreenenter"",""0"",""957""
","
","417.80000000004657","","","","","","","","50","1,0,0","","","","","","","","","","","","","","","",""
"","html-keyboard-response","64","418662","0.0-42.0-0.0","""event"",""trial"",""time""
""fullscreenenter"",""0"",""957""
""blur"",""2"",""29421""
""focus"",""2"",""32470""
""blur"",""2"",""39277""
""focus"",""2"",""43379""
","""event"",""trial"",""time""
""blur"",""2"",""29421""
""blur"",""2"",""39277""
","""event"",""trial"",""time""
""focus"",""2"",""32470""
""focus"",""2"",""43379""
","""event"",""trial"",""time""
""fullscreenenter"",""0"",""957""
","
","null","<p></p>","null","","","","","","","","","","","","","","","","","","","","","","",""
"","do_trial","65","424011","0.0-42.0-1.0","""event"",""trial"",""time""
""fullscreenenter"",""0"",""957""
""blur"",""2"",""29421""
""focus"",""2"",""32470""
""blur"",""2"",""39277""
""focus"",""2"",""43379""
","""event"",""trial"",""time""
""blur"",""2"",""29421""
""blur"",""2"",""39277""
","""event"",""trial"",""time""
""focus"",""2"",""32470""
""focus"",""2"",""43379""
","""event"",""trial"",""time""
""fullscreenenter"",""0"",""957""
","
","839.5","","","","","","","","51","1,0,1","","","","","","","","","","","","","","","",""
"","html-keyboard-response","66","425017","0.0-43.0-0.0","""event"",""trial"",""time""
""fullscreenenter"",""0"",""957""
""blur"",""2"",""29421""
""focus"",""2"",""32470""
""blur"",""2"",""39277""
""focus"",""2"",""43379""
","""event"",""trial"",""time""
""blur"",""2"",""29421""
""blur"",""2"",""39277""
","""event"",""trial"",""time""
""focus"",""2"",""32470""
""focus"",""2"",""43379""
","""event"",""trial"",""time""
""fullscreenenter"",""0"",""957""
","
","null","<p></p>","null","","","","","","","","","","","","","","","","","","","","","","",""
"","do_trial","67","430678","0.0-43.0-1.0","""event"",""trial"",""time""
""fullscreenenter"",""0"",""957""
""blur"",""2"",""29421""
""focus"",""2"",""32470""
""blur"",""2"",""39277""
""focus"",""2"",""43379""
","""event"",""trial"",""time""
""blur"",""2"",""29421""
""blur"",""2"",""39277""
","""event"",""trial"",""time""
""focus"",""2"",""32470""
""focus"",""2"",""43379""
","""event"",""trial"",""time""
""fullscreenenter"",""0"",""957""
","
","1149.8999999999069","","","","","","","","49","1,1,0","","","","","","","","","","","","","","","",""
"","html-keyboard-response","68","431684","0.0-44.0-0.0","""event"",""trial"",""time""
""fullscreenenter"",""0"",""957""
""blur"",""2"",""29421""
""focus"",""2"",""32470""
""blur"",""2"",""39277""
""focus"",""2"",""43379""
","""event"",""trial"",""time""
""blur"",""2"",""29421""
""blur"",""2"",""39277""
","""event"",""trial"",""time""
""focus"",""2"",""32470""
""focus"",""2"",""43379""
","""event"",""trial"",""time""
""fullscreenenter"",""0"",""957""
","
","null","<p></p>","null","","","","","","","","","","","","","","","","","","","","","","",""
"","do_trial","69","437564","0.0-44.0-1.0","""event"",""trial"",""time""
""fullscreenenter"",""0"",""957""
""blur"",""2"",""29421""
""focus"",""2"",""32470""
""blur"",""2"",""39277""
""focus"",""2"",""43379""
","""event"",""trial"",""time""
""blur"",""2"",""29421""
""blur"",""2"",""39277""
","""event"",""trial"",""time""
""focus"",""2"",""32470""
""focus"",""2"",""43379""
","""event"",""trial"",""time""
""fullscreenenter"",""0"",""957""
","
","1369.3999999999069","","","","","","","","49","0,0,1","","","","","","","","","","","","","","","",""
"","html-keyboard-response","70","438567","0.0-45.0-0.0","""event"",""trial"",""time""
""fullscreenenter"",""0"",""957""
""blur"",""2"",""29421""
""focus"",""2"",""32470""
""blur"",""2"",""39277""
""focus"",""2"",""43379""
","""event"",""trial"",""time""
""blur"",""2"",""29421""
""blur"",""2"",""39277""
","""event"",""trial"",""time""
""focus"",""2"",""32470""
""focus"",""2"",""43379""
","""event"",""trial"",""time""
""fullscreenenter"",""0"",""957""
","
","null","<p></p>","null","","","","","","","","","","","","","","","","","","","","","","",""
"","do_trial","71","443530","0.0-45.0-1.0","""event"",""trial"",""time""
""fullscreenenter"",""0"",""957""
""blur"",""2"",""29421""
""focus"",""2"",""32470""
""blur"",""2"",""39277""
""focus"",""2"",""43379""
","""event"",""trial"",""time""
""blur"",""2"",""29421""
""blur"",""2"",""39277""
","""event"",""trial"",""time""
""focus"",""2"",""32470""
""focus"",""2"",""43379""
","""event"",""trial"",""time""
""fullscreenenter"",""0"",""957""
","
","456.4000000001397","","","","","","","","51","1,0,1","","","","","","","","","","","","","","","",""
"","html-keyboard-response","72","445649","0.0-46.0-0.0","""event"",""trial"",""time""
""fullscreenenter"",""0"",""957""
""blur"",""2"",""29421""
""focus"",""2"",""32470""
""blur"",""2"",""39277""
""focus"",""2"",""43379""
","""event"",""trial"",""time""
""blur"",""2"",""29421""
""blur"",""2"",""39277""
","""event"",""trial"",""time""
""focus"",""2"",""32470""
""focus"",""2"",""43379""
","""event"",""trial"",""time""
""fullscreenenter"",""0"",""957""
","
","2116.5999999998603","<div class='center'><p><img src='run_exp/static/images/tutorial/prac_best_pirate.png'  height='500'></p></div>","51","","","","","","","","","","","","","","","","","","","","","","",""
"","html-keyboard-response","73","449783","0.0-47.0-0.0","""event"",""trial"",""time""
""fullscreenenter"",""0"",""957""
""blur"",""2"",""29421""
""focus"",""2"",""32470""
""blur"",""2"",""39277""
""focus"",""2"",""43379""
","""event"",""trial"",""time""
""blur"",""2"",""29421""
""blur"",""2"",""39277""
","""event"",""trial"",""time""
""focus"",""2"",""32470""
""focus"",""2"",""43379""
","""event"",""trial"",""time""
""fullscreenenter"",""0"",""957""
","
","4133.100000000093","<div class='center'><p>That's incorrect! Red beard was the best.</p><p><b>[Press the space bar to continue]</b></p></div>","32","","","","","","","","","","","","","","","","","","","","","","",""
"","html-keyboard-response","74","452868","0.0-47.0-1.0","""event"",""trial"",""time""
""fullscreenenter"",""0"",""957""
""blur"",""2"",""29421""
""focus"",""2"",""32470""
""blur"",""2"",""39277""
""focus"",""2"",""43379""
","""event"",""trial"",""time""
""blur"",""2"",""29421""
""blur"",""2"",""39277""
","""event"",""trial"",""time""
""focus"",""2"",""32470""
""focus"",""2"",""43379""
","""event"",""trial"",""time""
""fullscreenenter"",""0"",""957""
","
","3084.3000000000466","<div class='center'><p><img src='run_exp/static/images/tutorial/prac_source.png'  height='500'></p></div>","50","","","","","","","","","","","","","","","","","","","","","","",""
"","html-keyboard-response","75","454685","0.0-48.0-0.0","""event"",""trial"",""time""
""fullscreenenter"",""0"",""957""
""blur"",""2"",""29421""
""focus"",""2"",""32470""
""blur"",""2"",""39277""
""focus"",""2"",""43379""
","""event"",""trial"",""time""
""blur"",""2"",""29421""
""blur"",""2"",""39277""
","""event"",""trial"",""time""
""focus"",""2"",""32470""
""focus"",""2"",""43379""
","""event"",""trial"",""time""
""fullscreenenter"",""0"",""957""
","
","1815.8999999999069","<div class='center'><p>That's correct! You saw this ship on the cavern island.</p><p><b>[Press the space bar to continue]</b></p></div>","32","","","","","","","","","","","","","","","","","","","","","","",""
"","quiz_beginning","76","465931","0.0-48.0-1.0","""event"",""trial"",""time""
""fullscreenenter"",""0"",""957""
""blur"",""2"",""29421""
""focus"",""2"",""32470""
""blur"",""2"",""39277""
""focus"",""2"",""43379""
","""event"",""trial"",""time""
""blur"",""2"",""29421""
""blur"",""2"",""39277""
","""event"",""trial"",""time""
""focus"",""2"",""32470""
""focus"",""2"",""43379""
","""event"",""trial"",""time""
""fullscreenenter"",""0"",""957""
","
","null","run_exp/static/audio/clip_16_quiz_intro.m4a","null","","","","","<div class='center'><p>Good job on the practice game! Now, you will be asked some true or false questions to make sure you really understand the rules of the game.</p><p> Press <b>'1'</b> on the keyboard for true and press <b>'2'</b> for false.</p></div>","","","","","","","","","","","","","","","","","",""
"","audio-keyboard-response","77","469364","0.0-48.0-2.0","""event"",""trial"",""time""
""fullscreenenter"",""0"",""957""
""blur"",""2"",""29421""
""focus"",""2"",""32470""
""blur"",""2"",""39277""
""focus"",""2"",""43379""
","""event"",""trial"",""time""
""blur"",""2"",""29421""
""blur"",""2"",""39277""
","""event"",""trial"",""time""
""focus"",""2"",""32470""
""focus"",""2"",""43379""
","""event"",""trial"",""time""
""fullscreenenter"",""0"",""957""
","
","3432.2000000001863","run_exp/static/audio/clip_17_q1.m4a","49","","","","","","","","","","","","","","","","","","","","","","",""
"","correct","78","471775","0.0-49.0-0.0","""event"",""trial"",""time""
""fullscreenenter"",""0"",""957""
""blur"",""2"",""29421""
""focus"",""2"",""32470""
""blur"",""2"",""39277""
""focus"",""2"",""43379""
","""event"",""trial"",""time""
""blur"",""2"",""29421""
""blur"",""2"",""39277""
","""event"",""trial"",""time""
""focus"",""2"",""32470""
""focus"",""2"",""43379""
","""event"",""trial"",""time""
""fullscreenenter"",""0"",""957""
","
","null","run_exp/static/audio/clip_18_correct.m4a","null","","","","","<div class='center'><p>That's correct!</p></div>","","","","","","","","","","","","","","","","","",""
"","html-keyboard-response","79","473839","0.0-49.0-1.0","""event"",""trial"",""time""
""fullscreenenter"",""0"",""957""
""blur"",""2"",""29421""
""focus"",""2"",""32470""
""blur"",""2"",""39277""
""focus"",""2"",""43379""
","""event"",""trial"",""time""
""blur"",""2"",""29421""
""blur"",""2"",""39277""
","""event"",""trial"",""time""
""focus"",""2"",""32470""
""focus"",""2"",""43379""
","""event"",""trial"",""time""
""fullscreenenter"",""0"",""957""
","
","2062.899999999907","<div class='center'><p>That's correct!</p><p><b>[Press the space bar to continue]</b></p></div>","32","","","","","","","","","","","","","","","","","","","","","","",""
"","audio-keyboard-response","80","478962","0.0-49.0-2.0","""event"",""trial"",""time""
""fullscreenenter"",""0"",""957""
""blur"",""2"",""29421""
""focus"",""2"",""32470""
""blur"",""2"",""39277""
""focus"",""2"",""43379""
","""event"",""trial"",""time""
""blur"",""2"",""29421""
""blur"",""2"",""39277""
","""event"",""trial"",""time""
""focus"",""2"",""32470""
""focus"",""2"",""43379""
","""event"",""trial"",""time""
""fullscreenenter"",""0"",""957""
","
","5122","run_exp/static/audio/clip_20_q2.m4a","50","","","","","","","","","","","","","","","","","","","","","","",""
"","correct","81","481355","0.0-50.0-0.0","""event"",""trial"",""time""
""fullscreenenter"",""0"",""957""
""blur"",""2"",""29421""
""focus"",""2"",""32470""
""blur"",""2"",""39277""
""focus"",""2"",""43379""
","""event"",""trial"",""time""
""blur"",""2"",""29421""
""blur"",""2"",""39277""
","""event"",""trial"",""time""
""focus"",""2"",""32470""
""focus"",""2"",""43379""
","""event"",""trial"",""time""
""fullscreenenter"",""0"",""957""
","
","null","run_exp/static/audio/clip_18_correct.m4a","null","","","","","<div class='center'><p>That's correct!</p></div>","","","","","","","","","","","","","","","","","",""
"","html-keyboard-response","82","482606","0.0-50.0-1.0","""event"",""trial"",""time""
""fullscreenenter"",""0"",""957""
""blur"",""2"",""29421""
""focus"",""2"",""32470""
""blur"",""2"",""39277""
""focus"",""2"",""43379""
","""event"",""trial"",""time""
""blur"",""2"",""29421""
""blur"",""2"",""39277""
","""event"",""trial"",""time""
""focus"",""2"",""32470""
""focus"",""2"",""43379""
","""event"",""trial"",""time""
""fullscreenenter"",""0"",""957""
","
","1250.3000000000466","<div class='center'><p>That's correct!</p><p><b>[Press the space bar to continue]</b></p></div>","32","","","","","","","","","","","","","","","","","","","","","","",""
"","audio-keyboard-response","83","489742","0.0-50.0-2.0","""event"",""trial"",""time""
""fullscreenenter"",""0"",""957""
""blur"",""2"",""29421""
""focus"",""2"",""32470""
""blur"",""2"",""39277""
""focus"",""2"",""43379""
","""event"",""trial"",""time""
""blur"",""2"",""29421""
""blur"",""2"",""39277""
","""event"",""trial"",""time""
""focus"",""2"",""32470""
""focus"",""2"",""43379""
","""event"",""trial"",""time""
""fullscreenenter"",""0"",""957""
","
","7135","run_exp/static/audio/clip_22_q3.m4a","50","","","","","","","","","","","","","","","","","","","","","","",""
"","correct","84","492150","0.0-51.0-0.0","""event"",""trial"",""time""
""fullscreenenter"",""0"",""957""
""blur"",""2"",""29421""
""focus"",""2"",""32470""
""blur"",""2"",""39277""
""focus"",""2"",""43379""
","""event"",""trial"",""time""
""blur"",""2"",""29421""
""blur"",""2"",""39277""
","""event"",""trial"",""time""
""focus"",""2"",""32470""
""focus"",""2"",""43379""
","""event"",""trial"",""time""
""fullscreenenter"",""0"",""957""
","
","null","run_exp/static/audio/clip_18_correct.m4a","null","","","","","<div class='center'><p>That's correct!</p></div>","","","","","","","","","","","","","","","","","",""
"","html-keyboard-response","85","493342","0.0-51.0-1.0","""event"",""trial"",""time""
""fullscreenenter"",""0"",""957""
""blur"",""2"",""29421""
""focus"",""2"",""32470""
""blur"",""2"",""39277""
""focus"",""2"",""43379""
","""event"",""trial"",""time""
""blur"",""2"",""29421""
""blur"",""2"",""39277""
","""event"",""trial"",""time""
""focus"",""2"",""32470""
""focus"",""2"",""43379""
","""event"",""trial"",""time""
""fullscreenenter"",""0"",""957""
","
","1191.3000000000466","<div class='center'><p>That's correct!</p><p><b>[Press the space bar to continue]</b></p></div>","32","","","","","","","","","","","","","","","","","","","","","","",""
"","audio-keyboard-response","86","496035","0.0-51.0-2.0","""event"",""trial"",""time""
""fullscreenenter"",""0"",""957""
""blur"",""2"",""29421""
""focus"",""2"",""32470""
""blur"",""2"",""39277""
""focus"",""2"",""43379""
","""event"",""trial"",""time""
""blur"",""2"",""29421""
""blur"",""2"",""39277""
","""event"",""trial"",""time""
""focus"",""2"",""32470""
""focus"",""2"",""43379""
","""event"",""trial"",""time""
""fullscreenenter"",""0"",""957""
","
","2692","run_exp/static/audio/clip_24_q4.m4a","49","","","","","","","","","","","","","","","","","","","","","","",""
"","correct","87","498465","0.0-52.0-0.0","""event"",""trial"",""time""
""fullscreenenter"",""0"",""957""
""blur"",""2"",""29421""
""focus"",""2"",""32470""
""blur"",""2"",""39277""
""focus"",""2"",""43379""
","""event"",""trial"",""time""
""blur"",""2"",""29421""
""blur"",""2"",""39277""
","""event"",""trial"",""time""
""focus"",""2"",""32470""
""focus"",""2"",""43379""
","""event"",""trial"",""time""
""fullscreenenter"",""0"",""957""
","
","null","run_exp/static/audio/clip_18_correct.m4a","null","","","","","<div class='center'><p>That's correct!</p></div>","","","","","","","","","","","","","","","","","",""
"","html-keyboard-response","88","499412","0.0-52.0-1.0","""event"",""trial"",""time""
""fullscreenenter"",""0"",""957""
""blur"",""2"",""29421""
""focus"",""2"",""32470""
""blur"",""2"",""39277""
""focus"",""2"",""43379""
","""event"",""trial"",""time""
""blur"",""2"",""29421""
""blur"",""2"",""39277""
","""event"",""trial"",""time""
""focus"",""2"",""32470""
""focus"",""2"",""43379""
","""event"",""trial"",""time""
""fullscreenenter"",""0"",""957""
","
","946","<div class='center'><p>That's correct!</p><p><b>[Press the space bar to continue]</b></p></div>","32","","","","","","","","","","","","","","","","","","","","","","",""
"","q_all_corr","89","507894","0.0-53.0-0.0","""event"",""trial"",""time""
""fullscreenenter"",""0"",""957""
""blur"",""2"",""29421""
""focus"",""2"",""32470""
""blur"",""2"",""39277""
""focus"",""2"",""43379""
","""event"",""trial"",""time""
""blur"",""2"",""29421""
""blur"",""2"",""39277""
","""event"",""trial"",""time""
""focus"",""2"",""32470""
""focus"",""2"",""43379""
","""event"",""trial"",""time""
""fullscreenenter"",""0"",""957""
","
","null","run_exp/static/audio/clip_27_quiz_all_correct.m4a","null","","","","","<div class='center'><p>Good job! You’re now ready to move on to the real game! Remember this game will be difficult but don't get discouraged and try your best!</p></div>","","","","","","","","","","","","","","","","","",""
"","html-keyboard-response","90","509978","0.0-53.0-1.0","""event"",""trial"",""time""
""fullscreenenter"",""0"",""957""
""blur"",""2"",""29421""
""focus"",""2"",""32470""
""blur"",""2"",""39277""
""focus"",""2"",""43379""
","""event"",""trial"",""time""
""blur"",""2"",""29421""
""blur"",""2"",""39277""
","""event"",""trial"",""time""
""focus"",""2"",""32470""
""focus"",""2"",""43379""
","""event"",""trial"",""time""
""fullscreenenter"",""0"",""957""
","
","2082.100000000093","<div class='center'><p>Good job! You’re now ready to move on to the real game! Remember this game will be difficult but don't get discouraged and try your best!</p><p><b>[Press the space bar to continue]</b></p></div>","32","","","","","","","","","","","","","","","","","","","","","","",""
"","do_welcome","91","513987","0.0-54.0-0.0","""event"",""trial"",""time""
""fullscreenenter"",""0"",""957""
""blur"",""2"",""29421""
""focus"",""2"",""32470""
""blur"",""2"",""39277""
""focus"",""2"",""43379""
","""event"",""trial"",""time""
""blur"",""2"",""29421""
""blur"",""2"",""39277""
","""event"",""trial"",""time""
""focus"",""2"",""32470""
""focus"",""2"",""43379""
","""event"",""trial"",""time""
""fullscreenenter"",""0"",""957""
","
","null","","","","","","","","null","","","","","","","","","","","","","","","","",""
"","do_trial","92","520471","0.0-55.0-0.0","""event"",""trial"",""time""
""fullscreenenter"",""0"",""957""
""blur"",""2"",""29421""
""focus"",""2"",""32470""
""blur"",""2"",""39277""
""focus"",""2"",""43379""
","""event"",""trial"",""time""
""blur"",""2"",""29421""
""blur"",""2"",""39277""
","""event"",""trial"",""time""
""focus"",""2"",""32470""
""focus"",""2"",""43379""
","""event"",""trial"",""time""
""fullscreenenter"",""0"",""957""
","
","1939.6000000000931","","","","","","","","51","1,0,0","0","city","0","probe-202","0.6","0.3","0.1","0","","","","","","","",""
"","html-keyboard-response","93","521478","0.0-55.0-1.0","""event"",""trial"",""time""
""fullscreenenter"",""0"",""957""
""blur"",""2"",""29421""
""focus"",""2"",""32470""
""blur"",""2"",""39277""
""focus"",""2"",""43379""
","""event"",""trial"",""time""
""blur"",""2"",""29421""
""blur"",""2"",""39277""
","""event"",""trial"",""time""
""focus"",""2"",""32470""
""focus"",""2"",""43379""
","""event"",""trial"",""time""
""fullscreenenter"",""0"",""957""
","
","null","<p></p>","null","","","","","","","","","","","","","","","","","","","","","","",""
"","do_trial","94","526509","0.0-56.0-0.0","""event"",""trial"",""time""
""fullscreenenter"",""0"",""957""
""blur"",""2"",""29421""
""focus"",""2"",""32470""
""blur"",""2"",""39277""
""focus"",""2"",""43379""
","""event"",""trial"",""time""
""blur"",""2"",""29421""
""blur"",""2"",""39277""
","""event"",""trial"",""time""
""focus"",""2"",""32470""
""focus"",""2"",""43379""
","""event"",""trial"",""time""
""fullscreenenter"",""0"",""957""
","
","487.9000000001397","","","","","","","","50","0,1,0","0","city","1","probe-103","0.6135957152773801","0.329192386716463","0.2660632645122582","1","","","","","","","",""
"","html-keyboard-response","95","527515","0.0-56.0-1.0","""event"",""trial"",""time""
""fullscreenenter"",""0"",""957""
""blur"",""2"",""29421""
""focus"",""2"",""32470""
""blur"",""2"",""39277""
""focus"",""2"",""43379""
","""event"",""trial"",""time""
""blur"",""2"",""29421""
""blur"",""2"",""39277""
","""event"",""trial"",""time""
""focus"",""2"",""32470""
""focus"",""2"",""43379""
","""event"",""trial"",""time""
""fullscreenenter"",""0"",""957""
","
","null","<p></p>","null","","","","","","","","","","","","","","","","","","","","","","",""
"","do_trial","96","532856","0.0-57.0-0.0","""event"",""trial"",""time""
""fullscreenenter"",""0"",""957""
""blur"",""2"",""29421""
""focus"",""2"",""32470""
""blur"",""2"",""39277""
""focus"",""2"",""43379""
","""event"",""trial"",""time""
""blur"",""2"",""29421""
""blur"",""2"",""39277""
","""event"",""trial"",""time""
""focus"",""2"",""32470""
""focus"",""2"",""43379""
","""event"",""trial"",""time""
""fullscreenenter"",""0"",""957""
","
","793.5","","","","","","","","50","0,1,0","0","city","2","probe-109","0.6885612825202965","0.3644344976281329","0.22321049954287409","1","","","","","","","",""
"","html-keyboard-response","97","533859","0.0-57.0-1.0","""event"",""trial"",""time""
""fullscreenenter"",""0"",""957""
""blur"",""2"",""29421""
""focus"",""2"",""32470""
""blur"",""2"",""39277""
""focus"",""2"",""43379""
","""event"",""trial"",""time""
""blur"",""2"",""29421""
""blur"",""2"",""39277""
","""event"",""trial"",""time""
""focus"",""2"",""32470""
""focus"",""2"",""43379""
","""event"",""trial"",""time""
""fullscreenenter"",""0"",""957""
","
","null","<p></p>","null","","","","","","","","","","","","","","","","","","","","","","",""
"","do_trial","98","538939","0.0-58.0-0.0","""event"",""trial"",""time""
""fullscreenenter"",""0"",""957""
""blur"",""2"",""29421""
""focus"",""2"",""32470""
""blur"",""2"",""39277""
""focus"",""2"",""43379""
","""event"",""trial"",""time""
""blur"",""2"",""29421""
""blur"",""2"",""39277""
","""event"",""trial"",""time""
""focus"",""2"",""32470""
""focus"",""2"",""43379""
","""event"",""trial"",""time""
""fullscreenenter"",""0"",""957""
","
","537.6000000000931","","","","","","","","50","0,0,0","0","city","3","probe-01","0.5794565628317524","0.3344864244610051","0.24846026990459874","0","","","","","","","",""
"","html-keyboard-response","99","539945","0.0-58.0-1.0","""event"",""trial"",""time""
""fullscreenenter"",""0"",""957""
""blur"",""2"",""29421""
""focus"",""2"",""32470""
""blur"",""2"",""39277""
""focus"",""2"",""43379""
","""event"",""trial"",""time""
""blur"",""2"",""29421""
""blur"",""2"",""39277""
","""event"",""trial"",""time""
""focus"",""2"",""32470""
""focus"",""2"",""43379""
","""event"",""trial"",""time""
""fullscreenenter"",""0"",""957""
","
","null","<p></p>","null","","","","","","","","","","","","","","","","","","","","","","",""
"","do_trial","100","545031","0.0-59.0-0.0","""event"",""trial"",""time""
""fullscreenenter"",""0"",""957""
""blur"",""2"",""29421""
""focus"",""2"",""32470""
""blur"",""2"",""39277""
""focus"",""2"",""43379""
","""event"",""trial"",""time""
""blur"",""2"",""29421""
""blur"",""2"",""39277""
","""event"",""trial"",""time""
""focus"",""2"",""32470""
""focus"",""2"",""43379""
","""event"",""trial"",""time""
""fullscreenenter"",""0"",""957""
","
","538.9000000001397","","","","","","","","50","1,0,0","0","city","4","probe-158","0.538191557430491","0.46098276596859256","0.16699201280238454","0","","","","","","","",""
"","html-keyboard-response","101","546034","0.0-59.0-1.0","""event"",""trial"",""time""
""fullscreenenter"",""0"",""957""
""blur"",""2"",""29421""
""focus"",""2"",""32470""
""blur"",""2"",""39277""
""focus"",""2"",""43379""
","""event"",""trial"",""time""
""blur"",""2"",""29421""
""blur"",""2"",""39277""
","""event"",""trial"",""time""
""focus"",""2"",""32470""
""focus"",""2"",""43379""
","""event"",""trial"",""time""
""fullscreenenter"",""0"",""957""
","
","null","<p></p>","null","","","","","","","","","","","","","","","","","","","","","","",""
"","do_trial","102","551104","0.0-60.0-0.0","""event"",""trial"",""time""
""fullscreenenter"",""0"",""957""
""blur"",""2"",""29421""
""focus"",""2"",""32470""
""blur"",""2"",""39277""
""focus"",""2"",""43379""
","""event"",""trial"",""time""
""blur"",""2"",""29421""
""blur"",""2"",""39277""
","""event"",""trial"",""time""
""focus"",""2"",""32470""
""focus"",""2"",""43379""
","""event"",""trial"",""time""
""fullscreenenter"",""0"",""957""
","
","523.2999999998137","","","","","","","","49","0,0,0","0","city","5","probe-24","0.4641331293146386","0.4188477976594244","0.17373337543688178","0","","","","","","","",""
"","html-keyboard-response","103","552105","0.0-60.0-1.0","""event"",""trial"",""time""
""fullscreenenter"",""0"",""957""
""blur"",""2"",""29421""
""focus"",""2"",""32470""
""blur"",""2"",""39277""
""focus"",""2"",""43379""
","""event"",""trial"",""time""
""blur"",""2"",""29421""
""blur"",""2"",""39277""
","""event"",""trial"",""time""
""focus"",""2"",""32470""
""focus"",""2"",""43379""
","""event"",""trial"",""time""
""fullscreenenter"",""0"",""957""
","
","null","<p></p>","null","","","","","","","","","","","","","","","","","","","","","","",""
"","do_trial","104","557007","0.0-61.0-0.0","""event"",""trial"",""time""
""fullscreenenter"",""0"",""957""
""blur"",""2"",""29421""
""focus"",""2"",""32470""
""blur"",""2"",""39277""
""focus"",""2"",""43379""
","""event"",""trial"",""time""
""blur"",""2"",""29421""
""blur"",""2"",""39277""
","""event"",""trial"",""time""
""focus"",""2"",""32470""
""focus"",""2"",""43379""
","""event"",""trial"",""time""
""fullscreenenter"",""0"",""957""
","
","355.19999999995343","","","","","","","","50","0,1,0","0","city","6","probe-222","0.5168062738526461","0.34557490110494216","0.1169447639025934","1","","","","","","","",""
"","html-keyboard-response","105","558009","0.0-61.0-1.0","""event"",""trial"",""time""
""fullscreenenter"",""0"",""957""
""blur"",""2"",""29421""
""focus"",""2"",""32470""
""blur"",""2"",""39277""
""focus"",""2"",""43379""
","""event"",""trial"",""time""
""blur"",""2"",""29421""
""blur"",""2"",""39277""
","""event"",""trial"",""time""
""focus"",""2"",""32470""
""focus"",""2"",""43379""
","""event"",""trial"",""time""
""fullscreenenter"",""0"",""957""
","
","null","<p></p>","null","","","","","","","","","","","","","","","","","","","","","","",""
"","do_trial","106","563015","0.0-62.0-0.0","""event"",""trial"",""time""
""fullscreenenter"",""0"",""957""
""blur"",""2"",""29421""
""focus"",""2"",""32470""
""blur"",""2"",""39277""
""focus"",""2"",""43379""
","""event"",""trial"",""time""
""blur"",""2"",""29421""
""blur"",""2"",""39277""
","""event"",""trial"",""time""
""focus"",""2"",""32470""
""focus"",""2"",""43379""
","""event"",""trial"",""time""
""fullscreenenter"",""0"",""957""
","
","459.0999999998603","","","","","","","","50","1,0,0","0","city","7","probe-89","0.48997232379830463","0.3099371530427571","0.06109392026403985","0","","","","","","","",""
"","html-keyboard-response","107","564022","0.0-62.0-1.0","""event"",""trial"",""time""
""fullscreenenter"",""0"",""957""
""blur"",""2"",""29421""
""focus"",""2"",""32470""
""blur"",""2"",""39277""
""focus"",""2"",""43379""
","""event"",""trial"",""time""
""blur"",""2"",""29421""
""blur"",""2"",""39277""
","""event"",""trial"",""time""
""focus"",""2"",""32470""
""focus"",""2"",""43379""
","""event"",""trial"",""time""
""fullscreenenter"",""0"",""957""
","
","null","<p></p>","null","","","","","","","","","","","","","","","","","","","","","","",""
"","do_trial","108","569771","0.0-63.0-0.0","""event"",""trial"",""time""
""fullscreenenter"",""0"",""957""
""blur"",""2"",""29421""
""focus"",""2"",""32470""
""blur"",""2"",""39277""
""focus"",""2"",""43379""
","""event"",""trial"",""time""
""blur"",""2"",""29421""
""blur"",""2"",""39277""
","""event"",""trial"",""time""
""focus"",""2"",""32470""
""focus"",""2"",""43379""
","""event"",""trial"",""time""
""fullscreenenter"",""0"",""957""
","
","1204.3000000000466","","","","","","","","50","1,0,0","0","city","8","probe-187","0.5140545394246077","0.36416630681575224","0.1374162692674362","0","","","","","","","",""
"","html-keyboard-response","109","570778","0.0-63.0-1.0","""event"",""trial"",""time""
""fullscreenenter"",""0"",""957""
""blur"",""2"",""29421""
""focus"",""2"",""32470""
""blur"",""2"",""39277""
""focus"",""2"",""43379""
","""event"",""trial"",""time""
""blur"",""2"",""29421""
""blur"",""2"",""39277""
","""event"",""trial"",""time""
""focus"",""2"",""32470""
""focus"",""2"",""43379""
","""event"",""trial"",""time""
""fullscreenenter"",""0"",""957""
","
","null","<p></p>","null","","","","","","","","","","","","","","","","","","","","","","",""
"","do_trial","110","576240","0.0-64.0-0.0","""event"",""trial"",""time""
""fullscreenenter"",""0"",""957""
""blur"",""2"",""29421""
""focus"",""2"",""32470""
""blur"",""2"",""39277""
""focus"",""2"",""43379""
","""event"",""trial"",""time""
""blur"",""2"",""29421""
""blur"",""2"",""39277""
","""event"",""trial"",""time""
""focus"",""2"",""32470""
""focus"",""2"",""43379""
","""event"",""trial"",""time""
""fullscreenenter"",""0"",""957""
","
","919.7000000001863","","","","","","","","49","0,1,0","0","city","9","probe-13","0.5391777147844751","0.24871760746205224","0.21633587462708279","0","","","","","","","",""
"","html-keyboard-response","111","577246","0.0-64.0-1.0","""event"",""trial"",""time""
""fullscreenenter"",""0"",""957""
""blur"",""2"",""29421""
""focus"",""2"",""32470""
""blur"",""2"",""39277""
""focus"",""2"",""43379""
","""event"",""trial"",""time""
""blur"",""2"",""29421""
""blur"",""2"",""39277""
","""event"",""trial"",""time""
""focus"",""2"",""32470""
""focus"",""2"",""43379""
","""event"",""trial"",""time""
""fullscreenenter"",""0"",""957""
","
","null","<p></p>","null","","","","","","","","","","","","","","","","","","","","","","",""
"","do_trial","112","582434","0.0-65.0-0.0","""event"",""trial"",""time""
""fullscreenenter"",""0"",""957""
""blur"",""2"",""29421""
""focus"",""2"",""32470""
""blur"",""2"",""39277""
""focus"",""2"",""43379""
","""event"",""trial"",""time""
""blur"",""2"",""29421""
""blur"",""2"",""39277""
","""event"",""trial"",""time""
""focus"",""2"",""32470""
""focus"",""2"",""43379""
","""event"",""trial"",""time""
""fullscreenenter"",""0"",""957""
","
","641","","","","","","","","50","1,0,0","0","city","10","probe-96","0.6127103778918231","0.2666138769742597","0.10798366012221004","0","","","","","","","",""
"","html-keyboard-response","113","583438","0.0-65.0-1.0","""event"",""trial"",""time""
""fullscreenenter"",""0"",""957""
""blur"",""2"",""29421""
""focus"",""2"",""32470""
""blur"",""2"",""39277""
""focus"",""2"",""43379""
","""event"",""trial"",""time""
""blur"",""2"",""29421""
""blur"",""2"",""39277""
","""event"",""trial"",""time""
""focus"",""2"",""32470""
""focus"",""2"",""43379""
","""event"",""trial"",""time""
""fullscreenenter"",""0"",""957""
","
","null","<p></p>","null","","","","","","","","","","","","","","","","","","","","","","",""
"","do_trial","114","588610","0.0-66.0-0.0","""event"",""trial"",""time""
""fullscreenenter"",""0"",""957""
""blur"",""2"",""29421""
""focus"",""2"",""32470""
""blur"",""2"",""39277""
""focus"",""2"",""43379""
","""event"",""trial"",""time""
""blur"",""2"",""29421""
""blur"",""2"",""39277""
","""event"",""trial"",""time""
""focus"",""2"",""32470""
""focus"",""2"",""43379""
","""event"",""trial"",""time""
""fullscreenenter"",""0"",""957""
","
","625.3000000000466","","","","","","","","51","0,0,0","0","city","11","probe-04","0.6183607556346101","0.44106496244773674","0.10301387636031038","0","","","","","","","",""
"","html-keyboard-response","115","589616","0.0-66.0-1.0","""event"",""trial"",""time""
""fullscreenenter"",""0"",""957""
""blur"",""2"",""29421""
""focus"",""2"",""32470""
""blur"",""2"",""39277""
""focus"",""2"",""43379""
","""event"",""trial"",""time""
""blur"",""2"",""29421""
""blur"",""2"",""39277""
","""event"",""trial"",""time""
""focus"",""2"",""32470""
""focus"",""2"",""43379""
","""event"",""trial"",""time""
""fullscreenenter"",""0"",""957""
","
","null","<p></p>","null","","","","","","","","","","","","","","","","","","","","","","",""
"","do_trial","116","594523","0.0-67.0-0.0","""event"",""trial"",""time""
""fullscreenenter"",""0"",""957""
""blur"",""2"",""29421""
""focus"",""2"",""32470""
""blur"",""2"",""39277""
""focus"",""2"",""43379""
","""event"",""trial"",""time""
""blur"",""2"",""29421""
""blur"",""2"",""39277""
","""event"",""trial"",""time""
""focus"",""2"",""32470""
""focus"",""2"",""43379""
","""event"",""trial"",""time""
""fullscreenenter"",""0"",""957""
","
","361.70000000018626","","","","","","","","50","1,0,0","0","city","12","probe-122","0.5523632244719527","0.4187511797744386","0.08252002984259009","0","","","","","","","",""
"","html-keyboard-response","117","595527","0.0-67.0-1.0","""event"",""trial"",""time""
""fullscreenenter"",""0"",""957""
""blur"",""2"",""29421""
""focus"",""2"",""32470""
""blur"",""2"",""39277""
""focus"",""2"",""43379""
","""event"",""trial"",""time""
""blur"",""2"",""29421""
""blur"",""2"",""39277""
","""event"",""trial"",""time""
""focus"",""2"",""32470""
""focus"",""2"",""43379""
","""event"",""trial"",""time""
""fullscreenenter"",""0"",""957""
","
","null","<p></p>","null","","","","","","","","","","","","","","","","","","","","","","",""
"","do_trial","118","600470","0.0-68.0-0.0","""event"",""trial"",""time""
""fullscreenenter"",""0"",""957""
""blur"",""2"",""29421""
""focus"",""2"",""32470""
""blur"",""2"",""39277""
""focus"",""2"",""43379""
","""event"",""trial"",""time""
""blur"",""2"",""29421""
""blur"",""2"",""39277""
","""event"",""trial"",""time""
""focus"",""2"",""32470""
""focus"",""2"",""43379""
","""event"",""trial"",""time""
""fullscreenenter"",""0"",""957""
","
","396.70000000018626","","","","","","","","51","1,1,0","0","city","13","probe-23","0.4617114972878912","0.4306436626329644","0.07782280183709407","0","","","","","","","",""
"","html-keyboard-response","119","601473","0.0-68.0-1.0","""event"",""trial"",""time""
""fullscreenenter"",""0"",""957""
""blur"",""2"",""29421""
""focus"",""2"",""32470""
""blur"",""2"",""39277""
""focus"",""2"",""43379""
","""event"",""trial"",""time""
""blur"",""2"",""29421""
""blur"",""2"",""39277""
","""event"",""trial"",""time""
""focus"",""2"",""32470""
""focus"",""2"",""43379""
","""event"",""trial"",""time""
""fullscreenenter"",""0"",""957""
","
","null","<p></p>","null","","","","","","","","","","","","","","","","","","","","","","",""
"","do_trial","120","606439","0.0-69.0-0.0","""event"",""trial"",""time""
""fullscreenenter"",""0"",""957""
""blur"",""2"",""29421""
""focus"",""2"",""32470""
""blur"",""2"",""39277""
""focus"",""2"",""43379""
","""event"",""trial"",""time""
""blur"",""2"",""29421""
""blur"",""2"",""39277""
","""event"",""trial"",""time""
""focus"",""2"",""32470""
""focus"",""2"",""43379""
","""event"",""trial"",""time""
""fullscreenenter"",""0"",""957""
","
","419.19999999995343","","","","","","","","49","0,1,0","0","city","14","probe-15","0.3947297274879737","0.35119466040034025","0.11770395901782318","0","","","","","","","",""
"","html-keyboard-response","121","607445","0.0-69.0-1.0","""event"",""trial"",""time""
""fullscreenenter"",""0"",""957""
""blur"",""2"",""29421""
""focus"",""2"",""32470""
""blur"",""2"",""39277""
""focus"",""2"",""43379""
","""event"",""trial"",""time""
""blur"",""2"",""29421""
""blur"",""2"",""39277""
","""event"",""trial"",""time""
""focus"",""2"",""32470""
""focus"",""2"",""43379""
","""event"",""trial"",""time""
""fullscreenenter"",""0"",""957""
","
","null","<p></p>","null","","","","","","","","","","","","","","","","","","","","","","",""
"","do_trial","122","612773","0.0-70.0-0.0","""event"",""trial"",""time""
""fullscreenenter"",""0"",""957""
""blur"",""2"",""29421""
""focus"",""2"",""32470""
""blur"",""2"",""39277""
""focus"",""2"",""43379""
","""event"",""trial"",""time""
""blur"",""2"",""29421""
""blur"",""2"",""39277""
","""event"",""trial"",""time""
""focus"",""2"",""32470""
""focus"",""2"",""43379""
","""event"",""trial"",""time""
""fullscreenenter"",""0"",""957""
","
","784.5","","","","","","","","49","0,0,0","0","city","15","probe-220","0.5634413755263071","0.25091024310930415","0.12623515904658347","0","","","","","","","",""
"","html-keyboard-response","123","613776","0.0-70.0-1.0","""event"",""trial"",""time""
""fullscreenenter"",""0"",""957""
""blur"",""2"",""29421""
""focus"",""2"",""32470""
""blur"",""2"",""39277""
""focus"",""2"",""43379""
","""event"",""trial"",""time""
""blur"",""2"",""29421""
""blur"",""2"",""39277""
","""event"",""trial"",""time""
""focus"",""2"",""32470""
""focus"",""2"",""43379""
","""event"",""trial"",""time""
""fullscreenenter"",""0"",""957""
","
","null","<p></p>","null","","","","","","","","","","","","","","","","","","","","","","",""
"","do_trial","124","618749","0.0-71.0-0.0","""event"",""trial"",""time""
""fullscreenenter"",""0"",""957""
""blur"",""2"",""29421""
""focus"",""2"",""32470""
""blur"",""2"",""39277""
""focus"",""2"",""43379""
","""event"",""trial"",""time""
""blur"",""2"",""29421""
""blur"",""2"",""39277""
","""event"",""trial"",""time""
""focus"",""2"",""32470""
""focus"",""2"",""43379""
","""event"",""trial"",""time""
""fullscreenenter"",""0"",""957""
","
","426.5","","","","","","","","50","1,0,0","0","city","16","probe-71","0.5114989540732487","0.3048979863536279","0.1426575610679556","0","","","","","","","",""
"","html-keyboard-response","125","619756","0.0-71.0-1.0","""event"",""trial"",""time""
""fullscreenenter"",""0"",""957""
""blur"",""2"",""29421""
""focus"",""2"",""32470""
""blur"",""2"",""39277""
""focus"",""2"",""43379""
","""event"",""trial"",""time""
""blur"",""2"",""29421""
""blur"",""2"",""39277""
","""event"",""trial"",""time""
""focus"",""2"",""32470""
""focus"",""2"",""43379""
","""event"",""trial"",""time""
""fullscreenenter"",""0"",""957""
","
","null","<p></p>","null","","","","","","","","","","","","","","","","","","","","","","",""
"","do_trial","126","624840","0.0-72.0-0.0","""event"",""trial"",""time""
""fullscreenenter"",""0"",""957""
""blur"",""2"",""29421""
""focus"",""2"",""32470""
""blur"",""2"",""39277""
""focus"",""2"",""43379""
","""event"",""trial"",""time""
""blur"",""2"",""29421""
""blur"",""2"",""39277""
","""event"",""trial"",""time""
""focus"",""2"",""32470""
""focus"",""2"",""43379""
","""event"",""trial"",""time""
""fullscreenenter"",""0"",""957""
","
","538.3999999999069","","","","","","","","50","1,1,0","0","city","17","probe-208","0.5135239213540235","0.47404089179061276","0.11753756516618598","1","","","","","","","",""
"","html-keyboard-response","127","625845","0.0-72.0-1.0","""event"",""trial"",""time""
""fullscreenenter"",""0"",""957""
""blur"",""2"",""29421""
""focus"",""2"",""32470""
""blur"",""2"",""39277""
""focus"",""2"",""43379""
","""event"",""trial"",""time""
""blur"",""2"",""29421""
""blur"",""2"",""39277""
","""event"",""trial"",""time""
""focus"",""2"",""32470""
""focus"",""2"",""43379""
","""event"",""trial"",""time""
""fullscreenenter"",""0"",""957""
","
","null","<p></p>","null","","","","","","","","","","","","","","","","","","","","","","",""
"","do_trial","128","630905","0.0-73.0-0.0","""event"",""trial"",""time""
""fullscreenenter"",""0"",""957""
""blur"",""2"",""29421""
""focus"",""2"",""32470""
""blur"",""2"",""39277""
""focus"",""2"",""43379""
","""event"",""trial"",""time""
""blur"",""2"",""29421""
""blur"",""2"",""39277""
","""event"",""trial"",""time""
""focus"",""2"",""32470""
""focus"",""2"",""43379""
","""event"",""trial"",""time""
""fullscreenenter"",""0"",""957""
","
","515.0999999998603","","","","","","","","50","1,0,0","0","city","18","probe-215","0.62181436169683","0.570765603356349","0.15828100479829377","0","","","","","","","",""
"","html-keyboard-response","129","631911","0.0-73.0-1.0","""event"",""trial"",""time""
""fullscreenenter"",""0"",""957""
""blur"",""2"",""29421""
""focus"",""2"",""32470""
""blur"",""2"",""39277""
""focus"",""2"",""43379""
","""event"",""trial"",""time""
""blur"",""2"",""29421""
""blur"",""2"",""39277""
","""event"",""trial"",""time""
""focus"",""2"",""32470""
""focus"",""2"",""43379""
","""event"",""trial"",""time""
""fullscreenenter"",""0"",""957""
","
","null","<p></p>","null","","","","","","","","","","","","","","","","","","","","","","",""
"","do_trial","130","637071","0.0-74.0-0.0","""event"",""trial"",""time""
""fullscreenenter"",""0"",""957""
""blur"",""2"",""29421""
""focus"",""2"",""32470""
""blur"",""2"",""39277""
""focus"",""2"",""43379""
","""event"",""trial"",""time""
""blur"",""2"",""29421""
""blur"",""2"",""39277""
","""event"",""trial"",""time""
""focus"",""2"",""32470""
""focus"",""2"",""43379""
","""event"",""trial"",""time""
""fullscreenenter"",""0"",""957""
","
","613.8999999999069","","","","","","","","50","0,0,0","0","city","19","probe-73","0.5938945791016993","0.5109730755096189","0.08571090403877336","0","","","","","","","",""
"","html-keyboard-response","131","638075","0.0-74.0-1.0","""event"",""trial"",""time""
""fullscreenenter"",""0"",""957""
""blur"",""2"",""29421""
""focus"",""2"",""32470""
""blur"",""2"",""39277""
""focus"",""2"",""43379""
","""event"",""trial"",""time""
""blur"",""2"",""29421""
""blur"",""2"",""39277""
","""event"",""trial"",""time""
""focus"",""2"",""32470""
""focus"",""2"",""43379""
","""event"",""trial"",""time""
""fullscreenenter"",""0"",""957""
","
","null","<p></p>","null","","","","","","","","","","","","","","","","","","","","","","",""
"","do_trial","132","643190","0.0-75.0-0.0","""event"",""trial"",""time""
""fullscreenenter"",""0"",""957""
""blur"",""2"",""29421""
""focus"",""2"",""32470""
""blur"",""2"",""39277""
""focus"",""2"",""43379""
","""event"",""trial"",""time""
""blur"",""2"",""29421""
""blur"",""2"",""39277""
","""event"",""trial"",""time""
""focus"",""2"",""32470""
""focus"",""2"",""43379""
","""event"",""trial"",""time""
""fullscreenenter"",""0"",""957""
","
","568.6999999999534","","","","","","","","50","1,0,0","0","city","20","probe-161","0.5738381724423134","0.5279435024309693","0.05648334348106794","0","","","","","","","",""
"","html-keyboard-response","133","644197","0.0-75.0-1.0","""event"",""trial"",""time""
""fullscreenenter"",""0"",""957""
""blur"",""2"",""29421""
""focus"",""2"",""32470""
""blur"",""2"",""39277""
""focus"",""2"",""43379""
","""event"",""trial"",""time""
""blur"",""2"",""29421""
""blur"",""2"",""39277""
","""event"",""trial"",""time""
""focus"",""2"",""32470""
""focus"",""2"",""43379""
","""event"",""trial"",""time""
""fullscreenenter"",""0"",""957""
","
","null","<p></p>","null","","","","","","","","","","","","","","","","","","","","","","",""
"","do_trial","134","649147","0.0-76.0-0.0","""event"",""trial"",""time""
""fullscreenenter"",""0"",""957""
""blur"",""2"",""29421""
""focus"",""2"",""32470""
""blur"",""2"",""39277""
""focus"",""2"",""43379""
","""event"",""trial"",""time""
""blur"",""2"",""29421""
""blur"",""2"",""39277""
","""event"",""trial"",""time""
""focus"",""2"",""32470""
""focus"",""2"",""43379""
","""event"",""trial"",""time""
""fullscreenenter"",""0"",""957""
","
","405.69999999995343","","","","","","","","50","1,1,1","0","city","21","probe-164","0.6215268299925057","0.5237383147978791","0.11293168896967956","1","","","","","","","",""
"","html-keyboard-response","135","650154","0.0-76.0-1.0","""event"",""trial"",""time""
""fullscreenenter"",""0"",""957""
""blur"",""2"",""29421""
""focus"",""2"",""32470""
""blur"",""2"",""39277""
""focus"",""2"",""43379""
","""event"",""trial"",""time""
""blur"",""2"",""29421""
""blur"",""2"",""39277""
","""event"",""trial"",""time""
""focus"",""2"",""32470""
""focus"",""2"",""43379""
","""event"",""trial"",""time""
""fullscreenenter"",""0"",""957""
","
","null","<p></p>","null","","","","","","","","","","","","","","","","","","","","","","",""
"","do_trial","136","655787","0.0-77.0-0.0","""event"",""trial"",""time""
""fullscreenenter"",""0"",""957""
""blur"",""2"",""29421""
""focus"",""2"",""32470""
""blur"",""2"",""39277""
""focus"",""2"",""43379""
","""event"",""trial"",""time""
""blur"",""2"",""29421""
""blur"",""2"",""39277""
","""event"",""trial"",""time""
""focus"",""2"",""32470""
""focus"",""2"",""43379""
","""event"",""trial"",""time""
""fullscreenenter"",""0"",""957""
","
","1087.1000000000931","","","","","","","","49","1,1,0","0","city","22","probe-41","0.6061954240068862","0.5693200204054027","0.18051754576010334","1","","","","","","","",""
"","html-keyboard-response","137","656790","0.0-77.0-1.0","""event"",""trial"",""time""
""fullscreenenter"",""0"",""957""
""blur"",""2"",""29421""
""focus"",""2"",""32470""
""blur"",""2"",""39277""
""focus"",""2"",""43379""
","""event"",""trial"",""time""
""blur"",""2"",""29421""
""blur"",""2"",""39277""
","""event"",""trial"",""time""
""focus"",""2"",""32470""
""focus"",""2"",""43379""
","""event"",""trial"",""time""
""fullscreenenter"",""0"",""957""
","
","null","<p></p>","null","","","","","","","","","","","","","","","","","","","","","","",""
"","do_trial","138","661840","0.0-78.0-0.0","""event"",""trial"",""time""
""fullscreenenter"",""0"",""957""
""blur"",""2"",""29421""
""focus"",""2"",""32470""
""blur"",""2"",""39277""
""focus"",""2"",""43379""
","""event"",""trial"",""time""
""blur"",""2"",""29421""
""blur"",""2"",""39277""
","""event"",""trial"",""time""
""focus"",""2"",""32470""
""focus"",""2"",""43379""
","""event"",""trial"",""time""
""fullscreenenter"",""0"",""957""
","
","507.0999999998603","","","","","","","","49","0,1,0","0","city","23","probe-101","0.5946639862086981","0.6518019028786108","0.12369368061208254","0","","","","","","","",""
"","html-keyboard-response","139","662847","0.0-78.0-1.0","""event"",""trial"",""time""
""fullscreenenter"",""0"",""957""
""blur"",""2"",""29421""
""focus"",""2"",""32470""
""blur"",""2"",""39277""
""focus"",""2"",""43379""
","""event"",""trial"",""time""
""blur"",""2"",""29421""
""blur"",""2"",""39277""
","""event"",""trial"",""time""
""focus"",""2"",""32470""
""focus"",""2"",""43379""
","""event"",""trial"",""time""
""fullscreenenter"",""0"",""957""
","
","null","<p></p>","null","","","","","","","","","","","","","","","","","","","","","","",""
"","do_trial","140","667924","0.0-79.0-0.0","""event"",""trial"",""time""
""fullscreenenter"",""0"",""957""
""blur"",""2"",""29421""
""focus"",""2"",""32470""
""blur"",""2"",""39277""
""focus"",""2"",""43379""
","""event"",""trial"",""time""
""blur"",""2"",""29421""
""blur"",""2"",""39277""
","""event"",""trial"",""time""
""focus"",""2"",""32470""
""focus"",""2"",""43379""
","""event"",""trial"",""time""
""fullscreenenter"",""0"",""957""
","
","532.5","","","","","","","","49","0,0,0","0","city","24","probe-178","0.6529871831553388","0.3876820733444067","0.26020536378813275","0","","","","","","","",""
"","html-keyboard-response","141","668931","0.0-79.0-1.0","""event"",""trial"",""time""
""fullscreenenter"",""0"",""957""
""blur"",""2"",""29421""
""focus"",""2"",""32470""
""blur"",""2"",""39277""
""focus"",""2"",""43379""
","""event"",""trial"",""time""
""blur"",""2"",""29421""
""blur"",""2"",""39277""
","""event"",""trial"",""time""
""focus"",""2"",""32470""
""focus"",""2"",""43379""
","""event"",""trial"",""time""
""fullscreenenter"",""0"",""957""
","
","null","<p></p>","null","","","","","","","","","","","","","","","","","","","","","","",""
"","do_trial","142","673867","0.0-80.0-0.0","""event"",""trial"",""time""
""fullscreenenter"",""0"",""957""
""blur"",""2"",""29421""
""focus"",""2"",""32470""
""blur"",""2"",""39277""
""focus"",""2"",""43379""
","""event"",""trial"",""time""
""blur"",""2"",""29421""
""blur"",""2"",""39277""
","""event"",""trial"",""time""
""focus"",""2"",""32470""
""focus"",""2"",""43379""
","""event"",""trial"",""time""
""fullscreenenter"",""0"",""957""
","
","394.5999999998603","","","","","","","","49","0,0,0","0","city","25","probe-90","0.8042332835230424","0.38886884893623047","0.18242548357137714","0","","","","","","","",""
"","html-keyboard-response","143","674872","0.0-80.0-1.0","""event"",""trial"",""time""
""fullscreenenter"",""0"",""957""
""blur"",""2"",""29421""
""focus"",""2"",""32470""
""blur"",""2"",""39277""
""focus"",""2"",""43379""
","""event"",""trial"",""time""
""blur"",""2"",""29421""
""blur"",""2"",""39277""
","""event"",""trial"",""time""
""focus"",""2"",""32470""
""focus"",""2"",""43379""
","""event"",""trial"",""time""
""fullscreenenter"",""0"",""957""
","
","null","<p></p>","null","","","","","","","","","","","","","","","","","","","","","","",""
"","do_trial","144","679736","0.0-81.0-0.0","""event"",""trial"",""time""
""fullscreenenter"",""0"",""957""
""blur"",""2"",""29421""
""focus"",""2"",""32470""
""blur"",""2"",""39277""
""focus"",""2"",""43379""
","""event"",""trial"",""time""
""blur"",""2"",""29421""
""blur"",""2"",""39277""
","""event"",""trial"",""time""
""focus"",""2"",""32470""
""focus"",""2"",""43379""
","""event"",""trial"",""time""
""fullscreenenter"",""0"",""957""
","
","321.69999999995343","","","","","","","","50","0,0,0","0","city","26","probe-59","0.7400279134828384","0.3526086672555118","0.13411228232981814","0","","","","","","","",""
"","html-keyboard-response","145","680740","0.0-81.0-1.0","""event"",""trial"",""time""
""fullscreenenter"",""0"",""957""
""blur"",""2"",""29421""
""focus"",""2"",""32470""
""blur"",""2"",""39277""
""focus"",""2"",""43379""
","""event"",""trial"",""time""
""blur"",""2"",""29421""
""blur"",""2"",""39277""
","""event"",""trial"",""time""
""focus"",""2"",""32470""
""focus"",""2"",""43379""
","""event"",""trial"",""time""
""fullscreenenter"",""0"",""957""
","
","null","<p></p>","null","","","","","","","","","","","","","","","","","","","","","","",""
"","do_trial","146","685841","0.0-82.0-0.0","""event"",""trial"",""time""
""fullscreenenter"",""0"",""957""
""blur"",""2"",""29421""
""focus"",""2"",""32470""
""blur"",""2"",""39277""
""focus"",""2"",""43379""
","""event"",""trial"",""time""
""blur"",""2"",""29421""
""blur"",""2"",""39277""
","""event"",""trial"",""time""
""focus"",""2"",""32470""
""focus"",""2"",""43379""
","""event"",""trial"",""time""
""fullscreenenter"",""0"",""957""
","
","557.1999999999534","","","","","","","","50","1,1,0","0","city","27","probe-116","0.6110953243881031","0.38307793602801904","0.18311515322429833","1","","","","","","","",""
"","html-keyboard-response","147","686848","0.0-82.0-1.0","""event"",""trial"",""time""
""fullscreenenter"",""0"",""957""
""blur"",""2"",""29421""
""focus"",""2"",""32470""
