"success","trial_type","trial_index","time_elapsed","internal_node_id","rt","stimulus","key_press","subject_id","response","choice_outcomes","context_n","context_img_id","trial_n","probe_img_id","pR_red","pR_white","pR_black","outcome","contextArray_ind","validImageProbes","invalidImageProbes","pRew_Red","pRew_White","pRew_Black","availableForMemProbe","choice_blocks"
"true","fullscreen","0","4022","0.0-0.0","","","","","","","","","","","","","","","","","","","","","",""
"","pavlovia","1","4028","0.0-1.0","","","","","","","","","","","","","","","","","","","","","",""
"","html-keyboard-response","2","20772","0.0-2.0","16742","<div class='center'><p>Welcome! This is the first day of the experiment which will last ~30 minutes. In this experiment, you are the head captain of a pirate ship traveling around the world to different places. You will complete several different tasks during this experiment. Here is an overview of these tasks:</p><br><p>Day 1</p><p>1. Tutorial and quiz</p><p>2. Pick a pirate game in 6 different places</p><br><p>Day 2</p><p>3. Pick a pirate game and memory game</p><p>4. Final questions and payment</p><br><p>If you complete the entire experiment, you will receive $15 and a possible bonus payment.</p><p><b>[Press the space bar to begin the tutorial]</b></p></div>","32","6113ed585bfdf69d6a2b2c82","","","","","","","","","","","","","","","","","",""
"","html-keyboard-response","3","30759","0.0-3.0","9985","<div class='center'><p>You’ll stop at these 6 islands on your journey. You'll be able to see them in the distance from your ship.</p><p><img src='run_exp/static/images/contexts/all_contexts.png' height='500'></p><p><b>[Press the space bar to continue]</b></p></div>","32","","","","","","","","","","","","","","","","","","",""
"","html-keyboard-response","4","47695","0.0-4.0","16935","<div class='center'><p> The pirates on your ship will rob other ships as they leave island</p> These ships have just sold their things to the people living on the island, so they will have lots and lots of gold on them.</p><p><img src='run_exp/static/images/tutorial/ship_center.png' height='400'></p><p><b>[Press the space bar to continue]</b></p></div>","32","","","","","","","","","","","","","","","","","","",""
"","html-keyboard-response","5","85892","0.0-5.0","38195","<div class='center'><p>As the head captain, you do not have to rob any ships yourself.</p><p>Another pirate will be doing the robbing for you. </p><p><img src='run_exp/static/images/tutorial/pirates_all_crop.png' height='200'></p><p>If they could rob the ship, then you will get a stack of gold coins like this:</p><p><img src='run_exp/static/images/tutorial/reward.png' height='150'></p><p> If they couldn't rob the ship, then you will get no gold coins and you'll see a big red x like this: </p><p><img src='run_exp/static/images/tutorial/reward_no.png' height='150'></p><p> How much bonus money you make is based on how many gold coins you collect.</p><p><b>[Press the space bar to continue]</b></p><div>","32","","","","","","","","","","","","","","","","","","",""
"","html-keyboard-response","6","103126","0.0-6.0","17232","<div class='center'><p>Even the most skilled pirate can not rob EVERY ship.</p><p> Some ships will have very strong defenses against pirate attacks.</p><p> For example, blue beard, here, is very, very good at robbing ships.</p><p> You can press the <b>‘1’</b> button on the keyboard to choose him.</p><p> Try choosing him 10 times to see how often he can rob a ship. </p><p><img src='run_exp/static/images/tutorial/blue.png' height='500'></p></div>","49","","","","","","","","","","","","","","","","","","",""
"","html-keyboard-response","7","104628","0.0-7.0","null","<div class='center'><p><img src='run_exp/static/images/tutorial/blue_win.png' height='500'></p></div>","null","","","","","","","","","","","","","","","","","","",""
"","html-keyboard-response","8","106032","0.0-8.0","1402","<div class='center'><img src='run_exp/static/images/tutorial/blue.png' height='500'></p></div>","49","","","","","","","","","","","","","","","","","","",""
"","html-keyboard-response","9","107534","0.0-9.0","null","<div class='center'><p><img src='run_exp/static/images/tutorial/blue_win.png' height='500'></p></div>","null","","","","","","","","","","","","","","","","","","",""
"","html-keyboard-response","10","108252","0.0-10.0","716","<div class='center'><img src='run_exp/static/images/tutorial/blue.png' height='500'></p></div>","49","","","","","","","","","","","","","","","","","","",""
"","html-keyboard-response","11","109755","0.0-11.0","null","<div class='center'><p><img src='run_exp/static/images/tutorial/blue_win.png' height='500'></p></div>","null","","","","","","","","","","","","","","","","","","",""
"","html-keyboard-response","12","110532","0.0-12.0","775","<div class='center'><img src='run_exp/static/images/tutorial/blue.png' height='500'></p></div>","49","","","","","","","","","","","","","","","","","","",""
"","html-keyboard-response","13","112034","0.0-13.0","null","<div class='center'><p><img src='run_exp/static/images/tutorial/blue_no_win.png' height='500'></p></div>","null","","","","","","","","","","","","","","","","","","",""
"","html-keyboard-response","14","112778","0.0-14.0","743","<div class='center'><img src='run_exp/static/images/tutorial/blue.png' height='500'></p></div>","49","","","","","","","","","","","","","","","","","","",""
"","html-keyboard-response","15","114280","0.0-15.0","null","<div class='center'><p><img src='run_exp/static/images/tutorial/blue_win.png' height='500'></p></div>","null","","","","","","","","","","","","","","","","","","",""
"","html-keyboard-response","16","115140","0.0-16.0","859","<div class='center'><img src='run_exp/static/images/tutorial/blue.png' height='500'></p></div>","49","","","","","","","","","","","","","","","","","","",""
"","html-keyboard-response","17","116643","0.0-17.0","null","<div class='center'><p><img src='run_exp/static/images/tutorial/blue_win.png' height='500'></p></div>","null","","","","","","","","","","","","","","","","","","",""
"","html-keyboard-response","18","117812","0.0-18.0","1169","<div class='center'><img src='run_exp/static/images/tutorial/blue.png' height='500'></p></div>","49","","","","","","","","","","","","","","","","","","",""
"","html-keyboard-response","19","119315","0.0-19.0","null","<div class='center'><p><img src='run_exp/static/images/tutorial/blue_win.png' height='500'></p></div>","null","","","","","","","","","","","","","","","","","","",""
"","html-keyboard-response","20","120131","0.0-20.0","815.0000000000146","<div class='center'><img src='run_exp/static/images/tutorial/blue.png' height='500'></p></div>","49","","","","","","","","","","","","","","","","","","",""
"","html-keyboard-response","21","121633","0.0-21.0","null","<div class='center'><p><img src='run_exp/static/images/tutorial/blue_no_win.png' height='500'></p></div>","null","","","","","","","","","","","","","","","","","","",""
"","html-keyboard-response","22","122270","0.0-22.0","635","<div class='center'><img src='run_exp/static/images/tutorial/blue.png' height='500'></p></div>","49","","","","","","","","","","","","","","","","","","",""
"","html-keyboard-response","23","123772","0.0-23.0","null","<div class='center'><p><img src='run_exp/static/images/tutorial/blue_win.png' height='500'></p></div>","null","","","","","","","","","","","","","","","","","","",""
"","html-keyboard-response","24","124410","0.0-24.0","637","<div class='center'><img src='run_exp/static/images/tutorial/blue.png' height='500'></p></div>","49","","","","","","","","","","","","","","","","","","",""
"","html-keyboard-response","25","125913","0.0-25.0","null","<div class='center'><p><img src='run_exp/static/images/tutorial/blue_win.png' height='500'></p></div>","null","","","","","","","","","","","","","","","","","","",""
"","html-keyboard-response","26","143881","0.0-26.0","17967","<div class='center'><p> See, he could rob the ships most of the time but not every time. </p><p><b>[Press the space bar to continue]</b></p></div>","32","","","","","","","","","","","","","","","","","","",""
"","html-keyboard-response","27","153214","0.0-27.0","9329.00000000003","<div class='center'><p>You will get to choose which of three pirates you want to rob the next ship. <p>Press the <b>‘1’</b> button on your keyboard to pick the pirate with the red beard.</p><p> Press <b>‘2’</b> to pick the pirate with the white beard.</p><p> Press <b>‘3’</b> to pick the pirate with the black beard.</p><p>Try picking a pirate now!</p><p><img src='run_exp/static/images/tutorial/all_pirates.png' height='500'></p></div>","51","","","","","","","","","","","","","","","","","","",""
"","html-keyboard-response","28","154850","0.0-28.0-0.0","1633","<div class='center'><p>This pirate could rob the ship!</p><p><img src='run_exp/static/images/tutorial/black_win.png' height='500'></p><p><b>[Press the space bar to continue]</b></p></div>","32","","","","","","","","","","","","","","","","","","",""
"","html-keyboard-response","29","156414","0.0-28.0-1.0","1562.999999999971","<div class='center'><p>Now try choosing another</p><p><img src='run_exp/static/images/tutorial/all_pirates.png' height='500'></p></div>","49","","","","","","","","","","","","","","","","","","",""
"","html-keyboard-response","30","159020","0.0-29.0-0.0","2605","<div class='center'><p>This pirate could not rob the ship.</p><p><img src='run_exp/static/images/tutorial/red_no_win.png' height='500'></p><p><b>[Press the space bar to continue]</b></p></div>","32","","","","","","","","","","","","","","","","","","",""
"","html-keyboard-response","31","164902","0.0-30.0-0.0","5881","<div class='center'><p>If you don’t make your choice fast enough, you’ll have to wait a few seconds before you can make another one. </p><p>You can’t collect more gold coins. You just have to sit and wait.</p><p><img src='run_exp/static/images/miscellaneous/hurry_up.png' height='500'></p><p><b>[Press the space bar to continue]</b></p></div>","32","","","","","","","","","","","","","","","","","","",""
"","html-keyboard-response","32","194585","0.0-30.0-1.0","29681","<div class='center'><p>Once you choose a pirate, you’ll be shown the ship they are robbing.</p><p>You will never rob the same ship twice.</p><p>Ships can be told apart from one another by the image on them.</p><p> Every time you see a ship, you will have to remember on which island you saw it.</p><p> Remembering correctly will help you win more bonus money!</p><p>A helpful strategy is to try to come up with a story of the object on the ship interacting with the current island scene.</p><p> For example, here, you could imagine a mug full of water in the desert. </p><p>For a ship with an apple on it on the forest island, you could imagine an apple falling from a tree in the forest.</p><p><img src='run_exp/static/images/tutorial/example_probe.png' height='500'></p><p><b>[Press the space bar to continue]</b></p></div>","32","","","","","","","","","","","","","","","","","","",""
"","html-keyboard-response","33","202136","0.0-30.0-2.0","7550","<div class='center'><p>How good a pirate is at robbing ships will depend on the current island.</p><p> A pirate may have visited the island many times before and gained a lot of practice robbing ships there.</p><p>So, they're more likely to bring back gold coins than a pirate who has never visited this island before. </p><p><b>[Press the space bar to continue]</b></p></div>","32","","","","","","","","","","","","","","","","","","",""
"","html-keyboard-response","34","218783","0.0-30.0-3.0","16645","<div class='center'><p>How good a pirate is at robbing ships can also change over the time spent on the island<p> Ships may hear from islanders about the pirates coming and will improve their protection against the attack. This may make it harder to rob them.</p><p> Ships may also become lazy and lower their protection. This may make it easier to rob them.</p><br><p>Things are always changing on the high seas! So, try your best to pay attention!</p><p><img src='run_exp/static/images/tutorial/contingency.png' height='500'></p><p><b>[Press the space bar to continue]</b></p></div>","32","","","","","","","","","","","","","","","","","","",""
"","html-keyboard-response","35","257830","0.0-30.0-4.0","39044","<div class='center'><p>Let's go over the instructions quickly again.You have two important things to do: </p><b><p> 1. Pick the pirate who is the best at robbing ships on the current island.</p></b><b><p> 2. Remember on which island a ship was robbed.</p> </b><p>How much bonus money you make is based on both. </p><br><p>Let’s try a practice game. The game will start by showing you the pirates. First pick a pirate using the <b> 1, 2, 3 </b> buttons on your keyboard. When you are shown a ship, try to remember the island you’re on by making up a story.</p><p> You only have 3 seconds to pick a pirate, so please make a choice quickly! If you are too slow, you’ll have to wait a bit during the time out.</p><p> Don’t feel rushed, but please do try to make a choice every time.</p><p>This is just a practice game, so you’re not playing for money. </p><p> Good luck, remember press <b>'1'</b> to choose red beard, <b>'2'</b> to choose white beard, and <b>'3'</b> to choose black beard</p><p><b>[Press the space bar to begin the practice game]</b></p></div>","32","","","","","","","","","","","","","","","","","","",""
"","do_welcome","36","259336","0.0-30.0-5.0","null","","","","null","","","","","","","","","","","","","","","","",""
"","do_trial","37","264954","0.0-30.0-6.0","1109","","","","51","1,0,0","","","","","","","","","","","","","","","",""
"","html-keyboard-response","38","265956","0.0-31.0-0.0","null","<p></p>","null","","","","","","","","","","","","","","","","","","",""
"","do_trial","39","271340","0.0-31.0-1.0","876","","","","50","1,1,0","","","","","","","","","","","","","","","",""
"","html-keyboard-response","40","272342","0.0-32.0-0.0","null","<p></p>","null","","","","","","","","","","","","","","","","","","",""
"","do_trial","41","277647","0.0-32.0-1.0","798","","","","50","1,0,1","","","","","","","","","","","","","","","",""
"","html-keyboard-response","42","278650","0.0-33.0-0.0","null","<p></p>","null","","","","","","","","","","","","","","","","","","",""
"","do_trial","43","283771","0.0-33.0-1.0","613.9999999999418","","","","49","0,1,0","","","","","","","","","","","","","","","",""
"","html-keyboard-response","44","284774","0.0-34.0-0.0","null","<p></p>","null","","","","","","","","","","","","","","","","","","",""
"","do_trial","45","289856","0.0-34.0-1.0","575","","","","50","1,0,0","","","","","","","","","","","","","","","",""
"","do_bye","46","291362","0.0-35.0-0.0","null","","","","null","","","","","","","","","","","","","","","","",""
"","do_travel","47","297366","0.0-35.0-1.0","null","","","","null","","","","","","","","","","","","","","","","",""
"","do_welcome","48","298871","0.0-35.0-2.0","null","","","","null","","","","","","","","","","","","","","","","",""
"","do_trial","49","304623","0.0-35.0-3.0","1245","","","","51","1,0,0","","","","","","","","","","","","","","","",""
"","html-keyboard-response","50","305626","0.0-36.0-0.0","null","<p></p>","null","","","","","","","","","","","","","","","","","","",""
"","do_trial","51","310888","0.0-36.0-1.0","755","","","","50","1,0,1","","","","","","","","","","","","","","","",""
"","html-keyboard-response","52","311891","0.0-37.0-0.0","null","<p></p>","null","","","","","","","","","","","","","","","","","","",""
"","do_trial","53","316920","0.0-37.0-1.0","522.0000000000582","","","","49","1,1,0","","","","","","","","","","","","","","","",""
"","html-keyboard-response","54","317923","0.0-38.0-0.0","null","<p></p>","null","","","","","","","","","","","","","","","","","","",""
"","do_trial","55","323638","0.0-38.0-1.0","1207","","","","51","0,0,1","","","","","","","","","","","","","","","",""
"","html-keyboard-response","56","324640","0.0-39.0-0.0","null","<p></p>","null","","","","","","","","","","","","","","","","","","",""
"","do_trial","57","329630","0.0-39.0-1.0","483","","","","49","1,0,1","","","","","","","","","","","","","","","",""
"","html-keyboard-response","58","332708","0.0-40.0-0.0","3076","<div class='center'><p><img src='run_exp/static/images/tutorial/prac_best_pirate.png'  height='500'></p></div>","49","","","","","","","","","","","","","","","","","","",""
"","html-keyboard-response","59","334457","0.0-41.0-0.0","1748","<div class='center'><p>That's correct! Red beard was the best.</p><p><b>[Press the space bar to continue]</b></p></div>","32","","","","","","","","","","","","","","","","","","",""
"","html-keyboard-response","60","337135","0.0-41.0-1.0","2676","<div class='center'><p><img src='run_exp/static/images/tutorial/prac_source.png'  height='500'></p></div>","50","","","","","","","","","","","","","","","","","","",""
"","html-keyboard-response","61","338380","0.0-42.0-0.0","1244","<div class='center'><p>That's correct! You saw this ship on the cavern island.</p><p><b>[Press the space bar to continue]</b></p></div>","32","","","","","","","","","","","","","","","","","","",""
"","html-keyboard-response","62","347069","0.0-42.0-1.0","8687.000000000058","<div class='center'><p>Good job on the practice game! Now, you will be asked you some true or false questions to make sure you really understand the rules of the game.</p><p> Press <b>'1'</b> on the keyboard for true and press <b>'2'</b> for false.</p><p><b>[Press the space bar to begin the quiz]</b></p></div>","32","","","","","","","","","","","","","","","","","","",""
"","html-keyboard-response","63","354444","0.0-42.0-2.0","7375","<div class='center'><p>You win bonus money by making choices as fast as possible.</p><p>Press 1 for true and press  2 for false.</p></div>","49","","","","","","","","","","","","","","","","","","",""
"","html-keyboard-response","64","356534","0.0-43.0-0.0","2088","<<div class='center'><p>That’s incorrect! You win bonus money by collecting as many gold coins as possible!</p><p><b>[press the space bar to continue with the quiz]</b></p></div>","32","","","","","","","","","","","","","","","","","","",""
"","html-keyboard-response","65","361234","0.0-43.0-1.0","4699","<div class='center'><p>You press the <b>‘3’</b> button on the keyboard to choose the red bearded pirate. </p><p>Press 1 for true and press  2 for false.</p></div>","50","","","","","","","","","","","","","","","","","","",""
"","html-keyboard-response","66","362257","0.0-44.0-0.0","1021.9999999999418","<div class='center'><p>That's correct!</p> <p><b>[press the space bar to continue with the quiz]</b></p></div>","32","","","","","","","","","","","","","","","","","","",""
"","html-keyboard-response","67","366015","0.0-44.0-1.0","3756","<div class='center'><p>The pirate who is the best at robbing ships on the first island will be the best on every other island.</p><p>Press 1 for true and press  2 for false.</p></div>","50","","","","","","","","","","","","","","","","","","",""
"","html-keyboard-response","68","366621","0.0-45.0-0.0","605","<div class='center'><p>That's correct!</p> <p><b>[press the space bar to continue with the quiz]</b></p></div>","32","","","","","","","","","","","","","","","","","","",""
"","html-keyboard-response","69","369354","0.0-45.0-1.0","2733","<div class='center'><p>You should remember the island where a pirate robbed a ship.</p><p>Press 1 for true and press  2 for false.</p></div>","49","","","","","","","","","","","","","","","","","","",""
"","html-keyboard-response","70","370045","0.0-46.0-0.0","688.9999999999418","<div class='center'><p>That's correct!</p> <p><b>[press the space bar to continue with the quiz]</b></p></div>","32","","","","","","","","","","","","","","","","","","",""
"","html-keyboard-response","71","374557","0.0-47.0-0.0","4510.999999999942","<div class='center'><p>Oops, you missed some questions. Now that you’ve heard the correct answers. Try the quiz again! If you fail the quiz too many times, you won’t be able to do the experiment. </p> <p><br>[press the space bar to repeat the quiz]</br></p></div>","32","","","","","","","","","","","","","","","","","","",""
"","html-keyboard-response","72","376638","0.0-47.0-1.0","2080.999999999942","<div class='center'><p>You win bonus money by making choices as fast as possible.</p><p>Press 1 for true and press  2 for false.</p></div>","50","","","","","","","","","","","","","","","","","","",""
"","html-keyboard-response","73","377302","0.0-48.0-0.0","662","<div class='center'><p>That's correct!</p> <p><b>[press the space bar to continue with the quiz]</b></p></div>","32","","","","","","","","","","","","","","","","","","",""
"","html-keyboard-response","74","380032","0.0-48.0-1.0","2729","<div class='center'><p>You press the <b>‘3’</b> button on the keyboard to choose the red bearded pirate. </p><p>Press 1 for true and press  2 for false.</p></div>","50","","","","","","","","","","","","","","","","","","",""
"","html-keyboard-response","75","380668","0.0-49.0-0.0","635","<div class='center'><p>That's correct!</p> <p><b>[press the space bar to continue with the quiz]</b></p></div>","32","","","","","","","","","","","","","","","","","","",""
"","html-keyboard-response","76","383457","0.0-49.0-1.0","2788.000000000058","<div class='center'><p>The pirate who is the best at robbing ships on the first island will be the best on every other island.</p><p>Press 1 for true and press  2 for false.</p></div>","50","","","","","","","","","","","","","","","","","","",""
"","html-keyboard-response","77","383966","0.0-50.0-0.0","509","<div class='center'><p>That's correct!</p> <p><b>[press the space bar to continue with the quiz]</b></p></div>","32","","","","","","","","","","","","","","","","","","",""
"","html-keyboard-response","78","386356","0.0-50.0-1.0","2388.000000000058","<div class='center'><p>You should remember the island where a pirate robbed a ship.</p><p>Press 1 for true and press  2 for false.</p></div>","49","","","","","","","","","","","","","","","","","","",""
"","html-keyboard-response","79","386882","0.0-51.0-0.0","517","<div class='center'><p>That's correct!</p> <p><b>[press the space bar to continue with the quiz]</b></p></div>","32","","","","","","","","","","","","","","","","","","",""
"","html-keyboard-response","80","388179","0.0-52.0-0.0","1296","<div class='center'><p>Good job! You’re now ready to move on to the real game!</p> <p><br>[press the space bar to begin!]</br></p></div>","32","","","","","","","","","","","","","","","","","","",""
"","do_welcome","81","389685","0.0-53.0-0.0","null","","","","null","","","","","","","","","","","","","","","","",""
"","do_trial","82","395150","0.0-54.0-0.0","927","","","","49","0,0,0","0","forest","0","probe-207","0.6","0.3","0.1","0","","","","","","","",""
"","html-keyboard-response","83","396153","0.0-54.0-1.0","null","<p></p>","null","","","","","","","","","","","","","","","","","","",""
"","do_trial","84","401459","0.0-55.0-0.0","769","","","","51","0,0,1","0","forest","1","probe-10","0.5832128465784624","0.23199525479520028","0.15065243435307402","1","","","","","","","",""
"","html-keyboard-response","85","402462","0.0-55.0-1.0","null","<p></p>","null","","","","","","","","","","","","","","","","","","",""
"","do_trial","86","407488","0.0-56.0-0.0","487.0000000000582","","","","51","1,1,1","0","forest","2","probe-75","0.6583802002751681","0.23495032297838778","0.21452565175943247","1","","","","","","","",""
"","html-keyboard-response","87","408490","0.0-56.0-1.0","null","<p></p>","null","","","","","","","","","","","","","","","","","","",""
"","do_trial","88","413520","0.0-57.0-0.0","493","","","","51","0,0,0","0","forest","3","probe-42","0.6354988293310324","0.1582515556174102","0.19458052782533825","0","","","","","","","",""
"","html-keyboard-response","89","414522","0.0-57.0-1.0","null","<p></p>","null","","","","","","","","","","","","","","","","","","",""
"","do_trial","90","419714","0.0-58.0-0.0","660.0000000000582","","","","50","0,0,0","0","forest","4","probe-66","0.5189142310552184","0.16406355505276818","0.33903298860085934","0","","","","","","","",""
"","html-keyboard-response","91","420717","0.0-58.0-1.0","null","<p></p>","null","","","","","","","","","","","","","","","","","","",""
"","do_trial","92","425831","0.0-59.0-0.0","575","","","","49","1,0,1","0","forest","5","probe-198","0.6237266444240753","0.2766078236894159","0.2022697185667233","1","","","","","","","",""
"","html-keyboard-response","93","426833","0.0-59.0-1.0","null","<p></p>","null","","","","","","","","","","","","","","","","","","",""
"","do_trial","94","432007","0.0-60.0-0.0","633.0000000000582","","","","49","0,1,1","0","forest","6","probe-06","0.6235530356630544","0.28442922593470493","0.11890278375521542","0","","","","","","","",""
"","html-keyboard-response","95","433010","0.0-60.0-1.0","null","<p></p>","null","","","","","","","","","","","","","","","","","","",""
"","do_trial","96","438043","0.0-61.0-0.0","496","","","","51","1,0,0","0","forest","7","probe-44","0.6018295229850936","0.19128453637038922","0.16081803130974998","0","","","","","","","",""
"","html-keyboard-response","97","439045","0.0-61.0-1.0","null","<p></p>","null","","","","","","","","","","","","","","","","","","",""
"","do_trial","98","444026","0.0-62.0-0.0","443","","","","50","1,0,0","0","forest","8","probe-189","0.48454672364327805","0.28565092191770397","0.14227023156967794","0","","","","","","","",""
"","html-keyboard-response","99","445028","0.0-62.0-1.0","null","<p></p>","null","","","","","","","","","","","","","","","","","","",""
"","do_trial","100","450407","0.0-63.0-0.0","841","","","","49","0,1,0","0","forest","9","probe-45","0.49021670717915994","0.31938422326537813","0.07463402199177108","0","","","","","","","",""
"","html-keyboard-response","101","451409","0.0-63.0-1.0","null","<p></p>","null","","","","","","","","","","","","","","","","","","",""
"","do_trial","102","456427","0.0-64.0-0.0","480","","","","51","1,0,0","0","forest","10","probe-92","0.4455261953140517","0.21895490979894217","0.2043679467528294","0","","","","","","","",""
"","html-keyboard-response","103","457429","0.0-64.0-1.0","null","<p></p>","null","","","","","","","","","","","","","","","","","","",""
"","do_trial","104","462401","0.0-65.0-0.0","435","","","","49","1,0,0","0","forest","11","probe-62","0.47010766600732395","0.15051352651954475","0.2676866218679061","1","","","","","","","",""
"","html-keyboard-response","105","463404","0.0-65.0-1.0","null","<p></p>","null","","","","","","","","","","","","","","","","","","",""
"","do_trial","106","468425","0.0-66.0-0.0","484.0000000000582","","","","49","0,1,0","0","forest","12","probe-140","0.43612788386356227","0.24011629807840446","0.1314687341108629","0","","","","","","","",""
"","html-keyboard-response","107","469428","0.0-66.0-1.0","null","<p></p>","null","","","","","","","","","","","","","","","","","","",""
"","do_trial","108","474443","0.0-67.0-0.0","475","","","","51","1,0,0","0","forest","13","probe-172","0.4772463357825285","0.2728608185744739","0.07983846281881218","0","","","","","","","",""
"","html-keyboard-response","109","475446","0.0-67.0-1.0","null","<p></p>","null","","","","","","","","","","","","","","","","","","",""
"","do_trial","110","480487","0.0-68.0-0.0","501.9999999999418","","","","51","0,1,0","0","forest","14","probe-135","0.5089235764536901","0.3274056382962048","0.13637756189991102","0","","","","","","","",""
"","html-keyboard-response","111","481492","0.0-68.0-1.0","null","<p></p>","null","","","","","","","","","","","","","","","","","","",""
"","do_trial","112","486799","0.0-69.0-0.0","768","","","","50","0,0,0","0","forest","15","probe-208","0.5856005901101476","0.23986776202805168","0.09423791438226893","0","","","","","","","",""
"","html-keyboard-response","113","487801","0.0-69.0-1.0","null","<p></p>","null","","","","","","","","","","","","","","","","","","",""
"","do_trial","114","493096","0.0-70.0-0.0","757","","","","49","0,0,0","0","forest","16","probe-118","0.5441619430118771","0.25195347502541615","0.0840244854683636","0","","","","","","","",""
"","html-keyboard-response","115","494098","0.0-70.0-1.0","null","<p></p>","null","","","","","","","","","","","","","","","","","","",""
"","do_trial","116","499198","0.0-71.0-0.0","564","","","","49","0,1,0","0","forest","17","probe-52","0.5363542925115651","0.3007869602313395","0.1490849854743144","0","","","","","","","",""
"","html-keyboard-response","117","500200","0.0-71.0-1.0","null","<p></p>","null","","","","","","","","","","","","","","","","","","",""
"","do_trial","118","505132","0.0-72.0-0.0","393.9999999999418","","","","50","0,1,0","0","forest","18","probe-213","0.5447397428539309","0.3330521120711849","0.1722320203269913","1","","","","","","","",""
"","html-keyboard-response","119","506134","0.0-72.0-1.0","null","<p></p>","null","","","","","","","","","","","","","","","","","","",""
"","do_trial","120","511133","0.0-73.0-0.0","462.0000000000582","","","","50","0,1,1","0","forest","19","probe-25","0.6161469944550726","0.295909772989416","0.23616356700986024","1","","","","","","","",""
"","html-keyboard-response","121","512137","0.0-73.0-1.0","null","<p></p>","null","","","","","","","","","","","","","","","","","","",""
"","do_trial","122","517100","0.0-74.0-0.0","426.0000000000582","","","","50","1,0,0","0","forest","20","probe-218","0.5641250290970095","0.17230940441989478","0.12686710258771683","0","","","","","","","",""
"","html-keyboard-response","123","518102","0.0-74.0-1.0","null","<p></p>","null","","","","","","","","","","","","","","","","","","",""
"","do_trial","124","523069","0.0-75.0-0.0","430","","","","51","1,0,0","0","forest","21","probe-228","0.6521594566788281","0.21468642860673992","0.14663350086287344","0","","","","","","","",""
"","html-keyboard-response","125","524071","0.0-75.0-1.0","null","<p></p>","null","","","","","","","","","","","","","","","","","","",""
"","do_trial","126","529287","0.0-76.0-0.0","678","","","","49","1,0,0","0","forest","22","probe-23","0.5609999165087458","0.37330650213391214","0.1298415914507747","1","","","","","","","",""
"","html-keyboard-response","127","530289","0.0-76.0-1.0","null","<p></p>","null","","","","","","","","","","","","","","","","","","",""
"","do_trial","128","535290","0.0-77.0-0.0","466.0000000001164","","","","51","0,0,0","0","forest","23","probe-193","0.49316045108277073","0.3226011944545138","0.08520562281224049","0","","","","","","","",""
"","html-keyboard-response","129","536295","0.0-77.0-1.0","null","<p></p>","null","","","","","","","","","","","","","","","","","","",""
"","do_trial","130","541237","0.0-78.0-0.0","405","","","","49","0,1,0","0","forest","24","probe-190","0.5272882735701476","0.38739987711112356","0.10099876146411761","0","","","","","","","",""
"","html-keyboard-response","131","542239","0.0-78.0-1.0","null","<p></p>","null","","","","","","","","","","","","","","","","","","",""
"","do_trial","132","547499","0.0-79.0-0.0","724","","","","50","1,0,0","0","forest","25","probe-90","0.6704127758460345","0.3405426354736543","0.14414179735878735","0","","","","","","","",""
"","html-keyboard-response","133","548502","0.0-79.0-1.0","null","<p></p>","null","","","","","","","","","","","","","","","","","","",""
"","do_trial","134","553470","0.0-80.0-0.0","432","","","","49","1,0,0","0","forest","26","probe-191","0.7017706020083297","0.3398305661984874","0.10979767078055083","1","","","","","","","",""
"","html-keyboard-response","135","554473","0.0-80.0-1.0","null","<p></p>","null","","","","","","","","","","","","","","","","","","",""
"","do_trial","136","559542","0.0-81.0-0.0","533","","","","51","1,1,0","0","forest","27","probe-133","0.6294554749677329","0.3338992148572042","0.15658912168980976","0","","","","","","","",""
"","html-keyboard-response","137","560545","0.0-81.0-1.0","null","<p></p>","null","","","","","","","","","","","","","","","","","","",""
"","do_trial","138","565501","0.0-82.0-0.0","418","","","","49","1,0,0","0","forest","28","probe-137","0.6098378186924391","0.3629664991356195","0.05233759205387786","1","","","","","","","",""
"","html-keyboard-response","139","566503","0.0-82.0-1.0","null","<p></p>","null","","","","","","","","","","","","","","","","","","",""
"","do_trial","140","571431","0.0-83.0-0.0","388.9999999998836","","","","50","0,1,0","0","forest","29","probe-212","0.6330848334790663","0.4590573715550967","0.07513306062798886","1","","","","","","","",""
"","html-keyboard-response","141","572434","0.0-83.0-1.0","null","<p></p>","null","","","","","","","","","","","","","","","","","","",""
"","do_bye","142","573940","0.0-84.0-0.0","null","","","","null","","","","","","","","","","","","","","","","",""
"","do_travel","143","579943","0.0-85.0-0.0","null","","","","null","","","","","","","","","","","","","","","","",""
"","do_welcome","144","581449","0.0-85.0-1.0","null","","","","null","","","","","","","","","","","","","","","","",""
"","do_trial","145","587404","0.0-86.0-0.0","1417","","","","51","1,1,0","1","countryside","30","probe-96","1","0.3413638460747032","0.16407877792570877","0","","","","","","","",""
"","html-keyboard-response","146","588406","0.0-86.0-1.0","null","<p></p>","null","","","","","","","","","","","","","","","","","","",""
"","do_trial","147","593379","0.0-87.0-0.0","434","","","","49","1,0,0","1","countryside","31","probe-40","1","0.2890987029993743","0.2230537901608431","1","","","","","","","",""
"","html-keyboard-response","148","594382","0.0-87.0-1.0","null","<p></p>","null","","","","","","","","","","","","","","","","","","",""
"","do_trial","149","599448","0.0-88.0-0.0","527","","","","49","1,0,0","1","countryside","32","probe-79","1","0.2672857524375579","0.08049108878106234","1","","","","","","","",""
"","html-keyboard-response","150","600451","0.0-88.0-1.0","null","<p></p>","null","","","","","","","","","","","","","","","","","","",""
"","do_trial","151","605445","0.0-89.0-0.0","458","","","","49","1,0,1","1","countryside","33","probe-115","0.926302707244735","0.3083896590579962","0.08484474581844584","1","","","","","","","",""
"","html-keyboard-response","152","606448","0.0-89.0-1.0","null","<p></p>","null","","","","","","","","","","","","","","","","","","",""
"","do_trial","153","611651","0.0-90.0-0.0","667","","","","49","1,0,0","1","countryside","34","probe-51","0.7873595249957701","0.22806079146776181","0.056210863924331424","1","","","","","","","",""
"","html-keyboard-response","154","612653","0.0-90.0-1.0","null","<p></p>","null","","","","","","","","","","","","","","","","","","",""
"","do_trial","155","617752","0.0-91.0-0.0","562","","","","49","0,0,0","1","countryside","35","probe-223","0.8272965998984373","0.18034522711830542","0.16207258354122694","0","","","","","","","",""
"","html-keyboard-response","156","618754","0.0-91.0-1.0","null","<p></p>","null","","","","","","","","","","","","","","","","","","",""
"","do_trial","157","623689","0.0-92.0-0.0","398","","","","50","0,0,0","1","countryside","36","probe-147","0.6228260000798819","0.21464959668022324","0.07954687729920108","0","","","","","","","",""
"","html-keyboard-response","158","624692","0.0-92.0-1.0","null","<p></p>","null","","","","","","","","","","","","","","","","","","",""
"","do_trial","159","629778","0.0-93.0-0.0","550","","","","49","1,0,0","1","countryside","37","probe-21","0.564374900116751","0.2559154734955082","0.05515051777109843","1","","","","","","","",""
"","html-keyboard-response","160","630781","0.0-93.0-1.0","null","<p></p>","null","","","","","","","","","","","","","","","","","","",""
"","do_trial","161","635735","0.0-94.0-0.0","418","","","","49","0,0,0","1","countryside","38","probe-61","0.6894573797172869","0.19807655803965404","0.05012676769518674","0","","","","","","","",""
"","html-keyboard-response","162","636737","0.0-94.0-1.0","null","<p></p>","null","","","","","","","","","","","","","","","","","","",""
"","do_trial","163","641849","0.0-95.0-0.0","576","","","","51","1,0,0","1","countryside","39","probe-162","0.6048098647450657","0.29815765104336683","0.08289944667864078","0","","","","","","","",""
"","html-keyboard-response","164","642852","0.0-95.0-1.0","null","<p></p>","null","","","","","","","","","","","","","","","","","","",""
"","do_trial","165","648068","0.0-96.0-0.0","680.0000000001164","","","","50","0,1,0","1","countryside","40","probe-128","0.4535219311544948","0.3987935010573766","0.10492346985049025","1","","","","","","","",""
"","html-keyboard-response","166","649071","0.0-96.0-1.0","null","<p></p>","null","","","","","","","","","","","","","","","","","","",""
"","do_trial","167","654742","0.0-97.0-0.0","1134.0000000001164","","","","49","1,1,0","1","countryside","41","probe-04","0.4016023055242637","0.3455900704428233","0.064808396339603","1","","","","","","","",""
"","html-keyboard-response","168","655744","0.0-97.0-1.0","null","<p></p>","null","","","","","","","","","","","","","","","","","","",""
"","do_trial","169","660705","0.0-98.0-0.0","426","","","","50","0,0,1","1","countryside","42","probe-159","0.283861424502378","0.25789304803728175","0.28640934823889386","0","","","","","","","",""
"","html-keyboard-response","170","661707","0.0-98.0-1.0","null","<p></p>","null","","","","","","","","","","","","","","","","","","",""
"","do_trial","171","666716","0.0-99.0-0.0","472","","","","49","1,0,0","1","countryside","43","probe-214","0.27211249040963553","0.1033598727312328","0.43577067602714875","1","","","","","","","",""
"","html-keyboard-response","172","667718","0.0-99.0-1.0","null","<p></p>","null","","","","","","","","","","","","","","","","","","",""
"","do_trial","173","672696","0.0-100.0-0.0","442","","","","49","1,0,0","1","countryside","44","probe-203","0.15350534393932772","0.07412112740702853","0.3731945212451938","1","","","","","","","",""
"","html-keyboard-response","174","673699","0.0-100.0-1.0","null","<p></p>","null","","","","","","","","","","","","","","","","","","",""
"","do_trial","175","678720","0.0-101.0-0.0","485","","","","49","0,0,0","1","countryside","45","probe-153","0.32173155422579486","0.07221734958552141","0.41607500234109757","0","","","","","","","",""
"","html-keyboard-response","176","679722","0.0-101.0-1.0","null","<p></p>","null","","","","","","","","","","","","","","","","","","",""
"","do_trial","177","684841","0.0-102.0-0.0","582","","","","51","0,0,0","1","countryside","46","probe-14","0.3110561514840146","0.14671490307222063","0.517799733684921","0","","","","","","","",""
"","html-keyboard-response","178","685844","0.0-102.0-1.0","null","<p></p>","null","","","","","","","","","","","","","","","","","","",""
"","do_trial","179","690848","0.0-103.0-0.0","466","","","","49","1,0,1","1","countryside","47","probe-72","0.2968571099614755","0.1890260520431533","0.5623912994220571","1","","","","","","","",""
"","html-keyboard-response","180","691850","0.0-103.0-1.0","null","<p></p>","null","","","","","","","","","","","","","","","","","","",""
"","do_trial","181","696849","0.0-104.0-0.0","461","","","","49","0,0,0","1","countryside","48","probe-173","0.24393367338351168","0.0525795723269826","0.5971710948633908","0","","","","","","","",""
"","html-keyboard-response","182","697851","0.0-104.0-1.0","null","<p></p>","null","","","","","","","","","","","","","","","","","","",""
"","do_trial","183","702818","0.0-105.0-0.0","430","","","","50","0,0,1","1","countryside","49","probe-219","0.2059801110000492","0.050250003038668306","0.6071897661472787","0","","","","","","","",""
"","html-keyboard-response","184","703821","0.0-105.0-1.0","null","<p></p>","null","","","","","","","","","","","","","","","","","","",""
"","do_trial","185","708820","0.0-106.0-0.0","464","","","","50","0,0,0","1","countryside","50","probe-221","0.27882624866269773","0.059477156330515174","0.6149890980801332","0","","","","","","","",""
"","html-keyboard-response","186","709823","0.0-106.0-1.0","null","<p></p>","null","","","","","","","","","","","","","","","","","","",""
"","do_trial","187","714829","0.0-107.0-0.0","470.0000000001164","","","","51","0,0,1","1","countryside","51","probe-29","0.1810270562171157","0.16469826237230303","0.6990105140457794","1","","","","","","","",""
"","html-keyboard-response","188","715831","0.0-107.0-1.0","null","<p></p>","null","","","","","","","","","","","","","","","","","","",""
"","do_trial","189","720842","0.0-108.0-0.0","475","","","","51","0,0,1","1","countryside","52","probe-158","0.1390247365174996","0.17023238769494234","0.69175811350511","1","","","","","","","",""
"","html-keyboard-response","190","721845","0.0-108.0-1.0","null","<p></p>","null","","","","","","","","","","","","","","","","","","",""
"","do_trial","191","727145","0.0-109.0-0.0","764","","","","51","0,1,1","1","countryside","53","probe-86","0.16397229203210842","0.14452125556951234","0.6457481962927918","1","","","","","","","",""
"","html-keyboard-response","192","728148","0.0-109.0-1.0","null","<p></p>","null","","","","","","","","","","","","","","","","","","",""
"","do_trial","193","733172","0.0-110.0-0.0","487","","","","49","0,0,0","1","countryside","54","probe-110","0.1845133120960088","0.10352248313508736","0.5884622204350672","0","","","","","","","",""
"","html-keyboard-response","194","734175","0.0-110.0-1.0","null","<p></p>","null","","","","","","","","","","","","","","","","","","",""
"","do_trial","195","739151","0.0-111.0-0.0","441","","","","51","1,0,1","1","countryside","55","probe-117","0.338063039181992","0.12237463047106772","0.6102880677408106","1","","","","","","","",""
"","html-keyboard-response","196","740154","0.0-111.0-1.0","null","<p></p>","null","","","","","","","","","","","","","","","","","","",""
"","do_trial","197","745156","0.0-112.0-0.0","466","","","","51","0,1,1","1","countryside","56","probe-08","0.23306291818609504","0.1767493993580824","0.5054598876238516","1","","","","","","","",""
"","html-keyboard-response","198","746159","0.0-112.0-1.0","null","<p></p>","null","","","","","","","","","","","","","","","","","","",""
"","do_trial","199","751114","0.0-113.0-0.0","420","","","","50","0,0,1","1","countryside","57","probe-02","0.13075186684436996","0.10535240178734764","0.5453740290690141","0","","","","","","","",""
"","html-keyboard-response","200","752117","0.0-113.0-1.0","null","<p></p>","null","","","","","","","","","","","","","","","","","","",""
"","do_trial","201","757118","0.0-114.0-0.0","463","","","","51","0,0,1","1","countryside","58","probe-18","0.23971749653407812","0.0996451092462225","0.569098779422281","1","","","","","","","",""
"","html-keyboard-response","202","758120","0.0-114.0-1.0","null","<p></p>","null","","","","","","","","","","","","","","","","","","",""
"","do_trial","203","763151","0.0-115.0-0.0","492","","","","51","0,0,1","1","countryside","59","probe-129","0.22857180075271735","0.11060906448857112","0.6380457213056998","1","","","","","","","",""
"","html-keyboard-response","204","764152","0.0-115.0-1.0","null","<p></p>","null","","","","","","","","","","","","","","","","","","",""
"","do_trial","205","769145","0.0-116.0-0.0","448","","","","51","0,0,0","1","countryside","60","probe-202","0.3699887554847978","0.08650261044999696","0.5879358637813029","0","","","","","","","",""
"","html-keyboard-response","206","770147","0.0-116.0-1.0","null","<p></p>","null","","","","","","","","","","","","","","","","","","",""
"","do_trial","207","775125","0.0-117.0-0.0","440","","","","49","0,0,0","1","countryside","61","probe-166","0.425622236216472","0.11972725637022129","0.6892962267123974","0","","","","","","","",""
"","html-keyboard-response","208","776128","0.0-117.0-1.0","null","<p></p>","null","","","","","","","","","","","","","","","","","","",""
"","do_trial","209","781218","0.0-118.0-0.0","552","","","","51","0,0,1","1","countryside","62","probe-136","0.3252477118069176","0.07180591885741207","0.74469495033617","1","","","","","","","",""
"","html-keyboard-response","210","782220","0.0-118.0-1.0","null","<p></p>","null","","","","","","","","","","","","","","","","","","",""
"","do_trial","211","787209","0.0-119.0-0.0","450","","","","51","0,1,0","1","countryside","63","probe-63","0.10214999303117914","0.11034757132695608","0.6129765563305815","0","","","","","","","",""
"","html-keyboard-response","212","788211","0.0-119.0-1.0","null","<p></p>","null","","","","","","","","","","","","","","","","","","",""
"","do_trial","213","793351","0.0-120.0-0.0","601.9999999998836","","","","49","0,0,0","1","countryside","64","probe-180","0.07400302795158213","0.11229479698610188","0.4932547625537587","0","","","","","","","",""
"","html-keyboard-response","214","794354","0.0-120.0-1.0","null","<p></p>","null","","","","","","","","","","","","","","","","","","",""
"","do_trial","215","799281","0.0-121.0-0.0","384","","","","50","0,0,0","1","countryside","65","probe-93","0.12735105208224876","0.1706752854708915","0.5550042976407686","0","","","","","","","",""
"","html-keyboard-response","216","800284","0.0-121.0-1.0","null","<p></p>","null","","","","","","","","","","","","","","","","","","",""
"","do_trial","217","805264","0.0-122.0-0.0","443","","","","51","0,0,0","1","countryside","66","probe-67","0.12605050539214482","0.14677523953781355","0.6113777800849558","0","","","","","","","",""
"","html-keyboard-response","218","806267","0.0-122.0-1.0","null","<p></p>","null","","","","","","","","","","","","","","","","","","",""
"","do_trial","219","811236","0.0-123.0-0.0","431.9999999998836","","","","49","0,0,1","1","countryside","67","probe-105","0.24166228402058068","0.18833969563727965","0.6531048621914052","0","","","","","","","",""
"","html-keyboard-response","220","812238","0.0-123.0-1.0","null","<p></p>","null","","","","","","","","","","","","","","","","","","",""
"","do_trial","221","817257","0.0-124.0-0.0","481.9999999998836","","","","49","0,0,0","1","countryside","68","probe-116","0.362232232101165","0.1857424599528619","0.6143339226590445","0","","","","","","","",""
"","html-keyboard-response","222","818260","0.0-124.0-1.0","null","<p></p>","null","","","","","","","","","","","","","","","","","","",""
"","do_trial","223","823400","0.0-125.0-0.0","604.0000000001164","","","","51","1,0,1","1","countryside","69","probe-70","0.41316079751278023","0.21198081877426952","0.6631163213205324","1","","","","","","","",""
"","html-keyboard-response","224","824402","0.0-125.0-1.0","null","<p></p>","null","","","","","","","","","","","","","","","","","","",""
"","do_bye","225","825907","0.0-126.0-0.0","null","","","","null","","","","","","","","","","","","","","","","",""
"","do_travel","226","831911","0.0-127.0-0.0","null","","","","null","","","","","","","","","","","","","","","","",""
"","do_welcome","227","833417","0.0-127.0-1.0","null","","","","null","","","","","","","","","","","","","","","","",""
"","do_trial","228","839174","0.0-128.0-0.0","1219.9999999998836","","","","50","0,0,1","2","coast","70","probe-87","0.3398209354518915","0.16321740485309377","1","0","","","","","","","",""
"","html-keyboard-response","229","840176","0.0-128.0-1.0","null","<p></p>","null","","","","","","","","","","","","","","","","","","",""
"","do_trial","230","845741","0.0-129.0-0.0","1027","","","","51","1,0,1","2","coast","71","probe-112","0.3520261675986794","0.21680906872164707","1","1","","","","","","","",""
"","html-keyboard-response","231","846744","0.0-129.0-1.0","null","<p></p>","null","","","","","","","","","","","","","","","","","","",""
"","do_trial","232","851812","0.0-130.0-0.0","532","","","","51","1,1,1","2","coast","72","probe-76","0.4265944390900404","0.2271623301953461","0.9477017766085781","1","","","","","","","",""
"","html-keyboard-response","233","852814","0.0-130.0-1.0","null","<p></p>","null","","","","","","","","","","","","","","","","","","",""
"","do_trial","234","857919","0.0-131.0-0.0","568","","","","51","0,0,1","2","coast","73","probe-50","0.29521325194026427","0.25296407215618105","0.6289901968542333","1","","","","","","","",""
"","html-keyboard-response","235","858921","0.0-131.0-1.0","null","<p></p>","null","","","","","","","","","","","","","","","","","","",""
"","do_trial","236","864002","0.0-132.0-0.0","544.0000000001164","","","","51","0,0,0","2","coast","74","probe-111","0.4228749486834103","0.2526360458665082","0.589000884288154","0","","","","","","","",""
"","html-keyboard-response","237","865004","0.0-132.0-1.0","null","<p></p>","null","","","","","","","","","","","","","","","","","","",""
"","do_trial","238","870197","0.0-133.0-0.0","659","","","","49","0,0,0","2","coast","75","probe-33","0.3021189148231713","0.2724384736788341","0.45047070785959376","0","","","","","","","",""
"","html-keyboard-response","239","871200","0.0-133.0-1.0","null","<p></p>","null","","","","","","","","","","","","","","","","","","",""
"","do_trial","240","876220","0.0-134.0-0.0","484","","","","50","0,0,1","2","coast","76","probe-164","0.2685542538172772","0.2267942780519693","0.5682165044652647","0","","","","","","","",""
"","html-keyboard-response","241","877223","0.0-134.0-1.0","null","<p></p>","null","","","","","","","","","","","","","","","","","","",""
"","do_trial","242","882376","0.0-135.0-0.0","617","","","","49","1,1,1","2","coast","77","probe-101","0.39472143340224614","0.1374695846353761","0.46380389410018347","1","","","","","","","",""
"","html-keyboard-response","243","883378","0.0-135.0-1.0","null","<p></p>","null","","","","","","","","","","","","","","","","","","",""
"","do_trial","244","888492","0.0-136.0-0.0","578","","","","49","1,0,1","2","coast","78","probe-85","0.41454911446414644","0.11725549175708379","0.6211306329370286","1","","","","","","","",""
"","html-keyboard-response","245","889495","0.0-136.0-1.0","null","<p></p>","null","","","","","","","","","","","","","","","","","","",""
"","do_trial","246","894615","0.0-137.0-0.0","585","","","","49","1,0,0","2","coast","79","probe-77","0.3771712539695022","0.10873000227646312","0.7053060034746718","1","","","","","","","",""
"","html-keyboard-response","247","895618","0.0-137.0-1.0","null","<p></p>","null","","","","","","","","","","","","","","","","","","",""
"","do_trial","248","900667","0.0-138.0-0.0","513","","","","49","0,0,0","2","coast","80","probe-37","0.40603758471638784","0.06675492367168408","0.6354323937506081","0","","","","","","","",""
"","html-keyboard-response","249","901669","0.0-138.0-1.0","null","<p></p>","null","","","","","","","","","","","","","","","","","","",""
"","do_trial","250","906730","0.0-139.0-0.0","524.9999999998836","","","","51","0,0,1","2","coast","81","probe-69","0.41737544350775424","0.10729634093351868","0.659524177080339","1","","","","","","","",""
"","html-keyboard-response","251","907733","0.0-139.0-1.0","null","<p></p>","null","","","","","","","","","","","","","","","","","","",""
"","do_trial","252","912770","0.0-140.0-0.0","501","","","","51","0,1,0","2","coast","82","probe-157","0.499689490224041","0.1849000613499678","0.38825078844828775","0","","","","","","","",""
"","html-keyboard-response","253","913772","0.0-140.0-1.0","null","<p></p>","null","","","","","","","","","","","","","","","","","","",""
"","do_trial","254","918936","0.0-141.0-0.0","626","","","","50","1,0,0","2","coast","83","probe-01","0.5063301216888995","0.2533890876574991","0.29459910309208537","0","","","","","","","",""
"","html-keyboard-response","255","919939","0.0-141.0-1.0","null","<p></p>","null","","","","","","","","","","","","","","","","","","",""
"","do_trial","256","924904","0.0-142.0-0.0","428.9999999998836","","","","49","0,0,0","2","coast","84","probe-199","0.5933690392780642","0.26726167305040005","0.2799546677921409","0","","","","","","","",""
"","html-keyboard-response","257","925906","0.0-142.0-1.0","null","<p></p>","null","","","","","","","","","","","","","","","","","","",""
"","do_trial","258","930901","0.0-143.0-0.0","459","","","","51","1,1,1","2","coast","85","probe-176","0.5441971804343071","0.25135467210314705","0.10296317685995415","1","","","","","","","",""
"","html-keyboard-response","259","931904","0.0-143.0-1.0","null","<p></p>","null","","","","","","","","","","","","","","","","","","",""
"","do_trial","260","936974","0.0-144.0-0.0","535","","","","51","0,0,0","2","coast","86","probe-146","0.6089904566878599","0.299181234826211","0.10378970144884106","0","","","","","","","",""
"","html-keyboard-response","261","937976","0.0-144.0-1.0","null","<p></p>","null","","","","","","","","","","","","","","","","","","",""
"","do_trial","262","942949","0.0-145.0-0.0","435","","","","49","1,1,0","2","coast","87","probe-144","0.5661050420228361","0.2535921157261075","0.10770550818408552","1","","","","","","","",""
"","html-keyboard-response","263","943951","0.0-145.0-1.0","null","<p></p>","null","","","","","","","","","","","","","","","","","","",""
"","do_trial","264","948918","0.0-146.0-0.0","431","","","","49","0,1,0","2","coast","88","probe-56","0.5283481906344397","0.2181818872626118","0.11509144414700853","0","","","","","","","",""
"","html-keyboard-response","265","949921","0.0-146.0-1.0","null","<p></p>","null","","","","","","","","","","","","","","","","","","",""
"","do_trial","266","954890","0.0-147.0-0.0","433","","","","50","0,0,0","2","coast","89","probe-68","0.5456536337147847","0.27930076383256713","0.14548548749325493","0","","","","","","","",""
"","html-keyboard-response","267","955893","0.0-147.0-1.0","null","<p></p>","null","","","","","","","","","","","","","","","","","","",""
"","do_trial","268","960945","0.0-148.0-0.0","516","","","","49","0,0,1","2","coast","90","probe-224","0.5631534231963248","0.20459609399558104","0.18478614929664997","0","","","","","","","",""
"","html-keyboard-response","269","961948","0.0-148.0-1.0","null","<p></p>","null","","","","","","","","","","","","","","","","","","",""
"","do_trial","270","967029","0.0-149.0-0.0","545.0000000001164","","","","51","1,0,1","2","coast","91","probe-185","0.5228758069609798","0.30990708921878735","0.2722203061548917","1","","","","","","","",""
"","html-keyboard-response","271","968031","0.0-149.0-1.0","null","<p></p>","null","","","","","","","","","","","","","","","","","","",""
"","do_trial","272","973113","0.0-150.0-0.0","545","","","","51","0,0,1","2","coast","92","probe-192","0.6178382035453246","0.32123937491772053","0.31201782989079674","1","","","","","","","",""
"","html-keyboard-response","273","974116","0.0-150.0-1.0","null","<p></p>","null","","","","","","","","","","","","","","","","","","",""
"","do_trial","274","979203","0.0-151.0-0.0","550.0000000001164","","","","51","1,1,0","2","coast","93","probe-100","0.6834203180731327","0.3989517143468121","0.1809621508758664","0","","","","","","","",""
"","html-keyboard-response","275","980205","0.0-151.0-1.0","null","<p></p>","null","","","","","","","","","","","","","","","","","","",""
"","do_trial","276","985215","0.0-152.0-0.0","472.9999999998836","","","","49","0,1,0","2","coast","94","probe-171","0.46618977624537944","0.19543014260232658","0.07069048013172123","0","","","","","","","",""
"","html-keyboard-response","277","986217","0.0-152.0-1.0","null","<p></p>","null","","","","","","","","","","","","","","","","","","",""
"","do_trial","278","991281","0.0-153.0-0.0","529","","","","51","1,0,1","2","coast","95","probe-132","0.6678310339234941","0.05148303734276748","0.0704961142410829","1","","","","","","","",""
"","html-keyboard-response","279","992284","0.0-153.0-1.0","null","<p></p>","null","","","","","","","","","","","","","","","","","","",""
"","do_trial","280","997439","0.0-154.0-0.0","619.0000000001164","","","","51","1,0,0","2","coast","96","probe-183","0.4662660392090485","0.16826499022718225","0.06547805226385932","0","","","","","","","",""
"","html-keyboard-response","281","998442","0.0-154.0-1.0","null","<p></p>","null","","","","","","","","","","","","","","","","","","",""
"","do_trial","282","1003455","0.0-155.0-0.0","477","","","","50","0,0,0","2","coast","97","probe-71","0.48849077645961353","0.17680732761470264","0.11050355285497565","0","","","","","","","",""
"","html-keyboard-response","283","1004457","0.0-155.0-1.0","null","<p></p>","null","","","","","","","","","","","","","","","","","","",""
"","do_trial","284","1009466","0.0-156.0-0.0","471","","","","49","0,0,0","2","coast","98","probe-36","0.5654356390178513","0.33311332925449805","0.05796282323887143","0","","","","","","","",""
"","html-keyboard-response","285","1010469","0.0-156.0-1.0","null","<p></p>","null","","","","","","","","","","","","","","","","","","",""
"","do_trial","286","1015438","0.0-157.0-0.0","433","","","","51","0,0,0","2","coast","99","probe-47","0.5035581903463908","0.39086611037073526","0.10625185738782827","0","","","","","","","",""
"","html-keyboard-response","287","1016440","0.0-157.0-1.0","null","<p></p>","null","","","","","","","","","","","","","","","","","","",""
"","do_trial","288","1021409","0.0-158.0-0.0","432","","","","49","0,0,0","2","coast","100","probe-106","0.5733072785940393","0.35446146329351874","0.1759858563313047","0","","","","","","","",""
"","html-keyboard-response","289","1022412","0.0-158.0-1.0","null","<p></p>","null","","","","","","","","","","","","","","","","","","",""
"","do_trial","290","1027524","0.0-159.0-0.0","576","","","","49","1,0,0","2","coast","101","probe-109","0.502562458792059","0.36028274182246317","0.14820333470035255","1","","","","","","","",""
"","html-keyboard-response","291","1028527","0.0-159.0-1.0","null","<p></p>","null","","","","","","","","","","","","","","","","","","",""
"","do_trial","292","1033612","0.0-160.0-0.0","548","","","","49","0,1,0","2","coast","102","probe-216","0.42781958146827975","0.36333126241897457","0.085428162328019","0","","","","","","","",""
"","html-keyboard-response","293","1034614","0.0-160.0-1.0","null","<p></p>","null","","","","","","","","","","","","","","","","","","",""
"","do_trial","294","1039626","0.0-161.0-0.0","474.9999999998836","","","","51","0,0,1","2","coast","103","probe-220","0.6313344675749323","0.3333386027392457","0.16502822221817817","1","","","","","","","",""
"","html-keyboard-response","295","1040628","0.0-161.0-1.0","null","<p></p>","null","","","","","","","","","","","","","","","","","","",""
"","do_trial","296","1045891","0.0-162.0-0.0","726.0000000001164","","","","51","1,0,0","2","coast","104","probe-225","0.6485683190318755","0.2894859917752523","0.15138587595983588","0","","","","","","","",""
"","html-keyboard-response","297","1046893","0.0-162.0-1.0","null","<p></p>","null","","","","","","","","","","","","","","","","","","",""
"","do_trial","298","1051865","0.0-163.0-0.0","435","","","","50","1,1,0","2","coast","105","probe-09","0.6972342875689995","0.4330377458569187","0.12034251814604793","1","","","","","","","",""
"","html-keyboard-response","299","1052867","0.0-163.0-1.0","null","<p></p>","null","","","","","","","","","","","","","","","","","","",""
"","do_trial","300","1057944","0.0-164.0-0.0","540","","","","50","0,1,0","2","coast","106","probe-55","0.7221489092807615","0.35794581408086484","0.07352228073752672","1","","","","","","","",""
"","html-keyboard-response","301","1058947","0.0-164.0-1.0","null","<p></p>","null","","","","","","","","","","","","","","","","","","",""
"","do_trial","302","1063908","0.0-165.0-0.0","424","","","","50","0,0,0","2","coast","107","probe-217","0.6446282657624339","0.4708801210595172","0.11617989675086314","0","","","","","","","",""
"","html-keyboard-response","303","1064910","0.0-165.0-1.0","null","<p></p>","null","","","","","","","","","","","","","","","","","","",""
"","do_trial","304","1070254","0.0-166.0-0.0","808","","","","49","1,1,0","2","coast","108","probe-167","0.6916412565437574","0.3741092167182522","0.21588883031553885","1","","","","","","","",""
"","html-keyboard-response","305","1071257","0.0-166.0-1.0","null","<p></p>","null","","","","","","","","","","","","","","","","","","",""
"","do_trial","306","1076343","0.0-167.0-0.0","550","","","","49","1,0,0","2","coast","109","probe-187","0.6286718140688252","0.22813880739856493","0.2107921073887105","1","","","","","","","",""
"","html-keyboard-response","307","1077346","0.0-167.0-1.0","null","<p></p>","null","","","","","","","","","","","","","","","","","","",""
"","do_bye","308","1078851","0.0-168.0-0.0","null","","","","null","","","","","","","","","","","","","","","","",""
"","do_travel","309","1084855","0.0-169.0-0.0","null","","","","null","","","","","","","","","","","","","","","","",""
"","do_welcome","310","1086362","0.0-169.0-1.0","null","","","","null","","","","","","","","","","","","","","","","",""
"","do_trial","311","1092414","0.0-170.0-0.0","1518","","","","51","1,0,0","3","city","110","probe-83","1","0.3127778282740263","0.25084249517897783","0","","","","","","","",""
"","html-keyboard-response","312","1093417","0.0-170.0-1.0","null","<p></p>","null","","","","","","","","","","","","","","","","","","",""
"","do_trial","313","1098449","0.0-171.0-0.0","494.00000000023283","","","","49","1,1,0","3","city","111","probe-195","1","0.28737631360368837","0.19303456745106284","1","","","","","","","",""
"","html-keyboard-response","314","1099451","0.0-171.0-1.0","null","<p></p>","null","","","","","","","","","","","","","","","","","","",""
"","do_trial","315","1104443","0.0-172.0-0.0","455.99999999976717","","","","49","1,0,0","3","city","112","probe-177","0.7941471942758991","0.3244877303964924","0.1351975175926565","1","","","","","","","",""
"","html-keyboard-response","316","1105446","0.0-172.0-1.0","null","<p></p>","null","","","","","","","","","","","","","","","","","","",""
"","do_trial","317","1110393","0.0-173.0-0.0","412","","","","49","1,0,0","3","city","113","probe-15","0.6192132262927436","0.3761017288109264","0.051023584394166724","1","","","","","","","",""
"","html-keyboard-response","318","1111396","0.0-173.0-1.0","null","<p></p>","null","","","","","","","","","","","","","","","","","","",""
"","do_trial","319","1116378","0.0-174.0-0.0","446","","","","49","0,0,0","3","city","114","probe-27","0.5160285646651892","0.4588615106047444","0.31727219677325147","0","","","","","","","",""
"","html-keyboard-response","320","1117382","0.0-174.0-1.0","null","<p></p>","null","","","","","","","","","","","","","","","","","","",""
"","do_trial","321","1122679","0.0-175.0-0.0","761","","","","51","0,0,0","3","city","115","probe-169","0.4586393210351079","0.3307575653713801","0.17089561443462703","0","","","","","","","",""
"","html-keyboard-response","322","1123682","0.0-175.0-1.0","null","<p></p>","null","","","","","","","","","","","","","","","","","","",""
"","do_trial","323","1128588","0.0-176.0-0.0","370","","","","50","0,0,0","3","city","116","probe-120","0.5261940523412791","0.3458856631242307","0.06683630396323188","0","","","","","","","",""
"","html-keyboard-response","324","1129591","0.0-176.0-1.0","null","<p></p>","null","","","","","","","","","","","","","","","","","","",""
"","do_trial","325","1134586","0.0-177.0-0.0","458","","","","51","1,1,0","3","city","117","probe-22","0.557282774810066","0.4488603174205052","0.07746103238286726","0","","","","","","","",""
"","html-keyboard-response","326","1135589","0.0-177.0-1.0","null","<p></p>","null","","","","","","","","","","","","","","","","","","",""
"","do_trial","327","1140801","0.0-178.0-0.0","674","","","","49","1,0,0","3","city","118","probe-97","0.6166973165092189","0.4496793683899125","0.06754106044280882","1","","","","","","","",""
"","html-keyboard-response","328","1141803","0.0-178.0-1.0","null","<p></p>","null","","","","","","","","","","","","","","","","","","",""
"","do_trial","329","1146903","0.0-179.0-0.0","560","","","","49","0,0,0","3","city","119","probe-160","0.5590813705235317","0.3044864229578563","0.05821104759938968","0","","","","","","","",""
"","html-keyboard-response","330","1147906","0.0-179.0-1.0","null","<p></p>","null","","","","","","","","","","","","","","","","","","",""
"","do_trial","331","1152960","0.0-180.0-0.0","516","","","","50","1,0,0","3","city","120","probe-28","0.5355280966081607","0.3435295282790217","0.0902018918812314","0","","","","","","","",""
"","html-keyboard-response","332","1153963","0.0-180.0-1.0","null","<p></p>","null","","","","","","","","","","","","","","","","","","",""
"","do_trial","333","1159040","0.0-181.0-0.0","538","","","","51","1,0,0","3","city","121","probe-104","0.5602584413177283","0.4161719128934047","0.07621838564821572","0","","","","","","","",""
"","html-keyboard-response","334","1160042","0.0-181.0-1.0","null","<p></p>","null","","","","","","","","","","","","","","","","","","",""
"","do_trial","335","1164975","0.0-182.0-0.0","394","","","","50","1,0,0","3","city","122","probe-20","0.5081149143195026","0.33343841451896844","0.1442973911219486","0","","","","","","","",""
"","html-keyboard-response","336","1165977","0.0-182.0-1.0","null","<p></p>","null","","","","","","","","","","","","","","","","","","",""
"","do_trial","337","1171255","0.0-183.0-0.0","740","","","","51","1,0,0","3","city","123","probe-170","0.46570840716986694","0.21871132380261693","0.21450263999469216","0","","","","","","","",""
"","html-keyboard-response","338","1172258","0.0-183.0-1.0","null","<p></p>","null","","","","","","","","","","","","","","","","","","",""
"","do_trial","339","1177443","0.0-184.0-0.0","646","","","","49","1,0,0","3","city","124","probe-131","0.513419645672929","0.11892844934513788","0.3171132696522506","1","","","","","","","",""
"","html-keyboard-response","340","1178445","0.0-184.0-1.0","null","<p></p>","null","","","","","","","","","","","","","","","","","","",""
"","do_trial","341","1183937","0.0-185.0-0.0","953","","","","49","1,0,0","3","city","125","probe-34","0.5315749763249085","0.06834380512361964","0.41704784866292116","1","","","","","","","",""
"","html-keyboard-response","342","1184939","0.0-185.0-1.0","null","<p></p>","null","","","","","","","","","","","","","","","","","","",""
"","do_trial","343","1190084","0.0-186.0-0.0","606","","","","49","0,0,0","3","city","126","probe-149","0.5292975770740657","0.09187645510507504","0.488209962266683","0","","","","","","","",""
"","html-keyboard-response","344","1191087","0.0-186.0-1.0","null","<p></p>","null","","","","","","","","","","","","","","","","","","",""
"","do_trial","345","1196088","0.0-187.0-0.0","462.99999999976717","","","","51","1,0,0","3","city","127","probe-188","0.470470609517731","0.23782927592206027","0.4894919611743191","0","","","","","","","",""
"","html-keyboard-response","346","1197090","0.0-187.0-1.0","null","<p></p>","null","","","","","","","","","","","","","","","","","","",""
"","do_trial","347","1202308","0.0-188.0-0.0","679.0000000002328","","","","49","1,0,1","3","city","128","probe-74","0.31918460990270403","0.11994705873123249","0.5913520976914607","1","","","","","","","",""
"","html-keyboard-response","348","1203311","0.0-188.0-1.0","null","<p></p>","null","","","","","","","","","","","","","","","","","","",""
"","do_trial","349","1208647","0.0-189.0-0.0","797","","","","49","0,0,0","3","city","129","probe-26","0.1687164147227989","0.07501230829917782","0.5956274591944585","0","","","","","","","",""
"","html-keyboard-response","350","1209649","0.0-189.0-1.0","null","<p></p>","null","","","","","","","","","","","","","","","","","","",""
"","do_trial","351","1214675","0.0-190.0-0.0","487","","","","50","0,0,1","3","city","130","probe-119","0.2709371710476607","0.1628180202766138","0.5458226874778248","0","","","","","","","",""
"","html-keyboard-response","352","1215677","0.0-190.0-1.0","null","<p></p>","null","","","","","","","","","","","","","","","","","","",""
"","do_trial","353","1220698","0.0-191.0-0.0","475.99999999976717","","","","49","1,0,1","3","city","131","probe-134","0.3217333298913702","0.06816139213858295","0.6201579388575204","1","","","","","","","",""
"","html-keyboard-response","354","1221701","0.0-191.0-1.0","null","<p></p>","null","","","","","","","","","","","","","","","","","","",""
"","do_trial","355","1226859","0.0-192.0-0.0","612","","","","49","1,0,0","3","city","132","probe-156","0.4169737983007501","0.16496621666130756","0.5620966177485276","1","","","","","","","",""
"","html-keyboard-response","356","1227862","0.0-192.0-1.0","null","<p></p>","null","","","","","","","","","","","","","","","","","","",""
"","do_trial","357","1232851","0.0-193.0-0.0","452","","","","49","0,0,1","3","city","133","probe-206","0.3510362635483649","0.3118159541337574","0.657832874941539","0","","","","","","","",""
"","html-keyboard-response","358","1233853","0.0-193.0-1.0","null","<p></p>","null","","","","","","","","","","","","","","","","","","",""
"","do_trial","359","1238996","0.0-194.0-0.0","606","","","","51","0,0,0","3","city","134","probe-226","0.2726397131110217","0.2834282455528736","0.6990368506677099","0","","","","","","","",""
"","html-keyboard-response","360","1239999","0.0-194.0-1.0","null","<p></p>","null","","","","","","","","","","","","","","","","","","",""
"","do_trial","361","1244981","0.0-195.0-0.0","442","","","","49","0,1,1","3","city","135","probe-59","0.2703200502830929","0.1956259236087385","0.6672814108844313","0","","","","","","","",""
"","html-keyboard-response","362","1245983","0.0-195.0-1.0","null","<p></p>","null","","","","","","","","","","","","","","","","","","",""
"","do_trial","363","1251098","0.0-196.0-0.0","580","","","","50","0,0,1","3","city","136","probe-205","0.13959502384992545","0.11354178721588543","0.6785638486175953","0","","","","","","","",""
"","html-keyboard-response","364","1252101","0.0-196.0-1.0","null","<p></p>","null","","","","","","","","","","","","","","","","","","",""
"","do_trial","365","1257144","0.0-197.0-0.0","506","","","","50","1,0,0","3","city","137","probe-163","0.24252158059406684","0.16771060219978984","0.751755944534301","0","","","","","","","",""
"","html-keyboard-response","366","1258146","0.0-197.0-1.0","null","<p></p>","null","","","","","","","","","","","","","","","","","","",""
"","do_trial","367","1263153","0.0-198.0-0.0","470","","","","49","0,0,1","3","city","138","probe-165","0.18484617689571375","0.07479317786002276","0.7549677772906267","0","","","","","","","",""
"","html-keyboard-response","368","1264156","0.0-198.0-1.0","null","<p></p>","null","","","","","","","","","","","","","","","","","","",""
"","do_trial","369","1269156","0.0-199.0-0.0","457.00000000023283","","","","51","1,0,1","3","city","139","probe-230","0.21838225640840997","0.15835592079233057","0.7028818676109261","1","","","","","","","",""
"","html-keyboard-response","370","1270159","0.0-199.0-1.0","null","<p></p>","null","","","","","","","","","","","","","","","","","","",""
"","do_trial","371","1275216","0.0-200.0-0.0","521","","","","51","0,0,1","3","city","140","probe-65","0.22463970464810906","0.2646762481821066","0.7227672049082918","1","","","","","","","",""
"","html-keyboard-response","372","1276219","0.0-200.0-1.0","null","<p></p>","null","","","","","","","","","","","","","","","","","","",""
"","do_trial","373","1281230","0.0-201.0-0.0","474","","","","51","1,0,1","3","city","141","probe-179","0.25887417271959584","0.06291563772438634","0.6372123214493447","1","","","","","","","",""
"","html-keyboard-response","374","1282232","0.0-201.0-1.0","null","<p></p>","null","","","","","","","","","","","","","","","","","","",""
"","do_trial","375","1287202","0.0-202.0-0.0","433","","","","51","0,0,1","3","city","142","probe-210","0.3115240971702739","0.1161565559184421","0.579786336730965","1","","","","","","","",""
"","html-keyboard-response","376","1288204","0.0-202.0-1.0","null","<p></p>","null","","","","","","","","","","","","","","","","","","",""
"","do_trial","377","1293247","0.0-203.0-0.0","506","","","","51","0,0,1","3","city","143","probe-178","0.4124919474265412","0.11667224290498208","0.7686268514598791","1","","","","","","","",""
"","html-keyboard-response","378","1294250","0.0-203.0-1.0","null","<p></p>","null","","","","","","","","","","","","","","","","","","",""
"","do_trial","379","1299210","0.0-204.0-0.0","424","","","","51","0,0,1","3","city","144","probe-32","0.3755579706225122","0.21733759393875218","0.7803899448182813","1","","","","","","","",""
"","html-keyboard-response","380","1300213","0.0-204.0-1.0","null","<p></p>","null","","","","","","","","","","","","","","","","","","",""
"","do_trial","381","1305625","0.0-205.0-0.0","876","","","","51","1,0,1","3","city","145","probe-204","0.49328924105239375","0.15849515694504482","0.6414367722859468","1","","","","","","","",""
"","html-keyboard-response","382","1306628","0.0-205.0-1.0","null","<p></p>","null","","","","","","","","","","","","","","","","","","",""
"","do_trial","383","1311587","0.0-206.0-0.0","424","","","","51","0,0,1","3","city","146","probe-229","0.5191003847109139","0.20456755947712957","0.5785712238198008","1","","","","","","","",""
"","html-keyboard-response","384","1312590","0.0-206.0-1.0","null","<p></p>","null","","","","","","","","","","","","","","","","","","",""
"","do_trial","385","1318181","0.0-207.0-0.0","1055","","","","51","0,0,1","3","city","147","probe-168","0.370822553661637","0.15602508248372102","0.4774863626331074","1","","","","","","","",""
"","html-keyboard-response","386","1319183","0.0-207.0-1.0","null","<p></p>","null","","","","","","","","","","","","","","","","","","",""
"","do_trial","387","1324183","0.0-208.0-0.0","464","","","","51","1,0,0","3","city","148","probe-186","0.454024865688276","0.11968540766434879","0.44706176467630554","0","","","","","","","",""
"","html-keyboard-response","388","1325185","0.0-208.0-1.0","null","<p></p>","null","","","","","","","","","","","","","","","","","","",""
"","do_trial","389","1330223","0.0-209.0-0.0","498","","","","49","0,0,1","3","city","149","probe-142","0.38987626533486214","0.1378028356794908","0.6567181702882661","0","","","","","","","",""
"","html-keyboard-response","390","1331226","0.0-209.0-1.0","null","<p></p>","null","","","","","","","","","","","","","","","","","","",""
"","do_bye","391","1332732","0.0-210.0-0.0","null","","","","null","","","","","","","","","","","","","","","","",""
"","do_travel","392","1338735","0.0-211.0-0.0","null","","","","null","","","","","","","","","","","","","","","","",""
"","do_welcome","393","1340242","0.0-211.0-1.0","null","","","","null","","","","","","","","","","","","","","","","",""
"","do_trial","394","1345794","0.0-212.0-0.0","1015.0000000002328","","","","50","0,0,1","4","mountain","150","probe-48","0.4214925504769084","0.13062822898076426","1","0","","","","","","","",""
"","html-keyboard-response","395","1346797","0.0-212.0-1.0","null","<p></p>","null","","","","","","","","","","","","","","","","","","",""
"","do_trial","396","1351874","0.0-213.0-0.0","542","","","","49","0,0,1","4","mountain","151","probe-194","0.35514534287834343","0.07007182452669845","1","0","","","","","","","",""
"","html-keyboard-response","397","1352877","0.0-213.0-1.0","null","<p></p>","null","","","","","","","","","","","","","","","","","","",""
"","do_trial","398","1358635","0.0-214.0-0.0","1222","","","","51","0,0,1","4","mountain","152","probe-24","0.27886796078388965","0.13830671570807135","0.844942421123744","1","","","","","","","",""
"","html-keyboard-response","399","1359638","0.0-214.0-1.0","null","<p></p>","null","","","","","","","","","","","","","","","","","","",""
"","do_trial","400","1364766","0.0-215.0-0.0","592","","","","51","0,0,0","4","mountain","153","probe-49","0.2664319304735876","0.14998769275137097","0.6842273491589824","0","","","","","","","",""
"","html-keyboard-response","401","1365769","0.0-215.0-1.0","null","<p></p>","null","","","","","","","","","","","","","","","","","","",""
"","do_trial","402","1370896","0.0-216.0-0.0","590","","","","50","1,0,1","4","mountain","154","probe-209","0.3988918757958075","0.06534374951013447","0.5780350869975377","0","","","","","","","",""
"","html-keyboard-response","403","1371898","0.0-216.0-1.0","null","<p></p>","null","","","","","","","","","","","","","","","","","","",""
"","do_trial","404","1376998","0.0-217.0-0.0","563","","","","51","1,0,0","4","mountain","155","probe-122","0.40652191834523665","0.24306605381117713","0.6797680730698944","0","","","","","","","",""
"","html-keyboard-response","405","1378000","0.0-217.0-1.0","null","<p></p>","null","","","","","","","","","","","","","","","","","","",""
"","do_trial","406","1383016","0.0-218.0-0.0","479","","","","49","1,0,1","4","mountain","156","probe-89","0.4091804128682166","0.15379168978966873","0.8127357443683906","1","","","","","","","",""
"","html-keyboard-response","407","1384018","0.0-218.0-1.0","null","<p></p>","null","","","","","","","","","","","","","","","","","","",""
"","do_trial","408","1389302","0.0-219.0-0.0","748","","","","49","0,0,0","4","mountain","157","probe-154","0.2873871201134318","0.20951207547897727","0.6731692480346372","0","","","","","","","",""
"","html-keyboard-response","409","1390305","0.0-219.0-1.0","null","<p></p>","null","","","","","","","","","","","","","","","","","","",""
"","do_trial","410","1395642","0.0-220.0-0.0","801","","","","50","1,0,1","4","mountain","158","probe-99","0.20703984176155715","0.23383110197175738","0.6860539231975179","0","","","","","","","",""
"","html-keyboard-response","411","1396644","0.0-220.0-1.0","null","<p></p>","null","","","","","","","","","","","","","","","","","","",""
"","do_trial","412","1401688","0.0-221.0-0.0","509.00000000023283","","","","51","1,1,1","4","mountain","159","probe-114","0.3642696685230068","0.2161562987824471","0.6642256478429388","1","","","","","","","",""
"","html-keyboard-response","413","1402691","0.0-221.0-1.0","null","<p></p>","null","","","","","","","","","","","","","","","","","","",""
"","do_trial","414","1407652","0.0-222.0-0.0","424","","","","51","0,0,1","4","mountain","160","probe-64","0.3641890280871551","0.29668672488416803","0.7334105680284942","1","","","","","","","",""
"","html-keyboard-response","415","1408655","0.0-222.0-1.0","null","<p></p>","null","","","","","","","","","","","","","","","","","","",""
"","do_trial","416","1413712","0.0-223.0-0.0","520","","","","51","1,0,1","4","mountain","161","probe-11","0.47416394055656774","0.231368986277757","0.7326736326646873","1","","","","","","","",""
"","html-keyboard-response","417","1414715","0.0-223.0-1.0","null","<p></p>","null","","","","","","","","","","","","","","","","","","",""
"","do_trial","418","1419838","0.0-224.0-0.0","586","","","","51","0,0,1","4","mountain","162","probe-123","0.3769550933116979","0.3157143952592258","0.542797793922784","1","","","","","","","",""
"","html-keyboard-response","419","1420841","0.0-224.0-1.0","null","<p></p>","null","","","","","","","","","","","","","","","","","","",""
"","do_trial","420","1425914","0.0-225.0-0.0","537","","","","51","0,0,0","4","mountain","163","probe-17","0.23875677342417373","0.3277407166421717","0.3927714753309791","0","","","","","","","",""
"","html-keyboard-response","421","1426917","0.0-225.0-1.0","null","<p></p>","null","","","","","","","","","","","","","","","","","","",""
"","do_trial","422","1431992","0.0-226.0-0.0","539","","","","49","1,1,0","4","mountain","164","probe-222","0.13496805228170275","0.5586164374221863","0.13594217409581916","1","","","","","","","",""
"","html-keyboard-response","423","1432995","0.0-226.0-1.0","null","<p></p>","null","","","","","","","","","","","","","","","","","","",""
"","do_trial","424","1438502","0.0-227.0-0.0","970","","","","49","0,1,0","4","mountain","165","probe-88","0.0637133655584599","0.6215365838642138","0.2087769675747383","0","","","","","","","",""
"","html-keyboard-response","425","1439504","0.0-227.0-1.0","null","<p></p>","null","","","","","","","","","","","","","","","","","","",""
"","do_trial","426","1444740","0.0-228.0-0.0","699","","","","49","0,1,0","4","mountain","166","probe-03","0.10259597519738949","0.6704911462812494","0.20584355606015273","0","","","","","","","",""
"","html-keyboard-response","427","1445743","0.0-228.0-1.0","null","<p></p>","null","","","","","","","","","","","","","","","","","","",""
"","do_trial","428","1450916","0.0-229.0-0.0","637","","","","50","0,1,0","4","mountain","167","probe-103","0.10596960955102165","0.7178105052175395","0.19646753976918555","1","","","","","","","",""
"","html-keyboard-response","429","1451919","0.0-229.0-1.0","null","<p></p>","null","","","","","","","","","","","","","","","","","","",""
"","do_trial","430","1456906","0.0-230.0-0.0","451","","","","50","0,1,0","4","mountain","168","probe-73","0.08330064671798106","0.7067787775836887","0.20415328509609532","1","","","","","","","",""
"","html-keyboard-response","431","1457909","0.0-230.0-1.0","null","<p></p>","null","","","","","","","","","","","","","","","","","","",""
"","do_trial","432","1462901","0.0-231.0-0.0","456","","","","50","0,1,0","4","mountain","169","probe-184","0.0951220898243643","0.588711342846775","0.12638150705403306","1","","","","","","","",""
"","html-keyboard-response","433","1463903","0.0-231.0-1.0","null","<p></p>","null","","","","","","","","","","","","","","","","","","",""
"","do_trial","434","1468916","0.0-232.0-0.0","475.99999999976717","","","","50","0,0,1","4","mountain","170","probe-139","0.08656541433519697","0.5157174392736505","0.29594063721518993","0","","","","","","","",""
"","html-keyboard-response","435","1469919","0.0-232.0-1.0","null","<p></p>","null","","","","","","","","","","","","","","","","","","",""
"","do_trial","436","1474974","0.0-233.0-0.0","518","","","","51","0,0,0","4","mountain","171","probe-53","0.23401066306258514","0.4853669278721246","0.336125364321374","0","","","","","","","",""
"","html-keyboard-response","437","1475977","0.0-233.0-1.0","null","<p></p>","null","","","","","","","","","","","","","","","","","","",""
"","do_trial","438","1481545","0.0-234.0-0.0","1030","","","","49","0,0,0","4","mountain","172","probe-143","0.20798966363036406","0.5243042363957001","0.38877658895676925","0","","","","","","","",""
"","html-keyboard-response","439","1482548","0.0-234.0-1.0","null","<p></p>","null","","","","","","","","","","","","","","","","","","",""
"","do_trial","440","1488008","0.0-235.0-0.0","924","","","","50","0,1,0","4","mountain","173","probe-141","0.22148252530443188","0.43872056595507036","0.3001644226812256","1","","","","","","","",""
"","html-keyboard-response","441","1489010","0.0-235.0-1.0","null","<p></p>","null","","","","","","","","","","","","","","","","","","",""
"","do_trial","442","1494154","0.0-236.0-0.0","606.9999999997672","","","","50","1,0,1","4","mountain","174","probe-211","0.19946193674090956","0.3690544480201595","0.31241321262541083","0","","","","","","","",""
"","html-keyboard-response","443","1495157","0.0-236.0-1.0","null","<p></p>","null","","","","","","","","","","","","","","","","","","",""
"","do_trial","444","1500429","0.0-237.0-0.0","736","","","","51","0,1,0","4","mountain","175","probe-227","0.13741625090736884","0.37971578222148383","0.32780252961969225","0","","","","","","","",""
"","html-keyboard-response","445","1501431","0.0-237.0-1.0","null","<p></p>","null","","","","","","","","","","","","","","","","","","",""
"","do_trial","446","1506450","0.0-238.0-0.0","483","","","","49","0,0,1","4","mountain","176","probe-215","0.22152447966002292","0.42313369267940476","0.2971448272999537","0","","","","","","","",""
"","html-keyboard-response","447","1507453","0.0-238.0-1.0","null","<p></p>","null","","","","","","","","","","","","","","","","","","",""
"","do_trial","448","1512600","0.0-239.0-0.0","610.9999999997672","","","","51","0,0,0","4","mountain","177","probe-182","0.23121532919508894","0.587778842703344","0.14634853970225156","0","","","","","","","",""
"","html-keyboard-response","449","1513603","0.0-239.0-1.0","null","<p></p>","null","","","","","","","","","","","","","","","","","","",""
"","do_trial","450","1518610","0.0-240.0-0.0","470","","","","50","0,0,1","4","mountain","178","probe-43","0.25984906006353775","0.49301007763697063","0.26350925684098797","0","","","","","","","",""
"","html-keyboard-response","451","1519612","0.0-240.0-1.0","null","<p></p>","null","","","","","","","","","","","","","","","","","","",""
"","do_trial","452","1525011","0.0-241.0-0.0","862","","","","51","1,0,0","4","mountain","179","probe-60","0.2847950448720917","0.47863000453265736","0.2963737726894164","0","","","","","","","",""
"","html-keyboard-response","453","1526014","0.0-241.0-1.0","null","<p></p>","null","","","","","","","","","","","","","","","","","","",""
"","do_trial","454","1531140","0.0-242.0-0.0","590","","","","49","0,0,1","4","mountain","180","probe-84","0.20789310289379284","0.4285999912462185","0.3119017426558858","0","","","","","","","",""
"","html-keyboard-response","455","1532142","0.0-242.0-1.0","null","<p></p>","null","","","","","","","","","","","","","","","","","","",""
"","do_trial","456","1537121","0.0-243.0-0.0","441","","","","50","0,0,1","4","mountain","181","probe-91","0.058550462952903004","0.4135017242125679","0.3685535193351152","0","","","","","","","",""
"","html-keyboard-response","457","1538123","0.0-243.0-1.0","null","<p></p>","null","","","","","","","","","","","","","","","","","","",""
"","do_trial","458","1543220","0.0-244.0-0.0","560","","","","50","0,0,0","4","mountain","182","probe-30","0.053451210284406935","0.5156189056611097","0.3062162479045252","0","","","","","","","",""
"","html-keyboard-response","459","1544222","0.0-244.0-1.0","null","<p></p>","null","","","","","","","","","","","","","","","","","","",""
"","do_trial","460","1549203","0.0-245.0-0.0","446","","","","51","0,1,1","4","mountain","183","probe-98","0.06990818027764364","0.6512712009601441","0.26441992796358105","1","","","","","","","",""
"","html-keyboard-response","461","1550206","0.0-245.0-1.0","null","<p></p>","null","","","","","","","","","","","","","","","","","","",""
"","do_trial","462","1555430","0.0-246.0-0.0","689","","","","51","1,1,0","4","mountain","184","probe-38","0.08456876575435651","0.574782799631309","0.3027877359452989","0","","","","","","","",""
"","html-keyboard-response","463","1556433","0.0-246.0-1.0","null","<p></p>","null","","","","","","","","","","","","","","","","","","",""
"","do_trial","464","1561863","0.0-247.0-0.0","895","","","","49","1,1,0","4","mountain","185","probe-12","0.16181728772501944","0.4859666506189031","0.3493692360299066","1","","","","","","","",""
"","html-keyboard-response","465","1562866","0.0-247.0-1.0","null","<p></p>","null","","","","","","","","","","","","","","","","","","",""
"","do_trial","466","1568101","0.0-248.0-0.0","699","","","","49","0,1,0","4","mountain","186","probe-161","0.14282405500228668","0.5445300640079715","0.4028903552656442","0","","","","","","","",""
"","html-keyboard-response","467","1569104","0.0-248.0-1.0","null","<p></p>","null","","","","","","","","","","","","","","","","","","",""
"","do_trial","468","1574353","0.0-249.0-0.0","712","","","","51","0,0,0","4","mountain","187","probe-41","0.11965283905605092","0.6385692254313421","0.21725403459006665","0","","","","","","","",""
"","html-keyboard-response","469","1575356","0.0-249.0-1.0","null","<p></p>","null","","","","","","","","","","","","","","","","","","",""
"","do_trial","470","1580581","0.0-250.0-0.0","688","","","","50","1,1,0","4","mountain","188","probe-81","0.14597010214852632","0.6829793124786642","0.3665799342371539","1","","","","","","","",""
"","html-keyboard-response","471","1581584","0.0-250.0-1.0","null","<p></p>","null","","","","","","","","","","","","","","","","","","",""
"","do_trial","472","1586863","0.0-251.0-0.0","742","","","","50","0,1,0","4","mountain","189","probe-95","0.16253855894663724","0.6474451326445584","0.3811300811310029","1","","","","","","","",""
"","html-keyboard-response","473","1587864","0.0-251.0-1.0","null","<p></p>","null","","","","","","","","","","","","","","","","","","",""
"","do_bye","474","1589370","0.0-252.0-0.0","null","","","","null","","","","","","","","","","","","","","","","",""
"","do_travel","475","1595373","0.0-253.0-0.0","null","","","","null","","","","","","","","","","","","","","","","",""
"","do_welcome","476","1596879","0.0-253.0-1.0","null","","","","null","","","","","","","","","","","","","","","","",""
"","do_trial","477","1602172","0.0-254.0-0.0","756.9999999997672","","","","50","0,1,0","5","highway","190","probe-07","0.13171221198640307","1","0.46416150110985427","1","","","","","","","",""
"","html-keyboard-response","478","1603175","0.0-254.0-1.0","null","<p></p>","null","","","","","","","","","","","","","","","","","","",""
"","do_trial","479","1608211","0.0-255.0-0.0","500","","","","50","0,1,0","5","highway","191","probe-130","0.08096572266403355","1","0.3928224493635961","1","","","","","","","",""
"","html-keyboard-response","480","1609214","0.0-255.0-1.0","null","<p></p>","null","","","","","","","","","","","","","","","","","","",""
"","do_trial","481","1614222","0.0-256.0-0.0","473.00000000023283","","","","50","1,1,1","5","highway","192","probe-125","0.0667160168080841","0.878250183438416","0.4189911138425043","1","","","","","","","",""
"","html-keyboard-response","482","1615225","0.0-256.0-1.0","null","<p></p>","null","","","","","","","","","","","","","","","","","","",""
"","do_trial","483","1620573","0.0-257.0-0.0","811","","","","50","0,1,1","5","highway","193","probe-57","0.13423346659744634","0.7224640344154599","0.4171926975355009","1","","","","","","","",""
"","html-keyboard-response","484","1621576","0.0-257.0-1.0","null","<p></p>","null","","","","","","","","","","","","","","","","","","",""
"","do_trial","485","1626590","0.0-258.0-0.0","477.00000000023283","","","","50","0,0,0","5","highway","194","probe-54","0.26422512642663626","0.6134288986219635","0.4837371233647554","0","","","","","","","",""
"","html-keyboard-response","486","1627592","0.0-258.0-1.0","null","<p></p>","null","","","","","","","","","","","","","","","","","","",""
"","do_trial","487","1632640","0.0-259.0-0.0","511","","","","49","0,1,1","5","highway","195","probe-35","0.06903495230940462","0.6464637062121019","0.3986457112498125","0","","","","","","","",""
"","html-keyboard-response","488","1633643","0.0-259.0-1.0","null","<p></p>","null","","","","","","","","","","","","","","","","","","",""
"","do_trial","489","1638866","0.0-260.0-0.0","688","","","","51","0,0,0","5","highway","196","probe-05","0.08556891220815416","0.5326128286894463","0.29553743597778653","0","","","","","","","",""
"","html-keyboard-response","490","1639869","0.0-260.0-1.0","null","<p></p>","null","","","","","","","","","","","","","","","","","","",""
"","do_trial","491","1644856","0.0-261.0-0.0","451","","","","50","0,0,1","5","highway","197","probe-174","0.1129492783781774","0.6215942220065158","0.44384303221338406","0","","","","","","","",""
"","html-keyboard-response","492","1645859","0.0-261.0-1.0","null","<p></p>","null","","","","","","","","","","","","","","","","","","",""
"","do_trial","493","1651073","0.0-262.0-0.0","678","","","","51","0,1,0","5","highway","198","probe-181","0.14723361094907667","0.6033097834284699","0.23555620473306887","0","","","","","","","",""
"","html-keyboard-response","494","1652076","0.0-262.0-1.0","null","<p></p>","null","","","","","","","","","","","","","","","","","","",""
"","do_trial","495","1657399","0.0-263.0-0.0","786","","","","49","0,0,0","5","highway","199","probe-80","0.1753087115186191","0.6289285316867619","0.24671917822886094","0","","","","","","","",""
"","html-keyboard-response","496","1658401","0.0-263.0-1.0","null","<p></p>","null","","","","","","","","","","","","","","","","","","",""
"","do_trial","497","1663385","0.0-264.0-0.0","447","","","","50","0,1,0","5","highway","200","probe-124","0.26061157521952966","0.6053682357360372","0.21829116784232636","1","","","","","","","",""
"","html-keyboard-response","498","1664388","0.0-264.0-1.0","null","<p></p>","null","","","","","","","","","","","","","","","","","","",""
"","do_trial","499","1669456","0.0-265.0-0.0","532.0000000002328","","","","50","1,1,1","5","highway","201","probe-94","0.21883602269922073","0.6095212542331834","0.32766454744339263","1","","","","","","","",""
"","html-keyboard-response","500","1670459","0.0-265.0-1.0","null","<p></p>","null","","","","","","","","","","","","","","","","","","",""
"","do_trial","501","1675518","0.0-266.0-0.0","522.9999999997672","","","","50","1,1,0","5","highway","202","probe-82","0.5170710408201794","0.5685615022112733","0.18717132142582393","1","","","","","","","",""
"","html-keyboard-response","502","1676521","0.0-266.0-1.0","null","<p></p>","null","","","","","","","","","","","","","","","","","","",""
"","do_trial","503","1681611","0.0-267.0-0.0","553.0000000002328","","","","50","0,0,1","5","highway","203","probe-39","0.5420822673399806","0.15356986216828425","0.43707122641431556","0","","","","","","","",""
"","html-keyboard-response","504","1682614","0.0-267.0-1.0","null","<p></p>","null","","","","","","","","","","","","","","","","","","",""
"","do_trial","505","1688114","0.0-268.0-0.0","964","","","","49","0,0,0","5","highway","204","probe-113","0.4338687203952059","0.08564327741640054","0.46888428570529","0","","","","","","","",""
"","html-keyboard-response","506","1689117","0.0-268.0-1.0","null","<p></p>","null","","","","","","","","","","","","","","","","","","",""
"","do_trial","507","1694290","0.0-269.0-0.0","637","","","","51","1,0,0","5","highway","205","probe-121","0.5344595372800753","0.17863188814363995","0.2519343006414711","0","","","","","","","",""
"","html-keyboard-response","508","1695292","0.0-269.0-1.0","null","<p></p>","null","","","","","","","","","","","","","","","","","","",""
"","do_trial","509","1700266","0.0-270.0-0.0","438","","","","51","1,0,1","5","highway","206","probe-13","0.5960244282719385","0.15692185971162087","0.2445082591592128","1","","","","","","","",""
"","html-keyboard-response","510","1701268","0.0-270.0-1.0","null","<p></p>","null","","","","","","","","","","","","","","","","","","",""
"","do_trial","511","1706306","0.0-271.0-0.0","502","","","","51","1,0,0","5","highway","207","probe-58","0.6559842978717007","0.130158647040224","0.22712256361607377","0","","","","","","","",""
"","html-keyboard-response","512","1707309","0.0-271.0-1.0","null","<p></p>","null","","","","","","","","","","","","","","","","","","",""
"","do_trial","513","1712325","0.0-272.0-0.0","480","","","","50","0,0,0","5","highway","208","probe-46","0.5063013699804878","0.1725572805558012","0.1486330145359718","0","","","","","","","",""
"","html-keyboard-response","514","1713327","0.0-272.0-1.0","null","<p></p>","null","","","","","","","","","","","","","","","","","","",""
"","do_trial","515","1718301","0.0-273.0-0.0","437","","","","50","1,0,0","5","highway","209","probe-152","0.5476899406338874","0.20128918745902222","0.2854272740073798","0","","","","","","","",""
"","html-keyboard-response","516","1719302","0.0-273.0-1.0","null","<p></p>","null","","","","","","","","","","","","","","","","","","",""
"","do_trial","517","1724298","0.0-274.0-0.0","461","","","","51","1,0,0","5","highway","210","probe-196","0.5314587991203029","0.152520986256969","0.28571814447467214","0","","","","","","","",""
"","html-keyboard-response","518","1725301","0.0-274.0-1.0","null","<p></p>","null","","","","","","","","","","","","","","","","","","",""
"","do_trial","519","1730637","0.0-275.0-0.0","800","","","","49","1,0,0","5","highway","211","probe-150","0.5320932993311045","0.15659725814179207","0.25018416986953174","1","","","","","","","",""
"","html-keyboard-response","520","1731640","0.0-275.0-1.0","null","<p></p>","null","","","","","","","","","","","","","","","","","","",""
"","do_trial","521","1736719","0.0-276.0-0.0","543","","","","49","1,0,0","5","highway","212","probe-151","0.537822782478271","0.13059751877947062","0.24066496634430487","1","","","","","","","",""
"","html-keyboard-response","522","1737722","0.0-276.0-1.0","null","<p></p>","null","","","","","","","","","","","","","","","","","","",""
"","do_trial","523","1742924","0.0-277.0-0.0","665","","","","49","1,0,1","5","highway","213","probe-200","0.529303707216615","0.15154313625459717","0.27512968633022405","1","","","","","","","",""
"","html-keyboard-response","524","1743926","0.0-277.0-1.0","null","<p></p>","null","","","","","","","","","","","","","","","","","","",""
"","do_trial","525","1749349","0.0-278.0-0.0","883","","","","49","1,0,0","5","highway","214","probe-175","0.52765539267266","0.17015568658111016","0.22089066313016598","1","","","","","","","",""
"","html-keyboard-response","526","1750352","0.0-278.0-1.0","null","<p></p>","null","","","","","","","","","","","","","","","","","","",""
"","do_trial","527","1755504","0.0-279.0-0.0","616","","","","49","0,0,0","5","highway","215","probe-127","0.4933193059431988","0.19625098468252616","0.1748658728053112","0","","","","","","","",""
"","html-keyboard-response","528","1756506","0.0-279.0-1.0","null","<p></p>","null","","","","","","","","","","","","","","","","","","",""
"","do_trial","529","1761785","0.0-280.0-0.0","742","","","","51","1,1,1","5","highway","216","probe-31","0.6504999802225911","0.11600856026928628","0.20059219430160383","1","","","","","","","",""
"","html-keyboard-response","530","1762788","0.0-280.0-1.0","null","<p></p>","null","","","","","","","","","","","","","","","","","","",""
"","do_trial","531","1767895","0.0-281.0-0.0","570.9999999997672","","","","51","1,0,0","5","highway","217","probe-145","0.7082332372901664","0.09744162865683524","0.25173509473475897","0","","","","","","","",""
"","html-keyboard-response","532","1768898","0.0-281.0-1.0","null","<p></p>","null","","","","","","","","","","","","","","","","","","",""
"","do_trial","533","1773953","0.0-282.0-0.0","519","","","","50","1,0,0","5","highway","218","probe-19","0.649732484684156","0.07953999677795676","0.14798490372347342","0","","","","","","","",""
"","html-keyboard-response","534","1774956","0.0-282.0-1.0","null","<p></p>","null","","","","","","","","","","","","","","","","","","",""
"","do_trial","535","1779957","0.0-283.0-0.0","464","","","","50","1,0,0","5","highway","219","probe-126","0.7401648319797187","0.10410147474748634","0.19810749559269755","0","","","","","","","",""
"","html-keyboard-response","536","1780960","0.0-283.0-1.0","null","<p></p>","null","","","","","","","","","","","","","","","","","","",""
"","do_trial","537","1785985","0.0-284.0-0.0","488","","","","51","0,0,0","5","highway","220","probe-148","0.6809017503867354","0.08074014619190384","0.405598743397552","0","","","","","","","",""
