"success","trial_type","trial_index","time_elapsed","internal_node_id","interactions","blur_events","focus_events","fullscreenenter_events","fullscreenexit_events","rt","stimulus","key_press","subject_id","participant_id","age","gender","prompt","response","choice_outcomes","context_n","context_img_id","trial_n","probe_img_id","pR_red","pR_white","pR_black","outcome","contextArray_ind","validImageProbes","invalidImageProbes","pRew_Red","pRew_White","pRew_Black","availableForMemProbe","choice_blocks"
"true","fullscreen","0","23295","0.0-0.0","""event"",""trial"",""time""
""fullscreenenter"",""0"",""22336""
","
","
","""event"",""trial"",""time""
""fullscreenenter"",""0"",""22336""
","
","","","","","","","","","","","","","","","","","","","","","","","","","",""
"","pavlovia","1","23304","0.0-1.0","""event"",""trial"",""time""
""fullscreenenter"",""0"",""22336""
","
","
","""event"",""trial"",""time""
""fullscreenenter"",""0"",""22336""
","
","","","","","","","","","","","","","","","","","","","","","","","","","",""
"","instruc1","2","68503","0.0-2.0","""event"",""trial"",""time""
""fullscreenenter"",""0"",""22336""
","
","
","""event"",""trial"",""time""
""fullscreenenter"",""0"",""22336""
","
","null","run_exp/static/audio/clip_1_welcome.m4a","null","518","850","15","Male","<div class='center'><p>Welcome! This is the first part of the study. It will last ~30 minutes. In part 1 and part 2 of the study, you are the head captain of a pirate ship traveling around the world to different islands. You will play a few different games throughout these two parts. Here is an overview of them:</p><br><p>Part 1 (today)</p><p>1. Instructions, practice game, and quiz</p><p>2. Pick a pirate game on 6 different islands</p><br><p>Part 2 (tomorrow)</p><p>3. Pick a pirate game and memory game</p><p>4. Where did you see this ship? </p></div>","","","","","","","","","","","","","","","","","",""
"","html-keyboard-response","3","68824","0.0-3.0","""event"",""trial"",""time""
""fullscreenenter"",""0"",""22336""
","
","
","""event"",""trial"",""time""
""fullscreenenter"",""0"",""22336""
","
","317.69999980926514","<div class='center'><p>Welcome! This is the first part of the study. It will last ~30 minutes. In part 1 and part 2 of the study, you are the head captain of a pirate ship traveling around the world to different islands. You will play a few different games throughout these two parts. Here is an overview of them:</p><br><p>Part 1 (today)</p><p>1. Instructions, practice game, and quiz</p><p>2. Pick a pirate game on 6 different islands</p><br><p>Part 2 (tomorrow)</p><p>3. Pick a pirate game and memory game</p><p>4. Where did you see this ship? </p><p><b>[Press the space bar to continue]</b></p></div>","32","","","","","","","","","","","","","","","","","","","","","","",""
"","instruc2","4","74120","0.0-4.0","""event"",""trial"",""time""
""fullscreenenter"",""0"",""22336""
","
","
","""event"",""trial"",""time""
""fullscreenenter"",""0"",""22336""
","
","null","run_exp/static/audio/clip_2_different_places.m4a","null","","","","","<div class='center'><p>Today, you’ll visit these 6 islands on your journey. You'll be able to see these islands from your ship.</p><p><img src='run_exp/static/images/contexts/all_contexts.png' height='500'></p></div>","","","","","","","","","","","","","","","","","",""
"","html-keyboard-response","5","75589","0.0-5.0","""event"",""trial"",""time""
""fullscreenenter"",""0"",""22336""
","
","
","""event"",""trial"",""time""
""fullscreenenter"",""0"",""22336""
","
","1466.5","<div class='center'><p>Today, you’ll visit these 6 islands on your journey. You'll be able to see these islands from your ship.</p><p><img src='run_exp/static/images/contexts/all_contexts.png' height='500'></p><p><b>[Press the space bar to continue]</b></p></div>","32","","","","","","","","","","","","","","","","","","","","","","",""
"","instruc3","6","85340","0.0-6.0","""event"",""trial"",""time""
""fullscreenenter"",""0"",""22336""
","
","
","""event"",""trial"",""time""
""fullscreenenter"",""0"",""22336""
","
","null","run_exp/static/audio/clip_3_goal_of_game_1.m4a","null","","","","","<div class='center'><p> The pirates on your ship will rob other ships as they leave the island.</p> These ships have just sold their goods to the islanders, so they will be filled with lots and lots of gold.</p><p><img src='run_exp/static/images/tutorial/ship_center.png' height='400'></p></div>","","","","","","","","","","","","","","","","","",""
"","html-keyboard-response","7","85774","0.0-7.0","""event"",""trial"",""time""
""fullscreenenter"",""0"",""22336""
","
","
","""event"",""trial"",""time""
""fullscreenenter"",""0"",""22336""
","
","431.59999990463257","<div class='center'><p> The pirates on your ship will rob other ships as they leave the island.</p> These ships have just sold their goods to the islanders, so they will be filled with lots and lots of gold.</p><p><img src='run_exp/static/images/tutorial/ship_center.png' height='400'></p><p><b>[Press the space bar to continue]</b></p></div>","32","","","","","","","","","","","","","","","","","","","","","","",""
"","instruc4","8","113818","0.0-8.0","""event"",""trial"",""time""
""fullscreenenter"",""0"",""22336""
","
","
","""event"",""trial"",""time""
""fullscreenenter"",""0"",""22336""
","
","null","run_exp/static/audio/clip_4_goal_of_game_2.m4a","null","","","","","<div class='center'><p>As the head captain, you do not have to rob any ships yourself. Another pirate will be doing the robbing for you. First, you will choose a pirate to rob the next ship.</p><p><img src='run_exp/static/images/tutorial/pirates_all_crop.png' height='200'></p><p>Then, you'll see if the pirate successfully robbed the ship of their gold. If they were successful, then you'll get a stack of gold coins like this:</p><p><img src='run_exp/static/images/tutorial/reward.png' height='150'></p><p> If they were <b>not</b> successful, then you'll get no gold coins, and you'll see a big red x like this: </p><p><img src='run_exp/static/images/tutorial/reward_no.png' height='150'></p><p> How much bonus money you make is based on how many gold coins you collect.</p><div>","","","","","","","","","","","","","","","","","",""
"","html-keyboard-response","9","115213","0.0-9.0","""event"",""trial"",""time""
""fullscreenenter"",""0"",""22336""
","
","
","""event"",""trial"",""time""
""fullscreenenter"",""0"",""22336""
","
","1391.5","<div class='center'><p>As the head captain, you do not have to rob any ships yourself. Another pirate will be doing the robbing for you. First, you will choose a pirate to rob the next ship.</p><p><img src='run_exp/static/images/tutorial/pirates_all_crop.png' height='200'></p><p>Then, you'll see if the pirate successfully robbed the ship of their gold. If they were successful, then you'll get a stack of gold coins like this:</p><p><img src='run_exp/static/images/tutorial/reward.png' height='150'></p><p> If they were <b>not</b> successful, then you'll get no gold coins, and you'll see a big red x like this: </p><p><img src='run_exp/static/images/tutorial/reward_no.png' height='150'></p><p> How much bonus money you make is based on how many gold coins you collect.</p<p><b>[Press the space bar to continue]</b></p></div>","32","","","","","","","","","","","","","","","","","","","","","","",""
"","instruc5","10","132440","0.0-10.0","""event"",""trial"",""time""
""fullscreenenter"",""0"",""22336""
","
","
","""event"",""trial"",""time""
""fullscreenenter"",""0"",""22336""
","
","17220.699999809265","run_exp/static/audio/clip_5_probabilistic.m4a","49","","","","","<div class='center'><p>Even the most skilled pirate can not rob EVERY ship.</p><p> Some ships will have very strong protections against pirate attacks.</p><p> Blue beard, here, is very, very good at robbing ships, but he won't be successful every time he tries to rob one.</p><p> You can press the <b>‘1’</b> key on the keyboard to choose him.</p><p> Try choosing him 10 times to see how often he succeeds at robbing a ship. </p><p><img src='run_exp/static/images/tutorial/blue.png' height='500'></p></div>","","","","","","","","","","","","","","","","","",""
"","html-keyboard-response","11","133942","0.0-11.0","""event"",""trial"",""time""
""fullscreenenter"",""0"",""22336""
","
","
","""event"",""trial"",""time""
""fullscreenenter"",""0"",""22336""
","
","null","<div class='center'><p><img src='run_exp/static/images/tutorial/blue_win.png' height='500'></p></div>","null","","","","","","","","","","","","","","","","","","","","","","",""
"","html-keyboard-response","12","134815","0.0-12.0","""event"",""trial"",""time""
""fullscreenenter"",""0"",""22336""
","
","
","""event"",""trial"",""time""
""fullscreenenter"",""0"",""22336""
","
","871","<div class='center'><img src='run_exp/static/images/tutorial/blue.png' height='500'></p></div>","49","","","","","","","","","","","","","","","","","","","","","","",""
"","html-keyboard-response","13","136317","0.0-13.0","""event"",""trial"",""time""
""fullscreenenter"",""0"",""22336""
","
","
","""event"",""trial"",""time""
""fullscreenenter"",""0"",""22336""
","
","null","<div class='center'><p><img src='run_exp/static/images/tutorial/blue_win.png' height='500'></p></div>","null","","","","","","","","","","","","","","","","","","","","","","",""
"","html-keyboard-response","14","136597","0.0-14.0","""event"",""trial"",""time""
""fullscreenenter"",""0"",""22336""
","
","
","""event"",""trial"",""time""
""fullscreenenter"",""0"",""22336""
","
","278.19999980926514","<div class='center'><img src='run_exp/static/images/tutorial/blue.png' height='500'></p></div>","49","","","","","","","","","","","","","","","","","","","","","","",""
"","html-keyboard-response","15","138099","0.0-15.0","""event"",""trial"",""time""
""fullscreenenter"",""0"",""22336""
","
","
","""event"",""trial"",""time""
""fullscreenenter"",""0"",""22336""
","
","null","<div class='center'><p><img src='run_exp/static/images/tutorial/blue_win.png' height='500'></p></div>","null","","","","","","","","","","","","","","","","","","","","","","",""
"","html-keyboard-response","16","138381","0.0-16.0","""event"",""trial"",""time""
""fullscreenenter"",""0"",""22336""
","
","
","""event"",""trial"",""time""
""fullscreenenter"",""0"",""22336""
","
","280.09999990463257","<div class='center'><img src='run_exp/static/images/tutorial/blue.png' height='500'></p></div>","49","","","","","","","","","","","","","","","","","","","","","","",""
"","html-keyboard-response","17","139883","0.0-17.0","""event"",""trial"",""time""
""fullscreenenter"",""0"",""22336""
","
","
","""event"",""trial"",""time""
""fullscreenenter"",""0"",""22336""
","
","null","<div class='center'><p><img src='run_exp/static/images/tutorial/blue_no_win.png' height='500'></p></div>","null","","","","","","","","","","","","","","","","","","","","","","",""
"","html-keyboard-response","18","140276","0.0-18.0","""event"",""trial"",""time""
""fullscreenenter"",""0"",""22336""
","
","
","""event"",""trial"",""time""
""fullscreenenter"",""0"",""22336""
","
","392.69999980926514","<div class='center'><img src='run_exp/static/images/tutorial/blue.png' height='500'></p></div>","49","","","","","","","","","","","","","","","","","","","","","","",""
"","html-keyboard-response","19","141778","0.0-19.0","""event"",""trial"",""time""
""fullscreenenter"",""0"",""22336""
","
","
","""event"",""trial"",""time""
""fullscreenenter"",""0"",""22336""
","
","null","<div class='center'><p><img src='run_exp/static/images/tutorial/blue_win.png' height='500'></p></div>","null","","","","","","","","","","","","","","","","","","","","","","",""
"","html-keyboard-response","20","142037","0.0-20.0","""event"",""trial"",""time""
""fullscreenenter"",""0"",""22336""
","
","
","""event"",""trial"",""time""
""fullscreenenter"",""0"",""22336""
","
","257.2999997138977","<div class='center'><img src='run_exp/static/images/tutorial/blue.png' height='500'></p></div>","49","","","","","","","","","","","","","","","","","","","","","","",""
"","html-keyboard-response","21","143539","0.0-21.0","""event"",""trial"",""time""
""fullscreenenter"",""0"",""22336""
","
","
","""event"",""trial"",""time""
""fullscreenenter"",""0"",""22336""
","
","null","<div class='center'><p><img src='run_exp/static/images/tutorial/blue_win.png' height='500'></p></div>","null","","","","","","","","","","","","","","","","","","","","","","",""
"","html-keyboard-response","22","144038","0.0-22.0","""event"",""trial"",""time""
""fullscreenenter"",""0"",""22336""
","
","
","""event"",""trial"",""time""
""fullscreenenter"",""0"",""22336""
","
","497.09999990463257","<div class='center'><img src='run_exp/static/images/tutorial/blue.png' height='500'></p></div>","49","","","","","","","","","","","","","","","","","","","","","","",""
"","html-keyboard-response","23","145540","0.0-23.0","""event"",""trial"",""time""
""fullscreenenter"",""0"",""22336""
","
","
","""event"",""trial"",""time""
""fullscreenenter"",""0"",""22336""
","
","null","<div class='center'><p><img src='run_exp/static/images/tutorial/blue_win.png' height='500'></p></div>","null","","","","","","","","","","","","","","","","","","","","","","",""
"","html-keyboard-response","24","145964","0.0-24.0","""event"",""trial"",""time""
""fullscreenenter"",""0"",""22336""
","
","
","""event"",""trial"",""time""
""fullscreenenter"",""0"",""22336""
","
","423.90000009536743","<div class='center'><img src='run_exp/static/images/tutorial/blue.png' height='500'></p></div>","49","","","","","","","","","","","","","","","","","","","","","","",""
"","html-keyboard-response","25","147465","0.0-25.0","""event"",""trial"",""time""
""fullscreenenter"",""0"",""22336""
","
","
","""event"",""trial"",""time""
""fullscreenenter"",""0"",""22336""
","
","null","<div class='center'><p><img src='run_exp/static/images/tutorial/blue_no_win.png' height='500'></p></div>","null","","","","","","","","","","","","","","","","","","","","","","",""
"","html-keyboard-response","26","147883","0.0-26.0","""event"",""trial"",""time""
""fullscreenenter"",""0"",""22336""
","
","
","""event"",""trial"",""time""
""fullscreenenter"",""0"",""22336""
","
","418.09999990463257","<div class='center'><img src='run_exp/static/images/tutorial/blue.png' height='500'></p></div>","49","","","","","","","","","","","","","","","","","","","","","","",""
"","html-keyboard-response","27","149385","0.0-27.0","""event"",""trial"",""time""
""fullscreenenter"",""0"",""22336""
","
","
","""event"",""trial"",""time""
""fullscreenenter"",""0"",""22336""
","
","null","<div class='center'><p><img src='run_exp/static/images/tutorial/blue_win.png' height='500'></p></div>","null","","","","","","","","","","","","","","","","","","","","","","",""
"","html-keyboard-response","28","149843","0.0-28.0","""event"",""trial"",""time""
""fullscreenenter"",""0"",""22336""
","
","
","""event"",""trial"",""time""
""fullscreenenter"",""0"",""22336""
","
","458","<div class='center'><img src='run_exp/static/images/tutorial/blue.png' height='500'></p></div>","49","","","","","","","","","","","","","","","","","","","","","","",""
"","html-keyboard-response","29","151344","0.0-29.0","""event"",""trial"",""time""
""fullscreenenter"",""0"",""22336""
","
","
","""event"",""trial"",""time""
""fullscreenenter"",""0"",""22336""
","
","null","<div class='center'><p><img src='run_exp/static/images/tutorial/blue_win.png' height='500'></p></div>","null","","","","","","","","","","","","","","","","","","","","","","",""
"","instruc6","30","156808","0.0-30.0","""event"",""trial"",""time""
""fullscreenenter"",""0"",""22336""
","
","
","""event"",""trial"",""time""
""fullscreenenter"",""0"",""22336""
","
","null","run_exp/static/audio/clip_6_blue_beard_outcome.m4a","null","","","","","<div class='center'><p> See, he succeeded in robbing the ships most of the time but not every time. </p></div>","","","","","","","","","","","","","","","","","",""
"","html-keyboard-response","31","158691","0.0-31.0","""event"",""trial"",""time""
""fullscreenenter"",""0"",""22336""
","
","
","""event"",""trial"",""time""
""fullscreenenter"",""0"",""22336""
","
","1882.7999997138977","<div class='center'><p> See, he succeeded in robbing the ships most of the time but not every time. </p><p><b>[Press the space bar to continue]</b></p></div>","32","","","","","","","","","","","","","","","","","","","","","","",""
"","audio-keyboard-response","32","162380","0.0-32.0","""event"",""trial"",""time""
""fullscreenenter"",""0"",""22336""
","
","
","""event"",""trial"",""time""
""fullscreenenter"",""0"",""22336""
","
","3687.199999809265","run_exp/static/audio/clip_7_pick_pirate.m4a","50","","","","","","","","","","","","","","","","","","","","","","",""
"","audio-keyboard-response","33","164987","0.0-33.0-0.0","""event"",""trial"",""time""
""fullscreenenter"",""0"",""22336""
","
","
","""event"",""trial"",""time""
""fullscreenenter"",""0"",""22336""
","
","2603.300000190735","run_exp/static/audio/clip_8_chosen_pirate_win.m4a","32","","","","","","","","","","","","","","","","","","","","","","",""
"","audio-keyboard-response","34","166379","0.0-33.0-1.0","""event"",""trial"",""time""
""fullscreenenter"",""0"",""22336""
","
","
","""event"",""trial"",""time""
""fullscreenenter"",""0"",""22336""
","
","1389","run_exp/static/audio/clip_9_pick_a_pirate_again.m4a","51","","","","","","","","","","","","","","","","","","","","","","",""
"","audio-keyboard-response","35","167619","0.0-34.0-0.0","""event"",""trial"",""time""
""fullscreenenter"",""0"",""22336""
","
","
","""event"",""trial"",""time""
""fullscreenenter"",""0"",""22336""
","
","1236","run_exp/static/audio/clip_10_chosen_pirate_loss.m4a","32","","","","","","","","","","","","","","","","","","","","","","",""
"","instruc9","36","173188","0.0-35.0-0.0","""event"",""trial"",""time""
""fullscreenenter"",""0"",""22336""
","
","
","""event"",""trial"",""time""
""fullscreenenter"",""0"",""22336""
","
","null","run_exp/static/audio/clip_11_time_out.m4a","null","","","","","<div class='center'><p>If you don’t make your choice fast enough, you’ll have to wait a few seconds before you can make another one. </p><p><img src='run_exp/static/images/miscellaneous/hurry_up.png' height='500'></p></div>","","","","","","","","","","","","","","","","","",""
"","html-keyboard-response","37","174410","0.0-35.0-1.0","""event"",""trial"",""time""
""fullscreenenter"",""0"",""22336""
","
","
","""event"",""trial"",""time""
""fullscreenenter"",""0"",""22336""
","
","1220.3000001907349","<div class='center'><p>If you don’t make your choice fast enough, you’ll have to wait a few seconds before you can make another one. </p><p><img src='run_exp/static/images/miscellaneous/hurry_up.png' height='500'></p><p><b>[Press the space bar to continue]</b></p></div>","32","","","","","","","","","","","","","","","","","","","","","","",""
"","instruc10","38","213560","0.0-35.0-2.0","""event"",""trial"",""time""
""fullscreenenter"",""0"",""22336""
","
","
","""event"",""trial"",""time""
""fullscreenenter"",""0"",""22336""
","
","null","run_exp/static/audio/clip_12_probe.m4a","null","","","","","<div class='center'><p>Once you've chosen a pirate, you’ll be shown the ship they are robbing. You will never rob the same ship twice. Ships can be told apart from one another by the image on them. These are the goods that they sell. See, this ship has a travel mug on it. </p><p> You’ll have to remember which island you saw each ship on. You will win more gold coins and hence more bonus money if you remember correctly! To help you remember, you can imagine a story. For example, here, you could imagine a mug full of water in the desert. Or, as another example, if on the forest island, your pirate robbed a ship with an apple on it, you could imagine an apple falling from a tree in the forest. </p><p><img src='run_exp/static/images/tutorial/example_probe.png' height='500'></p></div>","","","","","","","","","","","","","","","","","",""
"","html-keyboard-response","39","215310","0.0-35.0-3.0","""event"",""trial"",""time""
""fullscreenenter"",""0"",""22336""
","
","
","""event"",""trial"",""time""
""fullscreenenter"",""0"",""22336""
","
","1746.3000001907349","<div class='center'><p>Once you've chosen a pirate, you’ll be shown the ship they are robbing. You will never rob the same ship twice. Ships can be told apart from one another by the image on them. These are the goods that they sell. See, this ship has a travel mug on it. </p><p> You’ll have to remember which island you saw each ship on. You will win more gold coins and hence more bonus money if you remember correctly! To help you remember, you can imagine a story. For example, here, you could imagine a mug full of water in the desert. Or, as another example, if on the forest island, your pirate robbed a ship with an apple on it, you could imagine an apple falling from a tree in the forest. </p><p><img src='run_exp/static/images/tutorial/example_probe.png' height='500'></p><p><b>[Press the space bar to continue]</b></p></div>","32","","","","","","","","","","","","","","","","","","","","","","",""
"","instruc11","40","231779","0.0-35.0-4.0","""event"",""trial"",""time""
""fullscreenenter"",""0"",""22336""
","
","
","""event"",""trial"",""time""
""fullscreenenter"",""0"",""22336""
","
","null","run_exp/static/audio/clip_13_changepoint.m4a","null","","","","","<div class='center'><p>How successful a pirate is at robbing ships will depend on the island you’re on.</p><p> A pirate may have visited this island many times before and gained a lot of practice robbing ships there.</p><p>So, they’re more likely to be successful than a pirate who has never visited the island before.</p></div>","","","","","","","","","","","","","","","","","",""
"","html-keyboard-response","41","234766","0.0-35.0-5.0","""event"",""trial"",""time""
""fullscreenenter"",""0"",""22336""
","
","
","""event"",""trial"",""time""
""fullscreenenter"",""0"",""22336""
","
","2985.199999809265","<div class='center'><p>How successful a pirate is at robbing ships will depend on the island you’re on.</p><p> A pirate may have visited this island many times before and gained a lot of practice robbing ships there.</p><p>So, they’re more likely to be successful than a pirate who has never visited the island before.</p><p><b>[Press the space bar to continue]</b></p></div>","32","","","","","","","","","","","","","","","","","","","","","","",""
"","instruc12","42","276020","0.0-35.0-6.0","""event"",""trial"",""time""
""fullscreenenter"",""0"",""22336""
","
","
","""event"",""trial"",""time""
""fullscreenenter"",""0"",""22336""
","
","null","run_exp/static/audio/clip_14_drift.m4a","null","","","","","<div class='center'><p>How successful a pirate is at robbing ships can also change over the time spent on the island. </p><p> Ships may hear from islanders about the pirates coming and will improve their protections against the attack. This may make it harder to rob them.</p><p> Ships may also become lazy and weaken the strength of their protections. This may make it easier to rob them.</p><br><p>Things are always changing on the high seas! So, try your best to pay attention!</p><p><img src='run_exp/static/images/tutorial/contingency.png' height='500'></p></div>","","","","","","","","","","","","","","","","","",""
"","html-keyboard-response","43","278782","0.0-35.0-7.0","""event"",""trial"",""time""
""fullscreenenter"",""0"",""22336""
","
","
","""event"",""trial"",""time""
""fullscreenenter"",""0"",""22336""
","
","2759.4000000953674","<div class='center'><p>How successful a pirate is at robbing ships can also change over the time spent on the island. </p><p> Ships may hear from islanders about the pirates coming and will improve their protections against the attack. This may make it harder to rob them.</p><p> Ships may also become lazy and weaken the strength of their protections. This may make it easier to rob them.</p><br><p>Things are always changing on the high seas! So, try your best to pay attention!</p><p><img src='run_exp/static/images/tutorial/contingency.png' height='500'></p><p><b>[Press the space bar to continue]</b></p></div>","32","","","","","","","","","","","","","","","","","","","","","","",""
"","instruc13","44","313957","0.0-35.0-8.0","""event"",""trial"",""time""
""fullscreenenter"",""0"",""22336""
","
","
","""event"",""trial"",""time""
""fullscreenenter"",""0"",""22336""
","
","null","run_exp/static/audio/clip_15_summary.m4a","null","","","","","<div class='center'><p>Let's go over the instructions quickly again. You have two important things to do: </p><b><p> 1. Pick the pirate who is the best at robbing ships on the current island. </p></b><b><p> 2. Remember on which island a ship was robbed.</p> </b><p>The amount of bonus money you can win depends on both.</p><p><br><p>Let’s try a practice game. The game will start by showing you the pirates. First, pick a pirate using the <b> 1, 2, 3 </b> keys on your keyboard. When you are shown a ship, try to remember which island you’re on by making up a story.</p><p>This is just a practice game, so you’re not playing for money. </p><p> Good luck! This game will be very difficult but try your best!</p></div>","","","","","","","","","","","","","","","","","",""
"","html-keyboard-response","45","314932","0.0-35.0-9.0","""event"",""trial"",""time""
""fullscreenenter"",""0"",""22336""
","
","
","""event"",""trial"",""time""
""fullscreenenter"",""0"",""22336""
","
","973.3000001907349","<div class='center'><p>Let's go over the instructions quickly again. You have two important things to do: </p><b><p> 1. Pick the pirate who is the best at robbing ships on the current island. </p></b><b><p> 2. Remember on which island a ship was robbed.</p> </b><p>The amount of bonus money you can win depends on both.</p><p><br><p>Let’s try a practice game. The game will start by showing you the pirates. First, pick a pirate using the <b> 1, 2, 3 </b> keys on your keyboard. When you are shown a ship, try to remember which island you’re on by making up a story.</p><p>This is just a practice game, so you’re not playing for money. </p><p> Good luck! This game will be very difficult but try your best!</p><p><b>[Press the space bar to continue]</b></p></div>","32","","","","","","","","","","","","","","","","","","","","","","",""
"","do_welcome","46","318948","0.0-35.0-10.0","""event"",""trial"",""time""
""fullscreenenter"",""0"",""22336""
","
","
","""event"",""trial"",""time""
""fullscreenenter"",""0"",""22336""
","
","null","","","","","","","","null","","","","","","","","","","","","","","","","",""
"","do_trial","47","326155","0.0-35.0-11.0","""event"",""trial"",""time""
""fullscreenenter"",""0"",""22336""
","
","
","""event"",""trial"",""time""
""fullscreenenter"",""0"",""22336""
","
","2688.5","","","","","","","","50","1,0,0","","","","","","","","","","","","","","","",""
"","html-keyboard-response","48","327159","0.0-36.0-0.0","""event"",""trial"",""time""
""fullscreenenter"",""0"",""22336""
","
","
","""event"",""trial"",""time""
""fullscreenenter"",""0"",""22336""
","
","null","<p></p>","null","","","","","","","","","","","","","","","","","","","","","","",""
"","do_trial","49","332276","0.0-36.0-1.0","""event"",""trial"",""time""
""fullscreenenter"",""0"",""22336""
","
","
","""event"",""trial"",""time""
""fullscreenenter"",""0"",""22336""
","
","603.3000001907349","","","","","","","","50","1,1,0","","","","","","","","","","","","","","","",""
"","html-keyboard-response","50","333278","0.0-37.0-0.0","""event"",""trial"",""time""
""fullscreenenter"",""0"",""22336""
","
","
","""event"",""trial"",""time""
""fullscreenenter"",""0"",""22336""
","
","null","<p></p>","null","","","","","","","","","","","","","","","","","","","","","","",""
"","do_trial","51","338170","0.0-37.0-1.0","""event"",""trial"",""time""
""fullscreenenter"",""0"",""22336""
","
","
","""event"",""trial"",""time""
""fullscreenenter"",""0"",""22336""
","
","377.69999980926514","","","","","","","","49","1,0,1","","","","","","","","","","","","","","","",""
"","html-keyboard-response","52","339172","0.0-38.0-0.0","""event"",""trial"",""time""
""fullscreenenter"",""0"",""22336""
","
","
","""event"",""trial"",""time""
""fullscreenenter"",""0"",""22336""
","
","null","<p></p>","null","","","","","","","","","","","","","","","","","","","","","","",""
"","do_trial","53","344057","0.0-38.0-1.0","""event"",""trial"",""time""
""fullscreenenter"",""0"",""22336""
","
","
","""event"",""trial"",""time""
""fullscreenenter"",""0"",""22336""
","
","371.40000009536743","","","","","","","","49","0,1,0","","","","","","","","","","","","","","","",""
"","html-keyboard-response","54","345059","0.0-39.0-0.0","""event"",""trial"",""time""
""fullscreenenter"",""0"",""22336""
","
","
","""event"",""trial"",""time""
""fullscreenenter"",""0"",""22336""
","
","null","<p></p>","null","","","","","","","","","","","","","","","","","","","","","","",""
"","do_trial","55","349873","0.0-39.0-1.0","""event"",""trial"",""time""
""fullscreenenter"",""0"",""22336""
","
","
","""event"",""trial"",""time""
""fullscreenenter"",""0"",""22336""
","
","300.59999990463257","","","","","","","","51","1,0,0","","","","","","","","","","","","","","","",""
"","do_bye","56","351383","0.0-40.0-0.0","""event"",""trial"",""time""
""fullscreenenter"",""0"",""22336""
","
","
","""event"",""trial"",""time""
""fullscreenenter"",""0"",""22336""
","
","null","","","","","","","","null","","","","","","","","","","","","","","","","",""
"","do_travel","57","360389","0.0-40.0-1.0","""event"",""trial"",""time""
""fullscreenenter"",""0"",""22336""
","
","
","""event"",""trial"",""time""
""fullscreenenter"",""0"",""22336""
","
","null","","","","","","","","null","","","","","","","","","","","","","","","","",""
"","do_welcome","58","364400","0.0-40.0-2.0","""event"",""trial"",""time""
""fullscreenenter"",""0"",""22336""
","
","
","""event"",""trial"",""time""
""fullscreenenter"",""0"",""22336""
","
","null","","","","","","","","null","","","","","","","","","","","","","","","","",""
"","do_trial","59","370625","0.0-40.0-3.0","""event"",""trial"",""time""
""fullscreenenter"",""0"",""22336""
","
","
","""event"",""trial"",""time""
""fullscreenenter"",""0"",""22336""
","
","1719.0999999046326","","","","","","","","50","1,0,0","","","","","","","","","","","","","","","",""
"","html-keyboard-response","60","371627","0.0-41.0-0.0","""event"",""trial"",""time""
""fullscreenenter"",""0"",""22336""
","
","
","""event"",""trial"",""time""
""fullscreenenter"",""0"",""22336""
","
","null","<p></p>","null","","","","","","","","","","","","","","","","","","","","","","",""
"","do_trial","61","376455","0.0-41.0-1.0","""event"",""trial"",""time""
""fullscreenenter"",""0"",""22336""
","
","
","""event"",""trial"",""time""
""fullscreenenter"",""0"",""22336""
","
","314.1000003814697","","","","","","","","50","1,0,1","","","","","","","","","","","","","","","",""
"","html-keyboard-response","62","377458","0.0-42.0-0.0","""event"",""trial"",""time""
""fullscreenenter"",""0"",""22336""
","
","
","""event"",""trial"",""time""
""fullscreenenter"",""0"",""22336""
","
","null","<p></p>","null","","","","","","","","","","","","","","","","","","","","","","",""
"","do_trial","63","382315","0.0-42.0-1.0","""event"",""trial"",""time""
""fullscreenenter"",""0"",""22336""
","
","
","""event"",""trial"",""time""
""fullscreenenter"",""0"",""22336""
","
","338.59999990463257","","","","","","","","51","1,1,0","","","","","","","","","","","","","","","",""
"","html-keyboard-response","64","383317","0.0-43.0-0.0","""event"",""trial"",""time""
""fullscreenenter"",""0"",""22336""
","
","
","""event"",""trial"",""time""
""fullscreenenter"",""0"",""22336""
","
","null","<p></p>","null","","","","","","","","","","","","","","","","","","","","","","",""
"","do_trial","65","388035","0.0-43.0-1.0","""event"",""trial"",""time""
""fullscreenenter"",""0"",""22336""
","
","
","""event"",""trial"",""time""
""fullscreenenter"",""0"",""22336""
","
","204.19999980926514","","","","","","","","49","0,0,1","","","","","","","","","","","","","","","",""
"","html-keyboard-response","66","389037","0.0-44.0-0.0","""event"",""trial"",""time""
""fullscreenenter"",""0"",""22336""
","
","
","""event"",""trial"",""time""
""fullscreenenter"",""0"",""22336""
","
","null","<p></p>","null","","","","","","","","","","","","","","","","","","","","","","",""
"","do_trial","67","393866","0.0-44.0-1.0","""event"",""trial"",""time""
""fullscreenenter"",""0"",""22336""
","
","
","""event"",""trial"",""time""
""fullscreenenter"",""0"",""22336""
","
","318.69999980926514","","","","","","","","49","1,0,1","","","","","","","","","","","","","","","",""
"","html-keyboard-response","68","398734","0.0-45.0-0.0","""event"",""trial"",""time""
""fullscreenenter"",""0"",""22336""
","
","
","""event"",""trial"",""time""
""fullscreenenter"",""0"",""22336""
","
","4865","<div class='center'><p><img src='run_exp/static/images/tutorial/prac_best_pirate.png'  height='500'></p></div>","50","","","","","","","","","","","","","","","","","","","","","","",""
"","html-keyboard-response","69","400771","0.0-46.0-0.0","""event"",""trial"",""time""
""fullscreenenter"",""0"",""22336""
","
","
","""event"",""trial"",""time""
""fullscreenenter"",""0"",""22336""
","
","2034.3000001907349","<div class='center'><p>That's incorrect! Red beard was the best.</p><p><b>[Press the space bar to continue]</b></p></div>","32","","","","","","","","","","","","","","","","","","","","","","",""
"","html-keyboard-response","70","405198","0.0-46.0-1.0","""event"",""trial"",""time""
""fullscreenenter"",""0"",""22336""
","
","
","""event"",""trial"",""time""
""fullscreenenter"",""0"",""22336""
","
","4426.299999713898","<div class='center'><p><img src='run_exp/static/images/tutorial/prac_source.png'  height='500'></p></div>","50","","","","","","","","","","","","","","","","","","","","","","",""
"","html-keyboard-response","71","406260","0.0-47.0-0.0","""event"",""trial"",""time""
""fullscreenenter"",""0"",""22336""
","
","
","""event"",""trial"",""time""
""fullscreenenter"",""0"",""22336""
","
","1060.0999999046326","<div class='center'><p>That's correct! You saw this ship on the cavern island.</p><p><b>[Press the space bar to continue]</b></p></div>","32","","","","","","","","","","","","","","","","","","","","","","",""
"","quiz_beginning","72","417549","0.0-47.0-1.0","""event"",""trial"",""time""
""fullscreenenter"",""0"",""22336""
","
","
","""event"",""trial"",""time""
""fullscreenenter"",""0"",""22336""
","
","null","run_exp/static/audio/clip_16_quiz_intro.m4a","null","","","","","<div class='center'><p>Good job on the practice game! Now, you will be asked some true or false questions to make sure you really understand the rules of the game.</p><p> Press <b>'1'</b> on the keyboard for true and press <b>'2'</b> for false.</p></div>","","","","","","","","","","","","","","","","","",""
"","audio-keyboard-response","73","422357","0.0-47.0-2.0","""event"",""trial"",""time""
""fullscreenenter"",""0"",""22336""
","
","
","""event"",""trial"",""time""
""fullscreenenter"",""0"",""22336""
","
","4805.89999961853","run_exp/static/audio/clip_17_q1.m4a","49","","","","","","","","","","","","","","","","","","","","","","",""
"","correct","74","424747","0.0-48.0-0.0","""event"",""trial"",""time""
""fullscreenenter"",""0"",""22336""
","
","
","""event"",""trial"",""time""
""fullscreenenter"",""0"",""22336""
","
","null","run_exp/static/audio/clip_18_correct.m4a","null","","","","","<div class='center'><p>That's correct!</p></div>","","","","","","","","","","","","","","","","","",""
"","html-keyboard-response","75","425613","0.0-48.0-1.0","""event"",""trial"",""time""
""fullscreenenter"",""0"",""22336""
","
","
","""event"",""trial"",""time""
""fullscreenenter"",""0"",""22336""
","
","865","<div class='center'><p>That's correct!</p><p><b>[Press the space bar to continue]</b></p></div>","32","","","","","","","","","","","","","","","","","","","","","","",""
"","audio-keyboard-response","76","431475","0.0-48.0-2.0","""event"",""trial"",""time""
""fullscreenenter"",""0"",""22336""
","
","
","""event"",""trial"",""time""
""fullscreenenter"",""0"",""22336""
","
","5860","run_exp/static/audio/clip_20_q2.m4a","50","","","","","","","","","","","","","","","","","","","","","","",""
"","correct","77","433848","0.0-49.0-0.0","""event"",""trial"",""time""
""fullscreenenter"",""0"",""22336""
","
","
","""event"",""trial"",""time""
""fullscreenenter"",""0"",""22336""
","
","null","run_exp/static/audio/clip_18_correct.m4a","null","","","","","<div class='center'><p>That's correct!</p></div>","","","","","","","","","","","","","","","","","",""
"","html-keyboard-response","78","434652","0.0-49.0-1.0","""event"",""trial"",""time""
""fullscreenenter"",""0"",""22336""
","
","
","""event"",""trial"",""time""
""fullscreenenter"",""0"",""22336""
","
","802.5999999046326","<div class='center'><p>That's correct!</p><p><b>[Press the space bar to continue]</b></p></div>","32","","","","","","","","","","","","","","","","","","","","","","",""
"","audio-keyboard-response","79","438019","0.0-49.0-2.0","""event"",""trial"",""time""
""fullscreenenter"",""0"",""22336""
","
","
","""event"",""trial"",""time""
""fullscreenenter"",""0"",""22336""
","
","3365.2999997138977","run_exp/static/audio/clip_22_q3.m4a","50","","","","","","","","","","","","","","","","","","","","","","",""
"","correct","80","440388","0.0-50.0-0.0","""event"",""trial"",""time""
""fullscreenenter"",""0"",""22336""
","
","
","""event"",""trial"",""time""
""fullscreenenter"",""0"",""22336""
","
","null","run_exp/static/audio/clip_18_correct.m4a","null","","","","","<div class='center'><p>That's correct!</p></div>","","","","","","","","","","","","","","","","","",""
"","html-keyboard-response","81","440938","0.0-50.0-1.0","""event"",""trial"",""time""
""fullscreenenter"",""0"",""22336""
","
","
","""event"",""trial"",""time""
""fullscreenenter"",""0"",""22336""
","
","549.4000000953674","<div class='center'><p>That's correct!</p><p><b>[Press the space bar to continue]</b></p></div>","32","","","","","","","","","","","","","","","","","","","","","","",""
"","audio-keyboard-response","82","442861","0.0-50.0-2.0","""event"",""trial"",""time""
""fullscreenenter"",""0"",""22336""
","
","
","""event"",""trial"",""time""
""fullscreenenter"",""0"",""22336""
","
","1917.7000002861023","run_exp/static/audio/clip_24_q4.m4a","49","","","","","","","","","","","","","","","","","","","","","","",""
"","correct","83","445321","0.0-51.0-0.0","""event"",""trial"",""time""
""fullscreenenter"",""0"",""22336""
","
","
","""event"",""trial"",""time""
""fullscreenenter"",""0"",""22336""
","
","null","run_exp/static/audio/clip_18_correct.m4a","null","","","","","<div class='center'><p>That's correct!</p></div>","","","","","","","","","","","","","","","","","",""
"","html-keyboard-response","84","446040","0.0-51.0-1.0","""event"",""trial"",""time""
""fullscreenenter"",""0"",""22336""
","
","
","""event"",""trial"",""time""
""fullscreenenter"",""0"",""22336""
","
","717.3000001907349","<div class='center'><p>That's correct!</p><p><b>[Press the space bar to continue]</b></p></div>","32","","","","","","","","","","","","","","","","","","","","","","",""
"","q_all_corr","85","454541","0.0-52.0-0.0","""event"",""trial"",""time""
""fullscreenenter"",""0"",""22336""
","
","
","""event"",""trial"",""time""
""fullscreenenter"",""0"",""22336""
","
","null","run_exp/static/audio/clip_27_quiz_all_correct.m4a","null","","","","","<div class='center'><p>Good job! You’re now ready to move on to the real game! Remember this game will be difficult but don't get discouraged and try your best!</p></div>","","","","","","","","","","","","","","","","","",""
"","html-keyboard-response","86","460295","0.0-52.0-1.0","""event"",""trial"",""time""
""fullscreenenter"",""0"",""22336""
","
","
","""event"",""trial"",""time""
""fullscreenenter"",""0"",""22336""
","
","5751.900000095367","<div class='center'><p>Good job! You’re now ready to move on to the real game! Remember this game will be difficult but don't get discouraged and try your best!</p><p><b>[Press the space bar to continue]</b></p></div>","32","","","","","","","","","","","","","","","","","","","","","","",""
"","do_welcome","87","464307","0.0-53.0-0.0","""event"",""trial"",""time""
""fullscreenenter"",""0"",""22336""
","
","
","""event"",""trial"",""time""
""fullscreenenter"",""0"",""22336""
","
","null","","","","","","","","null","","","","","","","","","","","","","","","","",""
"","do_trial","88","469770","0.0-54.0-0.0","""event"",""trial"",""time""
""fullscreenenter"",""0"",""22336""
","
","
","""event"",""trial"",""time""
""fullscreenenter"",""0"",""22336""
","
","854.6999998092651","","","","","","","","49","1,0,0","0","city","0","probe-45","0.6","0.3","0.1","1","","","","","","","",""
"","html-keyboard-response","89","470825","0.0-54.0-1.0","""event"",""trial"",""time""
""fullscreenenter"",""0"",""22336""
","
","
","""event"",""trial"",""time""
""fullscreenenter"",""0"",""22336""
","
","null","<p></p>","null","","","","","","","","","","","","","","","","","","","","","","",""
"","do_trial","90","475755","0.0-55.0-0.0","""event"",""trial"",""time""
""fullscreenenter"",""0"",""22336""
","
","
","""event"",""trial"",""time""
""fullscreenenter"",""0"",""22336""
","
","368.40000009536743","","","","","","","","49","1,1,0","0","city","1","probe-96","0.5810223652050551","0.3399967694265743","0.08504673575986763","1","","","","","","","",""
"","html-keyboard-response","91","476757","0.0-55.0-1.0","""event"",""trial"",""time""
""fullscreenenter"",""0"",""22336""
","
","
","""event"",""trial"",""time""
""fullscreenenter"",""0"",""22336""
","
","null","<p></p>","null","","","","","","","","","","","","","","","","","","","","","","",""
"","do_trial","92","481666","0.0-56.0-0.0","""event"",""trial"",""time""
""fullscreenenter"",""0"",""22336""
","
","
","""event"",""trial"",""time""
""fullscreenenter"",""0"",""22336""
","
","360.5","","","","","","","","49","1,0,0","0","city","2","probe-17","0.6997435694494467","0.41847406675685805","0.11771888614138781","1","","","","","","","",""
"","html-keyboard-response","93","482667","0.0-56.0-1.0","""event"",""trial"",""time""
""fullscreenenter"",""0"",""22336""
","
","
","""event"",""trial"",""time""
""fullscreenenter"",""0"",""22336""
","
","null","<p></p>","null","","","","","","","","","","","","","","","","","","","","","","",""
"","do_trial","94","487572","0.0-57.0-0.0","""event"",""trial"",""time""
""fullscreenenter"",""0"",""22336""
","
","
","""event"",""trial"",""time""
""fullscreenenter"",""0"",""22336""
","
","260.40000009536743","","","","","","","","49","1,1,1","0","city","3","probe-187","0.7427213418426056","0.5144705510910412","0.09468239206121774","1","","","","","","","",""
"","html-keyboard-response","95","488574","0.0-57.0-1.0","""event"",""trial"",""time""
""fullscreenenter"",""0"",""22336""
","
","
","""event"",""trial"",""time""
""fullscreenenter"",""0"",""22336""
","
","null","<p></p>","null","","","","","","","","","","","","","","","","","","","","","","",""
"","do_trial","96","493481","0.0-58.0-0.0","""event"",""trial"",""time""
""fullscreenenter"",""0"",""22336""
","
","
","""event"",""trial"",""time""
""fullscreenenter"",""0"",""22336""
","
","282.8999996185303","","","","","","","","49","1,0,0","0","city","4","probe-168","0.7667397409428148","0.44693591709226466","0.08871661585648809","1","","","","","","","",""
"","html-keyboard-response","97","494482","0.0-58.0-1.0","""event"",""trial"",""time""
""fullscreenenter"",""0"",""22336""
","
","
","""event"",""trial"",""time""
""fullscreenenter"",""0"",""22336""
","
","null","<p></p>","null","","","","","","","","","","","","","","","","","","","","","","",""
"","do_trial","98","499368","0.0-59.0-0.0","""event"",""trial"",""time""
""fullscreenenter"",""0"",""22336""
","
","
","""event"",""trial"",""time""
""fullscreenenter"",""0"",""22336""
","
","309","","","","","","","","49","1,0,0","0","city","5","probe-223","0.7759723727564446","0.2698655869935993","0.11517320483760571","1","","","","","","","",""
"","html-keyboard-response","99","500369","0.0-59.0-1.0","""event"",""trial"",""time""
""fullscreenenter"",""0"",""22336""
","
","
","""event"",""trial"",""time""
""fullscreenenter"",""0"",""22336""
","
","null","<p></p>","null","","","","","","","","","","","","","","","","","","","","","","",""
"","do_trial","100","505300","0.0-60.0-0.0","""event"",""trial"",""time""
""fullscreenenter"",""0"",""22336""
","
","
","""event"",""trial"",""time""
""fullscreenenter"",""0"",""22336""
","
","348.3999996185303","","","","","","","","49","1,0,0","0","city","6","probe-77","0.7159471316727823","0.2841582403095296","0.2559142165944698","1","","","","","","","",""
"","html-keyboard-response","101","506302","0.0-60.0-1.0","""event"",""trial"",""time""
""fullscreenenter"",""0"",""22336""
","
","
","""event"",""trial"",""time""
""fullscreenenter"",""0"",""22336""
","
","null","<p></p>","null","","","","","","","","","","","","","","","","","","","","","","",""
"","do_trial","102","511212","0.0-61.0-0.0","""event"",""trial"",""time""
""fullscreenenter"",""0"",""22336""
","
","
","""event"",""trial"",""time""
""fullscreenenter"",""0"",""22336""
","
","311","","","","","","","","49","1,0,1","0","city","7","probe-178","0.7328031085334703","0.3374171803777889","0.0936820276894196","1","","","","","","","",""
"","html-keyboard-response","103","512214","0.0-61.0-1.0","""event"",""trial"",""time""
""fullscreenenter"",""0"",""22336""
","
","
","""event"",""trial"",""time""
""fullscreenenter"",""0"",""22336""
","
","null","<p></p>","null","","","","","","","","","","","","","","","","","","","","","","",""
"","do_trial","104","517164","0.0-62.0-0.0","""event"",""trial"",""time""
""fullscreenenter"",""0"",""22336""
","
","
","""event"",""trial"",""time""
""fullscreenenter"",""0"",""22336""
","
","370.80000019073486","","","","","","","","51","1,0,0","0","city","8","probe-123","0.7671500877462094","0.20765462535171972","0.13000946843766417","0","","","","","","","",""
"","html-keyboard-response","105","518167","0.0-62.0-1.0","""event"",""trial"",""time""
""fullscreenenter"",""0"",""22336""
","
","
","""event"",""trial"",""time""
""fullscreenenter"",""0"",""22336""
","
","null","<p></p>","null","","","","","","","","","","","","","","","","","","","","","","",""
"","do_trial","106","523100","0.0-63.0-0.0","""event"",""trial"",""time""
""fullscreenenter"",""0"",""22336""
","
","
","""event"",""trial"",""time""
""fullscreenenter"",""0"",""22336""
","
","349.30000019073486","","","","","","","","50","1,0,0","0","city","9","probe-109","0.7776824679530705","0.2838686240387443","0.22361753603713003","0","","","","","","","",""
"","html-keyboard-response","107","524102","0.0-63.0-1.0","""event"",""trial"",""time""
""fullscreenenter"",""0"",""22336""
","
","
","""event"",""trial"",""time""
""fullscreenenter"",""0"",""22336""
","
","null","<p></p>","null","","","","","","","","","","","","","","","","","","","","","","",""
"","do_trial","108","529057","0.0-64.0-0.0","""event"",""trial"",""time""
""fullscreenenter"",""0"",""22336""
","
","
","""event"",""trial"",""time""
""fullscreenenter"",""0"",""22336""
","
","337.90000009536743","","","","","","","","49","1,0,0","0","city","10","probe-72","0.7291165892761592","0.42326006333823907","0.1823834974791681","1","","","","","","","",""
"","html-keyboard-response","109","530059","0.0-64.0-1.0","""event"",""trial"",""time""
""fullscreenenter"",""0"",""22336""
","
","
","""event"",""trial"",""time""
""fullscreenenter"",""0"",""22336""
","
","null","<p></p>","null","","","","","","","","","","","","","","","","","","","","","","",""
"","do_trial","110","535155","0.0-65.0-0.0","""event"",""trial"",""time""
""fullscreenenter"",""0"",""22336""
","
","
","""event"",""trial"",""time""
""fullscreenenter"",""0"",""22336""
","
","531.3000001907349","","","","","","","","49","1,1,0","0","city","11","probe-134","0.5857726763773348","0.48635882042842143","0.07622010301894153","1","","","","","","","",""
"","html-keyboard-response","111","536159","0.0-65.0-1.0","""event"",""trial"",""time""
""fullscreenenter"",""0"",""22336""
","
","
","""event"",""trial"",""time""
""fullscreenenter"",""0"",""22336""
","
","null","<p></p>","null","","","","","","","","","","","","","","","","","","","","","","",""
"","do_trial","112","541609","0.0-66.0-0.0","""event"",""trial"",""time""
""fullscreenenter"",""0"",""22336""
","
","
","""event"",""trial"",""time""
""fullscreenenter"",""0"",""22336""
","
","876","","","","","","","","50","0,1,0","0","city","12","probe-85","0.4888637132099724","0.4698914408407706","0.08992917796812455","1","","","","","","","",""
"","html-keyboard-response","113","542611","0.0-66.0-1.0","""event"",""trial"",""time""
""fullscreenenter"",""0"",""22336""
","
","
","""event"",""trial"",""time""
""fullscreenenter"",""0"",""22336""
","
","null","<p></p>","null","","","","","","","","","","","","","","","","","","","","","","",""
"","do_trial","114","547491","0.0-67.0-0.0","""event"",""trial"",""time""
""fullscreenenter"",""0"",""22336""
","
","
","""event"",""trial"",""time""
""fullscreenenter"",""0"",""22336""
","
","280.80000019073486","","","","","","","","49","1,1,0","0","city","13","probe-200","0.5960443854141938","0.44466607687823756","0.21036629461419978","1","","","","","","","",""
"","html-keyboard-response","115","548493","0.0-67.0-1.0","""event"",""trial"",""time""
""fullscreenenter"",""0"",""22336""
","
","
","""event"",""trial"",""time""
""fullscreenenter"",""0"",""22336""
","
","null","<p></p>","null","","","","","","","","","","","","","","","","","","","","","","",""
"","do_trial","116","553440","0.0-68.0-0.0","""event"",""trial"",""time""
""fullscreenenter"",""0"",""22336""
","
","
","""event"",""trial"",""time""
""fullscreenenter"",""0"",""22336""
","
","378","","","","","","","","49","1,1,0","0","city","14","probe-184","0.5435023822441887","0.39163102070776634","0.16463866675071617","1","","","","","","","",""
"","html-keyboard-response","117","554442","0.0-68.0-1.0","""event"",""trial"",""time""
""fullscreenenter"",""0"",""22336""
","
","
","""event"",""trial"",""time""
""fullscreenenter"",""0"",""22336""
","
","null","<p></p>","null","","","","","","","","","","","","","","","","","","","","","","",""
"","do_trial","118","559442","0.0-69.0-0.0","""event"",""trial"",""time""
""fullscreenenter"",""0"",""22336""
","
","
","""event"",""trial"",""time""
""fullscreenenter"",""0"",""22336""
","
","414.69999980926514","","","","","","","","49","1,0,0","0","city","15","probe-02","0.6185491089373593","0.358091941855419","0.07538225063892912","1","","","","","","","",""
"","html-keyboard-response","119","560443","0.0-69.0-1.0","""event"",""trial"",""time""
""fullscreenenter"",""0"",""22336""
","
","
","""event"",""trial"",""time""
""fullscreenenter"",""0"",""22336""
","
","null","<p></p>","null","","","","","","","","","","","","","","","","","","","","","","",""
"","do_trial","120","565371","0.0-70.0-0.0","""event"",""trial"",""time""
""fullscreenenter"",""0"",""22336""
","
","
","""event"",""trial"",""time""
""fullscreenenter"",""0"",""22336""
","
","372.1000003814697","","","","","","","","49","0,0,0","0","city","16","probe-202","0.6565770560636885","0.3016009254872436","0.07507794695055803","0","","","","","","","",""
"","html-keyboard-response","121","566373","0.0-70.0-1.0","""event"",""trial"",""time""
""fullscreenenter"",""0"",""22336""
","
","
","""event"",""trial"",""time""
""fullscreenenter"",""0"",""22336""
","
","null","<p></p>","null","","","","","","","","","","","","","","","","","","","","","","",""
"","do_trial","122","571421","0.0-71.0-0.0","""event"",""trial"",""time""
""fullscreenenter"",""0"",""22336""
","
","
","""event"",""trial"",""time""
""fullscreenenter"",""0"",""22336""
","
","433.19999980926514","","","","","","","","49","0,1,0","0","city","17","probe-186","0.42805073675101185","0.3770213013740524","0.17740983426788975","0","","","","","","","",""
"","html-keyboard-response","123","572423","0.0-71.0-1.0","""event"",""trial"",""time""
""fullscreenenter"",""0"",""22336""
","
","
","""event"",""trial"",""time""
""fullscreenenter"",""0"",""22336""
","
","null","<p></p>","null","","","","","","","","","","","","","","","","","","","","","","",""
"","do_trial","124","577301","0.0-72.0-0.0","""event"",""trial"",""time""
""fullscreenenter"",""0"",""22336""
","
","
","""event"",""trial"",""time""
""fullscreenenter"",""0"",""22336""
","
","295.69999980926514","","","","","","","","50","0,0,1","0","city","18","probe-38","0.4363754007433104","0.38243215044493695","0.24342457609223278","0","","","","","","","",""
"","html-keyboard-response","125","578303","0.0-72.0-1.0","""event"",""trial"",""time""
""fullscreenenter"",""0"",""22336""
","
","
","""event"",""trial"",""time""
""fullscreenenter"",""0"",""22336""
","
","null","<p></p>","null","","","","","","","","","","","","","","","","","","","","","","",""
"","do_trial","126","583365","0.0-73.0-0.0","""event"",""trial"",""time""
""fullscreenenter"",""0"",""22336""
","
","
","""event"",""trial"",""time""
""fullscreenenter"",""0"",""22336""
","
","454.7000002861023","","","","","","","","50","1,0,0","0","city","19","probe-07","0.6066637016824122","0.4002266527420392","0.06736099986552423","0","","","","","","","",""
"","html-keyboard-response","127","584367","0.0-73.0-1.0","""event"",""trial"",""time""
""fullscreenenter"",""0"",""22336""
","
","
","""event"",""trial"",""time""
""fullscreenenter"",""0"",""22336""
","
","null","<p></p>","null","","","","","","","","","","","","","","","","","","","","","","",""
"","do_trial","128","589098","0.0-74.0-0.0","""event"",""trial"",""time""
""fullscreenenter"",""0"",""22336""
","
","
","""event"",""trial"",""time""
""fullscreenenter"",""0"",""22336""
","
","86.40000009536743","","","","","","","","51","0,0,1","0","city","20","probe-180","0.4706877725491245","0.4028652290375472","0.12930155626107998","1","","","","","","","",""
"","html-keyboard-response","129","590100","0.0-74.0-1.0","""event"",""trial"",""time""
""fullscreenenter"",""0"",""22336""
","
","
","""event"",""trial"",""time""
""fullscreenenter"",""0"",""22336""
","
","null","<p></p>","null","","","","","","","","","","","","","","","","","","","","","","",""
"","do_trial","130","595046","0.0-75.0-0.0","""event"",""trial"",""time""
""fullscreenenter"",""0"",""22336""
","
","
","""event"",""trial"",""time""
""fullscreenenter"",""0"",""22336""
","
","323.59999990463257","","","","","","","","51","1,0,0","0","city","21","probe-81","0.5522204276971044","0.3967044251800989","0.15377123442416726","0","","","","","","","",""
"","html-keyboard-response","131","596048","0.0-75.0-1.0","""event"",""trial"",""time""
""fullscreenenter"",""0"",""22336""
","
","
","""event"",""trial"",""time""
""fullscreenenter"",""0"",""22336""
","
","null","<p></p>","null","","","","","","","","","","","","","","","","","","","","","","",""
"","do_trial","132","600890","0.0-76.0-0.0","""event"",""trial"",""time""
""fullscreenenter"",""0"",""22336""
","
","
","""event"",""trial"",""time""
""fullscreenenter"",""0"",""22336""
","
","253.80000019073486","","","","","","","","49","0,0,0","0","city","22","probe-136","0.5397052869613549","0.38776735593109246","0.08467762123170207","0","","","","","","","",""
"","html-keyboard-response","133","601892","0.0-76.0-1.0","""event"",""trial"",""time""
""fullscreenenter"",""0"",""22336""
","
","
","""event"",""trial"",""time""
""fullscreenenter"",""0"",""22336""
","
","null","<p></p>","null","","","","","","","","","","","","","","","","","","","","","","",""
"","do_trial","134","606827","0.0-77.0-0.0","""event"",""trial"",""time""
""fullscreenenter"",""0"",""22336""
","
","
","""event"",""trial"",""time""
""fullscreenenter"",""0"",""22336""
","
","341.30000019073486","","","","","","","","51","1,0,1","0","city","23","probe-177","0.6576349192657291","0.4269029862604608","0.18981996039139454","1","","","","","","","",""
"","html-keyboard-response","135","607829","0.0-77.0-1.0","""event"",""trial"",""time""
""fullscreenenter"",""0"",""22336""
","
","
","""event"",""trial"",""time""
""fullscreenenter"",""0"",""22336""
","
","null","<p></p>","null","","","","","","","","","","","","","","","","","","","","","","",""
"","do_trial","136","612761","0.0-78.0-0.0","""event"",""trial"",""time""
""fullscreenenter"",""0"",""22336""
","
","
","""event"",""trial"",""time""
""fullscreenenter"",""0"",""22336""
","
","352.69999980926514","","","","","","","","51","1,0,0","0","city","24","probe-174","0.688585212079386","0.21870452820153824","0.13728070555360417","0","","","","","","","",""
"","html-keyboard-response","137","613763","0.0-78.0-1.0","""event"",""trial"",""time""
""fullscreenenter"",""0"",""22336""
","
","
","""event"",""trial"",""time""
""fullscreenenter"",""0"",""22336""
","
","null","<p></p>","null","","","","","","","","","","","","","","","","","","","","","","",""
"","do_trial","138","618337","0.0-79.0-0.0","""event"",""trial"",""time""
""fullscreenenter"",""0"",""22336""
","
","
","""event"",""trial"",""time""
""fullscreenenter"",""0"",""22336""
","
","0","","","","","","","","50","1,0,0","0","city","25","probe-222","0.7021455151158162","0.28748765222989503","0.06749663741269721","0","","","","","","","",""
"","html-keyboard-response","139","619339","0.0-79.0-1.0","""event"",""trial"",""time""
""fullscreenenter"",""0"",""22336""
","
","
","""event"",""trial"",""time""
""fullscreenenter"",""0"",""22336""
","
","null","<p></p>","null","","","","","","","","","","","","","","","","","","","","","","",""
"","do_trial","140","624523","0.0-80.0-0.0","""event"",""trial"",""time""
""fullscreenenter"",""0"",""22336""
","
","
","""event"",""trial"",""time""
""fullscreenenter"",""0"",""22336""
","
","593.9000000953674","","","","","","","","50","1,0,1","0","city","26","probe-227","0.6269851378821464","0.3323216761575363","0.15559598579259412","0","","","","","","","",""
"","html-keyboard-response","141","625524","0.0-80.0-1.0","""event"",""trial"",""time""
""fullscreenenter"",""0"",""22336""
","
","
","""event"",""trial"",""time""
""fullscreenenter"",""0"",""22336""
","
","null","<p></p>","null","","","","","","","","","","","","","","","","","","","","","","",""
"","do_trial","142","630620","0.0-81.0-0.0","""event"",""trial"",""time""
""fullscreenenter"",""0"",""22336""
","
","
","""event"",""trial"",""time""
""fullscreenenter"",""0"",""22336""
","
","521","","","","","","","","49","1,0,0","0","city","27","probe-57","0.5757064308116029","0.214546787950879","0.20218431096219303","1","","","","","","","",""
"","html-keyboard-response","143","631621","0.0-81.0-1.0","""event"",""trial"",""time""
""fullscreenenter"",""0"",""22336""
","
","
","""event"",""trial"",""time""
""fullscreenenter"",""0"",""22336""
","
","null","<p></p>","null","","","","","","","","","","","","","","","","","","","","","","",""
"","do_trial","144","636556","0.0-82.0-0.0","""event"",""trial"",""time""
""fullscreenenter"",""0"",""22336""
","
","
","""event"",""trial"",""time""
""fullscreenenter"",""0"",""22336""
","
","364.6000003814697","","","","","","","","49","0,0,0","0","city","28","probe-99","0.5534953662773893","0.14482577899691956","0.2667292751747615","0","","","","","","","",""
"","html-keyboard-response","145","637557","0.0-82.0-1.0","""event"",""trial"",""time""
""fullscreenenter"",""0"",""22336""
","
","
","""event"",""trial"",""time""
""fullscreenenter"",""0"",""22336""
","
","null","<p></p>","null","","","","","","","","","","","","","","","","","","","","","","",""
"","do_trial","146","643604","0.0-83.0-0.0","""event"",""trial"",""time""
""fullscreenenter"",""0"",""22336""
","
","
","""event"",""trial"",""time""
""fullscreenenter"",""0"",""22336""
","
","1410.6999998092651","","","","","","","","51","1,1,0","0","city","29","probe-101","0.4931996763009316","0.21673899222148582","0.07853645666296956","0","","","","","","","",""
"","html-keyboard-response","147","644606","0.0-83.0-1.0","""event"",""trial"",""time""
""fullscreenenter"",""0"",""22336""
","
","
","""event"",""trial"",""time""
""fullscreenenter"",""0"",""22336""
","
","null","<p></p>","null","","","","","","","","","","","","","","","","","","","","","","",""
"","do_bye","148","646116","0.0-84.0-0.0","""event"",""trial"",""time""
""fullscreenenter"",""0"",""22336""
","
","
","""event"",""trial"",""time""
""fullscreenenter"",""0"",""22336""
","
","null","","","","","","","","null","","","","","","","","","","","","","","","","",""
"","break","149","655639","0.0-84.0-1.0","""event"",""trial"",""time""
""fullscreenenter"",""0"",""22336""
","
","
","""event"",""trial"",""time""
""fullscreenenter"",""0"",""22336""
","
","9520.400000095367","<div class='center'><p>Time to take a quick break! You have 2 minutes to rest, but you can move on sooner if you'd like.</p><p> Press the <b>space bar</b> to continue.</p></div>","32","","","","","","","","","","","","","","","","","","","","","","",""
"","do_travel","150","664644","0.0-85.0-0.0","""event"",""trial"",""time""
""fullscreenenter"",""0"",""22336""
","
","
","""event"",""trial"",""time""
""fullscreenenter"",""0"",""22336""
","
","null","","","","","","","","null","","","","","","","","","","","","","","","","",""
"","do_welcome","151","668656","0.0-85.0-1.0","""event"",""trial"",""time""
""fullscreenenter"",""0"",""22336""
","
","
","""event"",""trial"",""time""
""fullscreenenter"",""0"",""22336""
","
","null","","","","","","","","null","","","","","","","","","","","","","","","","",""
"","do_trial","152","675051","0.0-86.0-0.0","""event"",""trial"",""time""
""fullscreenenter"",""0"",""22336""
","
","
","""event"",""trial"",""time""
""fullscreenenter"",""0"",""22336""
","
","1800.5999999046326","","","","","","","","50","1,1,0","1","highway","30","probe-230","1","0.29356914922295246","0.05917136453316583","1","","","","","","","",""
"","html-keyboard-response","153","676053","0.0-86.0-1.0","""event"",""trial"",""time""
""fullscreenenter"",""0"",""22336""
","
","
","""event"",""trial"",""time""
""fullscreenenter"",""0"",""22336""
","
","null","<p></p>","null","","","","","","","","","","","","","","","","","","","","","","",""
"","do_trial","154","680999","0.0-87.0-0.0","""event"",""trial"",""time""
""fullscreenenter"",""0"",""22336""
","
","
","""event"",""trial"",""time""
""fullscreenenter"",""0"",""22336""
","
","372.90000009536743","","","","","","","","50","1,1,0","1","highway","31","probe-162","1","0.32527050221410564","0.26424230638287666","1","","","","","","","",""
"","html-keyboard-response","155","682001","0.0-87.0-1.0","""event"",""trial"",""time""
""fullscreenenter"",""0"",""22336""
","
","
","""event"",""trial"",""time""
""fullscreenenter"",""0"",""22336""
","
","null","<p></p>","null","","","","","","","","","","","","","","","","","","","","","","",""
"","do_trial","156","687022","0.0-88.0-0.0","""event"",""trial"",""time""
""fullscreenenter"",""0"",""22336""
","
","
","""event"",""trial"",""time""
""fullscreenenter"",""0"",""22336""
","
","408.59999990463257","","","","","","","","50","1,1,0","1","highway","32","probe-167","1","0.2354666123762884","0.11435456282912197","1","","","","","","","",""
"","html-keyboard-response","157","688024","0.0-88.0-1.0","""event"",""trial"",""time""
""fullscreenenter"",""0"",""22336""
","
","
","""event"",""trial"",""time""
""fullscreenenter"",""0"",""22336""
","
","null","<p></p>","null","","","","","","","","","","","","","","","","","","","","","","",""
"","do_trial","158","693003","0.0-89.0-0.0","""event"",""trial"",""time""
""fullscreenenter"",""0"",""22336""
","
","
","""event"",""trial"",""time""
""fullscreenenter"",""0"",""22336""
","
","349.90000009536743","","","","","","","","50","1,1,1","1","highway","33","probe-93","0.8866811320980831","0.2656552790587035","0.1289311186781908","1","","","","","","","",""
"","html-keyboard-response","159","694005","0.0-89.0-1.0","""event"",""trial"",""time""
""fullscreenenter"",""0"",""22336""
","
","
","""event"",""trial"",""time""
""fullscreenenter"",""0"",""22336""
","
","null","<p></p>","null","","","","","","","","","","","","","","","","","","","","","","",""
"","do_trial","160","698853","0.0-90.0-0.0","""event"",""trial"",""time""
""fullscreenenter"",""0"",""22336""
","
","
","""event"",""trial"",""time""
""fullscreenenter"",""0"",""22336""
","
","262.59999990463257","","","","","","","","50","1,0,0","1","highway","34","probe-11","0.8118506844933532","0.20858468636386326","0.19246200772978056","0","","","","","","","",""
"","html-keyboard-response","161","699855","0.0-90.0-1.0","""event"",""trial"",""time""
""fullscreenenter"",""0"",""22336""
","
","
","""event"",""trial"",""time""
""fullscreenenter"",""0"",""22336""
","
","null","<p></p>","null","","","","","","","","","","","","","","","","","","","","","","",""
"","do_trial","162","704531","0.0-91.0-0.0","""event"",""trial"",""time""
""fullscreenenter"",""0"",""22336""
","
","
","""event"",""trial"",""time""
""fullscreenenter"",""0"",""22336""
","
","91.90000009536743","","","","","","","","50","1,0,0","1","highway","35","probe-215","0.6873562438822175","0.186256765341198","0.053142165745312636","0","","","","","","","",""
"","html-keyboard-response","163","705532","0.0-91.0-1.0","""event"",""trial"",""time""
""fullscreenenter"",""0"",""22336""
","
","
","""event"",""trial"",""time""
""fullscreenenter"",""0"",""22336""
","
","null","<p></p>","null","","","","","","","","","","","","","","","","","","","","","","",""
"","do_trial","164","710596","0.0-92.0-0.0","""event"",""trial"",""time""
""fullscreenenter"",""0"",""22336""
","
","
","""event"",""trial"",""time""
""fullscreenenter"",""0"",""22336""
","
","456.59999990463257","","","","","","","","51","1,1,1","1","highway","36","probe-126","0.7806865194603326","0.42443821276025306","0.09220402777640496","1","","","","","","","",""
"","html-keyboard-response","165","711597","0.0-92.0-1.0","""event"",""trial"",""time""
""fullscreenenter"",""0"",""22336""
","
","
","""event"",""trial"",""time""
""fullscreenenter"",""0"",""22336""
","
","null","<p></p>","null","","","","","","","","","","","","","","","","","","","","","","",""
"","do_trial","166","716538","0.0-93.0-0.0","""event"",""trial"",""time""
""fullscreenenter"",""0"",""22336""
","
","
","""event"",""trial"",""time""
""fullscreenenter"",""0"",""22336""
","
","345.7000002861023","","","","","","","","51","0,1,0","1","highway","37","probe-03","0.6175595519897698","0.4689815898851918","0.05169689213535433","0","","","","","","","",""
"","html-keyboard-response","167","717541","0.0-93.0-1.0","""event"",""trial"",""time""
""fullscreenenter"",""0"",""22336""
","
","
","""event"",""trial"",""time""
""fullscreenenter"",""0"",""22336""
","
","null","<p></p>","null","","","","","","","","","","","","","","","","","","","","","","",""
"","do_trial","168","722493","0.0-94.0-0.0","""event"",""trial"",""time""
""fullscreenenter"",""0"",""22336""
","
","
","""event"",""trial"",""time""
""fullscreenenter"",""0"",""22336""
","
","380.59999990463257","","","","","","","","49","1,1,0","1","highway","38","probe-201","0.6197369472756671","0.39889626724713645","0.09173816379794948","1","","","","","","","",""
"","html-keyboard-response","169","723496","0.0-94.0-1.0","""event"",""trial"",""time""
""fullscreenenter"",""0"",""22336""
","
","
","""event"",""trial"",""time""
""fullscreenenter"",""0"",""22336""
","
","null","<p></p>","null","","","","","","","","","","","","","","","","","","","","","","",""
"","do_trial","170","728457","0.0-95.0-0.0","""event"",""trial"",""time""
""fullscreenenter"",""0"",""22336""
","
","
","""event"",""trial"",""time""
""fullscreenenter"",""0"",""22336""
","
","373.59999990463257","","","","","","","","49","1,0,0","1","highway","39","probe-185","0.5680332644887485","0.4024556186625107","0.1408053989064845","1","","","","","","","",""
"","html-keyboard-response","171","729459","0.0-95.0-1.0","""event"",""trial"",""time""
""fullscreenenter"",""0"",""22336""
","
","
","""event"",""trial"",""time""
""fullscreenenter"",""0"",""22336""
","
","null","<p></p>","null","","","","","","","","","","","","","","","","","","","","","","",""
"","do_trial","172","734619","0.0-96.0-0.0","""event"",""trial"",""time""
""fullscreenenter"",""0"",""22336""
","
","
","""event"",""trial"",""time""
""fullscreenenter"",""0"",""22336""
","
","578.1999998092651","","","","","","","","49","1,1,0","1","highway","40","probe-23","0.6668437423039012","0.3371288533453483","0.05310356042798135","1","","","","","","","",""
"","html-keyboard-response","173","735620","0.0-96.0-1.0","""event"",""trial"",""time""
""fullscreenenter"",""0"",""22336""
","
","
","""event"",""trial"",""time""
""fullscreenenter"",""0"",""22336""
","
","null","<p></p>","null","","","","","","","","","","","","","","","","","","","","","","",""
"","do_trial","174","740521","0.0-97.0-0.0","""event"",""trial"",""time""
""fullscreenenter"",""0"",""22336""
","
","
","""event"",""trial"",""time""
""fullscreenenter"",""0"",""22336""
","
","323.3999996185303","","","","","","","","49","1,0,0","1","highway","41","probe-139","0.44662163632249285","0.4112823960313377","0.054631632494764625","1","","","","","","","",""
"","html-keyboard-response","175","741522","0.0-97.0-1.0","""event"",""trial"",""time""
""fullscreenenter"",""0"",""22336""
","
","
","""event"",""trial"",""time""
""fullscreenenter"",""0"",""22336""
","
","null","<p></p>","null","","","","","","","","","","","","","","","","","","","","","","",""
"","do_trial","176","746550","0.0-98.0-0.0","""event"",""trial"",""time""
""fullscreenenter"",""0"",""22336""
","
","
","""event"",""trial"",""time""
""fullscreenenter"",""0"",""22336""
","
","422.19999980926514","","","","","","","","49","1,1,0","1","highway","42","probe-157","0.3507781500265661","0.3200668234531103","0.06882686175941202","1","","","","","","","",""
"","html-keyboard-response","177","747553","0.0-98.0-1.0","""event"",""trial"",""time""
""fullscreenenter"",""0"",""22336""
","
","
","""event"",""trial"",""time""
""fullscreenenter"",""0"",""22336""
","
","null","<p></p>","null","","","","","","","","","","","","","","","","","","","","","","",""
"","do_trial","178","752451","0.0-99.0-0.0","""event"",""trial"",""time""
""fullscreenenter"",""0"",""22336""
","
","
","""event"",""trial"",""time""
""fullscreenenter"",""0"",""22336""
","
","328.7000002861023","","","","","","","","49","0,0,0","1","highway","43","probe-25","0.4865281665066681","0.19443830289484723","0.26613852708030544","0","","","","","","","",""
"","html-keyboard-response","179","753453","0.0-99.0-1.0","""event"",""trial"",""time""
""fullscreenenter"",""0"",""22336""
","
","
","""event"",""trial"",""time""
""fullscreenenter"",""0"",""22336""
","
","null","<p></p>","null","","","","","","","","","","","","","","","","","","","","","","",""
"","do_trial","180","758509","0.0-100.0-0.0","""event"",""trial"",""time""
""fullscreenenter"",""0"",""22336""
","
","
","""event"",""trial"",""time""
""fullscreenenter"",""0"",""22336""
","
","462.30000019073486","","","","","","","","49","0,1,0","1","highway","44","probe-44","0.35872322631713816","0.10176354747748732","0.4153902805807878","0","","","","","","","",""
"","html-keyboard-response","181","759510","0.0-100.0-1.0","""event"",""trial"",""time""
""fullscreenenter"",""0"",""22336""
","
","
","""event"",""trial"",""time""
""fullscreenenter"",""0"",""22336""
","
","null","<p></p>","null","","","","","","","","","","","","","","","","","","","","","","",""
"","do_trial","182","765218","0.0-101.0-0.0","""event"",""trial"",""time""
""fullscreenenter"",""0"",""22336""
","
","
","""event"",""trial"",""time""
""fullscreenenter"",""0"",""22336""
","
","1110.7999997138977","","","","","","","","51","1,0,0","1","highway","45","probe-125","0.4771493125807848","0.06357014664702301","0.4692023984371874","0","","","","","","","",""
"","html-keyboard-response","183","766221","0.0-101.0-1.0","""event"",""trial"",""time""
""fullscreenenter"",""0"",""22336""
","
","
","""event"",""trial"",""time""
""fullscreenenter"",""0"",""22336""
","
","null","<p></p>","null","","","","","","","","","","","","","","","","","","","","","","",""
"","do_trial","184","771076","0.0-102.0-0.0","""event"",""trial"",""time""
""fullscreenenter"",""0"",""22336""
","
","
","""event"",""trial"",""time""
""fullscreenenter"",""0"",""22336""
","
","248.40000009536743","","","","","","","","50","0,0,1","1","highway","46","probe-133","0.495048144186754","0.05940444254121527","0.429025240027655","0","","","","","","","",""
"","html-keyboard-response","185","772078","0.0-102.0-1.0","""event"",""trial"",""time""
""fullscreenenter"",""0"",""22336""
","
","
","""event"",""trial"",""time""
""fullscreenenter"",""0"",""22336""
","
","null","<p></p>","null","","","","","","","","","","","","","","","","","","","","","","",""
"","do_trial","186","776793","0.0-103.0-0.0","""event"",""trial"",""time""
""fullscreenenter"",""0"",""22336""
","
","
","""event"",""trial"",""time""
""fullscreenenter"",""0"",""22336""
","
","140.40000009536743","","","","","","","","49","1,0,1","1","highway","47","probe-09","0.44321698534519643","0.09941472481680384","0.44543849951850556","1","","","","","","","",""
"","html-keyboard-response","187","777795","0.0-103.0-1.0","""event"",""trial"",""time""
""fullscreenenter"",""0"",""22336""
","
","
","""event"",""trial"",""time""
""fullscreenenter"",""0"",""22336""
","
","null","<p></p>","null","","","","","","","","","","","","","","","","","","","","","","",""
"","do_trial","188","782722","0.0-104.0-0.0","""event"",""trial"",""time""
""fullscreenenter"",""0"",""22336""
","
","
","""event"",""trial"",""time""
""fullscreenenter"",""0"",""22336""
","
","333.59999990463257","","","","","","","","49","1,0,0","1","highway","48","probe-53","0.5062093995416383","0.12685040341172754","0.4914520445608726","1","","","","","","","",""
"","html-keyboard-response","189","783724","0.0-104.0-1.0","""event"",""trial"",""time""
""fullscreenenter"",""0"",""22336""
","
","
","""event"",""trial"",""time""
""fullscreenenter"",""0"",""22336""
","
","null","<p></p>","null","","","","","","","","","","","","","","","","","","","","","","",""
"","do_trial","190","788610","0.0-105.0-0.0","""event"",""trial"",""time""
""fullscreenenter"",""0"",""22336""
","
","
","""event"",""trial"",""time""
""fullscreenenter"",""0"",""22336""
","
","319.59999990463257","","","","","","","","49","0,0,1","1","highway","49","probe-114","0.19965581077170952","0.09248554711281379","0.47240639617059765","0","","","","","","","",""
"","html-keyboard-response","191","789612","0.0-105.0-1.0","""event"",""trial"",""time""
""fullscreenenter"",""0"",""22336""
","
","
","""event"",""trial"",""time""
""fullscreenenter"",""0"",""22336""
","
","null","<p></p>","null","","","","","","","","","","","","","","","","","","","","","","",""
"","do_trial","192","794481","0.0-106.0-0.0","""event"",""trial"",""time""
""fullscreenenter"",""0"",""22336""
","
","
","""event"",""trial"",""time""
""fullscreenenter"",""0"",""22336""
","
","287.90000009536743","","","","","","","","49","0,1,1","1","highway","50","probe-26","0.2087795663960159","0.07263582367097678","0.5094653663486434","0","","","","","","","",""
"","html-keyboard-response","193","795483","0.0-106.0-1.0","""event"",""trial"",""time""
""fullscreenenter"",""0"",""22336""
","
","
","""event"",""trial"",""time""
""fullscreenenter"",""0"",""22336""
","
","null","<p></p>","null","","","","","","","","","","","","","","","","","","","","","","",""
"","do_trial","194","800103","0.0-107.0-0.0","""event"",""trial"",""time""
""fullscreenenter"",""0"",""22336""
","
","
","""event"",""trial"",""time""
""fullscreenenter"",""0"",""22336""
","
","9.5","","","","","","","","50","0,0,0","1","highway","51","probe-193","0.27854434937709804","0.057045041576488334","0.5889840828576915","0","","","","","","","",""
"","html-keyboard-response","195","801105","0.0-107.0-1.0","""event"",""trial"",""time""
""fullscreenenter"",""0"",""22336""
","
","
","""event"",""trial"",""time""
""fullscreenenter"",""0"",""22336""
","
","null","<p></p>","null","","","","","","","","","","","","","","","","","","","","","","",""
"","do_trial","196","807780","0.0-108.0-0.0","""event"",""trial"",""time""
""fullscreenenter"",""0"",""22336""
","
","
","""event"",""trial"",""time""
""fullscreenenter"",""0"",""22336""
","
","2090.2999997138977","","","","","","","","51","0,0,0","1","highway","52","probe-155","0.2600169838843151","0.073751091154388","0.5362300366459665","0","","","","","","","",""
"","html-keyboard-response","197","808782","0.0-108.0-1.0","""event"",""trial"",""time""
""fullscreenenter"",""0"",""22336""
","
","
","""event"",""trial"",""time""
""fullscreenenter"",""0"",""22336""
","
","null","<p></p>","null","","","","","","","","","","","","","","","","","","","","","","",""
"","do_trial","198","813739","0.0-109.0-0.0","""event"",""trial"",""time""
""fullscreenenter"",""0"",""22336""
","
","
","""event"",""trial"",""time""
""fullscreenenter"",""0"",""22336""
","
","368.5","","","","","","","","49","0,0,1","1","highway","53","probe-141","0.31157070901646433","0.057266927824357244","0.37200850331114077","0","","","","","","","",""
"","html-keyboard-response","199","814741","0.0-109.0-1.0","""event"",""trial"",""time""
""fullscreenenter"",""0"",""22336""
","
","
","""event"",""trial"",""time""
""fullscreenenter"",""0"",""22336""
","
","null","<p></p>","null","","","","","","","","","","","","","","","","","","","","","","",""
"","do_trial","200","819692","0.0-110.0-0.0","""event"",""trial"",""time""
""fullscreenenter"",""0"",""22336""
","
","
","""event"",""trial"",""time""
""fullscreenenter"",""0"",""22336""
","
","355.1000003814697","","","","","","","","50","0,0,0","1","highway","54","probe-172","0.2838921384230517","0.08499341949512211","0.4769011284950782","0","","","","","","","",""
"","html-keyboard-response","201","820694","0.0-110.0-1.0","""event"",""trial"",""time""
""fullscreenenter"",""0"",""22336""
","
","
","""event"",""trial"",""time""
""fullscreenenter"",""0"",""22336""
","
","null","<p></p>","null","","","","","","","","","","","","","","","","","","","","","","",""
"","do_trial","202","825458","0.0-111.0-0.0","""event"",""trial"",""time""
""fullscreenenter"",""0"",""22336""
","
","
","""event"",""trial"",""time""
""fullscreenenter"",""0"",""22336""
","
","127","","","","","","","","49","0,0,1","1","highway","55","probe-47","0.1170652691342384","0.12338773564834016","0.7459811175507267","0","","","","","","","",""
"","html-keyboard-response","203","826461","0.0-111.0-1.0","""event"",""trial"",""time""
""fullscreenenter"",""0"",""22336""
","
","
","""event"",""trial"",""time""
""fullscreenenter"",""0"",""22336""
","
","null","<p></p>","null","","","","","","","","","","","","","","","","","","","","","","",""
"","do_trial","204","831355","0.0-112.0-0.0","""event"",""trial"",""time""
""fullscreenenter"",""0"",""22336""
","
","
","""event"",""trial"",""time""
""fullscreenenter"",""0"",""22336""
","
","316","","","","","","","","51","1,0,1","1","highway","56","probe-149","0.059207300782152326","0.09450859616562063","0.6225382924516651","1","","","","","","","",""
"","html-keyboard-response","205","832357","0.0-112.0-1.0","""event"",""trial"",""time""
""fullscreenenter"",""0"",""22336""
","
","
","""event"",""trial"",""time""
""fullscreenenter"",""0"",""22336""
","
","null","<p></p>","null","","","","","","","","","","","","","","","","","","","","","","",""
"","do_trial","206","837241","0.0-113.0-0.0","""event"",""trial"",""time""
""fullscreenenter"",""0"",""22336""
","
","
","""event"",""trial"",""time""
""fullscreenenter"",""0"",""22336""
","
","269.8999996185303","","","","","","","","51","0,0,1","1","highway","57","probe-74","0.328641956622614","0.18428454727554475","0.7161307835189794","1","","","","","","","",""
"","html-keyboard-response","207","838243","0.0-113.0-1.0","""event"",""trial"",""time""
""fullscreenenter"",""0"",""22336""
","
","
","""event"",""trial"",""time""
""fullscreenenter"",""0"",""22336""
","
","null","<p></p>","null","","","","","","","","","","","","","","","","","","","","","","",""
"","do_trial","208","843171","0.0-114.0-0.0","""event"",""trial"",""time""
""fullscreenenter"",""0"",""22336""
","
","
","""event"",""trial"",""time""
""fullscreenenter"",""0"",""22336""
","
","321.30000019073486","","","","","","","","51","0,1,1","1","highway","58","probe-138","0.28119371645156116","0.14732422684532956","0.5765549675297973","1","","","","","","","",""
"","html-keyboard-response","209","844173","0.0-114.0-1.0","""event"",""trial"",""time""
""fullscreenenter"",""0"",""22336""
","
","
","""event"",""trial"",""time""
""fullscreenenter"",""0"",""22336""
","
","null","<p></p>","null","","","","","","","","","","","","","","","","","","","","","","",""
"","do_trial","210","849113","0.0-115.0-0.0","""event"",""trial"",""time""
""fullscreenenter"",""0"",""22336""
","
","
","""event"",""trial"",""time""
""fullscreenenter"",""0"",""22336""
","
","368.80000019073486","","","","","","","","51","1,0,0","1","highway","59","probe-217","0.27743019480996756","0.13111187082841552","0.49932412676990817","0","","","","","","","",""
"","html-keyboard-response","211","850115","0.0-115.0-1.0","""event"",""trial"",""time""
""fullscreenenter"",""0"",""22336""
","
","
","""event"",""trial"",""time""
""fullscreenenter"",""0"",""22336""
","
","null","<p></p>","null","","","","","","","","","","","","","","","","","","","","","","",""
"","do_trial","212","855499","0.0-116.0-0.0","""event"",""trial"",""time""
""fullscreenenter"",""0"",""22336""
","
","
","""event"",""trial"",""time""
""fullscreenenter"",""0"",""22336""
","
","793.5999999046326","","","","","","","","51","0,1,1","1","highway","60","probe-147","0.27240136419809174","0.2765860131982479","0.5774720327653038","1","","","","","","","",""
"","html-keyboard-response","213","856501","0.0-116.0-1.0","""event"",""trial"",""time""
""fullscreenenter"",""0"",""22336""
","
","
","""event"",""trial"",""time""
""fullscreenenter"",""0"",""22336""
","
","null","<p></p>","null","","","","","","","","","","","","","","","","","","","","","","",""
"","do_trial","214","861391","0.0-117.0-0.0","""event"",""trial"",""time""
""fullscreenenter"",""0"",""22336""
","
","
","""event"",""trial"",""time""
""fullscreenenter"",""0"",""22336""
","
","291.6000003814697","","","","","","","","51","0,0,0","1","highway","61","probe-61","0.2236197389185222","0.29790197191231693","0.43731436954427155","0","","","","","","","",""
"","html-keyboard-response","215","862393","0.0-117.0-1.0","""event"",""trial"",""time""
""fullscreenenter"",""0"",""22336""
","
","
","""event"",""trial"",""time""
""fullscreenenter"",""0"",""22336""
","
","null","<p></p>","null","","","","","","","","","","","","","","","","","","","","","","",""
"","do_trial","216","867037","0.0-118.0-0.0","""event"",""trial"",""time""
""fullscreenenter"",""0"",""22336""
","
","
","""event"",""trial"",""time""
""fullscreenenter"",""0"",""22336""
","
","0.3000001907348633","","","","","","","","50","1,0,0","1","highway","62","probe-35","0.24189669882686066","0.26719319348100024","0.4468134376044122","0","","","","","","","",""
"","html-keyboard-response","217","868043","0.0-118.0-1.0","""event"",""trial"",""time""
""fullscreenenter"",""0"",""22336""
","
","
","""event"",""trial"",""time""
""fullscreenenter"",""0"",""22336""
","
","null","<p></p>","null","","","","","","","","","","","","","","","","","","","","","","",""
"","do_trial","218","872955","0.0-119.0-0.0","""event"",""trial"",""time""
""fullscreenenter"",""0"",""22336""
","
","
","""event"",""trial"",""time""
""fullscreenenter"",""0"",""22336""
","
","313.69999980926514","","","","","","","","49","0,1,0","1","highway","63","probe-10","0.15799430908656414","0.19549351458532102","0.44689313654691576","0","","","","","","","",""
"","html-keyboard-response","219","873957","0.0-119.0-1.0","""event"",""trial"",""time""
""fullscreenenter"",""0"",""22336""
","
","
","""event"",""trial"",""time""
""fullscreenenter"",""0"",""22336""
","
","null","<p></p>","null","","","","","","","","","","","","","","","","","","","","","","",""
"","do_trial","220","878532","0.0-120.0-0.0","""event"",""trial"",""time""
""fullscreenenter"",""0"",""22336""
","
","
","""event"",""trial"",""time""
""fullscreenenter"",""0"",""22336""
","
","0","","","","","","","","51","0,0,0","1","highway","64","probe-30","0.3021150579982599","0.07246362913068756","0.39785585341505963","0","","","","","","","",""
"","html-keyboard-response","221","879533","0.0-120.0-1.0","""event"",""trial"",""time""
""fullscreenenter"",""0"",""22336""
","
","
","""event"",""trial"",""time""
""fullscreenenter"",""0"",""22336""
","
","null","<p></p>","null","","","","","","","","","","","","","","","","","","","","","","",""
"","do_trial","222","884147","0.0-121.0-0.0","""event"",""trial"",""time""
""fullscreenenter"",""0"",""22336""
","
","
","""event"",""trial"",""time""
""fullscreenenter"",""0"",""22336""
","
","36.799999713897705","","","","","","","","51","1,0,1","1","highway","65","probe-150","0.44076671934470996","0.0994912166504874","0.439833186570781","1","","","","","","","",""
"","html-keyboard-response","223","885149","0.0-121.0-1.0","""event"",""trial"",""time""
""fullscreenenter"",""0"",""22336""
","
","
","""event"",""trial"",""time""
""fullscreenenter"",""0"",""22336""
","
","null","<p></p>","null","","","","","","","","","","","","","","","","","","","","","","",""
"","do_trial","224","890204","0.0-122.0-0.0","""event"",""trial"",""time""
""fullscreenenter"",""0"",""22336""
","
","
","""event"",""trial"",""time""
""fullscreenenter"",""0"",""22336""
","
","473","","","","","","","","51","0,0,0","1","highway","66","probe-224","0.3815806952293611","0.1335950465311367","0.4773393831165063","0","","","","","","","",""
"","html-keyboard-response","225","891205","0.0-122.0-1.0","""event"",""trial"",""time""
""fullscreenenter"",""0"",""22336""
","
","
","""event"",""trial"",""time""
""fullscreenenter"",""0"",""22336""
","
","null","<p></p>","null","","","","","","","","","","","","","","","","","","","","","","",""
"","do_trial","226","897257","0.0-123.0-0.0","""event"",""trial"",""time""
""fullscreenenter"",""0"",""22336""
","
","
","""event"",""trial"",""time""
""fullscreenenter"",""0"",""22336""
","
","1473.4000000953674","","","","","","","","51","0,1,1","1","highway","67","probe-165","0.35120945631873346","0.16468594348831556","0.44205848789500324","1","","","","","","","",""
"","html-keyboard-response","227","898259","0.0-123.0-1.0","""event"",""trial"",""time""
""fullscreenenter"",""0"",""22336""
","
","
","""event"",""trial"",""time""
""fullscreenenter"",""0"",""22336""
","
","null","<p></p>","null","","","","","","","","","","","","","","","","","","","","","","",""
"","do_trial","228","903218","0.0-124.0-0.0","""event"",""trial"",""time""
""fullscreenenter"",""0"",""22336""
","
","
","""event"",""trial"",""time""
""fullscreenenter"",""0"",""22336""
","
","327.5","","","","","","","","51","0,0,0","1","highway","68","probe-169","0.22756897361750633","0.20606431301568073","0.4245620855780856","0","","","","","","","",""
"","html-keyboard-response","229","904222","0.0-124.0-1.0","""event"",""trial"",""time""
""fullscreenenter"",""0"",""22336""
","
","
","""event"",""trial"",""time""
""fullscreenenter"",""0"",""22336""
","
","null","<p></p>","null","","","","","","","","","","","","","","","","","","","","","","",""
"","do_trial","230","909208","0.0-125.0-0.0","""event"",""trial"",""time""
""fullscreenenter"",""0"",""22336""
","
","
","""event"",""trial"",""time""
""fullscreenenter"",""0"",""22336""
","
","379.19999980926514","","","","","","","","51","1,0,0","1","highway","69","probe-80","0.26631532054619006","0.24700154198290072","0.4838944333382329","0","","","","","","","",""
"","html-keyboard-response","231","910210","0.0-125.0-1.0","""event"",""trial"",""time""
""fullscreenenter"",""0"",""22336""
","
","
","""event"",""trial"",""time""
""fullscreenenter"",""0"",""22336""
","
","null","<p></p>","null","","","","","","","","","","","","","","","","","","","","","","",""
"","do_bye","232","911720","0.0-126.0-0.0","""event"",""trial"",""time""
""fullscreenenter"",""0"",""22336""
","
","
","""event"",""trial"",""time""
""fullscreenenter"",""0"",""22336""
","
","null","","","","","","","","null","","","","","","","","","","","","","","","","",""
"","break","233","915599","0.0-126.0-1.0","""event"",""trial"",""time""
""fullscreenenter"",""0"",""22336""
","
","
","""event"",""trial"",""time""
""fullscreenenter"",""0"",""22336""
","
","3876.3999996185303","<div class='center'><p>Time to take a quick break! You have 2 minutes to rest, but you can move on sooner if you'd like.</p><p> Press the <b>space bar</b> to continue.</p></div>","32","","","","","","","","","","","","","","","","","","","","","","",""
"","do_travel","234","924604","0.0-127.0-0.0","""event"",""trial"",""time""
""fullscreenenter"",""0"",""22336""
","
","
","""event"",""trial"",""time""
""fullscreenenter"",""0"",""22336""
","
","null","","","","","","","","null","","","","","","","","","","","","","","","","",""
"","do_welcome","235","928615","0.0-127.0-1.0","""event"",""trial"",""time""
""fullscreenenter"",""0"",""22336""
","
","
","""event"",""trial"",""time""
""fullscreenenter"",""0"",""22336""
","
","null","","","","","","","","null","","","","","","","","","","","","","","","","",""
"","do_trial","236","934669","0.0-128.0-0.0","""event"",""trial"",""time""
""fullscreenenter"",""0"",""22336""
","
","
","""event"",""trial"",""time""
""fullscreenenter"",""0"",""22336""
","
","1478.8000001907349","","","","","","","","50","0,0,1","2","coast","70","probe-76","0.13667391198016599","0.23285941944550786","1","0","","","","","","","",""
"","html-keyboard-response","237","935671","0.0-128.0-1.0","""event"",""trial"",""time""
""fullscreenenter"",""0"",""22336""
","
","
","""event"",""trial"",""time""
""fullscreenenter"",""0"",""22336""
","
","null","<p></p>","null","","","","","","","","","","","","","","","","","","","","","","",""
"","do_trial","238","940387","0.0-129.0-0.0","""event"",""trial"",""time""
""fullscreenenter"",""0"",""22336""
","
","
","""event"",""trial"",""time""
""fullscreenenter"",""0"",""22336""
","
","127.90000009536743","","","","","","","","50","1,0,1","2","coast","71","probe-24","0.2858864390860913","0.22015698192522856","1","0","","","","","","","",""
"","html-keyboard-response","239","941389","0.0-129.0-1.0","""event"",""trial"",""time""
""fullscreenenter"",""0"",""22336""
","
","
","""event"",""trial"",""time""
""fullscreenenter"",""0"",""22336""
","
","null","<p></p>","null","","","","","","","","","","","","","","","","","","","","","","",""
"","do_trial","240","946212","0.0-130.0-0.0","""event"",""trial"",""time""
""fullscreenenter"",""0"",""22336""
","
","
","""event"",""trial"",""time""
""fullscreenenter"",""0"",""22336""
","
","245.80000019073486","","","","","","","","50","1,0,0","2","coast","72","probe-49","0.37051202158714064","0.11716084830645805","0.8227694249373613","0","","","","","","","",""
"","html-keyboard-response","241","947214","0.0-130.0-1.0","""event"",""trial"",""time""
""fullscreenenter"",""0"",""22336""
","
","
","""event"",""trial"",""time""
""fullscreenenter"",""0"",""22336""
","
","null","<p></p>","null","","","","","","","","","","","","","","","","","","","","","","",""
"","do_trial","242","951978","0.0-131.0-0.0","""event"",""trial"",""time""
""fullscreenenter"",""0"",""22336""
","
","
","""event"",""trial"",""time""
""fullscreenenter"",""0"",""22336""
","
","192.90000009536743","","","","","","","","49","1,1,1","2","coast","73","probe-108","0.38242560477564597","0.06392932304912334","0.7458717040267031","1","","","","","","","",""
"","html-keyboard-response","243","952980","0.0-131.0-1.0","""event"",""trial"",""time""
""fullscreenenter"",""0"",""22336""
","
","
","""event"",""trial"",""time""
""fullscreenenter"",""0"",""22336""
","
","null","<p></p>","null","","","","","","","","","","","","","","","","","","","","","","",""
"","do_trial","244","957770","0.0-132.0-0.0","""event"",""trial"",""time""
""fullscreenenter"",""0"",""22336""
","
","
","""event"",""trial"",""time""
""fullscreenenter"",""0"",""22336""
","
","229.7999997138977","","","","","","","","49","1,0,1","2","coast","74","probe-110","0.28611251011469085","0.20586327152267864","0.8150189003698798","1","","","","","","","",""
"","html-keyboard-response","245","958772","0.0-132.0-1.0","""event"",""trial"",""time""
""fullscreenenter"",""0"",""22336""
","
","
","""event"",""trial"",""time""
""fullscreenenter"",""0"",""22336""
","
","null","<p></p>","null","","","","","","","","","","","","","","","","","","","","","","",""
"","do_trial","246","963649","0.0-133.0-0.0","""event"",""trial"",""time""
""fullscreenenter"",""0"",""22336""
","
","
","""event"",""trial"",""time""
""fullscreenenter"",""0"",""22336""
","
","308.8999996185303","","","","","","","","49","0,1,0","2","coast","75","probe-196","0.2665341666551784","0.2851407953260908","0.6384272415387039","0","","","","","","","",""
"","html-keyboard-response","247","964651","0.0-133.0-1.0","""event"",""trial"",""time""
""fullscreenenter"",""0"",""22336""
","
","
","""event"",""trial"",""time""
""fullscreenenter"",""0"",""22336""
","
","null","<p></p>","null","","","","","","","","","","","","","","","","","","","","","","",""
"","do_trial","248","969229","0.0-134.0-0.0","""event"",""trial"",""time""
""fullscreenenter"",""0"",""22336""
","
","
","""event"",""trial"",""time""
""fullscreenenter"",""0"",""22336""
","
","0.09999990463256836","","","","","","","","51","0,0,1","2","coast","76","probe-78","0.16120122321323238","0.28060172684877416","0.5044025282052015","1","","","","","","","",""
"","html-keyboard-response","249","970231","0.0-134.0-1.0","""event"",""trial"",""time""
""fullscreenenter"",""0"",""22336""
","
","
","""event"",""trial"",""time""
""fullscreenenter"",""0"",""22336""
","
","null","<p></p>","null","","","","","","","","","","","","","","","","","","","","","","",""
"","do_trial","250","975209","0.0-135.0-0.0","""event"",""trial"",""time""
""fullscreenenter"",""0"",""22336""
","
","
","""event"",""trial"",""time""
""fullscreenenter"",""0"",""22336""
","
","375.19999980926514","","","","","","","","51","0,0,0","2","coast","77","probe-182","0.2860365773246198","0.20931043080570305","0.5672123983874722","0","","","","","","","",""
"","html-keyboard-response","251","976211","0.0-135.0-1.0","""event"",""trial"",""time""
""fullscreenenter"",""0"",""22336""
","
","
","""event"",""trial"",""time""
""fullscreenenter"",""0"",""22336""
","
","null","<p></p>","null","","","","","","","","","","","","","","","","","","","","","","",""
"","do_trial","252","980927","0.0-136.0-0.0","""event"",""trial"",""time""
""fullscreenenter"",""0"",""22336""
","
","
","""event"",""trial"",""time""
""fullscreenenter"",""0"",""22336""
","
","130.5","","","","","","","","51","1,0,1","2","coast","78","probe-154","0.34410737282195913","0.24603570050252313","0.5659636558666649","1","","","","","","","",""
"","html-keyboard-response","253","981928","0.0-136.0-1.0","""event"",""trial"",""time""
""fullscreenenter"",""0"",""22336""
","
","
","""event"",""trial"",""time""
""fullscreenenter"",""0"",""22336""
","
","null","<p></p>","null","","","","","","","","","","","","","","","","","","","","","","",""
"","do_trial","254","986647","0.0-137.0-0.0","""event"",""trial"",""time""
""fullscreenenter"",""0"",""22336""
","
","
","""event"",""trial"",""time""
""fullscreenenter"",""0"",""22336""
","
","145.59999990463257","","","","","","","","49","1,0,1","2","coast","79","probe-213","0.39210779267205825","0.24544773365036585","0.5460903933157513","1","","","","","","","",""
"","html-keyboard-response","255","987649","0.0-137.0-1.0","""event"",""trial"",""time""
""fullscreenenter"",""0"",""22336""
","
","
","""event"",""trial"",""time""
""fullscreenenter"",""0"",""22336""
","
","null","<p></p>","null","","","","","","","","","","","","","","","","","","","","","","",""
"","do_trial","256","992524","0.0-138.0-0.0","""event"",""trial"",""time""
""fullscreenenter"",""0"",""22336""
","
","
","""event"",""trial"",""time""
""fullscreenenter"",""0"",""22336""
","
","279.40000009536743","","","","","","","","49","0,0,0","2","coast","80","probe-137","0.318780855538585","0.1796089174906797","0.5488263051867758","0","","","","","","","",""
"","html-keyboard-response","257","993526","0.0-138.0-1.0","""event"",""trial"",""time""
""fullscreenenter"",""0"",""22336""
","
","
","""event"",""trial"",""time""
""fullscreenenter"",""0"",""22336""
","
","null","<p></p>","null","","","","","","","","","","","","","","","","","","","","","","",""
"","do_trial","258","998747","0.0-139.0-0.0","""event"",""trial"",""time""
""fullscreenenter"",""0"",""22336""
","
","
","""event"",""trial"",""time""
""fullscreenenter"",""0"",""22336""
","
","593.1000003814697","","","","","","","","49","0,0,1","2","coast","81","probe-22","0.0792923573572655","0.20952869139940672","0.5134999889813604","0","","","","","","","",""
"","html-keyboard-response","259","999749","0.0-139.0-1.0","""event"",""trial"",""time""
""fullscreenenter"",""0"",""22336""
","
","
","""event"",""trial"",""time""
""fullscreenenter"",""0"",""22336""
","
","null","<p></p>","null","","","","","","","","","","","","","","","","","","","","","","",""
"","do_trial","260","1004281","0.0-140.0-0.0","""event"",""trial"",""time""
""fullscreenenter"",""0"",""22336""
","
