success,trial_type,trial_index,time_elapsed,internal_node_id,interactions,blur_events,focus_events,fullscreenenter_events,fullscreenexit_events,rt,stimulus,key_press,subject_id,participant_id,age,gender,prompt,response,choice_outcomes,context_n,context_img_id,trial_n,probe_img_id,pR_red,pR_white,pR_black,outcome,contextArray_ind,validImageProbes,invalidImageProbes,pRew_Red,pRew_White,pRew_Black,availableForMemProbe,choice_blocks
TRUE,fullscreen,0,3027,0.0-0.0,"""event"",""trial"",""time""
""fullscreenenter"",""0"",""2033""
","
","
","""event"",""trial"",""time""
""fullscreenenter"",""0"",""2033""
","
",,,,,,,,,,,,,,,,,,,,,,,,,,
,pavlovia,1,3029,0.0-1.0,"""event"",""trial"",""time""
""fullscreenenter"",""0"",""2033""
","
","
","""event"",""trial"",""time""
""fullscreenenter"",""0"",""2033""
","
",,,,,,,,,,,,,,,,,,,,,,,,,,
,instruc1,2,48131,0.0-2.0,"""event"",""trial"",""time""
""fullscreenenter"",""0"",""2033""
","
","
","""event"",""trial"",""time""
""fullscreenenter"",""0"",""2033""
","
",null,run_exp/static/audio/clip_1_welcome.m4a,null,329,220,19,Female,"<div class='center'><p>Welcome! This is the first part of the study. It will last ~30 minutes. In part 1 and part 2 of the study, you are the head captain of a pirate ship traveling around the world to different islands. You will play a few different games throughout these two parts. Here is an overview of them:</p><br><p>Part 1 (today)</p><p>1. Instructions, practice game, and quiz</p><p>2. Pick a pirate game on 6 different islands</p><br><p>Part 2 (tomorrow)</p><p>3. Pick a pirate game and memory game</p><p>4. Where did you see this ship? </p></div>",,,,,,,,,,,,,,,,,,
,html-keyboard-response,3,50207,0.0-3.0,"""event"",""trial"",""time""
""fullscreenenter"",""0"",""2033""
","
","
","""event"",""trial"",""time""
""fullscreenenter"",""0"",""2033""
","
",2072.7,"<div class='center'><p>Welcome! This is the first part of the study. It will last ~30 minutes. In part 1 and part 2 of the study, you are the head captain of a pirate ship traveling around the world to different islands. You will play a few different games throughout these two parts. Here is an overview of them:</p><br><p>Part 1 (today)</p><p>1. Instructions, practice game, and quiz</p><p>2. Pick a pirate game on 6 different islands</p><br><p>Part 2 (tomorrow)</p><p>3. Pick a pirate game and memory game</p><p>4. Where did you see this ship? </p><p><b>[Press the space bar to continue]</b></p></div>",32,,,,,,,,,,,,,,,,,,,,,,,
,instruc2,4,55528,0.0-4.0,"""event"",""trial"",""time""
""fullscreenenter"",""0"",""2033""
","
","
","""event"",""trial"",""time""
""fullscreenenter"",""0"",""2033""
","
",null,run_exp/static/audio/clip_2_different_places.m4a,null,,,,,"<div class='center'><p>Today, you’ll visit these 6 islands on your journey. You'll be able to see these islands from your ship.</p><p><img src='run_exp/static/images/contexts/all_contexts.png' height='500'></p></div>",,,,,,,,,,,,,,,,,,
,html-keyboard-response,5,67336,0.0-5.0,"""event"",""trial"",""time""
""fullscreenenter"",""0"",""2033""
","
","
","""event"",""trial"",""time""
""fullscreenenter"",""0"",""2033""
","
",11805.1,"<div class='center'><p>Today, you’ll visit these 6 islands on your journey. You'll be able to see these islands from your ship.</p><p><img src='run_exp/static/images/contexts/all_contexts.png' height='500'></p><p><b>[Press the space bar to continue]</b></p></div>",32,,,,,,,,,,,,,,,,,,,,,,,
,instruc3,6,76995,0.0-6.0,"""event"",""trial"",""time""
""fullscreenenter"",""0"",""2033""
","
","
","""event"",""trial"",""time""
""fullscreenenter"",""0"",""2033""
","
",null,run_exp/static/audio/clip_3_goal_of_game_1.m4a,null,,,,,"<div class='center'><p> The pirates on your ship will rob other ships as they leave the island.</p> These ships have just sold their goods to the islanders, so they will be filled with lots and lots of gold.</p><p><img src='run_exp/static/images/tutorial/ship_center.png' height='400'></p></div>",,,,,,,,,,,,,,,,,,
,html-keyboard-response,7,85479,0.0-7.0,"""event"",""trial"",""time""
""fullscreenenter"",""0"",""2033""
","
","
","""event"",""trial"",""time""
""fullscreenenter"",""0"",""2033""
","
",8482.7,"<div class='center'><p> The pirates on your ship will rob other ships as they leave the island.</p> These ships have just sold their goods to the islanders, so they will be filled with lots and lots of gold.</p><p><img src='run_exp/static/images/tutorial/ship_center.png' height='400'></p><p><b>[Press the space bar to continue]</b></p></div>",32,,,,,,,,,,,,,,,,,,,,,,,
,instruc4,8,113476,0.0-8.0,"""event"",""trial"",""time""
""fullscreenenter"",""0"",""2033""
","
","
","""event"",""trial"",""time""
""fullscreenenter"",""0"",""2033""
","
",null,run_exp/static/audio/clip_4_goal_of_game_2.m4a,null,,,,,"<div class='center'><p>As the head captain, you do not have to rob any ships yourself. Another pirate will be doing the robbing for you. First, you will choose a pirate to rob the next ship.</p><p><img src='run_exp/static/images/tutorial/pirates_all_crop.png' height='200'></p><p>Then, you'll see if the pirate successfully robbed the ship of their gold. If they were successful, then you'll get a stack of gold coins like this:</p><p><img src='run_exp/static/images/tutorial/reward.png' height='150'></p><p> If they were <b>not</b> successful, then you'll get no gold coins, and you'll see a big red x like this: </p><p><img src='run_exp/static/images/tutorial/reward_no.png' height='150'></p><p> How much bonus money you make is based on how many gold coins you collect.</p><div>",,,,,,,,,,,,,,,,,,
,html-keyboard-response,9,116866,0.0-9.0,"""event"",""trial"",""time""
""fullscreenenter"",""0"",""2033""
","
","
","""event"",""trial"",""time""
""fullscreenenter"",""0"",""2033""
","
",3388.8,"<div class='center'><p>As the head captain, you do not have to rob any ships yourself. Another pirate will be doing the robbing for you. First, you will choose a pirate to rob the next ship.</p><p><img src='run_exp/static/images/tutorial/pirates_all_crop.png' height='200'></p><p>Then, you'll see if the pirate successfully robbed the ship of their gold. If they were successful, then you'll get a stack of gold coins like this:</p><p><img src='run_exp/static/images/tutorial/reward.png' height='150'></p><p> If they were <b>not</b> successful, then you'll get no gold coins, and you'll see a big red x like this: </p><p><img src='run_exp/static/images/tutorial/reward_no.png' height='150'></p><p> How much bonus money you make is based on how many gold coins you collect.</p<p><b>[Press the space bar to continue]</b></p></div>",32,,,,,,,,,,,,,,,,,,,,,,,
,instruc5,10,139370,0.0-10.0,"""event"",""trial"",""time""
""fullscreenenter"",""0"",""2033""
","
","
","""event"",""trial"",""time""
""fullscreenenter"",""0"",""2033""
","
",22503.2,run_exp/static/audio/clip_5_probabilistic.m4a,49,,,,,"<div class='center'><p>Even the most skilled pirate can not rob EVERY ship.</p><p> Some ships will have very strong protections against pirate attacks.</p><p> Blue beard, here, is very, very good at robbing ships, but he won't be successful every time he tries to rob one.</p><p> You can press the <b>‘1’</b> key on the keyboard to choose him.</p><p> Try choosing him 10 times to see how often he succeeds at robbing a ship. </p><p><img src='run_exp/static/images/tutorial/blue.png' height='500'></p></div>",,,,,,,,,,,,,,,,,,
,html-keyboard-response,11,140879,0.0-11.0,"""event"",""trial"",""time""
""fullscreenenter"",""0"",""2033""
","
","
","""event"",""trial"",""time""
""fullscreenenter"",""0"",""2033""
","
",null,<div class='center'><p><img src='run_exp/static/images/tutorial/blue_win.png' height='500'></p></div>,null,,,,,,,,,,,,,,,,,,,,,,,
,html-keyboard-response,12,143588,0.0-12.0,"""event"",""trial"",""time""
""fullscreenenter"",""0"",""2033""
","
","
","""event"",""trial"",""time""
""fullscreenenter"",""0"",""2033""
","
",2708.3,<div class='center'><img src='run_exp/static/images/tutorial/blue.png' height='500'></p></div>,49,,,,,,,,,,,,,,,,,,,,,,,
,html-keyboard-response,13,145103,0.0-13.0,"""event"",""trial"",""time""
""fullscreenenter"",""0"",""2033""
","
","
","""event"",""trial"",""time""
""fullscreenenter"",""0"",""2033""
","
",null,<div class='center'><p><img src='run_exp/static/images/tutorial/blue_win.png' height='500'></p></div>,null,,,,,,,,,,,,,,,,,,,,,,,
,html-keyboard-response,14,145935,0.0-14.0,"""event"",""trial"",""time""
""fullscreenenter"",""0"",""2033""
","
","
","""event"",""trial"",""time""
""fullscreenenter"",""0"",""2033""
","
",831.2,<div class='center'><img src='run_exp/static/images/tutorial/blue.png' height='500'></p></div>,49,,,,,,,,,,,,,,,,,,,,,,,
,html-keyboard-response,15,147437,0.0-15.0,"""event"",""trial"",""time""
""fullscreenenter"",""0"",""2033""
","
","
","""event"",""trial"",""time""
""fullscreenenter"",""0"",""2033""
","
",null,<div class='center'><p><img src='run_exp/static/images/tutorial/blue_win.png' height='500'></p></div>,null,,,,,,,,,,,,,,,,,,,,,,,
,html-keyboard-response,16,148132,0.0-16.0,"""event"",""trial"",""time""
""fullscreenenter"",""0"",""2033""
","
","
","""event"",""trial"",""time""
""fullscreenenter"",""0"",""2033""
","
",694.1,<div class='center'><img src='run_exp/static/images/tutorial/blue.png' height='500'></p></div>,49,,,,,,,,,,,,,,,,,,,,,,,
,html-keyboard-response,17,149643,0.0-17.0,"""event"",""trial"",""time""
""fullscreenenter"",""0"",""2033""
","
","
","""event"",""trial"",""time""
""fullscreenenter"",""0"",""2033""
","
",null,<div class='center'><p><img src='run_exp/static/images/tutorial/blue_no_win.png' height='500'></p></div>,null,,,,,,,,,,,,,,,,,,,,,,,
,html-keyboard-response,18,150072,0.0-18.0,"""event"",""trial"",""time""
""fullscreenenter"",""0"",""2033""
","
","
","""event"",""trial"",""time""
""fullscreenenter"",""0"",""2033""
","
",427.7,<div class='center'><img src='run_exp/static/images/tutorial/blue.png' height='500'></p></div>,49,,,,,,,,,,,,,,,,,,,,,,,
,html-keyboard-response,19,151583,0.0-19.0,"""event"",""trial"",""time""
""fullscreenenter"",""0"",""2033""
","
","
","""event"",""trial"",""time""
""fullscreenenter"",""0"",""2033""
","
",null,<div class='center'><p><img src='run_exp/static/images/tutorial/blue_win.png' height='500'></p></div>,null,,,,,,,,,,,,,,,,,,,,,,,
,html-keyboard-response,20,152182,0.0-20.0,"""event"",""trial"",""time""
""fullscreenenter"",""0"",""2033""
","
","
","""event"",""trial"",""time""
""fullscreenenter"",""0"",""2033""
","
",597.7,<div class='center'><img src='run_exp/static/images/tutorial/blue.png' height='500'></p></div>,49,,,,,,,,,,,,,,,,,,,,,,,
,html-keyboard-response,21,153691,0.0-21.0,"""event"",""trial"",""time""
""fullscreenenter"",""0"",""2033""
","
","
","""event"",""trial"",""time""
""fullscreenenter"",""0"",""2033""
","
",null,<div class='center'><p><img src='run_exp/static/images/tutorial/blue_win.png' height='500'></p></div>,null,,,,,,,,,,,,,,,,,,,,,,,
,html-keyboard-response,22,154088,0.0-22.0,"""event"",""trial"",""time""
""fullscreenenter"",""0"",""2033""
","
","
","""event"",""trial"",""time""
""fullscreenenter"",""0"",""2033""
","
",395.6,<div class='center'><img src='run_exp/static/images/tutorial/blue.png' height='500'></p></div>,49,,,,,,,,,,,,,,,,,,,,,,,
,html-keyboard-response,23,155599,0.0-23.0,"""event"",""trial"",""time""
""fullscreenenter"",""0"",""2033""
","
","
","""event"",""trial"",""time""
""fullscreenenter"",""0"",""2033""
","
",null,<div class='center'><p><img src='run_exp/static/images/tutorial/blue_win.png' height='500'></p></div>,null,,,,,,,,,,,,,,,,,,,,,,,
,html-keyboard-response,24,156046,0.0-24.0,"""event"",""trial"",""time""
""fullscreenenter"",""0"",""2033""
","
","
","""event"",""trial"",""time""
""fullscreenenter"",""0"",""2033""
","
",445.2,<div class='center'><img src='run_exp/static/images/tutorial/blue.png' height='500'></p></div>,49,,,,,,,,,,,,,,,,,,,,,,,
,html-keyboard-response,25,157558,0.0-25.0,"""event"",""trial"",""time""
""fullscreenenter"",""0"",""2033""
","
","
","""event"",""trial"",""time""
""fullscreenenter"",""0"",""2033""
","
",null,<div class='center'><p><img src='run_exp/static/images/tutorial/blue_no_win.png' height='500'></p></div>,null,,,,,,,,,,,,,,,,,,,,,,,
,html-keyboard-response,26,157943,0.0-26.0,"""event"",""trial"",""time""
""fullscreenenter"",""0"",""2033""
","
","
","""event"",""trial"",""time""
""fullscreenenter"",""0"",""2033""
","
",383.3,<div class='center'><img src='run_exp/static/images/tutorial/blue.png' height='500'></p></div>,49,,,,,,,,,,,,,,,,,,,,,,,
,html-keyboard-response,27,159452,0.0-27.0,"""event"",""trial"",""time""
""fullscreenenter"",""0"",""2033""
","
","
","""event"",""trial"",""time""
""fullscreenenter"",""0"",""2033""
","
",null,<div class='center'><p><img src='run_exp/static/images/tutorial/blue_win.png' height='500'></p></div>,null,,,,,,,,,,,,,,,,,,,,,,,
,html-keyboard-response,28,159660,0.0-28.0,"""event"",""trial"",""time""
""fullscreenenter"",""0"",""2033""
","
","
","""event"",""trial"",""time""
""fullscreenenter"",""0"",""2033""
","
",206.5,<div class='center'><img src='run_exp/static/images/tutorial/blue.png' height='500'></p></div>,49,,,,,,,,,,,,,,,,,,,,,,,
,html-keyboard-response,29,161172,0.0-29.0,"""event"",""trial"",""time""
""fullscreenenter"",""0"",""2033""
","
","
","""event"",""trial"",""time""
""fullscreenenter"",""0"",""2033""
","
",null,<div class='center'><p><img src='run_exp/static/images/tutorial/blue_win.png' height='500'></p></div>,null,,,,,,,,,,,,,,,,,,,,,,,
,instruc6,30,166887,0.0-30.0,"""event"",""trial"",""time""
""fullscreenenter"",""0"",""2033""
","
","
","""event"",""trial"",""time""
""fullscreenenter"",""0"",""2033""
","
",null,run_exp/static/audio/clip_6_blue_beard_outcome.m4a,null,,,,,"<div class='center'><p> See, he succeeded in robbing the ships most of the time but not every time. </p></div>",,,,,,,,,,,,,,,,,,
,html-keyboard-response,31,168315,0.0-31.0,"""event"",""trial"",""time""
""fullscreenenter"",""0"",""2033""
","
","
","""event"",""trial"",""time""
""fullscreenenter"",""0"",""2033""
","
",1427.3,"<div class='center'><p> See, he succeeded in robbing the ships most of the time but not every time. </p><p><b>[Press the space bar to continue]</b></p></div>",32,,,,,,,,,,,,,,,,,,,,,,,
,audio-keyboard-response,32,185377,0.0-32.0,"""event"",""trial"",""time""
""fullscreenenter"",""0"",""2033""
","
","
","""event"",""trial"",""time""
""fullscreenenter"",""0"",""2033""
","
",17062.2,run_exp/static/audio/clip_7_pick_pirate.m4a,49,,,,,,,,,,,,,,,,,,,,,,,
,audio-keyboard-response,33,190192,0.0-33.0-0.0,"""event"",""trial"",""time""
""fullscreenenter"",""0"",""2033""
","
","
","""event"",""trial"",""time""
""fullscreenenter"",""0"",""2033""
","
",4814.3,run_exp/static/audio/clip_8_chosen_pirate_win.m4a,32,,,,,,,,,,,,,,,,,,,,,,,
,audio-keyboard-response,34,192959,0.0-33.0-1.0,"""event"",""trial"",""time""
""fullscreenenter"",""0"",""2033""
","
","
","""event"",""trial"",""time""
""fullscreenenter"",""0"",""2033""
","
",2764.5,run_exp/static/audio/clip_9_pick_a_pirate_again.m4a,50,,,,,,,,,,,,,,,,,,,,,,,
,audio-keyboard-response,35,197504,0.0-34.0-0.0,"""event"",""trial"",""time""
""fullscreenenter"",""0"",""2033""
","
","
","""event"",""trial"",""time""
""fullscreenenter"",""0"",""2033""
","
",4541.9,run_exp/static/audio/clip_10_chosen_pirate_loss.m4a,32,,,,,,,,,,,,,,,,,,,,,,,
,instruc9,36,202986,0.0-35.0-0.0,"""event"",""trial"",""time""
""fullscreenenter"",""0"",""2033""
","
","
","""event"",""trial"",""time""
""fullscreenenter"",""0"",""2033""
","
",null,run_exp/static/audio/clip_11_time_out.m4a,null,,,,,"<div class='center'><p>If you don’t make your choice fast enough, you’ll have to wait a few seconds before you can make another one. </p><p><img src='run_exp/static/images/miscellaneous/hurry_up.png' height='500'></p></div>",,,,,,,,,,,,,,,,,,
,html-keyboard-response,37,203977,0.0-35.0-1.0,"""event"",""trial"",""time""
""fullscreenenter"",""0"",""2033""
","
","
","""event"",""trial"",""time""
""fullscreenenter"",""0"",""2033""
","
",988.8,"<div class='center'><p>If you don’t make your choice fast enough, you’ll have to wait a few seconds before you can make another one. </p><p><img src='run_exp/static/images/miscellaneous/hurry_up.png' height='500'></p><p><b>[Press the space bar to continue]</b></p></div>",32,,,,,,,,,,,,,,,,,,,,,,,
,instruc10,38,243066,0.0-35.0-2.0,"""event"",""trial"",""time""
""fullscreenenter"",""0"",""2033""
","
","
","""event"",""trial"",""time""
""fullscreenenter"",""0"",""2033""
","
",null,run_exp/static/audio/clip_12_probe.m4a,null,,,,,"<div class='center'><p>Once you've chosen a pirate, you’ll be shown the ship they are robbing. You will never rob the same ship twice. Ships can be told apart from one another by the image on them. These are the goods that they sell. See, this ship has a travel mug on it. </p><p> You’ll have to remember which island you saw each ship on. You will win more gold coins and hence more bonus money if you remember correctly! To help you remember, you can imagine a story. For example, here, you could imagine a mug full of water in the desert. Or, as another example, if on the forest island, your pirate robbed a ship with an apple on it, you could imagine an apple falling from a tree in the forest. </p><p><img src='run_exp/static/images/tutorial/example_probe.png' height='500'></p></div>",,,,,,,,,,,,,,,,,,
,html-keyboard-response,39,244088,0.0-35.0-3.0,"""event"",""trial"",""time""
""fullscreenenter"",""0"",""2033""
","
","
","""event"",""trial"",""time""
""fullscreenenter"",""0"",""2033""
","
",1019.9,"<div class='center'><p>Once you've chosen a pirate, you’ll be shown the ship they are robbing. You will never rob the same ship twice. Ships can be told apart from one another by the image on them. These are the goods that they sell. See, this ship has a travel mug on it. </p><p> You’ll have to remember which island you saw each ship on. You will win more gold coins and hence more bonus money if you remember correctly! To help you remember, you can imagine a story. For example, here, you could imagine a mug full of water in the desert. Or, as another example, if on the forest island, your pirate robbed a ship with an apple on it, you could imagine an apple falling from a tree in the forest. </p><p><img src='run_exp/static/images/tutorial/example_probe.png' height='500'></p><p><b>[Press the space bar to continue]</b></p></div>",32,,,,,,,,,,,,,,,,,,,,,,,
,instruc11,40,260508,0.0-35.0-4.0,"""event"",""trial"",""time""
""fullscreenenter"",""0"",""2033""
","
","
","""event"",""trial"",""time""
""fullscreenenter"",""0"",""2033""
","
",null,run_exp/static/audio/clip_13_changepoint.m4a,null,,,,,"<div class='center'><p>How successful a pirate is at robbing ships will depend on the island you’re on.</p><p> A pirate may have visited this island many times before and gained a lot of practice robbing ships there.</p><p>So, they’re more likely to be successful than a pirate who has never visited the island before.</p></div>",,,,,,,,,,,,,,,,,,
,html-keyboard-response,41,261810,0.0-35.0-5.0,"""event"",""trial"",""time""
""fullscreenenter"",""0"",""2033""
","
","
","""event"",""trial"",""time""
""fullscreenenter"",""0"",""2033""
","
",1300.8,"<div class='center'><p>How successful a pirate is at robbing ships will depend on the island you’re on.</p><p> A pirate may have visited this island many times before and gained a lot of practice robbing ships there.</p><p>So, they’re more likely to be successful than a pirate who has never visited the island before.</p><p><b>[Press the space bar to continue]</b></p></div>",32,,,,,,,,,,,,,,,,,,,,,,,
,instruc12,42,302908,0.0-35.0-6.0,"""event"",""trial"",""time""
""fullscreenenter"",""0"",""2033""
","
","
","""event"",""trial"",""time""
""fullscreenenter"",""0"",""2033""
","
",null,run_exp/static/audio/clip_14_drift.m4a,null,,,,,"<div class='center'><p>How successful a pirate is at robbing ships can also change over the time spent on the island. </p><p> Ships may hear from islanders about the pirates coming and will improve their protections against the attack. This may make it harder to rob them.</p><p> Ships may also become lazy and weaken the strength of their protections. This may make it easier to rob them.</p><br><p>Things are always changing on the high seas! So, try your best to pay attention!</p><p><img src='run_exp/static/images/tutorial/contingency.png' height='500'></p></div>",,,,,,,,,,,,,,,,,,
,html-keyboard-response,43,310563,0.0-35.0-7.0,"""event"",""trial"",""time""
""fullscreenenter"",""0"",""2033""
","
","
","""event"",""trial"",""time""
""fullscreenenter"",""0"",""2033""
","
",7653,"<div class='center'><p>How successful a pirate is at robbing ships can also change over the time spent on the island. </p><p> Ships may hear from islanders about the pirates coming and will improve their protections against the attack. This may make it harder to rob them.</p><p> Ships may also become lazy and weaken the strength of their protections. This may make it easier to rob them.</p><br><p>Things are always changing on the high seas! So, try your best to pay attention!</p><p><img src='run_exp/static/images/tutorial/contingency.png' height='500'></p><p><b>[Press the space bar to continue]</b></p></div>",32,,,,,,,,,,,,,,,,,,,,,,,
,instruc13,44,345748,0.0-35.0-8.0,"""event"",""trial"",""time""
""fullscreenenter"",""0"",""2033""
","
","
","""event"",""trial"",""time""
""fullscreenenter"",""0"",""2033""
","
",null,run_exp/static/audio/clip_15_summary.m4a,null,,,,,"<div class='center'><p>Let's go over the instructions quickly again. You have two important things to do: </p><b><p> 1. Pick the pirate who is the best at robbing ships on the current island. </p></b><b><p> 2. Remember on which island a ship was robbed.</p> </b><p>The amount of bonus money you can win depends on both.</p><p><br><p>Let’s try a practice game. The game will start by showing you the pirates. First, pick a pirate using the <b> 1, 2, 3 </b> keys on your keyboard. When you are shown a ship, try to remember which island you’re on by making up a story.</p><p>This is just a practice game, so you’re not playing for money. </p><p> Good luck! This game will be very difficult but try your best!</p></div>",,,,,,,,,,,,,,,,,,
,html-keyboard-response,45,346456,0.0-35.0-9.0,"""event"",""trial"",""time""
""fullscreenenter"",""0"",""2033""
","
","
","""event"",""trial"",""time""
""fullscreenenter"",""0"",""2033""
","
",706.8,"<div class='center'><p>Let's go over the instructions quickly again. You have two important things to do: </p><b><p> 1. Pick the pirate who is the best at robbing ships on the current island. </p></b><b><p> 2. Remember on which island a ship was robbed.</p> </b><p>The amount of bonus money you can win depends on both.</p><p><br><p>Let’s try a practice game. The game will start by showing you the pirates. First, pick a pirate using the <b> 1, 2, 3 </b> keys on your keyboard. When you are shown a ship, try to remember which island you’re on by making up a story.</p><p>This is just a practice game, so you’re not playing for money. </p><p> Good luck! This game will be very difficult but try your best!</p><p><b>[Press the space bar to continue]</b></p></div>",32,,,,,,,,,,,,,,,,,,,,,,,
,do_welcome,46,350476,0.0-35.0-10.0,"""event"",""trial"",""time""
""fullscreenenter"",""0"",""2033""
","
","
","""event"",""trial"",""time""
""fullscreenenter"",""0"",""2033""
","
",null,,,,,,,,null,,,,,,,,,,,,,,,,,
,do_trial,47,357636,0.0-35.0-11.0,"""event"",""trial"",""time""
""fullscreenenter"",""0"",""2033""
","
","
","""event"",""trial"",""time""
""fullscreenenter"",""0"",""2033""
","
",2637.3,,,,,,,,50,"1,0,0",,,,,,,,,,,,,,,,
,html-keyboard-response,48,358648,0.0-36.0-0.0,"""event"",""trial"",""time""
""fullscreenenter"",""0"",""2033""
","
","
","""event"",""trial"",""time""
""fullscreenenter"",""0"",""2033""
","
",null,<p></p>,null,,,,,,,,,,,,,,,,,,,,,,,
,do_trial,49,364416,0.0-36.0-1.0,"""event"",""trial"",""time""
""fullscreenenter"",""0"",""2033""
","
","
","""event"",""trial"",""time""
""fullscreenenter"",""0"",""2033""
","
",1261.5,,,,,,,,49,"1,1,0",,,,,,,,,,,,,,,,
,html-keyboard-response,50,365432,0.0-37.0-0.0,"""event"",""trial"",""time""
""fullscreenenter"",""0"",""2033""
","
","
","""event"",""trial"",""time""
""fullscreenenter"",""0"",""2033""
","
",null,<p></p>,null,,,,,,,,,,,,,,,,,,,,,,,
,do_trial,51,372064,0.0-37.0-1.0,"""event"",""trial"",""time""
""fullscreenenter"",""0"",""2033""
","
","
","""event"",""trial"",""time""
""fullscreenenter"",""0"",""2033""
","
",2123.4,,,,,,,,51,"1,0,1",,,,,,,,,,,,,,,,
,html-keyboard-response,52,373067,0.0-38.0-0.0,"""event"",""trial"",""time""
""fullscreenenter"",""0"",""2033""
","
","
","""event"",""trial"",""time""
""fullscreenenter"",""0"",""2033""
","
",null,<p></p>,null,,,,,,,,,,,,,,,,,,,,,,,
,do_trial,53,378250,0.0-38.0-1.0,"""event"",""trial"",""time""
""fullscreenenter"",""0"",""2033""
","
","
","""event"",""trial"",""time""
""fullscreenenter"",""0"",""2033""
","
",671,,,,,,,,49,"0,1,0",,,,,,,,,,,,,,,,
,html-keyboard-response,54,379252,0.0-39.0-0.0,"""event"",""trial"",""time""
""fullscreenenter"",""0"",""2033""
","
","
","""event"",""trial"",""time""
""fullscreenenter"",""0"",""2033""
","
",null,<p></p>,null,,,,,,,,,,,,,,,,,,,,,,,
,do_trial,55,384198,0.0-39.0-1.0,"""event"",""trial"",""time""
""fullscreenenter"",""0"",""2033""
","
","
","""event"",""trial"",""time""
""fullscreenenter"",""0"",""2033""
","
",434.6,,,,,,,,51,"1,0,0",,,,,,,,,,,,,,,,
,do_bye,56,385715,0.0-40.0-0.0,"""event"",""trial"",""time""
""fullscreenenter"",""0"",""2033""
","
","
","""event"",""trial"",""time""
""fullscreenenter"",""0"",""2033""
","
",null,,,,,,,,null,,,,,,,,,,,,,,,,,
,do_travel,57,394728,0.0-40.0-1.0,"""event"",""trial"",""time""
""fullscreenenter"",""0"",""2033""
","
","
","""event"",""trial"",""time""
""fullscreenenter"",""0"",""2033""
","
",null,,,,,,,,null,,,,,,,,,,,,,,,,,
,do_welcome,58,398747,0.0-40.0-2.0,"""event"",""trial"",""time""
""fullscreenenter"",""0"",""2033""
","
","
","""event"",""trial"",""time""
""fullscreenenter"",""0"",""2033""
","
",null,,,,,,,,null,,,,,,,,,,,,,,,,,
,do_trial,59,405317,0.0-40.0-3.0,"""event"",""trial"",""time""
""fullscreenenter"",""0"",""2033""
","
","
","""event"",""trial"",""time""
""fullscreenenter"",""0"",""2033""
","
",2045.8,,,,,,,,49,"1,0,0",,,,,,,,,,,,,,,,
,html-keyboard-response,60,406339,0.0-41.0-0.0,"""event"",""trial"",""time""
""fullscreenenter"",""0"",""2033""
","
","
","""event"",""trial"",""time""
""fullscreenenter"",""0"",""2033""
","
",null,<p></p>,null,,,,,,,,,,,,,,,,,,,,,,,
,do_trial,61,411305,0.0-41.0-1.0,"""event"",""trial"",""time""
""fullscreenenter"",""0"",""2033""
","
","
","""event"",""trial"",""time""
""fullscreenenter"",""0"",""2033""
","
",459.4,,,,,,,,50,"1,0,1",,,,,,,,,,,,,,,,
,html-keyboard-response,62,412308,0.0-42.0-0.0,"""event"",""trial"",""time""
""fullscreenenter"",""0"",""2033""
","
","
","""event"",""trial"",""time""
""fullscreenenter"",""0"",""2033""
","
",null,<p></p>,null,,,,,,,,,,,,,,,,,,,,,,,
,do_trial,63,419442,0.0-42.0-1.0,"""event"",""trial"",""time""
""fullscreenenter"",""0"",""2033""
","
","
","""event"",""trial"",""time""
""fullscreenenter"",""0"",""2033""
","
",2619.4,,,,,,,,51,"1,1,0",,,,,,,,,,,,,,,,
,html-keyboard-response,64,420457,0.0-43.0-0.0,"""event"",""trial"",""time""
""fullscreenenter"",""0"",""2033""
","
","
","""event"",""trial"",""time""
""fullscreenenter"",""0"",""2033""
","
",null,<p></p>,null,,,,,,,,,,,,,,,,,,,,,,,
,do_trial,65,425940,0.0-43.0-1.0,"""event"",""trial"",""time""
""fullscreenenter"",""0"",""2033""
","
","
","""event"",""trial"",""time""
""fullscreenenter"",""0"",""2033""
","
",972.4,,,,,,,,49,"0,0,1",,,,,,,,,,,,,,,,
,html-keyboard-response,66,426957,0.0-44.0-0.0,"""event"",""trial"",""time""
""fullscreenenter"",""0"",""2033""
","
","
","""event"",""trial"",""time""
""fullscreenenter"",""0"",""2033""
","
",null,<p></p>,null,,,,,,,,,,,,,,,,,,,,,,,
,do_trial,67,432083,0.0-44.0-1.0,"""event"",""trial"",""time""
""fullscreenenter"",""0"",""2033""
","
","
","""event"",""trial"",""time""
""fullscreenenter"",""0"",""2033""
","
",617.5,,,,,,,,50,"1,0,1",,,,,,,,,,,,,,,,
,html-keyboard-response,68,439643,0.0-45.0-0.0,"""event"",""trial"",""time""
""fullscreenenter"",""0"",""2033""
","
","
","""event"",""trial"",""time""
""fullscreenenter"",""0"",""2033""
","
",7556.8,<div class='center'><p><img src='run_exp/static/images/tutorial/prac_best_pirate.png'  height='500'></p></div>,49,,,,,,,,,,,,,,,,,,,,,,,
,html-keyboard-response,69,441668,0.0-46.0-0.0,"""event"",""trial"",""time""
""fullscreenenter"",""0"",""2033""
","
","
","""event"",""trial"",""time""
""fullscreenenter"",""0"",""2033""
","
",2022.6,<div class='center'><p>That's correct! Red beard was the best.</p><p><b>[Press the space bar to continue]</b></p></div>,32,,,,,,,,,,,,,,,,,,,,,,,
,html-keyboard-response,70,444984,0.0-46.0-1.0,"""event"",""trial"",""time""
""fullscreenenter"",""0"",""2033""
","
","
","""event"",""trial"",""time""
""fullscreenenter"",""0"",""2033""
","
",3315,<div class='center'><p><img src='run_exp/static/images/tutorial/prac_source.png'  height='500'></p></div>,50,,,,,,,,,,,,,,,,,,,,,,,
,html-keyboard-response,71,446068,0.0-47.0-0.0,"""event"",""trial"",""time""
""fullscreenenter"",""0"",""2033""
","
","
","""event"",""trial"",""time""
""fullscreenenter"",""0"",""2033""
","
",1083,<div class='center'><p>That's correct! You saw this ship on the cavern island.</p><p><b>[Press the space bar to continue]</b></p></div>,32,,,,,,,,,,,,,,,,,,,,,,,
,quiz_beginning,72,457590,0.0-47.0-1.0,"""event"",""trial"",""time""
""fullscreenenter"",""0"",""2033""
","
","
","""event"",""trial"",""time""
""fullscreenenter"",""0"",""2033""
","
",null,run_exp/static/audio/clip_16_quiz_intro.m4a,null,,,,,"<div class='center'><p>Good job on the practice game! Now, you will be asked some true or false questions to make sure you really understand the rules of the game.</p><p> Press <b>'1'</b> on the keyboard for true and press <b>'2'</b> for false.</p></div>",,,,,,,,,,,,,,,,,,
,audio-keyboard-response,73,461422,0.0-47.0-2.0,"""event"",""trial"",""time""
""fullscreenenter"",""0"",""2033""
","
","
","""event"",""trial"",""time""
""fullscreenenter"",""0"",""2033""
","
",3830.5,run_exp/static/audio/clip_17_q1.m4a,49,,,,,,,,,,,,,,,,,,,,,,,
,correct,74,463810,0.0-48.0-0.0,"""event"",""trial"",""time""
""fullscreenenter"",""0"",""2033""
","
","
","""event"",""trial"",""time""
""fullscreenenter"",""0"",""2033""
","
",null,run_exp/static/audio/clip_18_correct.m4a,null,,,,,<div class='center'><p>That's correct!</p></div>,,,,,,,,,,,,,,,,,,
,html-keyboard-response,75,464514,0.0-48.0-1.0,"""event"",""trial"",""time""
""fullscreenenter"",""0"",""2033""
","
","
","""event"",""trial"",""time""
""fullscreenenter"",""0"",""2033""
","
",703.5,<div class='center'><p>That's correct!</p><p><b>[Press the space bar to continue]</b></p></div>,32,,,,,,,,,,,,,,,,,,,,,,,
,audio-keyboard-response,76,472168,0.0-48.0-2.0,"""event"",""trial"",""time""
""fullscreenenter"",""0"",""2033""
","
","
","""event"",""trial"",""time""
""fullscreenenter"",""0"",""2033""
","
",7656.1,run_exp/static/audio/clip_20_q2.m4a,50,,,,,,,,,,,,,,,,,,,,,,,
,correct,77,474547,0.0-49.0-0.0,"""event"",""trial"",""time""
""fullscreenenter"",""0"",""2033""
","
","
","""event"",""trial"",""time""
""fullscreenenter"",""0"",""2033""
","
",null,run_exp/static/audio/clip_18_correct.m4a,null,,,,,<div class='center'><p>That's correct!</p></div>,,,,,,,,,,,,,,,,,,
,html-keyboard-response,78,475084,0.0-49.0-1.0,"""event"",""trial"",""time""
""fullscreenenter"",""0"",""2033""
","
","
","""event"",""trial"",""time""
""fullscreenenter"",""0"",""2033""
","
",536,<div class='center'><p>That's correct!</p><p><b>[Press the space bar to continue]</b></p></div>,32,,,,,,,,,,,,,,,,,,,,,,,
,audio-keyboard-response,79,481180,0.0-49.0-2.0,"""event"",""trial"",""time""
""fullscreenenter"",""0"",""2033""
","
","
","""event"",""trial"",""time""
""fullscreenenter"",""0"",""2033""
","
",6095.8,run_exp/static/audio/clip_22_q3.m4a,50,,,,,,,,,,,,,,,,,,,,,,,
,correct,80,483547,0.0-50.0-0.0,"""event"",""trial"",""time""
""fullscreenenter"",""0"",""2033""
","
","
","""event"",""trial"",""time""
""fullscreenenter"",""0"",""2033""
","
",null,run_exp/static/audio/clip_18_correct.m4a,null,,,,,<div class='center'><p>That's correct!</p></div>,,,,,,,,,,,,,,,,,,
,html-keyboard-response,81,484005,0.0-50.0-1.0,"""event"",""trial"",""time""
""fullscreenenter"",""0"",""2033""
","
","
","""event"",""trial"",""time""
""fullscreenenter"",""0"",""2033""
","
",457,<div class='center'><p>That's correct!</p><p><b>[Press the space bar to continue]</b></p></div>,32,,,,,,,,,,,,,,,,,,,,,,,
,audio-keyboard-response,82,489476,0.0-50.0-2.0,"""event"",""trial"",""time""
""fullscreenenter"",""0"",""2033""
","
","
","""event"",""trial"",""time""
""fullscreenenter"",""0"",""2033""
","
",5470,run_exp/static/audio/clip_24_q4.m4a,49,,,,,,,,,,,,,,,,,,,,,,,
,correct,83,491868,0.0-51.0-0.0,"""event"",""trial"",""time""
""fullscreenenter"",""0"",""2033""
","
","
","""event"",""trial"",""time""
""fullscreenenter"",""0"",""2033""
","
",null,run_exp/static/audio/clip_18_correct.m4a,null,,,,,<div class='center'><p>That's correct!</p></div>,,,,,,,,,,,,,,,,,,
,html-keyboard-response,84,492432,0.0-51.0-1.0,"""event"",""trial"",""time""
""fullscreenenter"",""0"",""2033""
","
","
","""event"",""trial"",""time""
""fullscreenenter"",""0"",""2033""
","
",562.7,<div class='center'><p>That's correct!</p><p><b>[Press the space bar to continue]</b></p></div>,32,,,,,,,,,,,,,,,,,,,,,,,
,q_all_corr,85,500928,0.0-52.0-0.0,"""event"",""trial"",""time""
""fullscreenenter"",""0"",""2033""
","
","
","""event"",""trial"",""time""
""fullscreenenter"",""0"",""2033""
","
",null,run_exp/static/audio/clip_27_quiz_all_correct.m4a,null,,,,,<div class='center'><p>Good job! You’re now ready to move on to the real game! Remember this game will be difficult but don't get discouraged and try your best!</p></div>,,,,,,,,,,,,,,,,,,
,html-keyboard-response,86,502383,0.0-52.0-1.0,"""event"",""trial"",""time""
""fullscreenenter"",""0"",""2033""
","
","
","""event"",""trial"",""time""
""fullscreenenter"",""0"",""2033""
","
",1454.2,<div class='center'><p>Good job! You’re now ready to move on to the real game! Remember this game will be difficult but don't get discouraged and try your best!</p><p><b>[Press the space bar to continue]</b></p></div>,32,,,,,,,,,,,,,,,,,,,,,,,
,do_welcome,87,506406,0.0-53.0-0.0,"""event"",""trial"",""time""
""fullscreenenter"",""0"",""2033""
","
","
","""event"",""trial"",""time""
""fullscreenenter"",""0"",""2033""
","
",null,,,,,,,,null,,,,,,,,,,,,,,,,,
,do_trial,88,512458,0.0-54.0-0.0,"""event"",""trial"",""time""
""fullscreenenter"",""0"",""2033""
","
","
","""event"",""trial"",""time""
""fullscreenenter"",""0"",""2033""
","
",null,,,,,,,,null,"0,0,0",0,mountain,0,probe-25,0.6,0.3,0.1,,,,,,,,,
,html-keyboard-response,89,513466,0.0-54.0-1.0,"""event"",""trial"",""time""
""fullscreenenter"",""0"",""2033""
","
","
","""event"",""trial"",""time""
""fullscreenenter"",""0"",""2033""
","
",null,<p></p>,null,,,,,,,,,,,,,,,,,,,,,,,
,do_trial,90,518426,0.0-55.0-0.0,"""event"",""trial"",""time""
""fullscreenenter"",""0"",""2033""
","
","
","""event"",""trial"",""time""
""fullscreenenter"",""0"",""2033""
","
",415.8,,,,,,,,51,"0,0,0",0,mountain,1,probe-229,0.583295941,0.248715019,0.123684441,0,,,,,,,,
,html-keyboard-response,91,519433,0.0-55.0-1.0,"""event"",""trial"",""time""
""fullscreenenter"",""0"",""2033""
","
","
","""event"",""trial"",""time""
""fullscreenenter"",""0"",""2033""
","
",null,<p></p>,null,,,,,,,,,,,,,,,,,,,,,,,
,do_trial,92,524699,0.0-56.0-0.0,"""event"",""trial"",""time""
""fullscreenenter"",""0"",""2033""
","
","
","""event"",""trial"",""time""
""fullscreenenter"",""0"",""2033""
","
",717.9,,,,,,,,50,"0,0,0",0,mountain,2,probe-212,0.548369072,0.219728635,0.201736254,0,,,,,,,,
,html-keyboard-response,93,525709,0.0-56.0-1.0,"""event"",""trial"",""time""
""fullscreenenter"",""0"",""2033""
","
","
","""event"",""trial"",""time""
""fullscreenenter"",""0"",""2033""
","
",null,<p></p>,null,,,,,,,,,,,,,,,,,,,,,,,
,do_trial,94,531125,0.0-57.0-0.0,"""event"",""trial"",""time""
""fullscreenenter"",""0"",""2033""
","
","
","""event"",""trial"",""time""
""fullscreenenter"",""0"",""2033""
","
",869.7,,,,,,,,49,"0,0,0",0,mountain,3,probe-112,0.559828982,0.175507669,0.19791975,0,,,,,,,,
,html-keyboard-response,95,532133,0.0-57.0-1.0,"""event"",""trial"",""time""
""fullscreenenter"",""0"",""2033""
","
","
","""event"",""trial"",""time""
""fullscreenenter"",""0"",""2033""
","
",null,<p></p>,null,,,,,,,,,,,,,,,,,,,,,,,
,do_trial,96,537209,0.0-58.0-0.0,"""event"",""trial"",""time""
""fullscreenenter"",""0"",""2033""
","
","
","""event"",""trial"",""time""
""fullscreenenter"",""0"",""2033""
","
",534.4,,,,,,,,49,"1,1,0",0,mountain,4,probe-94,0.641032332,0.196976448,0.136942269,1,,,,,,,,
,html-keyboard-response,97,538212,0.0-58.0-1.0,"""event"",""trial"",""time""
""fullscreenenter"",""0"",""2033""
","
","
","""event"",""trial"",""time""
""fullscreenenter"",""0"",""2033""
","
",null,<p></p>,null,,,,,,,,,,,,,,,,,,,,,,,
,do_trial,98,543274,0.0-59.0-0.0,"""event"",""trial"",""time""
""fullscreenenter"",""0"",""2033""
","
","
","""event"",""trial"",""time""
""fullscreenenter"",""0"",""2033""
","
",513.4,,,,,,,,50,"1,0,0",0,mountain,5,probe-28,0.748187109,0.12409528,0.160101345,0,,,,,,,,
,html-keyboard-response,99,544289,0.0-59.0-1.0,"""event"",""trial"",""time""
""fullscreenenter"",""0"",""2033""
","
","
","""event"",""trial"",""time""
""fullscreenenter"",""0"",""2033""
","
",null,<p></p>,null,,,,,,,,,,,,,,,,,,,,,,,
,do_trial,100,549156,0.0-60.0-0.0,"""event"",""trial"",""time""
""fullscreenenter"",""0"",""2033""
","
","
","""event"",""trial"",""time""
""fullscreenenter"",""0"",""2033""
","
",319.8,,,,,,,,51,"1,0,0",0,mountain,6,probe-215,0.729926347,0.343191815,0.058365354,0,,,,,,,,
,html-keyboard-response,101,550164,0.0-60.0-1.0,"""event"",""trial"",""time""
""fullscreenenter"",""0"",""2033""
","
","
","""event"",""trial"",""time""
""fullscreenenter"",""0"",""2033""
","
",null,<p></p>,null,,,,,,,,,,,,,,,,,,,,,,,
,do_trial,102,555005,0.0-61.0-0.0,"""event"",""trial"",""time""
""fullscreenenter"",""0"",""2033""
","
","
","""event"",""trial"",""time""
""fullscreenenter"",""0"",""2033""
","
",307.1,,,,,,,,49,"0,0,0",0,mountain,7,probe-142,0.712098139,0.294673899,0.152354233,0,,,,,,,,
,html-keyboard-response,103,556021,0.0-61.0-1.0,"""event"",""trial"",""time""
""fullscreenenter"",""0"",""2033""
","
","
","""event"",""trial"",""time""
""fullscreenenter"",""0"",""2033""
","
",null,<p></p>,null,,,,,,,,,,,,,,,,,,,,,,,
,do_trial,104,560870,0.0-62.0-0.0,"""event"",""trial"",""time""
""fullscreenenter"",""0"",""2033""
","
","
","""event"",""trial"",""time""
""fullscreenenter"",""0"",""2033""
","
",310.6,,,,,,,,50,"0,0,0",0,mountain,8,probe-92,0.784604076,0.452531458,0.175850237,0,,,,,,,,
,html-keyboard-response,105,561879,0.0-62.0-1.0,"""event"",""trial"",""time""
""fullscreenenter"",""0"",""2033""
","
","
","""event"",""trial"",""time""
""fullscreenenter"",""0"",""2033""
","
",null,<p></p>,null,,,,,,,,,,,,,,,,,,,,,,,
,do_trial,106,566726,0.0-63.0-0.0,"""event"",""trial"",""time""
""fullscreenenter"",""0"",""2033""
","
","
","""event"",""trial"",""time""
""fullscreenenter"",""0"",""2033""
","
",305.5,,,,,,,,51,"1,0,1",0,mountain,9,probe-140,0.550061234,0.336526178,0.324961876,1,,,,,,,,
,html-keyboard-response,107,567739,0.0-63.0-1.0,"""event"",""trial"",""time""
""fullscreenenter"",""0"",""2033""
","
","
","""event"",""trial"",""time""
""fullscreenenter"",""0"",""2033""
","
",null,<p></p>,null,,,,,,,,,,,,,,,,,,,,,,,
,do_trial,108,572731,0.0-64.0-0.0,"""event"",""trial"",""time""
""fullscreenenter"",""0"",""2033""
","
","
","""event"",""trial"",""time""
""fullscreenenter"",""0"",""2033""
","
",447.1,,,,,,,,49,"1,1,0",0,mountain,10,probe-08,0.579751524,0.300941058,0.109073675,1,,,,,,,,
,html-keyboard-response,109,573747,0.0-64.0-1.0,"""event"",""trial"",""time""
""fullscreenenter"",""0"",""2033""
","
","
","""event"",""trial"",""time""
""fullscreenenter"",""0"",""2033""
","
",null,<p></p>,null,,,,,,,,,,,,,,,,,,,,,,,
,do_trial,110,578716,0.0-65.0-0.0,"""event"",""trial"",""time""
""fullscreenenter"",""0"",""2033""
","
","
","""event"",""trial"",""time""
""fullscreenenter"",""0"",""2033""
","
",428.7,,,,,,,,51,"0,0,0",0,mountain,11,probe-106,0.558299528,0.23611404,0.219240159,0,,,,,,,,
,html-keyboard-response,111,579722,0.0-65.0-1.0,"""event"",""trial"",""time""
""fullscreenenter"",""0"",""2033""
","
","
","""event"",""trial"",""time""
""fullscreenenter"",""0"",""2033""
","
",null,<p></p>,null,,,,,,,,,,,,,,,,,,,,,,,
,do_trial,112,584555,0.0-66.0-0.0,"""event"",""trial"",""time""
""fullscreenenter"",""0"",""2033""
","
","
","""event"",""trial"",""time""
""fullscreenenter"",""0"",""2033""
","
",281,,,,,,,,49,"0,0,0",0,mountain,12,probe-103,0.593424661,0.26693051,0.178402774,0,,,,,,,,
,html-keyboard-response,113,585558,0.0-66.0-1.0,"""event"",""trial"",""time""
""fullscreenenter"",""0"",""2033""
","
","
","""event"",""trial"",""time""
""fullscreenenter"",""0"",""2033""
","
",null,<p></p>,null,,,,,,,,,,,,,,,,,,,,,,,
,do_trial,114,590452,0.0-67.0-0.0,"""event"",""trial"",""time""
""fullscreenenter"",""0"",""2033""
","
","
","""event"",""trial"",""time""
""fullscreenenter"",""0"",""2033""
","
",343.3,,,,,,,,49,"1,0,1",0,mountain,13,probe-48,0.606823821,0.194612355,0.101391724,1,,,,,,,,
,html-keyboard-response,115,591465,0.0-67.0-1.0,"""event"",""trial"",""time""
""fullscreenenter"",""0"",""2033""
","
","
","""event"",""trial"",""time""
""fullscreenenter"",""0"",""2033""
","
",null,<p></p>,null,,,,,,,,,,,,,,,,,,,,,,,
,do_trial,116,596063,0.0-68.0-0.0,"""event"",""trial"",""time""
""fullscreenenter"",""0"",""2033""
","
","
","""event"",""trial"",""time""
""fullscreenenter"",""0"",""2033""
","
",53,,,,,,,,49,"1,0,1",0,mountain,14,probe-76,0.695645721,0.234068379,0.059070635,1,,,,,,,,
,html-keyboard-response,117,597071,0.0-68.0-1.0,"""event"",""trial"",""time""
""fullscreenenter"",""0"",""2033""
","
","
","""event"",""trial"",""time""
""fullscreenenter"",""0"",""2033""
","
",null,<p></p>,null,,,,,,,,,,,,,,,,,,,,,,,
,do_trial,118,602002,0.0-69.0-0.0,"""event"",""trial"",""time""
""fullscreenenter"",""0"",""2033""
","
","
","""event"",""trial"",""time""
""fullscreenenter"",""0"",""2033""
","
",382.8,,,,,,,,49,"0,1,0",0,mountain,15,probe-37,0.774570945,0.38781842,0.063752311,0,,,,,,,,
,html-keyboard-response,119,603012,0.0-69.0-1.0,"""event"",""trial"",""time""
""fullscreenenter"",""0"",""2033""
","
","
","""event"",""trial"",""time""
""fullscreenenter"",""0"",""2033""
","
",null,<p></p>,null,,,,,,,,,,,,,,,,,,,,,,,
,do_trial,120,607981,0.0-70.0-0.0,"""event"",""trial"",""time""
""fullscreenenter"",""0"",""2033""
","
","
","""event"",""trial"",""time""
""fullscreenenter"",""0"",""2033""
","
",425.7,,,,,,,,49,"1,1,0",0,mountain,16,probe-83,0.636008164,0.313937412,0.128114297,1,,,,,,,,
,html-keyboard-response,121,608983,0.0-70.0-1.0,"""event"",""trial"",""time""
""fullscreenenter"",""0"",""2033""
","
","
","""event"",""trial"",""time""
""fullscreenenter"",""0"",""2033""
","
",null,<p></p>,null,,,,,,,,,,,,,,,,,,,,,,,
,do_trial,122,613967,0.0-71.0-0.0,"""event"",""trial"",""time""
""fullscreenenter"",""0"",""2033""
","
","
","""event"",""trial"",""time""
""fullscreenenter"",""0"",""2033""
","
",443.1,,,,,,,,49,"1,0,0",0,mountain,17,probe-62,0.551227858,0.261290174,0.134717573,1,,,,,,,,
,html-keyboard-response,123,614972,0.0-71.0-1.0,"""event"",""trial"",""time""
""fullscreenenter"",""0"",""2033""
","
","
","""event"",""trial"",""time""
""fullscreenenter"",""0"",""2033""
","
",null,<p></p>,null,,,,,,,,,,,,,,,,,,,,,,,
,do_trial,124,619858,0.0-72.0-0.0,"""event"",""trial"",""time""
""fullscreenenter"",""0"",""2033""
","
","
","""event"",""trial"",""time""
""fullscreenenter"",""0"",""2033""
","
",336.8,,,,,,,,49,"0,0,0",0,mountain,18,probe-43,0.538500159,0.282555288,0.073857412,0,,,,,,,,
,html-keyboard-response,125,620865,0.0-72.0-1.0,"""event"",""trial"",""time""
""fullscreenenter"",""0"",""2033""
","
","
","""event"",""trial"",""time""
""fullscreenenter"",""0"",""2033""
","
",null,<p></p>,null,,,,,,,,,,,,,,,,,,,,,,,
,do_trial,126,626006,0.0-73.0-0.0,"""event"",""trial"",""time""
""fullscreenenter"",""0"",""2033""
","
","
","""event"",""trial"",""time""
""fullscreenenter"",""0"",""2033""
","
",595.6,,,,,,,,49,"0,0,0",0,mountain,19,probe-201,0.582385506,0.398287691,0.099764326,0,,,,,,,,
,html-keyboard-response,127,627015,0.0-73.0-1.0,"""event"",""trial"",""time""
""fullscreenenter"",""0"",""2033""
","
","
","""event"",""trial"",""time""
""fullscreenenter"",""0"",""2033""
","
",null,<p></p>,null,,,,,,,,,,,,,,,,,,,,,,,
,do_trial,128,631866,0.0-74.0-0.0,"""event"",""trial"",""time""
""fullscreenenter"",""0"",""2033""
","
","
","""event"",""trial"",""time""
""fullscreenenter"",""0"",""2033""
","
",302.1,,,,,,,,49,"1,0,0",0,mountain,20,probe-192,0.606577671,0.446029608,0.175377797,1,,,,,,,,
,html-keyboard-response,129,632878,0.0-74.0-1.0,"""event"",""trial"",""time""
""fullscreenenter"",""0"",""2033""
","
","
","""event"",""trial"",""time""
""fullscreenenter"",""0"",""2033""
","
",null,<p></p>,null,,,,,,,,,,,,,,,,,,,,,,,
,do_trial,130,637718,0.0-75.0-0.0,"""event"",""trial"",""time""
""fullscreenenter"",""0"",""2033""
","
","
","""event"",""trial"",""time""
""fullscreenenter"",""0"",""2033""
","
",300.3,,,,,,,,49,"0,1,0",0,mountain,21,probe-216,0.439413372,0.549303782,0.200977152,0,,,,,,,,
,html-keyboard-response,131,638726,0.0-75.0-1.0,"""event"",""trial"",""time""
""fullscreenenter"",""0"",""2033""
","
","
","""event"",""trial"",""time""
""fullscreenenter"",""0"",""2033""
","
",null,<p></p>,null,,,,,,,,,,,,,,,,,,,,,,,
,do_trial,132,643601,0.0-76.0-0.0,"""event"",""trial"",""time""
""fullscreenenter"",""0"",""2033""
","
","
","""event"",""trial"",""time""
""fullscreenenter"",""0"",""2033""
","
",333.3,,,,,,,,49,"1,1,0",0,mountain,22,probe-105,0.651083561,0.412314018,0.061227137,1,,,,,,,,
,html-keyboard-response,133,644615,0.0-76.0-1.0,"""event"",""trial"",""time""
""fullscreenenter"",""0"",""2033""
","
","
","""event"",""trial"",""time""
""fullscreenenter"",""0"",""2033""
","
",null,<p></p>,null,,,,,,,,,,,,,,,,,,,,,,,
,do_trial,134,649854,0.0-77.0-0.0,"""event"",""trial"",""time""
""fullscreenenter"",""0"",""2033""
","
","
","""event"",""trial"",""time""
""fullscreenenter"",""0"",""2033""
","
",705,,,,,,,,49,"0,1,0",0,mountain,23,probe-189,0.702105705,0.392458909,0.173327491,0,,,,,,,,
,html-keyboard-response,135,650864,0.0-77.0-1.0,"""event"",""trial"",""time""
""fullscreenenter"",""0"",""2033""
","
","
","""event"",""trial"",""time""
""fullscreenenter"",""0"",""2033""
","
",null,<p></p>,null,,,,,,,,,,,,,,,,,,,,,,,
,do_trial,136,655722,0.0-78.0-0.0,"""event"",""trial"",""time""
""fullscreenenter"",""0"",""2033""
","
","
","""event"",""trial"",""time""
""fullscreenenter"",""0"",""2033""
","
",320.6,,,,,,,,51,"0,0,0",0,mountain,24,probe-47,0.666776756,0.214094382,0.116365983,0,,,,,,,,
,html-keyboard-response,137,656730,0.0-78.0-1.0,"""event"",""trial"",""time""
""fullscreenenter"",""0"",""2033""
","
","
","""event"",""trial"",""time""
""fullscreenenter"",""0"",""2033""
","
",null,<p></p>,null,,,,,,,,,,,,,,,,,,,,,,,
,do_trial,138,661544,0.0-79.0-0.0,"""event"",""trial"",""time""
""fullscreenenter"",""0"",""2033""
","
","
","""event"",""trial"",""time""
""fullscreenenter"",""0"",""2033""
","
",267.2,,,,,,,,51,"1,1,0",0,mountain,25,probe-67,0.642935474,0.331807332,0.066330809,0,,,,,,,,
,html-keyboard-response,139,662560,0.0-79.0-1.0,"""event"",""trial"",""time""
""fullscreenenter"",""0"",""2033""
","
","
","""event"",""trial"",""time""
""fullscreenenter"",""0"",""2033""
","
",null,<p></p>,null,,,,,,,,,,,,,,,,,,,,,,,
,do_trial,140,667421,0.0-80.0-0.0,"""event"",""trial"",""time""
""fullscreenenter"",""0"",""2033""
","
","
","""event"",""trial"",""time""
""fullscreenenter"",""0"",""2033""
","
",323.4,,,,,,,,49,"0,0,0",0,mountain,26,probe-22,0.651960266,0.298991386,0.094752206,0,,,,,,,,
,html-keyboard-response,141,668432,0.0-80.0-1.0,"""event"",""trial"",""time""
""fullscreenenter"",""0"",""2033""
","
","
","""event"",""trial"",""time""
""fullscreenenter"",""0"",""2033""
","
",null,<p></p>,null,,,,,,,,,,,,,,,,,,,,,,,
,do_trial,142,673196,0.0-81.0-0.0,"""event"",""trial"",""time""
""fullscreenenter"",""0"",""2033""
","
","
","""event"",""trial"",""time""
""fullscreenenter"",""0"",""2033""
","
",214.9,,,,,,,,49,"1,0,1",0,mountain,27,probe-55,0.521096481,0.294929126,0.140031096,1,,,,,,,,
,html-keyboard-response,143,674208,0.0-81.0-1.0,"""event"",""trial"",""time""
""fullscreenenter"",""0"",""2033""
","
","
","""event"",""trial"",""time""
""fullscreenenter"",""0"",""2033""
","
",null,<p></p>,null,,,,,,,,,,,,,,,,,,,,,,,
,do_trial,144,679017,0.0-82.0-0.0,"""event"",""trial"",""time""
""fullscreenenter"",""0"",""2033""
","
","
","""event"",""trial"",""time""
""fullscreenenter"",""0"",""2033""
","
",271.1,,,,,,,,49,"0,0,0",0,mountain,28,probe-64,0.572824223,0.238037407,0.050021728,0,,,,,,,,
,html-keyboard-response,145,680028,0.0-82.0-1.0,"""event"",""trial"",""time""
""fullscreenenter"",""0"",""2033""
","
","
","""event"",""trial"",""time""
""fullscreenenter"",""0"",""2033""
","
",null,<p></p>,null,,,,,,,,,,,,,,,,,,,,,,,
,do_trial,146,685064,0.0-83.0-0.0,"""event"",""trial"",""time""
""fullscreenenter"",""0"",""2033""
","
","
","""event"",""trial"",""time""
""fullscreenenter"",""0"",""2033""
","
",500.8,,,,,,,,49,"1,0,0",0,mountain,29,probe-170,0.597645715,0.266958325,0.079116963,1,,,,,,,,
,html-keyboard-response,147,686069,0.0-83.0-1.0,"""event"",""trial"",""time""
""fullscreenenter"",""0"",""2033""
","
","
","""event"",""trial"",""time""
""fullscreenenter"",""0"",""2033""
","
",null,<p></p>,null,,,,,,,,,,,,,,,,,,,,,,,
,do_bye,148,687579,0.0-84.0-0.0,"""event"",""trial"",""time""
""fullscreenenter"",""0"",""2033""
","
","
","""event"",""trial"",""time""
""fullscreenenter"",""0"",""2033""
","
",null,,,,,,,,null,,,,,,,,,,,,,,,,,
,break,149,691028,0.0-84.0-1.0,"""event"",""trial"",""time""
""fullscreenenter"",""0"",""2033""
","
","
","""event"",""trial"",""time""
""fullscreenenter"",""0"",""2033""
","
",3447.2,"<div class='center'><p>Time to take a quick break! You have 2 minutes to rest, but you can move on sooner if you'd like.</p><p> Press the <b>space bar</b> to continue.</p></div>",32,,,,,,,,,,,,,,,,,,,,,,,
,do_travel,150,700049,0.0-85.0-0.0,"""event"",""trial"",""time""
""fullscreenenter"",""0"",""2033""
","
","
","""event"",""trial"",""time""
""fullscreenenter"",""0"",""2033""
","
",null,,,,,,,,null,,,,,,,,,,,,,,,,,
,do_welcome,151,704069,0.0-85.0-1.0,"""event"",""trial"",""time""
""fullscreenenter"",""0"",""2033""
","
","
","""event"",""trial"",""time""
""fullscreenenter"",""0"",""2033""
","
",null,,,,,,,,null,,,,,,,,,,,,,,,,,
,do_trial,152,710699,0.0-86.0-0.0,"""event"",""trial"",""time""
""fullscreenenter"",""0"",""2033""
","
","
","""event"",""trial"",""time""
""fullscreenenter"",""0"",""2033""
","
",2075.1,,,,,,,,50,"1,0,0",1,forest,30,probe-18,1,0.229030231,0.089042933,0,,,,,,,,
,html-keyboard-response,153,711709,0.0-86.0-1.0,"""event"",""trial"",""time""
""fullscreenenter"",""0"",""2033""
","
","
","""event"",""trial"",""time""
""fullscreenenter"",""0"",""2033""
","
",null,<p></p>,null,,,,,,,,,,,,,,,,,,,,,,,
,do_trial,154,716671,0.0-87.0-0.0,"""event"",""trial"",""time""
""fullscreenenter"",""0"",""2033""
","
","
","""event"",""trial"",""time""
""fullscreenenter"",""0"",""2033""
","
",411.4,,,,,,,,49,"1,0,0",1,forest,31,probe-51,1,0.174353496,0.093154178,1,,,,,,,,
,html-keyboard-response,155,717674,0.0-87.0-1.0,"""event"",""trial"",""time""
""fullscreenenter"",""0"",""2033""
","
","
","""event"",""trial"",""time""
""fullscreenenter"",""0"",""2033""
","
",null,<p></p>,null,,,,,,,,,,,,,,,,,,,,,,,
,do_trial,156,722530,0.0-88.0-0.0,"""event"",""trial"",""time""
""fullscreenenter"",""0"",""2033""
","
","
","""event"",""trial"",""time""
""fullscreenenter"",""0"",""2033""
","
",319.1,,,,,,,,51,"1,0,0",1,forest,32,probe-34,1,0.171687764,0.142796789,0,,,,,,,,
,html-keyboard-response,157,723542,0.0-88.0-1.0,"""event"",""trial"",""time""
""fullscreenenter"",""0"",""2033""
","
","
","""event"",""trial"",""time""
""fullscreenenter"",""0"",""2033""
","
",null,<p></p>,null,,,,,,,,,,,,,,,,,,,,,,,
,do_trial,158,728542,0.0-89.0-0.0,"""event"",""trial"",""time""
""fullscreenenter"",""0"",""2033""
","
","
","""event"",""trial"",""time""
""fullscreenenter"",""0"",""2033""
","
",460,,,,,,,,49,"0,0,0",1,forest,33,probe-214,0.776365564,0.213119965,0.273545549,0,,,,,,,,
,html-keyboard-response,159,729554,0.0-89.0-1.0,"""event"",""trial"",""time""
""fullscreenenter"",""0"",""2033""
","
","
","""event"",""trial"",""time""
""fullscreenenter"",""0"",""2033""
","
",null,<p></p>,null,,,,,,,,,,,,,,,,,,,,,,,
,do_trial,160,734437,0.0-90.0-0.0,"""event"",""trial"",""time""
""fullscreenenter"",""0"",""2033""
","
","
","""event"",""trial"",""time""
""fullscreenenter"",""0"",""2033""
","
",349.8,,,,,,,,50,"1,0,1",1,forest,34,probe-147,0.848291851,0.277765743,0.21106394,0,,,,,,,,
,html-keyboard-response,161,735448,0.0-90.0-1.0,"""event"",""trial"",""time""
""fullscreenenter"",""0"",""2033""
","
","
","""event"",""trial"",""time""
""fullscreenenter"",""0"",""2033""
","
",null,<p></p>,null,,,,,,,,,,,,,,,,,,,,,,,
,do_trial,162,740242,0.0-91.0-0.0,"""event"",""trial"",""time""
""fullscreenenter"",""0"",""2033""
","
","
","""event"",""trial"",""time""
""fullscreenenter"",""0"",""2033""
","
",247.3,,,,,,,,51,"1,0,1",1,forest,35,probe-177,0.819861013,0.194807889,0.298126736,1,,,,,,,,
,html-keyboard-response,163,741247,0.0-91.0-1.0,"""event"",""trial"",""time""
""fullscreenenter"",""0"",""2033""
","
","
","""event"",""trial"",""time""
""fullscreenenter"",""0"",""2033""
","
",null,<p></p>,null,,,,,,,,,,,,,,,,,,,,,,,
,do_trial,164,746347,0.0-92.0-0.0,"""event"",""trial"",""time""
""fullscreenenter"",""0"",""2033""
","
","
","""event"",""trial"",""time""
""fullscreenenter"",""0"",""2033""
","
",556.7,,,,,,,,49,"1,1,0",1,forest,36,probe-42,0.591686846,0.23197178,0.148499532,1,,,,,,,,
,html-keyboard-response,165,747355,0.0-92.0-1.0,"""event"",""trial"",""time""
""fullscreenenter"",""0"",""2033""
","
","
","""event"",""trial"",""time""
""fullscreenenter"",""0"",""2033""
","
",null,<p></p>,null,,,,,,,,,,,,,,,,,,,,,,,
,do_trial,166,752217,0.0-93.0-0.0,"""event"",""trial"",""time""
""fullscreenenter"",""0"",""2033""
","
","
","""event"",""trial"",""time""
""fullscreenenter"",""0"",""2033""
","
",320.6,,,,,,,,50,"0,1,0",1,forest,37,probe-195,0.684030613,0.263522903,0.080301386,1,,,,,,,,
,html-keyboard-response,167,753228,0.0-93.0-1.0,"""event"",""trial"",""time""
""fullscreenenter"",""0"",""2033""
","
","
","""event"",""trial"",""time""
""fullscreenenter"",""0"",""2033""
","
",null,<p></p>,null,,,,,,,,,,,,,,,,,,,,,,,
,do_trial,168,758117,0.0-94.0-0.0,"""event"",""trial"",""time""
""fullscreenenter"",""0"",""2033""
","
","
","""event"",""trial"",""time""
""fullscreenenter"",""0"",""2033""
","
",351.6,,,,,,,,51,"1,0,0",1,forest,38,probe-72,0.738124042,0.115978525,0.075033726,0,,,,,,,,
,html-keyboard-response,169,759134,0.0-94.0-1.0,"""event"",""trial"",""time""
""fullscreenenter"",""0"",""2033""
","
","
","""event"",""trial"",""time""
""fullscreenenter"",""0"",""2033""
","
",null,<p></p>,null,,,,,,,,,,,,,,,,,,,,,,,
,do_trial,170,764007,0.0-95.0-0.0,"""event"",""trial"",""time""
""fullscreenenter"",""0"",""2033""
","
","
","""event"",""trial"",""time""
""fullscreenenter"",""0"",""2033""
","
",322.5,,,,,,,,49,"1,0,0",1,forest,39,probe-95,0.652956631,0.318912396,0.188484631,1,,,,,,,,
,html-keyboard-response,171,765011,0.0-95.0-1.0,"""event"",""trial"",""time""
""fullscreenenter"",""0"",""2033""
","
","
","""event"",""trial"",""time""
""fullscreenenter"",""0"",""2033""
","
",null,<p></p>,null,,,,,,,,,,,,,,,,,,,,,,,
,do_trial,172,769953,0.0-96.0-0.0,"""event"",""trial"",""time""
""fullscreenenter"",""0"",""2033""
","
","
","""event"",""trial"",""time""
""fullscreenenter"",""0"",""2033""
","
",402.9,,,,,,,,50,"1,0,1",1,forest,40,probe-02,0.604648411,0.27244981,0.230680708,0,,,,,,,,
,html-keyboard-response,173,770970,0.0-96.0-1.0,"""event"",""trial"",""time""
""fullscreenenter"",""0"",""2033""
","
","
","""event"",""trial"",""time""
""fullscreenenter"",""0"",""2033""
","
",null,<p></p>,null,,,,,,,,,,,,,,,,,,,,,,,
,do_trial,174,775775,0.0-97.0-0.0,"""event"",""trial"",""time""
""fullscreenenter"",""0"",""2033""
","
","
","""event"",""trial"",""time""
""fullscreenenter"",""0"",""2033""
","
",265.2,,,,,,,,51,"0,0,0",1,forest,41,probe-04,0.524763792,0.33112829,0.285721815,0,,,,,,,,
,html-keyboard-response,175,776782,0.0-97.0-1.0,"""event"",""trial"",""time""
""fullscreenenter"",""0"",""2033""
","
","
","""event"",""trial"",""time""
""fullscreenenter"",""0"",""2033""
","
",null,<p></p>,null,,,,,,,,,,,,,,,,,,,,,,,
,do_trial,176,781640,0.0-98.0-0.0,"""event"",""trial"",""time""
""fullscreenenter"",""0"",""2033""
","
","
","""event"",""trial"",""time""
""fullscreenenter"",""0"",""2033""
","
",323,,,,,,,,49,"0,0,1",1,forest,42,probe-136,0.312013147,0.177958864,0.347505132,0,,,,,,,,
,html-keyboard-response,177,782650,0.0-98.0-1.0,"""event"",""trial"",""time""
""fullscreenenter"",""0"",""2033""
","
","
","""event"",""trial"",""time""
""fullscreenenter"",""0"",""2033""
","
",null,<p></p>,null,,,,,,,,,,,,,,,,,,,,,,,
,do_trial,178,787409,0.0-99.0-0.0,"""event"",""trial"",""time""
""fullscreenenter"",""0"",""2033""
","
","
","""event"",""trial"",""time""
""fullscreenenter"",""0"",""2033""
","
",225.6,,,,,,,,50,"0,0,1",1,forest,43,probe-144,0.206298845,0.403156294,0.38983509,0,,,,,,,,
,html-keyboard-response,179,788414,0.0-99.0-1.0,"""event"",""trial"",""time""
""fullscreenenter"",""0"",""2033""
","
","
","""event"",""trial"",""time""
""fullscreenenter"",""0"",""2033""
","
",null,<p></p>,null,,,,,,,,,,,,,,,,,,,,,,,
,do_trial,180,793222,0.0-100.0-0.0,"""event"",""trial"",""time""
""fullscreenenter"",""0"",""2033""
","
","
","""event"",""trial"",""time""
""fullscreenenter"",""0"",""2033""
","
",263.1,,,,,,,,51,"0,0,1",1,forest,44,probe-102,0.089746653,0.384097267,0.424689311,1,,,,,,,,
,html-keyboard-response,181,794240,0.0-100.0-1.0,"""event"",""trial"",""time""
""fullscreenenter"",""0"",""2033""
","
","
","""event"",""trial"",""time""
""fullscreenenter"",""0"",""2033""
","
",null,<p></p>,null,,,,,,,,,,,,,,,,,,,,,,,
,do_trial,182,799101,0.0-101.0-0.0,"""event"",""trial"",""time""
""fullscreenenter"",""0"",""2033""
","
","
","""event"",""trial"",""time""
""fullscreenenter"",""0"",""2033""
","
",321.7,,,,,,,,49,"0,0,0",1,forest,45,probe-61,0.078852952,0.286326299,0.543127526,0,,,,,,,,
,html-keyboard-response,183,800103,0.0-101.0-1.0,"""event"",""trial"",""time""
""fullscreenenter"",""0"",""2033""
","
","
","""event"",""trial"",""time""
""fullscreenenter"",""0"",""2033""
","
",null,<p></p>,null,,,,,,,,,,,,,,,,,,,,,,,
,do_trial,184,804933,0.0-102.0-0.0,"""event"",""trial"",""time""
""fullscreenenter"",""0"",""2033""
","
","
","""event"",""trial"",""time""
""fullscreenenter"",""0"",""2033""
","
",280.1,,,,,,,,51,"0,1,0",1,forest,46,probe-39,0.070244314,0.274454063,0.664462647,0,,,,,,,,
,html-keyboard-response,185,805950,0.0-102.0-1.0,"""event"",""trial"",""time""
""fullscreenenter"",""0"",""2033""
","
","
","""event"",""trial"",""time""
""fullscreenenter"",""0"",""2033""
","
",null,<p></p>,null,,,,,,,,,,,,,,,,,,,,,,,
,do_trial,186,810877,0.0-103.0-0.0,"""event"",""trial"",""time""
""fullscreenenter"",""0"",""2033""
","
","
","""event"",""trial"",""time""
""fullscreenenter"",""0"",""2033""
","
",383.9,,,,,,,,49,"0,0,1",1,forest,47,probe-23,0.083745312,0.213652041,0.628997271,0,,,,,,,,
,html-keyboard-response,187,811879,0.0-103.0-1.0,"""event"",""trial"",""time""
""fullscreenenter"",""0"",""2033""
","
","
","""event"",""trial"",""time""
""fullscreenenter"",""0"",""2033""
","
",null,<p></p>,null,,,,,,,,,,,,,,,,,,,,,,,
,do_trial,188,817408,0.0-104.0-0.0,"""event"",""trial"",""time""
""fullscreenenter"",""0"",""2033""
","
","
","""event"",""trial"",""time""
""fullscreenenter"",""0"",""2033""
","
",983.3,,,,,,,,50,"0,1,0",1,forest,48,probe-181,0.205355165,0.207420249,0.660018777,1,,,,,,,,
,html-keyboard-response,189,818410,0.0-104.0-1.0,"""event"",""trial"",""time""
""fullscreenenter"",""0"",""2033""
","
","
","""event"",""trial"",""time""
""fullscreenenter"",""0"",""2033""
","
",null,<p></p>,null,,,,,,,,,,,,,,,,,,,,,,,
,do_trial,190,824903,0.0-105.0-0.0,"""event"",""trial"",""time""
""fullscreenenter"",""0"",""2033""
","
","
","""event"",""trial"",""time""
""fullscreenenter"",""0"",""2033""
","
",1922.7,,,,,,,,49,"0,0,0",1,forest,49,probe-204,0.18741064,0.106547855,0.563875614,0,,,,,,,,
,html-keyboard-response,191,825908,0.0-105.0-1.0,"""event"",""trial"",""time""
""fullscreenenter"",""0"",""2033""
","
","
","""event"",""trial"",""time""
""fullscreenenter"",""0"",""2033""
","
",null,<p></p>,null,,,,,,,,,,,,,,,,,,,,,,,
,do_trial,192,830770,0.0-106.0-0.0,"""event"",""trial"",""time""
""fullscreenenter"",""0"",""2033""
","
","
","""event"",""trial"",""time""
""fullscreenenter"",""0"",""2033""
","
",321.1,,,,,,,,51,"1,0,1",1,forest,50,probe-150,0.152450553,0.100339178,0.622200298,1,,,,,,,,
,html-keyboard-response,193,831786,0.0-106.0-1.0,"""event"",""trial"",""time""
""fullscreenenter"",""0"",""2033""
","
","
","""event"",""trial"",""time""
""fullscreenenter"",""0"",""2033""
","
",null,<p></p>,null,,,,,,,,,,,,,,,,,,,,,,,
,do_trial,194,836905,0.0-107.0-0.0,"""event"",""trial"",""time""
""fullscreenenter"",""0"",""2033""
","
","
","""event"",""trial"",""time""
""fullscreenenter"",""0"",""2033""
","
",567.4,,,,,,,,50,"0,1,1",1,forest,51,probe-166,0.139521872,0.252202255,0.581734816,1,,,,,,,,
,html-keyboard-response,195,837920,0.0-107.0-1.0,"""event"",""trial"",""time""
""fullscreenenter"",""0"",""2033""
","
","
","""event"",""trial"",""time""
""fullscreenenter"",""0"",""2033""
","
",null,<p></p>,null,,,,,,,,,,,,,,,,,,,,,,,
,do_trial,196,842757,0.0-108.0-0.0,"""event"",""trial"",""time""
""fullscreenenter"",""0"",""2033""
","
","
","""event"",""trial"",""time""
""fullscreenenter"",""0"",""2033""
","
",300.9,,,,,,,,51,"0,0,1",1,forest,52,probe-184,0.102905416,0.374105338,0.667531772,1,,,,,,,,
,html-keyboard-response,197,843773,0.0-108.0-1.0,"""event"",""trial"",""time""
""fullscreenenter"",""0"",""2033""
","
","
","""event"",""trial"",""time""
""fullscreenenter"",""0"",""2033""
","
",null,<p></p>,null,,,,,,,,,,,,,,,,,,,,,,,
,do_trial,198,848624,0.0-109.0-0.0,"""event"",""trial"",""time""
""fullscreenenter"",""0"",""2033""
","
","
","""event"",""trial"",""time""
""fullscreenenter"",""0"",""2033""
","
",315.8,,,,,,,,50,"1,1,1",1,forest,53,probe-152,0.121298988,0.289029486,0.560163862,1,,,,,,,,
,html-keyboard-response,199,849637,0.0-109.0-1.0,"""event"",""trial"",""time""
""fullscreenenter"",""0"",""2033""
","
","
","""event"",""trial"",""time""
""fullscreenenter"",""0"",""2033""
","
",null,<p></p>,null,,,,,,,,,,,,,,,,,,,,,,,
,do_trial,200,854471,0.0-110.0-0.0,"""event"",""trial"",""time""
""fullscreenenter"",""0"",""2033""
","
","
","""event"",""trial"",""time""
""fullscreenenter"",""0"",""2033""
","
",291.5,,,,,,,,51,"0,1,1",1,forest,54,probe-209,0.131653189,0.341083786,0.628483838,1,,,,,,,,
,html-keyboard-response,201,855475,0.0-110.0-1.0,"""event"",""trial"",""time""
""fullscreenenter"",""0"",""2033""
","
","
","""event"",""trial"",""time""
""fullscreenenter"",""0"",""2033""
","
",null,<p></p>,null,,,,,,,,,,,,,,,,,,,,,,,
,do_trial,202,860409,0.0-111.0-0.0,"""event"",""trial"",""time""
""fullscreenenter"",""0"",""2033""
","
","
","""event"",""trial"",""time""
""fullscreenenter"",""0"",""2033""
","
",378.2,,,,,,,,50,"0,0,0",1,forest,55,probe-139,0.05149623,0.292803163,0.547968362,0,,,,,,,,
,html-keyboard-response,203,861418,0.0-111.0-1.0,"""event"",""trial"",""time""
""fullscreenenter"",""0"",""2033""
","
","
","""event"",""trial"",""time""
""fullscreenenter"",""0"",""2033""
","
",null,<p></p>,null,,,,,,,,,,,,,,,,,,,,,,,
,do_trial,204,866314,0.0-112.0-0.0,"""event"",""trial"",""time""
""fullscreenenter"",""0"",""2033""
","
","
","""event"",""trial"",""time""
""fullscreenenter"",""0"",""2033""
","
",341.9,,,,,,,,51,"1,0,1",1,forest,56,probe-89,0.099911274,0.327322496,0.652966487,1,,,,,,,,
,html-keyboard-response,205,867331,0.0-112.0-1.0,"""event"",""trial"",""time""
""fullscreenenter"",""0"",""2033""
","
","
","""event"",""trial"",""time""
""fullscreenenter"",""0"",""2033""
","
",null,<p></p>,null,,,,,,,,,,,,,,,,,,,,,,,
,do_trial,206,872156,0.0-113.0-0.0,"""event"",""trial"",""time""
""fullscreenenter"",""0"",""2033""
","
","
","""event"",""trial"",""time""
""fullscreenenter"",""0"",""2033""
","
",284.9,,,,,,,,51,"0,1,1",1,forest,57,probe-100,0.142950358,0.329735381,0.714397268,1,,,,,,,,
,html-keyboard-response,207,873160,0.0-113.0-1.0,"""event"",""trial"",""time""
""fullscreenenter"",""0"",""2033""
","
","
","""event"",""trial"",""time""
""fullscreenenter"",""0"",""2033""
","
",null,<p></p>,null,,,,,,,,,,,,,,,,,,,,,,,
,do_trial,208,877698,0.0-114.0-0.0,"""event"",""trial"",""time""
""fullscreenenter"",""0"",""2033""
","
","
","""event"",""trial"",""time""
""fullscreenenter"",""0"",""2033""
","
",0,,,,,,,,51,"0,0,1",1,forest,58,probe-20,0.087183977,0.312884329,0.680388789,1,,,,,,,,
,html-keyboard-response,209,878708,0.0-114.0-1.0,"""event"",""trial"",""time""
""fullscreenenter"",""0"",""2033""
","
","
","""event"",""trial"",""time""
""fullscreenenter"",""0"",""2033""
","
",null,<p></p>,null,,,,,,,,,,,,,,,,,,,,,,,
,do_trial,210,883764,0.0-115.0-0.0,"""event"",""trial"",""time""
""fullscreenenter"",""0"",""2033""
","
","
","""event"",""trial"",""time""
""fullscreenenter"",""0"",""2033""
","
",511.4,,,,,,,,51,"0,0,1",1,forest,59,probe-179,0.135768806,0.341565288,0.580408433,1,,,,,,,,
,html-keyboard-response,211,884767,0.0-115.0-1.0,"""event"",""trial"",""time""
""fullscreenenter"",""0"",""2033""
","
","
","""event"",""trial"",""time""
""fullscreenenter"",""0"",""2033""
","
",null,<p></p>,null,,,,,,,,,,,,,,,,,,,,,,,
,do_trial,212,889626,0.0-116.0-0.0,"""event"",""trial"",""time""
""fullscreenenter"",""0"",""2033""
","
","
","""event"",""trial"",""time""
""fullscreenenter"",""0"",""2033""
","
",314.1,,,,,,,,51,"0,0,0",1,forest,60,probe-228,0.112074913,0.367574212,0.488336172,0,,,,,,,,
,html-keyboard-response,213,890635,0.0-116.0-1.0,"""event"",""trial"",""time""
""fullscreenenter"",""0"",""2033""
","
","
","""event"",""trial"",""time""
""fullscreenenter"",""0"",""2033""
","
",null,<p></p>,null,,,,,,,,,,,,,,,,,,,,,,,
,do_trial,214,895663,0.0-117.0-0.0,"""event"",""trial"",""time""
""fullscreenenter"",""0"",""2033""
","
","
","""event"",""trial"",""time""
""fullscreenenter"",""0"",""2033""
","
",493.4,,,,,,,,51,"0,1,1",1,forest,61,probe-10,0.073655672,0.223225096,0.472653221,1,,,,,,,,
,html-keyboard-response,215,896678,0.0-117.0-1.0,"""event"",""trial"",""time""
""fullscreenenter"",""0"",""2033""
","
","
","""event"",""trial"",""time""
""fullscreenenter"",""0"",""2033""
","
",null,<p></p>,null,,,,,,,,,,,,,,,,,,,,,,,
,do_trial,216,901647,0.0-118.0-0.0,"""event"",""trial"",""time""
""fullscreenenter"",""0"",""2033""
","
","
","""event"",""trial"",""time""
""fullscreenenter"",""0"",""2033""
","
",425,,,,,,,,51,"0,1,1",1,forest,62,probe-15,0.100286946,0.307039523,0.615521292,1,,,,,,,,
,html-keyboard-response,217,902662,0.0-118.0-1.0,"""event"",""trial"",""time""
""fullscreenenter"",""0"",""2033""
","
","
","""event"",""trial"",""time""
""fullscreenenter"",""0"",""2033""
","
",null,<p></p>,null,,,,,,,,,,,,,,,,,,,,,,,
,do_trial,218,908613,0.0-119.0-0.0,"""event"",""trial"",""time""
""fullscreenenter"",""0"",""2033""
","
","
","""event"",""trial"",""time""
""fullscreenenter"",""0"",""2033""
","
",1413.3,,,,,,,,51,"0,0,0",1,forest,63,probe-178,0.113197318,0.313165013,0.539591524,0,,,,,,,,
,html-keyboard-response,219,909630,0.0-119.0-1.0,"""event"",""trial"",""time""
""fullscreenenter"",""0"",""2033""
","
","
","""event"",""trial"",""time""
""fullscreenenter"",""0"",""2033""
","
",null,<p></p>,null,,,,,,,,,,,,,,,,,,,,,,,
,do_trial,220,914675,0.0-120.0-0.0,"""event"",""trial"",""time""
""fullscreenenter"",""0"",""2033""
","
","
","""event"",""trial"",""time""
""fullscreenenter"",""0"",""2033""
","
",498.6,,,,,,,,51,"0,0,1",1,forest,64,probe-91,0.120713464,0.132011655,0.634054878,1,,,,,,,,
,html-keyboard-response,221,915678,0.0-120.0-1.0,"""event"",""trial"",""time""
""fullscreenenter"",""0"",""2033""
","
","
","""event"",""trial"",""time""
""fullscreenenter"",""0"",""2033""
","
",null,<p></p>,null,,,,,,,,,,,,,,,,,,,,,,,
,do_trial,222,920512,0.0-121.0-0.0,"""event"",""trial"",""time""
""fullscreenenter"",""0"",""2033""
","
","
","""event"",""trial"",""time""
""fullscreenenter"",""0"",""2033""
","
",292.1,,,,,,,,51,"0,0,0",1,forest,65,probe-13,0.119005433,0.249401184,0.583046729,0,,,,,,,,
,html-keyboard-response,223,921520,0.0-121.0-1.0,"""event"",""trial"",""time""
""fullscreenenter"",""0"",""2033""
","
","
","""event"",""trial"",""time""
""fullscreenenter"",""0"",""2033""
","
",null,<p></p>,null,,,,,,,,,,,,,,,,,,,,,,,
,do_trial,224,926451,0.0-122.0-0.0,"""event"",""trial"",""time""
""fullscreenenter"",""0"",""2033""
","
","
","""event"",""trial"",""time""
""fullscreenenter"",""0"",""2033""
","
",387.8,,,,,,,,51,"0,1,1",1,forest,66,probe-45,0.054711231,0.214091826,0.593940012,1,,,,,,,,
,html-keyboard-response,225,927459,0.0-122.0-1.0,"""event"",""trial"",""time""
""fullscreenenter"",""0"",""2033""
","
","
","""event"",""trial"",""time""
""fullscreenenter"",""0"",""2033""
","
",null,<p></p>,null,,,,,,,,,,,,,,,,,,,,,,,
,do_trial,226,932410,0.0-123.0-0.0,"""event"",""trial"",""time""
""fullscreenenter"",""0"",""2033""
","
","
","""event"",""trial"",""time""
""fullscreenenter"",""0"",""2033""
","
",403.9,,,,,,,,51,"1,0,0",1,forest,67,probe-161,0.13618895,0.342216205,0.529568486,0,,,,,,,,
,html-keyboard-response,227,933416,0.0-123.0-1.0,"""event"",""trial"",""time""
""fullscreenenter"",""0"",""2033""
","
","
","""event"",""trial"",""time""
""fullscreenenter"",""0"",""2033""
","
",null,<p></p>,null,,,,,,,,,,,,,,,,,,,,,,,
,do_trial,228,938330,0.0-124.0-0.0,"""event"",""trial"",""time""
""fullscreenenter"",""0"",""2033""
","
","
","""event"",""trial"",""time""
""fullscreenenter"",""0"",""2033""
","
",346.1,,,,,,,,51,"0,0,1",1,forest,68,probe-211,0.217828194,0.317448569,0.598461103,1,,,,,,,,
,html-keyboard-response,229,939334,0.0-124.0-1.0,"""event"",""trial"",""time""
""fullscreenenter"",""0"",""2033""
","
","
","""event"",""trial"",""time""
""fullscreenenter"",""0"",""2033""
","
",null,<p></p>,null,,,,,,,,,,,,,,,,,,,,,,,
,do_trial,230,944166,0.0-125.0-0.0,"""event"",""trial"",""time""
""fullscreenenter"",""0"",""2033""
","
","
","""event"",""trial"",""time""
""fullscreenenter"",""0"",""2033""
","
",292.8,,,,,,,,51,"0,0,1",1,forest,69,probe-196,0.192499738,0.304246654,0.608087962,1,,,,,,,,
,html-keyboard-response,231,945172,0.0-125.0-1.0,"""event"",""trial"",""time""
""fullscreenenter"",""0"",""2033""
","
","
","""event"",""trial"",""time""
""fullscreenenter"",""0"",""2033""
","
",null,<p></p>,null,,,,,,,,,,,,,,,,,,,,,,,
,do_bye,232,946693,0.0-126.0-0.0,"""event"",""trial"",""time""
""fullscreenenter"",""0"",""2033""
","
","
","""event"",""trial"",""time""
""fullscreenenter"",""0"",""2033""
","
",null,,,,,,,,null,,,,,,,,,,,,,,,,,
,break,233,946707,0.0-126.0-1.0,"""event"",""trial"",""time""
""fullscreenenter"",""0"",""2033""
","
","
","""event"",""trial"",""time""
""fullscreenenter"",""0"",""2033""
","
",14.2,"<div class='center'><p>Time to take a quick break! You have 2 minutes to rest, but you can move on sooner if you'd like.</p><p> Press the <b>space bar</b> to continue.</p></div>",32,,,,,,,,,,,,,,,,,,,,,,,
,do_travel,234,955717,0.0-127.0-0.0,"""event"",""trial"",""time""
""fullscreenenter"",""0"",""2033""
","
","
","""event"",""trial"",""time""
""fullscreenenter"",""0"",""2033""
","
",null,,,,,,,,null,,,,,,,,,,,,,,,,,
,do_welcome,235,959727,0.0-127.0-1.0,"""event"",""trial"",""time""
""fullscreenenter"",""0"",""2033""
","
","
","""event"",""trial"",""time""
""fullscreenenter"",""0"",""2033""
","
",null,,,,,,,,null,,,,,,,,,,,,,,,,,
,do_trial,236,966027,0.0-128.0-0.0,"""event"",""trial"",""time""
""fullscreenenter"",""0"",""2033""
","
","
","""event"",""trial"",""time""
""fullscreenenter"",""0"",""2033""
","
",1761.6,,,,,,,,50,"0,0,1",2,highway,70,probe-97,0.07160822,0.280225656,1,0,,,,,,,,
,html-keyboard-response,237,967047,0.0-128.0-1.0,"""event"",""trial"",""time""
""fullscreenenter"",""0"",""2033""
","
","
","""event"",""trial"",""time""
""fullscreenenter"",""0"",""2033""
","
",null,<p></p>,null,,,,,,,,,,,,,,,,,,,,,,,
,do_trial,238,972069,0.0-129.0-0.0,"""event"",""trial"",""time""
""fullscreenenter"",""0"",""2033""
","
","
","""event"",""trial"",""time""
""fullscreenenter"",""0"",""2033""
","
",475.7,,,,,,,,49,"0,1,1",2,highway,71,probe-174,0.072901643,0.268401628,1,0,,,,,,,,
,html-keyboard-response,239,973085,0.0-129.0-1.0,"""event"",""trial"",""time""
""fullscreenenter"",""0"",""2033""
","
","
","""event"",""trial"",""time""
""fullscreenenter"",""0"",""2033""
","
",null,<p></p>,null,,,,,,,,,,,,,,,,,,,,,,,
,do_trial,240,977974,0.0-130.0-0.0,"""event"",""trial"",""time""
""fullscreenenter"",""0"",""2033""
","
","
","""event"",""trial"",""time""
""fullscreenenter"",""0"",""2033""
","
",346.8,,,,,,,,51,"0,0,1",2,highway,72,probe-06,0.123123354,0.350844245,0.835987878,1,,,,,,,,
,html-keyboard-response,241,978983,0.0-130.0-1.0,"""event"",""trial"",""time""
""fullscreenenter"",""0"",""2033""
","
","
","""event"",""trial"",""time""
""fullscreenenter"",""0"",""2033""
","
",null,<p></p>,null,,,,,,,,,,,,,,,,,,,,,,,
,do_trial,242,983656,0.0-131.0-0.0,"""event"",""trial"",""time""
""fullscreenenter"",""0"",""2033""
","
","
","""event"",""trial"",""time""
""fullscreenenter"",""0"",""2033""
","
",136.3,,,,,,,,51,"1,0,0",2,highway,73,probe-32,0.128090929,0.36314732,0.744821674,0,,,,,,,,
,html-keyboard-response,243,984667,0.0-131.0-1.0,"""event"",""trial"",""time""
""fullscreenenter"",""0"",""2033""
","
","
","""event"",""trial"",""time""
""fullscreenenter"",""0"",""2033""
","
",null,<p></p>,null,,,,,,,,,,,,,,,,,,,,,,,
,do_trial,244,989607,0.0-132.0-0.0,"""event"",""trial"",""time""
""fullscreenenter"",""0"",""2033""
","
","
","""event"",""trial"",""time""
""fullscreenenter"",""0"",""2033""
","
",404.7,,,,,,,,50,"0,0,1",2,highway,74,probe-81,0.134737825,0.488128206,0.738814841,0,,,,,,,,
,html-keyboard-response,245,990620,0.0-132.0-1.0,"""event"",""trial"",""time""
""fullscreenenter"",""0"",""2033""
","
","
","""event"",""trial"",""time""
""fullscreenenter"",""0"",""2033""
","
",null,<p></p>,null,,,,,,,,,,,,,,,,,,,,,,,
,do_trial,246,995580,0.0-133.0-0.0,"""event"",""trial"",""time""
""fullscreenenter"",""0"",""2033""
","
","
","""event"",""trial"",""time""
""fullscreenenter"",""0"",""2033""
","
",427.1,,,,,,,,49,"0,0,1",2,highway,75,probe-126,0.212413035,0.410419594,0.653370651,0,,,,,,,,
,html-keyboard-response,247,996597,0.0-133.0-1.0,"""event"",""trial"",""time""
""fullscreenenter"",""0"",""2033""
","
","
","""event"",""trial"",""time""
""fullscreenenter"",""0"",""2033""
","
",null,<p></p>,null,,,,,,,,,,,,,,,,,,,,,,,
,do_trial,248,1001599,0.0-134.0-0.0,"""event"",""trial"",""time""
""fullscreenenter"",""0"",""2033""
","
","
","""event"",""trial"",""time""
""fullscreenenter"",""0"",""2033""
","
",456.9,,,,,,,,51,"0,0,0",2,highway,76,probe-186,0.120055881,0.270372542,0.615935524,0,,,,,,,,
,html-keyboard-response,249,1002610,0.0-134.0-1.0,"""event"",""trial"",""time""
""fullscreenenter"",""0"",""2033""
","
","
","""event"",""trial"",""time""
""fullscreenenter"",""0"",""2033""
","
",null,<p></p>,null,,,,,,,,,,,,,,,,,,,,,,,
,do_trial,250,1007608,0.0-135.0-0.0,"""event"",""trial"",""time""
""fullscreenenter"",""0"",""2033""
","
","
","""event"",""trial"",""time""
""fullscreenenter"",""0"",""2033""
","
",454.6,,,,,,,,50,"0,0,0",2,highway,77,probe-173,0.128535353,0.159665492,0.610031226,0,,,,,,,,
,html-keyboard-response,251,1008618,0.0-135.0-1.0,"""event"",""trial"",""time""
""fullscreenenter"",""0"",""2033""
","
","
","""event"",""trial"",""time""
""fullscreenenter"",""0"",""2033""
","
",null,<p></p>,null,,,,,,,,,,,,,,,,,,,,,,,
,do_trial,252,1013555,0.0-136.0-0.0,"""event"",""trial"",""time""
""fullscreenenter"",""0"",""2033""
","
","
","""event"",""trial"",""time""
""fullscreenenter"",""0"",""2033""
","
",391,,,,,,,,49,"0,0,1",2,highway,78,probe-131,0.084134202,0.238950183,0.609110866,0,,,,,,,,
,html-keyboard-response,253,1014566,0.0-136.0-1.0,"""event"",""trial"",""time""
""fullscreenenter"",""0"",""2033""
","
","
","""event"",""trial"",""time""
""fullscreenenter"",""0"",""2033""
","
",null,<p></p>,null,,,,,,,,,,,,,,,,,,,,,,,
,do_trial,254,1019426,0.0-137.0-0.0,"""event"",""trial"",""time""
""fullscreenenter"",""0"",""2033""
","
","
","""event"",""trial"",""time""
""fullscreenenter"",""0"",""2033""
","
",309.1,,,,,,,,51,"0,0,0",2,highway,79,probe-205,0.084507376,0.265591709,0.514545759,0,,,,,,,,
,html-keyboard-response,255,1020429,0.0-137.0-1.0,"""event"",""trial"",""time""
""fullscreenenter"",""0"",""2033""
","
","
","""event"",""trial"",""time""
""fullscreenenter"",""0"",""2033""
","
",null,<p></p>,null,,,,,,,,,,,,,,,,,,,,,,,
,do_trial,256,1025072,0.0-138.0-0.0,"""event"",""trial"",""time""
""fullscreenenter"",""0"",""2033""
","
","
","""event"",""trial"",""time""
""fullscreenenter"",""0"",""2033""
","
",92.6,,,,,,,,50,"1,0,0",2,highway,80,probe-21,0.271673904,0.362279507,0.486191664,0,,,,,,,,
,html-keyboard-response,257,1026085,0.0-138.0-1.0,"""event"",""trial"",""time""
""fullscreenenter"",""0"",""2033""
","
","
","""event"",""trial"",""time""
""fullscreenenter"",""0"",""2033""
","
",null,<p></p>,null,,,,,,,,,,,,,,,,,,,,,,,
,do_trial,258,1031001,0.0-139.0-0.0,"""event"",""trial"",""time""
""fullscreenenter"",""0"",""2033""
","
","
","""event"",""trial"",""time""
""fullscreenenter"",""0"",""2033""
","
",375,,,,,,,,49,"1,0,1",2,highway,81,probe-108,0.325205864,0.372871414,0.470210808,1,,,,,,,,
,html-keyboard-response,259,1032004,0.0-139.0-1.0,"""event"",""trial"",""time""
""fullscreenenter"",""0"",""2033""
","
","
","""event"",""trial"",""time""
""fullscreenenter"",""0"",""2033""
","
",null,<p></p>,null,,,,,,,,,,,,,,,,,,,,,,,
,do_trial,260,1036847,0.0-140.0-0.0,"""event"",""trial"",""time""
""fullscreenenter"",""0"",""2033""
","
","
","""event"",""trial"",""time""
""fullscreenenter"",""0"",""2033""
","
",306.6,,,,,,,,51,"0,1,1",2,highway,82,probe-151,0.444962669,0.321801131,0.178977187,1,,,,,,,,
,html-keyboard-response,261,1037857,0.0-140.0-1.0,"""event"",""trial"",""time""
""fullscreenenter"",""0"",""2033""
","
","
","""event"",""trial"",""time""
""fullscreenenter"",""0"",""2033""
","
",null,<p></p>,null,,,,,,,,,,,,,,,,,,,,,,,
,do_trial,262,1042420,0.0-141.0-0.0,"""event"",""trial"",""time""
""fullscreenenter"",""0"",""2033""
","
","
","""event"",""trial"",""time""
""fullscreenenter"",""0"",""2033""
","
",15.1,,,,,,,,50,"1,1,0",2,highway,83,probe-218,0.559431854,0.273786187,0.073251143,1,,,,,,,,
,html-keyboard-response,263,1043428,0.0-141.0-1.0,"""event"",""trial"",""time""
""fullscreenenter"",""0"",""2033""
","
","
","""event"",""trial"",""time""
""fullscreenenter"",""0"",""2033""
","
",null,<p></p>,null,,,,,,,,,,,,,,,,,,,,,,,
,do_trial,264,1048103,0.0-142.0-0.0,"""event"",""trial"",""time""
""fullscreenenter"",""0"",""2033""
","
","
","""event"",""trial"",""time""
""fullscreenenter"",""0"",""2033""
","
",138.2,,,,,,,,49,"1,0,0",2,highway,84,probe-171,0.594525847,0.288181575,0.07011114,1,,,,,,,,
,html-keyboard-response,265,1049109,0.0-142.0-1.0,"""event"",""trial"",""time""
""fullscreenenter"",""0"",""2033""
","
","
","""event"",""trial"",""time""
""fullscreenenter"",""0"",""2033""
","
",null,<p></p>,null,,,,,,,,,,,,,,,,,,,,,,,
,do_trial,266,1054032,0.0-143.0-0.0,"""event"",""trial"",""time""
""fullscreenenter"",""0"",""2033""
","
","
","""event"",""trial"",""time""
""fullscreenenter"",""0"",""2033""
","
",378.1,,,,,,,,49,"0,1,0",2,highway,85,probe-59,0.569613116,0.225661487,0.095853569,0,,,,,,,,
,html-keyboard-response,267,1055050,0.0-143.0-1.0,"""event"",""trial"",""time""
""fullscreenenter"",""0"",""2033""
","
","
","""event"",""trial"",""time""
""fullscreenenter"",""0"",""2033""
","
",null,<p></p>,null,,,,,,,,,,,,,,,,,,,,,,,
,do_trial,268,1059944,0.0-144.0-0.0,"""event"",""trial"",""time""
""fullscreenenter"",""0"",""2033""
","
","
","""event"",""trial"",""time""
""fullscreenenter"",""0"",""2033""
","
",359.8,,,,,,,,50,"0,0,1",2,highway,86,probe-157,0.496901417,0.450859166,0.165025573,0,,,,,,,,
,html-keyboard-response,269,1060956,0.0-144.0-1.0,"""event"",""trial"",""time""
""fullscreenenter"",""0"",""2033""
","
","
","""event"",""trial"",""time""
""fullscreenenter"",""0"",""2033""
","
",null,<p></p>,null,,,,,,,,,,,,,,,,,,,,,,,
,do_trial,270,1065775,0.0-145.0-0.0,"""event"",""trial"",""time""
""fullscreenenter"",""0"",""2033""
","
","
","""event"",""trial"",""time""
""fullscreenenter"",""0"",""2033""
","
",273,,,,,,,,51,"1,1,0",2,highway,87,probe-88,0.469482458,0.362119647,0.10413568,0,,,,,,,,
,html-keyboard-response,271,1066781,0.0-145.0-1.0,"""event"",""trial"",""time""
""fullscreenenter"",""0"",""2033""
","
","
","""event"",""trial"",""time""
""fullscreenenter"",""0"",""2033""
","
",null,<p></p>,null,,,,,,,,,,,,,,,,,,,,,,,
,do_trial,272,1071474,0.0-146.0-0.0,"""event"",""trial"",""time""
""fullscreenenter"",""0"",""2033""
","
","
","""event"",""trial"",""time""
""fullscreenenter"",""0"",""2033""
","
",153,,,,,,,,49,"0,0,0",2,highway,88,probe-188,0.494117425,0.359614981,0.184515182,0,,,,,,,,
,html-keyboard-response,273,1072485,0.0-146.0-1.0,"""event"",""trial"",""time""
""fullscreenenter"",""0"",""2033""
","
","
","""event"",""trial"",""time""
""fullscreenenter"",""0"",""2033""
","
",null,<p></p>,null,,,,,,,,,,,,,,,,,,,,,,,
,do_trial,274,1077334,0.0-147.0-0.0,"""event"",""trial"",""time""
""fullscreenenter"",""0"",""2033""
","
","
","""event"",""trial"",""time""
""fullscreenenter"",""0"",""2033""
","
",310,,,,,,,,51,"1,1,0",2,highway,89,probe-185,0.483697216,0.344800995,0.174233905,0,,,,,,,,
,html-keyboard-response,275,1078350,0.0-147.0-1.0,"""event"",""trial"",""time""
""fullscreenenter"",""0"",""2033""
","
","
","""event"",""trial"",""time""
""fullscreenenter"",""0"",""2033""
","
",null,<p></p>,null,,,,,,,,,,,,,,,,,,,,,,,
,do_trial,276,1083195,0.0-148.0-0.0,"""event"",""trial"",""time""
""fullscreenenter"",""0"",""2033""
","
","
","""event"",""trial"",""time""
""fullscreenenter"",""0"",""2033""
","
",306.6,,,,,,,,50,"0,0,0",2,highway,90,probe-109,0.38830372,0.319800168,0.116462786,0,,,,,,,,
,html-keyboard-response,277,1084204,0.0-148.0-1.0,"""event"",""trial"",""time""
""fullscreenenter"",""0"",""2033""
","
","
","""event"",""trial"",""time""
""fullscreenenter"",""0"",""2033""
","
",null,<p></p>,null,,,,,,,,,,,,,,,,,,,,,,,
,do_trial,278,1088831,0.0-149.0-0.0,"""event"",""trial"",""time""
""fullscreenenter"",""0"",""2033""
","
","
","""event"",""trial"",""time""
""fullscreenenter"",""0"",""2033""
","
",82.4,,,,,,,,49,"1,1,0",2,highway,91,probe-122,0.613258954,0.356329931,0.120080791,1,,,,,,,,
,html-keyboard-response,279,1089841,0.0-149.0-1.0,"""event"",""trial"",""time""
""fullscreenenter"",""0"",""2033""
","
","
","""event"",""trial"",""time""
""fullscreenenter"",""0"",""2033""
","
",null,<p></p>,null,,,,,,,,,,,,,,,,,,,,,,,
,do_trial,280,1094544,0.0-150.0-0.0,"""event"",""trial"",""time""
""fullscreenenter"",""0"",""2033""
","
","
","""event"",""trial"",""time""
""fullscreenenter"",""0"",""2033""
","
",162.9,,,,,,,,49,"1,0,0",2,highway,92,probe-30,0.63668823,0.204878998,0.08045895,1,,,,,,,,
,html-keyboard-response,281,1095551,0.0-150.0-1.0,"""event"",""trial"",""time""
""fullscreenenter"",""0"",""2033""
","
","
","""event"",""trial"",""time""
""fullscreenenter"",""0"",""2033""
","
",null,<p></p>,null,,,,,,,,,,,,,,,,,,,,,,,
,do_trial,282,1100408,0.0-151.0-0.0,"""event"",""trial"",""time""
""fullscreenenter"",""0"",""2033""
","
","
","""event"",""trial"",""time""
""fullscreenenter"",""0"",""2033""
","
",321.7,,,,,,,,49,"1,1,0",2,highway,93,probe-12,0.770450106,0.11732685,0.066047487,1,,,,,,,,
,html-keyboard-response,283,1101410,0.0-151.0-1.0,"""event"",""trial"",""time""
""fullscreenenter"",""0"",""2033""
","
","
","""event"",""trial"",""time""
""fullscreenenter"",""0"",""2033""
","
",null,<p></p>,null,,,,,,,,,,,,,,,,,,,,,,,
,do_trial,284,1106093,0.0-152.0-0.0,"""event"",""trial"",""time""
""fullscreenenter"",""0"",""2033""
","
","
","""event"",""trial"",""time""
""fullscreenenter"",""0"",""2033""
","
",149.1,,,,,,,,49,"0,0,0",2,highway,94,probe-110,0.615540404,0.325536506,0.139816505,0,,,,,,,,
,html-keyboard-response,285,1107102,0.0-152.0-1.0,"""event"",""trial"",""time""
""fullscreenenter"",""0"",""2033""
","
","
","""event"",""trial"",""time""
""fullscreenenter"",""0"",""2033""
","
",null,<p></p>,null,,,,,,,,,,,,,,,,,,,,,,,
,do_trial,286,1112034,0.0-153.0-0.0,"""event"",""trial"",""time""
""fullscreenenter"",""0"",""2033""
","
","
","""event"",""trial"",""time""
""fullscreenenter"",""0"",""2033""
","
",394.6,,,,,,,,49,"1,0,0",2,highway,95,probe-90,0.591058423,0.425602687,0.196900069,1,,,,,,,,
,html-keyboard-response,287,1113049,0.0-153.0-1.0,"""event"",""trial"",""time""
""fullscreenenter"",""0"",""2033""
","
","
","""event"",""trial"",""time""
""fullscreenenter"",""0"",""2033""
","
",null,<p></p>,null,,,,,,,,,,,,,,,,,,,,,,,
,do_trial,288,1117961,0.0-154.0-0.0,"""event"",""trial"",""time""
""fullscreenenter"",""0"",""2033""
","
","
","""event"",""trial"",""time""
""fullscreenenter"",""0"",""2033""
","
",377.2,,,,,,,,49,"0,0,0",2,highway,96,probe-66,0.696832238,0.388660223,0.149673033,0,,,,,,,,
,html-keyboard-response,289,1118965,0.0-154.0-1.0,"""event"",""trial"",""time""
""fullscreenenter"",""0"",""2033""
","
","
","""event"",""trial"",""time""
""fullscreenenter"",""0"",""2033""
","
",null,<p></p>,null,,,,,,,,,,,,,,,,,,,,,,,
,do_trial,290,1123732,0.0-155.0-0.0,"""event"",""trial"",""time""
""fullscreenenter"",""0"",""2033""
","
","
","""event"",""trial"",""time""
""fullscreenenter"",""0"",""2033""
","
",231.9,,,,,,,,49,"0,1,0",2,highway,97,probe-213,0.571180232,0.421604994,0.136065376,0,,,,,,,,
,html-keyboard-response,291,1124742,0.0-155.0-1.0,"""event"",""trial"",""time""
""fullscreenenter"",""0"",""2033""
","
","
","""event"",""trial"",""time""
""fullscreenenter"",""0"",""2033""
","
",null,<p></p>,null,,,,,,,,,,,,,,,,,,,,,,,
,do_trial,292,1129740,0.0-156.0-0.0,"""event"",""trial"",""time""
""fullscreenenter"",""0"",""2033""
","
","
","""event"",""trial"",""time""
""fullscreenenter"",""0"",""2033""
","
",460.2,,,,,,,,49,"1,0,0",2,highway,98,probe-99,0.552841545,0.385738344,0.094268288,1,,,,,,,,
,html-keyboard-response,293,1130754,0.0-156.0-1.0,"""event"",""trial"",""time""
""fullscreenenter"",""0"",""2033""
","
","
","""event"",""trial"",""time""
""fullscreenenter"",""0"",""2033""
","
",null,<p></p>,null,,,,,,,,,,,,,,,,,,,,,,,
,do_trial,294,1135954,0.0-157.0-0.0,"""event"",""trial"",""time""
""fullscreenenter"",""0"",""2033""
","
","
","""event"",""trial"",""time""
""fullscreenenter"",""0"",""2033""
","
",657,,,,,,,,49,"0,0,0",2,highway,99,probe-197,0.628642546,0.427696127,0.141690495,0,,,,,,,,
,html-keyboard-response,295,1136963,0.0-157.0-1.0,"""event"",""trial"",""time""
""fullscreenenter"",""0"",""2033""
","
","
","""event"",""trial"",""time""
""fullscreenenter"",""0"",""2033""
","
",null,<p></p>,null,,,,,,,,,,,,,,,,,,,,,,,
,do_trial,296,1141948,0.0-158.0-0.0,"""event"",""trial"",""time""
""fullscreenenter"",""0"",""2033""
","
","
","""event"",""trial"",""time""
""fullscreenenter"",""0"",""2033""
","
",447.1,,,,,,,,49,"1,1,0",2,highway,100,probe-82,0.549093581,0.381953207,0.110164995,1,,,,,,,,
,html-keyboard-response,297,1142964,0.0-158.0-1.0,"""event"",""trial"",""time""
""fullscreenenter"",""0"",""2033""
","
","
","""event"",""trial"",""time""
""fullscreenenter"",""0"",""2033""
","
",null,<p></p>,null,,,,,,,,,,,,,,,,,,,,,,,
,do_trial,298,1149135,0.0-159.0-0.0,"""event"",""trial"",""time""
""fullscreenenter"",""0"",""2033""
","
","
","""event"",""trial"",""time""
""fullscreenenter"",""0"",""2033""
","
",1633.9,,,,,,,,49,"0,1,0",2,highway,101,probe-193,0.515483927,0.322786928,0.050074614,0,,,,,,,,
,html-keyboard-response,299,1150146,0.0-159.0-1.0,"""event"",""trial"",""time""
""fullscreenenter"",""0"",""2033""
","
","
","""event"",""trial"",""time""
""fullscreenenter"",""0"",""2033""
","
",null,<p></p>,null,,,,,,,,,,,,,,,,,,,,,,,
,do_trial,300,1155022,0.0-160.0-0.0,"""event"",""trial"",""time""
""fullscreenenter"",""0"",""2033""
","
","
","""event"",""trial"",""time""
""fullscreenenter"",""0"",""2033""
","
",335.5,,,,,,,,49,"1,0,0",2,highway,102,probe-200,0.701022185,0.220408783,0.119585043,1,,,,,,,,
,html-keyboard-response,301,1156031,0.0-160.0-1.0,"""event"",""trial"",""time""
""fullscreenenter"",""0"",""2033""
","
","
","""event"",""trial"",""time""
""fullscreenenter"",""0"",""2033""
","
",null,<p></p>,null,,,,,,,,,,,,,,,,,,,,,,,
,do_trial,302,1161139,0.0-161.0-0.0,"""event"",""trial"",""time""
""fullscreenenter"",""0"",""2033""
","
","
","""event"",""trial"",""time""
""fullscreenenter"",""0"",""2033""
","
",559.3,,,,,,,,49,"0,1,0",2,highway,103,probe-71,0.546071468,0.257631221,0.05061751,0,,,,,,,,
,html-keyboard-response,303,1162145,0.0-161.0-1.0,"""event"",""trial"",""time""
""fullscreenenter"",""0"",""2033""
","
","
","""event"",""trial"",""time""
""fullscreenenter"",""0"",""2033""
","
",null,<p></p>,null,,,,,,,,,,,,,,,,,,,,,,,
,do_trial,304,1167259,0.0-162.0-0.0,"""event"",""trial"",""time""
""fullscreenenter"",""0"",""2033""
","
","
","""event"",""trial"",""time""
""fullscreenenter"",""0"",""2033""
","
",563.1,,,,,,,,49,"1,0,0",2,highway,104,probe-41,0.640065574,0.228952936,0.111674893,1,,,,,,,,
,html-keyboard-response,305,1168268,0.0-162.0-1.0,"""event"",""trial"",""time""
""fullscreenenter"",""0"",""2033""
","
","
","""event"",""trial"",""time""
""fullscreenenter"",""0"",""2033""
","
",null,<p></p>,null,,,,,,,,,,,,,,,,,,,,,,,
,do_trial,306,1173216,0.0-163.0-0.0,"""event"",""trial"",""time""
""fullscreenenter"",""0"",""2033""
","
","
","""event"",""trial"",""time""
""fullscreenenter"",""0"",""2033""
","
",403,,,,,,,,49,"1,0,0",2,highway,105,probe-53,0.869757475,0.295660458,0.12563159,1,,,,,,,,
,html-keyboard-response,307,1174229,0.0-163.0-1.0,"""event"",""trial"",""time""
""fullscreenenter"",""0"",""2033""
","
","
","""event"",""trial"",""time""
""fullscreenenter"",""0"",""2033""
","
",null,<p></p>,null,,,,,,,,,,,,,,,,,,,,,,,
,do_trial,308,1179145,0.0-164.0-0.0,"""event"",""trial"",""time""
""fullscreenenter"",""0"",""2033""
","
","
","""event"",""trial"",""time""
""fullscreenenter"",""0"",""2033""
","
",377.3,,,,,,,,49,"1,0,0",2,highway,106,probe-154,0.770167706,0.255127547,0.168616526,1,,,,,,,,
,html-keyboard-response,309,1180152,0.0-164.0-1.0,"""event"",""trial"",""time""
""fullscreenenter"",""0"",""2033""
","
","
","""event"",""trial"",""time""
""fullscreenenter"",""0"",""2033""
","
",null,<p></p>,null,,,,,,,,,,,,,,,,,,,,,,,
,do_trial,310,1185287,0.0-165.0-0.0,"""event"",""trial"",""time""
""fullscreenenter"",""0"",""2033""
","
","
","""event"",""trial"",""time""
""fullscreenenter"",""0"",""2033""
","
",586,,,,,,,,49,"1,0,1",2,highway,107,probe-190,0.695208757,0.14597815,0.084330257,1,,,,,,,,
,html-keyboard-response,311,1186294,0.0-165.0-1.0,"""event"",""trial"",""time""
""fullscreenenter"",""0"",""2033""
","
","
","""event"",""trial"",""time""
""fullscreenenter"",""0"",""2033""
","
",null,<p></p>,null,,,,,,,,,,,,,,,,,,,,,,,
,do_trial,312,1191217,0.0-166.0-0.0,"""event"",""trial"",""time""
""fullscreenenter"",""0"",""2033""
","
","
","""event"",""trial"",""time""
""fullscreenenter"",""0"",""2033""
","
",383.3,,,,,,,,49,"0,1,0",2,highway,108,probe-199,0.7184009,0.242733455,0.103703879,0,,,,,,,,
,html-keyboard-response,313,1192224,0.0-166.0-1.0,"""event"",""trial"",""time""
""fullscreenenter"",""0"",""2033""
","
","
","""event"",""trial"",""time""
""fullscreenenter"",""0"",""2033""
","
",null,<p></p>,null,,,,,,,,,,,,,,,,,,,,,,,
,do_trial,314,1197104,0.0-167.0-0.0,"""event"",""trial"",""time""
""fullscreenenter"",""0"",""2033""
","
","
","""event"",""trial"",""time""
""fullscreenenter"",""0"",""2033""
","
",345.1,,,,,,,,49,"1,0,0",2,highway,109,probe-11,0.625910959,0.284637879,0.199438612,1,,,,,,,,
,html-keyboard-response,315,1198110,0.0-167.0-1.0,"""event"",""trial"",""time""
""fullscreenenter"",""0"",""2033""
","
","
","""event"",""trial"",""time""
""fullscreenenter"",""0"",""2033""
","
",null,<p></p>,null,,,,,,,,,,,,,,,,,,,,,,,
,do_bye,316,1199627,0.0-168.0-0.0,"""event"",""trial"",""time""
""fullscreenenter"",""0"",""2033""
","
","
","""event"",""trial"",""time""
""fullscreenenter"",""0"",""2033""
","
",null,,,,,,,,null,,,,,,,,,,,,,,,,,
,break,317,1202966,0.0-168.0-1.0,"""event"",""trial"",""time""
""fullscreenenter"",""0"",""2033""
","
","
","""event"",""trial"",""time""
""fullscreenenter"",""0"",""2033""
","
",3338,"<div class='center'><p>Time to take a quick break! You have 2 minutes to rest, but you can move on sooner if you'd like.</p><p> Press the <b>space bar</b> to continue.</p></div>",32,,,,,,,,,,,,,,,,,,,,,,,
,do_travel,318,1211983,0.0-169.0-0.0,"""event"",""trial"",""time""
""fullscreenenter"",""0"",""2033""
","
","
","""event"",""trial"",""time""
""fullscreenenter"",""0"",""2033""
","
",null,,,,,,,,null,,,,,,,,,,,,,,,,,
,do_welcome,319,1215993,0.0-169.0-1.0,"""event"",""trial"",""time""
""fullscreenenter"",""0"",""2033""
","
","
","""event"",""trial"",""time""
""fullscreenenter"",""0"",""2033""
","
",null,,,,,,,,null,,,,,,,,,,,,,,,,,
,do_trial,320,1222425,0.0-170.0-0.0,"""event"",""trial"",""time""
""fullscreenenter"",""0"",""2033""
","
","
","""event"",""trial"",""time""
""fullscreenenter"",""0"",""2033""
","
",1880.7,,,,,,,,49,"1,0,0",3,countryside,110,probe-207,1,0.451378494,0.058740364,1,,,,,,,,
,html-keyboard-response,321,1223442,0.0-170.0-1.0,"""event"",""trial"",""time""
""fullscreenenter"",""0"",""2033""
","
","
","""event"",""trial"",""time""
""fullscreenenter"",""0"",""2033""
","
",null,<p></p>,null,,,,,,,,,,,,,,,,,,,,,,,
,do_trial,322,1228265,0.0-171.0-0.0,"""event"",""trial"",""time""
""fullscreenenter"",""0"",""2033""
","
","
","""event"",""trial"",""time""
""fullscreenenter"",""0"",""2033""
","
",284.1,,,,,,,,50,"1,0,0",3,countryside,111,probe-138,1,0.363062955,0.163451152,0,,,,,,,,
,html-keyboard-response,323,1229272,0.0-171.0-1.0,"""event"",""trial"",""time""
""fullscreenenter"",""0"",""2033""
","
","
","""event"",""trial"",""time""
""fullscreenenter"",""0"",""2033""
","
",null,<p></p>,null,,,,,,,,,,,,,,,,,,,,,,,
,do_trial,324,1234135,0.0-172.0-0.0,"""event"",""trial"",""time""
""fullscreenenter"",""0"",""2033""
","
","
","""event"",""trial"",""time""
""fullscreenenter"",""0"",""2033""
","
",326.6,,,,,,,,51,"1,1,0",3,countryside,112,probe-33,0.859261098,0.317310715,0.186146617,0,,,,,,,,
,html-keyboard-response,325,1235150,0.0-172.0-1.0,"""event"",""trial"",""time""
""fullscreenenter"",""0"",""2033""
","
","
","""event"",""trial"",""time""
""fullscreenenter"",""0"",""2033""
","
",null,<p></p>,null,,,,,,,,,,,,,,,,,,,,,,,
,do_trial,326,1239962,0.0-173.0-0.0,"""event"",""trial"",""time""
""fullscreenenter"",""0"",""2033""
","
","
","""event"",""trial"",""time""
""fullscreenenter"",""0"",""2033""
","
",275.8,,,,,,,,49,"1,0,0",3,countryside,113,probe-137,0.614331379,0.307431816,0.060155254,1,,,,,,,,
,html-keyboard-response,327,1240969,0.0-173.0-1.0,"""event"",""trial"",""time""
""fullscreenenter"",""0"",""2033""
","
","
","""event"",""trial"",""time""
""fullscreenenter"",""0"",""2033""
","
",null,<p></p>,null,,,,,,,,,,,,,,,,,,,,,,,
,do_trial,328,1245800,0.0-174.0-0.0,"""event"",""trial"",""time""
""fullscreenenter"",""0"",""2033""
","
","
","""event"",""trial"",""time""
""fullscreenenter"",""0"",""2033""
","
",281.7,,,,,,,,50,"1,1,1",3,countryside,114,probe-156,0.686124223,0.337554144,0.145110687,1,,,,,,,,
,html-keyboard-response,329,1246814,0.0-174.0-1.0,"""event"",""trial"",""time""
""fullscreenenter"",""0"",""2033""
","
","
","""event"",""trial"",""time""
""fullscreenenter"",""0"",""2033""
","
",null,<p></p>,null,,,,,,,,,,,,,,,,,,,,,,,
,do_trial,330,1251799,0.0-175.0-0.0,"""event"",""trial"",""time""
""fullscreenenter"",""0"",""2033""
","
","
","""event"",""trial"",""time""
""fullscreenenter"",""0"",""2033""
","
",434.9,,,,,,,,51,"0,0,0",3,countryside,115,probe-183,0.592058725,0.459280252,0.056211604,0,,,,,,,,
,html-keyboard-response,331,1252814,0.0-175.0-1.0,"""event"",""trial"",""time""
""fullscreenenter"",""0"",""2033""
","
","
","""event"",""trial"",""time""
""fullscreenenter"",""0"",""2033""
","
",null,<p></p>,null,,,,,,,,,,,,,,,,,,,,,,,
,do_trial,332,1257709,0.0-176.0-0.0,"""event"",""trial"",""time""
""fullscreenenter"",""0"",""2033""
","
","
","""event"",""trial"",""time""
""fullscreenenter"",""0"",""2033""
","
",343.1,,,,,,,,49,"0,0,0",3,countryside,116,probe-202,0.564290783,0.347178198,0.133330903,0,,,,,,,,
,html-keyboard-response,333,1258721,0.0-176.0-1.0,"""event"",""trial"",""time""
""fullscreenenter"",""0"",""2033""
","
","
","""event"",""trial"",""time""
""fullscreenenter"",""0"",""2033""
","
",null,<p></p>,null,,,,,,,,,,,,,,,,,,,,,,,
