"success","trial_type","trial_index","time_elapsed","internal_node_id","rt","stimulus","key_press","subject_id","participant_id","age","gender","prompt","response","choice_outcomes","context_n","context_img_id","trial_n","probe_img_id","pR_red","pR_white","pR_black","outcome","contextArray_ind","validImageProbes","invalidImageProbes","pRew_Red","pRew_White","pRew_Black","availableForMemProbe","choice_blocks"
"true","fullscreen","0","55400","0.0-0.0","","","","","","","","","","","","","","","","","","","","","","","","","",""
"","pavlovia","1","55403","0.0-1.0","","","","","","","","","","","","","","","","","","","","","","","","","",""
"","instruc1","2","111698","0.0-2.0","null","run_exp/static/audio/clip_1_welcome.m4a","null","59","231","10","Female","<div class='center'><p>Welcome! This is the first part of the experiment. It will last ~30 minutes. In this experiment, you are the head captain of a pirate ship traveling around the world to different islands. You will play a few different games during this experiment. Here is an overview of these games:</p><br><p>Part 1 (today)</p><p>1. Instructions, practice game, and quiz</p><p>2. Pick a pirate game on 6 different islands</p><br><p>Part 2 (1 day later)</p><p>3. Pick a pirate game and memory game</p><p>4. Where did I see this ship? game</p><p>5. Which pirate was the best? game</p><br><p>Part 3 (1 week later)</p><p>6. Alien space mining game</p><p>7. Memory game</p></div>","","","","","","","","","","","","","","","","","",""
"","html-keyboard-response","3","113623","0.0-3.0","1923.6999998092651","<div class='center'><p>Welcome! This is the first part of the experiment. It will last ~30 minutes. In this experiment, you are the head captain of a pirate ship traveling around the world to different islands. You will play a few different games during this experiment. Here is an overview of these games:</p><br><p>Part 1 (today)</p><p>1. Instructions, practice game, and quiz</p><p>2. Pick a pirate game on 6 different islands</p><br><p>Part 2 (1 day later)</p><p>3. Pick a pirate game and memory game</p><p>4. Where did I see this ship? game</p><p>5. Which pirate was the best? game</p><br><p>Part 3 (1 week later)</p><p>6. Alien space mining game</p><p>7. Memory game</p><p><b>[Press the space bar to continue]</b></p></div>","32","","","","","","","","","","","","","","","","","","","","","","",""
"","instruc2","4","121636","0.0-4.0","null","run_exp/static/audio/clip_2_different_places.m4a","null","","","","","<div class='center'><p>Today, you’ll visit these 6 islands on your journey. You'll be able to see these islands from your ship.</p><p><img src='run_exp/static/images/contexts/all_contexts.png' height='500'></p></div>","","","","","","","","","","","","","","","","","",""
"","html-keyboard-response","5","122991","0.0-5.0","1354.3000001907349","<div class='center'><p>Today, you’ll visit these 6 islands on your journey. You'll be able to see these islands from your ship.</p><p><img src='run_exp/static/images/contexts/all_contexts.png' height='500'></p><p><b>[Press the space bar to continue]</b></p></div>","32","","","","","","","","","","","","","","","","","","","","","","",""
"","instruc3","6","135637","0.0-6.0","null","run_exp/static/audio/clip_3_goal_of_game_1.m4a","null","","","","","<div class='center'><p> The pirates on your ship will rob other ships as they leave the island</p> These ships have just sold their things to people on the island, so they will be filled with lots and lots of gold.</p><p><img src='run_exp/static/images/tutorial/ship_center.png' height='400'></p></div>","","","","","","","","","","","","","","","","","",""
"","html-keyboard-response","7","137489","0.0-7.0","1850.5","<div class='center'><p> The pirates on your ship will rob other ships as they leave the island</p> These ships have just sold their things to people on the island, so they will be filled with lots and lots of gold.</p><p><img src='run_exp/static/images/tutorial/ship_center.png' height='400'></p><p><b>[Press the space bar to continue]</b></p></div>","32","","","","","","","","","","","","","","","","","","","","","","",""
"","instruc4","8","170722","0.0-8.0","null","run_exp/static/audio/clip_4_goal_of_game_2.m4a","null","","","","","<div class='center'><p>As the head captain, you do not have to rob any ships yourself.</p><p>Another pirate will be doing the robbing for you. </p><p>First, you will  choose a pirate to rob the next ship.</p><p><img src='run_exp/static/images/tutorial/pirates_all_crop.png' height='200'></p><p>Then, you'll see if the pirate successfully robbed the ship of their gold. If they were successful, then you'll  get a stack of gold coins like this:</p><p><img src='run_exp/static/images/tutorial/reward.png' height='150'></p><p> If they were <b>not</b> successful, then you'll get no gold coins, and you'll see a big red x like this: </p><p><img src='run_exp/static/images/tutorial/reward_no.png' height='150'></p><p> How much bonus money you make is based on how many gold coins you collect.</p><div>","","","","","","","","","","","","","","","","","",""
"","html-keyboard-response","9","171892","0.0-9.0","1169.1999998092651","<div class='center'><p>As the head captain, you do not have to rob any ships yourself.</p><p>Another pirate will be doing the robbing for you. </p><p>First, you will  choose a pirate to rob the next ship.</p><p><img src='run_exp/static/images/tutorial/pirates_all_crop.png' height='200'></p><p>Then, you'll see if the pirate successfully robbed the ship of their gold. If they were successful, then you'll  get a stack of gold coins like this:</p><p><img src='run_exp/static/images/tutorial/reward.png' height='150'></p><p> If they were <b>not</b> successful, then you'll get no gold coins, and you'll see a big red x like this: </p><p><img src='run_exp/static/images/tutorial/reward_no.png' height='150'></p><p> How much bonus money you make is based on how many gold coins you collect.</p<p><b>[Press the space bar to continue]</b></p></div>","32","","","","","","","","","","","","","","","","","","","","","","",""
"","instruc5","10","202628","0.0-10.0","30735.400000095367","run_exp/static/audio/clip_5_probabilistic.m4a","49","","","","","<div class='center'><p>Even the most skilled pirate can not rob EVERY ship.</p><p> Some ships will have very strong protections against pirate attacks.</p><p> Blue beard, here, is very, very good at robbing ships, but he won't be successful every time he tries to rob one.</p><p> You can press the <b>‘1’</b> key on the keyboard to choose him.</p><p> Try choosing him 10 times to see how often he succeeds at robbing a ship. </p><p><img src='run_exp/static/images/tutorial/blue.png' height='500'></p></div>","","","","","","","","","","","","","","","","","",""
"","html-keyboard-response","11","204133","0.0-11.0","null","<div class='center'><p><img src='run_exp/static/images/tutorial/blue_win.png' height='500'></p></div>","null","","","","","","","","","","","","","","","","","","","","","","",""
"","html-keyboard-response","12","205665","0.0-12.0","1531.3000001907349","<div class='center'><img src='run_exp/static/images/tutorial/blue.png' height='500'></p></div>","49","","","","","","","","","","","","","","","","","","","","","","",""
"","html-keyboard-response","13","207169","0.0-13.0","null","<div class='center'><p><img src='run_exp/static/images/tutorial/blue_win.png' height='500'></p></div>","null","","","","","","","","","","","","","","","","","","","","","","",""
"","html-keyboard-response","14","207937","0.0-14.0","767.3000001907349","<div class='center'><img src='run_exp/static/images/tutorial/blue.png' height='500'></p></div>","49","","","","","","","","","","","","","","","","","","","","","","",""
"","html-keyboard-response","15","209442","0.0-15.0","null","<div class='center'><p><img src='run_exp/static/images/tutorial/blue_win.png' height='500'></p></div>","null","","","","","","","","","","","","","","","","","","","","","","",""
"","html-keyboard-response","16","209974","0.0-16.0","531.1999998092651","<div class='center'><img src='run_exp/static/images/tutorial/blue.png' height='500'></p></div>","49","","","","","","","","","","","","","","","","","","","","","","",""
"","html-keyboard-response","17","211475","0.0-17.0","null","<div class='center'><p><img src='run_exp/static/images/tutorial/blue_no_win.png' height='500'></p></div>","null","","","","","","","","","","","","","","","","","","","","","","",""
"","html-keyboard-response","18","211931","0.0-18.0","455.2999997138977","<div class='center'><img src='run_exp/static/images/tutorial/blue.png' height='500'></p></div>","49","","","","","","","","","","","","","","","","","","","","","","",""
"","html-keyboard-response","19","213434","0.0-19.0","null","<div class='center'><p><img src='run_exp/static/images/tutorial/blue_win.png' height='500'></p></div>","null","","","","","","","","","","","","","","","","","","","","","","",""
"","html-keyboard-response","20","214069","0.0-20.0","633.5","<div class='center'><img src='run_exp/static/images/tutorial/blue.png' height='500'></p></div>","49","","","","","","","","","","","","","","","","","","","","","","",""
"","html-keyboard-response","21","215574","0.0-21.0","null","<div class='center'><p><img src='run_exp/static/images/tutorial/blue_win.png' height='500'></p></div>","null","","","","","","","","","","","","","","","","","","","","","","",""
"","html-keyboard-response","22","216110","0.0-22.0","532.5","<div class='center'><img src='run_exp/static/images/tutorial/blue.png' height='500'></p></div>","49","","","","","","","","","","","","","","","","","","","","","","",""
"","html-keyboard-response","23","217611","0.0-23.0","null","<div class='center'><p><img src='run_exp/static/images/tutorial/blue_win.png' height='500'></p></div>","null","","","","","","","","","","","","","","","","","","","","","","",""
"","html-keyboard-response","24","218130","0.0-24.0","518.4000000953674","<div class='center'><img src='run_exp/static/images/tutorial/blue.png' height='500'></p></div>","49","","","","","","","","","","","","","","","","","","","","","","",""
"","html-keyboard-response","25","219632","0.0-25.0","null","<div class='center'><p><img src='run_exp/static/images/tutorial/blue_no_win.png' height='500'></p></div>","null","","","","","","","","","","","","","","","","","","","","","","",""
"","html-keyboard-response","26","220020","0.0-26.0","387.5","<div class='center'><img src='run_exp/static/images/tutorial/blue.png' height='500'></p></div>","49","","","","","","","","","","","","","","","","","","","","","","",""
"","html-keyboard-response","27","221524","0.0-27.0","null","<div class='center'><p><img src='run_exp/static/images/tutorial/blue_win.png' height='500'></p></div>","null","","","","","","","","","","","","","","","","","","","","","","",""
"","html-keyboard-response","28","221933","0.0-28.0","407.6000003814697","<div class='center'><img src='run_exp/static/images/tutorial/blue.png' height='500'></p></div>","49","","","","","","","","","","","","","","","","","","","","","","",""
"","html-keyboard-response","29","223434","0.0-29.0","null","<div class='center'><p><img src='run_exp/static/images/tutorial/blue_win.png' height='500'></p></div>","null","","","","","","","","","","","","","","","","","","","","","","",""
"","instruc6","30","230087","0.0-30.0","null","run_exp/static/audio/clip_6_blue_beard_outcome.m4a","null","","","","","<div class='center'><p> See, he succeeded in robbing the ships most of the time but not every time. </p></div>","","","","","","","","","","","","","","","","","",""
"","html-keyboard-response","31","232441","0.0-31.0","2353.5","<div class='center'><p> See, he succeeded in robbing the ships most of the time but not every time. </p><p><b>[Press the space bar to continue]</b></p></div>","32","","","","","","","","","","","","","","","","","","","","","","",""
"","audio-keyboard-response","32","251207","0.0-32.0","18765.699999809265","run_exp/static/audio/clip_7_pick_pirate.m4a","51","","","","","","","","","","","","","","","","","","","","","","",""
"","audio-keyboard-response","33","254761","0.0-33.0-0.0","3553","run_exp/static/audio/clip_8_chosen_pirate_win.m4a","32","","","","","","","","","","","","","","","","","","","","","","",""
"","audio-keyboard-response","34","257484","0.0-33.0-1.0","2722.2000002861023","run_exp/static/audio/clip_9_pick_a_pirate_again.m4a","51","","","","","","","","","","","","","","","","","","","","","","",""
"","audio-keyboard-response","35","258992","0.0-34.0-0.0","1506","run_exp/static/audio/clip_10_chosen_pirate_loss.m4a","32","","","","","","","","","","","","","","","","","","","","","","",""
"","instruc9","36","266147","0.0-35.0-0.0","null","run_exp/static/audio/clip_11_time_out.m4a","null","","","","","<div class='center'><p>If you don’t make your choice fast enough, you’ll have to wait a few seconds before you can make another one. </p><p><img src='run_exp/static/images/miscellaneous/hurry_up.png' height='500'></p></div>","","","","","","","","","","","","","","","","","",""
"","html-keyboard-response","37","269050","0.0-35.0-1.0","2902","<div class='center'><p>If you don’t make your choice fast enough, you’ll have to wait a few seconds before you can make another one. </p><p><img src='run_exp/static/images/miscellaneous/hurry_up.png' height='500'></p><p><b>[Press the space bar to continue]</b></p></div>","32","","","","","","","","","","","","","","","","","","","","","","",""
"","instruc10","38","317671","0.0-35.0-2.0","null","run_exp/static/audio/clip_12_probe.m4a","null","","","","","<div class='center'><p>Once you've choose a pirate, you’ll be shown the ship they are robbing.</p><p>You will never rob the same ship twice. After all, ships that have already been robbed won’t have gold on them. </p><p>Ships can be told apart from one another by the image on them. See, this one has a travel mug on it. </p><p> You’ll have to remember which island you saw each ship on.You will win more bonus money if you remember correctly! To help you remember, you can imagine a story. For example, here, you could imagine a mug full of water in the desert. Or, as another example, if on the forest island, your pirate robbed a ship with an apple on it, you could imagine an apple falling from a tree in the forest. </p><p><img src='run_exp/static/images/tutorial/example_probe.png' height='500'></p></div>","","","","","","","","","","","","","","","","","",""
"","html-keyboard-response","39","319068","0.0-35.0-3.0","1396.7000002861023","<div class='center'><p>Once you've choose a pirate, you’ll be shown the ship they are robbing.</p><p>You will never rob the same ship twice. After all, ships that have already been robbed won’t have gold on them. </p><p>Ships can be told apart from one another by the image on them. See, this one has a travel mug on it. </p><p> You’ll have to remember which island you saw each ship on.You will win more bonus money if you remember correctly! To help you remember, you can imagine a story. For example, here, you could imagine a mug full of water in the desert. Or, as another example, if on the forest island, your pirate robbed a ship with an apple on it, you could imagine an apple falling from a tree in the forest. </p><p><img src='run_exp/static/images/tutorial/example_probe.png' height='500'></p><p><b>[Press the space bar to continue]</b></p></div>","32","","","","","","","","","","","","","","","","","","","","","","",""
"","instruc11","40","339962","0.0-35.0-4.0","null","run_exp/static/audio/clip_13_changepoint.m4a","null","","","","","<div class='center'><p>How successful a pirate is at robbing ships will depend on the island you’re on.</p><p> A pirate may have visited this island many times before and gained a lot of practice robbing ships there.</p><p>So, they’re more likely to be successful than a pirate who has never visited the island before.</p></div>","","","","","","","","","","","","","","","","","",""
"","html-keyboard-response","41","341828","0.0-35.0-5.0","1865.4000000953674","<div class='center'><p>How successful a pirate is at robbing ships will depend on the island you’re on.</p><p> A pirate may have visited this island many times before and gained a lot of practice robbing ships there.</p><p>So, they’re more likely to be successful than a pirate who has never visited the island before.</p><p><b>[Press the space bar to continue]</b></p></div>","32","","","","","","","","","","","","","","","","","","","","","","",""
"","instruc12","42","369869","0.0-35.0-6.0","null","run_exp/static/audio/clip_14_drift.m4a","null","","","","","<div class='center'><p>How successful a pirate is at robbing ships can also change over the time spent on the island. </p><p> Ships may hear from islanders about the pirates coming and will improve their protections against the attack. This may make it harder to rob them.</p><p> Ships may also become lazy and weaken the strength of their protections. This may make it easier to rob them.</p><br><p>Things are always changing on the high seas! So, try your best to pay attention!</p><p><img src='run_exp/static/images/tutorial/contingency.png' height='500'></p></div>","","","","","","","","","","","","","","","","","",""
"","html-keyboard-response","43","374240","0.0-35.0-7.0","4370.60000038147","<div class='center'><p>How successful a pirate is at robbing ships can also change over the time spent on the island. </p><p> Ships may hear from islanders about the pirates coming and will improve their protections against the attack. This may make it harder to rob them.</p><p> Ships may also become lazy and weaken the strength of their protections. This may make it easier to rob them.</p><br><p>Things are always changing on the high seas! So, try your best to pay attention!</p><p><img src='run_exp/static/images/tutorial/contingency.png' height='500'></p><p><b>[Press the space bar to continue]</b></p></div>","32","","","","","","","","","","","","","","","","","","","","","","",""
"","instruc13","44","418898","0.0-35.0-8.0","null","run_exp/static/audio/clip_15_summary.m4a","null","","","","","<div class='center'><p>Let's go over the instructions quickly again. You have two important things to do: </p><b><p> 1. Pick the pirate who is the best at robbing ships on the current island. This way you'll collect more gold coins!</p></b><b><p> 2. Remember on which island a ship was robbed.</p> </b><p>The amount of bonus money you can win depends on both.</p><p><br><p>Let’s try a practice game. The game will start by showing you the pirates. First, pick a pirate using the <b> 1, 2, 3 </b> keys on your keyboard. When you are shown a ship, try to remember which island you’re on by making up a story.</p><p>This is just a practice game, so you’re not playing for money. </p><p> Good luck!</p></div>","","","","","","","","","","","","","","","","","",""
"","html-keyboard-response","45","419524","0.0-35.0-9.0","625.5","<div class='center'><p>Let's go over the instructions quickly again. You have two important things to do: </p><b><p> 1. Pick the pirate who is the best at robbing ships on the current island. This way you'll collect more gold coins!</p></b><b><p> 2. Remember on which island a ship was robbed.</p> </b><p>The amount of bonus money you can win depends on both.</p><p><br><p>Let’s try a practice game. The game will start by showing you the pirates. First, pick a pirate using the <b> 1, 2, 3 </b> keys on your keyboard. When you are shown a ship, try to remember which island you’re on by making up a story.</p><p>This is just a practice game, so you’re not playing for money. </p><p> Good luck!</p><p><b>[Press the space bar to continue]</b></p></div>","32","","","","","","","","","","","","","","","","","","","","","","",""
"","do_welcome","46","421027","0.0-35.0-10.0","null","","","","","","","","null","","","","","","","","","","","","","","","","",""
"","do_trial","47","427715","0.0-35.0-11.0","2183","","","","","","","","49","1,0,0","","","","","","","","","","","","","","","",""
"","html-keyboard-response","48","428719","0.0-36.0-0.0","null","<p></p>","null","","","","","","","","","","","","","","","","","","","","","","",""
"","do_trial","49","435233","0.0-36.0-1.0","2007.4000000953674","","","","","","","","49","1,1,0","","","","","","","","","","","","","","","",""
"","html-keyboard-response","50","436237","0.0-37.0-0.0","null","<p></p>","null","","","","","","","","","","","","","","","","","","","","","","",""
"","do_trial","51","442161","0.0-37.0-1.0","1418.5","","","","","","","","49","1,0,1","","","","","","","","","","","","","","","",""
"","html-keyboard-response","52","443164","0.0-38.0-0.0","null","<p></p>","null","","","","","","","","","","","","","","","","","","","","","","",""
"","do_trial","53","449699","0.0-38.0-1.0","2029.5","","","","","","","","49","0,1,0","","","","","","","","","","","","","","","",""
"","html-keyboard-response","54","450703","0.0-39.0-0.0","null","<p></p>","null","","","","","","","","","","","","","","","","","","","","","","",""
"","do_trial","55","457273","0.0-39.0-1.0","2062.4000000953674","","","","","","","","50","1,0,0","","","","","","","","","","","","","","","",""
"","do_bye","56","458778","0.0-40.0-0.0","null","","","","","","","","null","","","","","","","","","","","","","","","","",""
"","do_travel","57","464779","0.0-40.0-1.0","null","","","","","","","","null","","","","","","","","","","","","","","","","",""
"","do_welcome","58","466287","0.0-40.0-2.0","null","","","","","","","","null","","","","","","","","","","","","","","","","",""
"","do_trial","59","471752","0.0-40.0-3.0","957.6999998092651","","","","","","","","49","1,0,0","","","","","","","","","","","","","","","",""
"","html-keyboard-response","60","472753","0.0-41.0-0.0","null","<p></p>","null","","","","","","","","","","","","","","","","","","","","","","",""
"","do_trial","61","478724","0.0-41.0-1.0","1466.8000001907349","","","","","","","","49","1,0,1","","","","","","","","","","","","","","","",""
"","html-keyboard-response","62","479727","0.0-42.0-0.0","null","<p></p>","null","","","","","","","","","","","","","","","","","","","","","","",""
"","do_trial","63","486624","0.0-42.0-1.0","2390.2000002861023","","","","","","","","49","1,1,0","","","","","","","","","","","","","","","",""
"","html-keyboard-response","64","487628","0.0-43.0-0.0","null","<p></p>","null","","","","","","","","","","","","","","","","","","","","","","",""
"","do_trial","65","494106","0.0-43.0-1.0","1971.4000000953674","","","","","","","","50","0,0,1","","","","","","","","","","","","","","","",""
"","html-keyboard-response","66","495110","0.0-44.0-0.0","null","<p></p>","null","","","","","","","","","","","","","","","","","","","","","","",""
"","do_trial","67","500607","0.0-44.0-1.0","990.8000001907349","","","","","","","","49","1,0,1","","","","","","","","","","","","","","","",""
"","html-keyboard-response","68","504408","0.0-45.0-0.0","3800.300000190735","<div class='center'><p><img src='run_exp/static/images/tutorial/prac_best_pirate.png'  height='500'></p></div>","51","","","","","","","","","","","","","","","","","","","","","","",""
"","html-keyboard-response","69","506321","0.0-46.0-0.0","1911.8000001907349","<div class='center'><p>That's incorrect! Red beard was the best.</p><p><b>[Press the space bar to continue]</b></p></div>","32","","","","","","","","","","","","","","","","","","","","","","",""
"","html-keyboard-response","70","510866","0.0-46.0-1.0","4544.5","<div class='center'><p><img src='run_exp/static/images/tutorial/prac_source.png'  height='500'></p></div>","50","","","","","","","","","","","","","","","","","","","","","","",""
"","html-keyboard-response","71","512396","0.0-47.0-0.0","1529.3999996185303","<div class='center'><p>That's correct! You saw this ship on the cavern island.</p><p><b>[Press the space bar to continue]</b></p></div>","32","","","","","","","","","","","","","","","","","","","","","","",""
"","quiz_beginning","72","525985","0.0-47.0-1.0","null","run_exp/static/audio/clip_16_quiz_intro.m4a","null","","","","","<div class='center'><p>Good job on the practice game! Now, you will be asked some true or false questions to make sure you really understand the rules of the game.</p><p> Press <b>'1'</b> on the keyboard for true and press <b>'2'</b> for false.</p></div>","","","","","","","","","","","","","","","","","",""
"","audio-keyboard-response","73","539082","0.0-47.0-2.0","13096.39999961853","run_exp/static/audio/clip_17_q1.m4a","50","","","","","","","","","","","","","","","","","","","","","","",""
"","correct","74","542053","0.0-48.0-0.0","null","run_exp/static/audio/clip_18_correct.m4a","null","","","","","<div class='center'><p>That's correct!</p></div>","","","","","","","","","","","","","","","","","",""
"","html-keyboard-response","75","543829","0.0-48.0-1.0","1775.7000002861023","<div class='center'><p>That's correct!</p><p><b>[Press the space bar to continue]</b></p></div>","32","","","","","","","","","","","","","","","","","","","","","","",""
"","audio-keyboard-response","76","548870","0.0-48.0-2.0","5039.89999961853","run_exp/static/audio/clip_20_q2.m4a","50","","","","","","","","","","","","","","","","","","","","","","",""
"","correct","77","551852","0.0-49.0-0.0","null","run_exp/static/audio/clip_18_correct.m4a","null","","","","","<div class='center'><p>That's correct!</p></div>","","","","","","","","","","","","","","","","","",""
"","html-keyboard-response","78","552549","0.0-49.0-1.0","696.2000002861023","<div class='center'><p>That's correct!</p><p><b>[Press the space bar to continue]</b></p></div>","32","","","","","","","","","","","","","","","","","","","","","","",""
"","audio-keyboard-response","79","558106","0.0-49.0-2.0","5557.099999904633","run_exp/static/audio/clip_22_q3.m4a","50","","","","","","","","","","","","","","","","","","","","","","",""
"","correct","80","561070","0.0-50.0-0.0","null","run_exp/static/audio/clip_18_correct.m4a","null","","","","","<div class='center'><p>That's correct!</p></div>","","","","","","","","","","","","","","","","","",""
"","html-keyboard-response","81","562382","0.0-50.0-1.0","1311.1999998092651","<div class='center'><p>That's correct!</p><p><b>[Press the space bar to continue]</b></p></div>","32","","","","","","","","","","","","","","","","","","","","","","",""
"","audio-keyboard-response","82","565959","0.0-50.0-2.0","3576.9000000953674","run_exp/static/audio/clip_24_q4.m4a","49","","","","","","","","","","","","","","","","","","","","","","",""
"","correct","83","568965","0.0-51.0-0.0","null","run_exp/static/audio/clip_18_correct.m4a","null","","","","","<div class='center'><p>That's correct!</p></div>","","","","","","","","","","","","","","","","","",""
"","html-keyboard-response","84","569357","0.0-51.0-1.0","391.40000009536743","<div class='center'><p>That's correct!</p><p><b>[Press the space bar to continue]</b></p></div>","32","","","","","","","","","","","","","","","","","","","","","","",""
"","q_all_corr","85","576349","0.0-52.0-0.0","null","run_exp/static/audio/clip_27_quiz_all_correct.m4a","null","","","","","<div class='center'><p>Good job! You’re now ready to move on to the real game!</p></div>","","","","","","","","","","","","","","","","","",""
"","html-keyboard-response","86","576883","0.0-52.0-1.0","533","<div class='center'><p>Good job! You’re now ready to move on to the real game!</p><p><b>[Press the space bar to continue]</b></p></div>","32","","","","","","","","","","","","","","","","","","","","","","",""
"","do_welcome","87","578387","0.0-53.0-0.0","null","","","","","","","","null","","","","","","","","","","","","","","","","",""
"","do_trial","88","584456","0.0-54.0-0.0","1532.9000000953674","","","","","","","","49","1,0,0","0","forest","0","probe-10","0.6","0.3","0.1","1","","","","","","","",""
"","html-keyboard-response","89","585458","0.0-54.0-1.0","null","<p></p>","null","","","","","","","","","","","","","","","","","","","","","","",""
"","do_trial","90","591120","0.0-55.0-0.0","1123","","","","","","","","49","1,0,0","0","forest","1","probe-30","0.6031736657492831","0.4771393319066289","0.16828142155280254","1","","","","","","","",""
"","html-keyboard-response","91","592126","0.0-55.0-1.0","null","<p></p>","null","","","","","","","","","","","","","","","","","","","","","","",""
"","do_trial","92","597463","0.0-56.0-0.0","800.5","","","","","","","","49","1,0,0","0","forest","2","probe-219","0.7329035736876195","0.34939302407263556","0.33990490397381434","1","","","","","","","",""
"","html-keyboard-response","93","598467","0.0-56.0-1.0","null","<p></p>","null","","","","","","","","","","","","","","","","","","","","","","",""
"","do_trial","94","604325","0.0-57.0-0.0","1322.5","","","","","","","","49","1,0,0","0","forest","3","probe-145","0.6616708006053827","0.3603594579291162","0.19796371974861537","1","","","","","","","",""
"","html-keyboard-response","95","605328","0.0-57.0-1.0","null","<p></p>","null","","","","","","","","","","","","","","","","","","","","","","",""
"","do_trial","96","611029","0.0-58.0-0.0","1165.9000000953674","","","","","","","","49","1,0,0","0","forest","4","probe-149","0.690386942064594","0.3302445964359734","0.14949465449361735","1","","","","","","","",""
"","html-keyboard-response","97","612033","0.0-58.0-1.0","null","<p></p>","null","","","","","","","","","","","","","","","","","","","","","","",""
"","do_trial","98","617803","0.0-59.0-0.0","1234.2000002861023","","","","","","","","49","1,1,0","0","forest","5","probe-27","0.6730459815561619","0.34427424264981066","0.06900894601286624","1","","","","","","","",""
"","html-keyboard-response","99","618808","0.0-59.0-1.0","null","<p></p>","null","","","","","","","","","","","","","","","","","","","","","","",""
"","do_trial","100","624957","0.0-60.0-0.0","1614.8999996185303","","","","","","","","49","1,0,0","0","forest","6","probe-58","0.7170795149300154","0.23186949654351025","0.07773707241433896","1","","","","","","","",""
"","html-keyboard-response","101","625959","0.0-60.0-1.0","null","<p></p>","null","","","","","","","","","","","","","","","","","","","","","","",""
"","do_trial","102","631294","0.0-61.0-0.0","797.4000000953674","","","","","","","","49","1,1,0","0","forest","7","probe-53","0.5868740138039107","0.30368658591091485","0.18445468952829408","1","","","","","","","",""
"","html-keyboard-response","103","632298","0.0-61.0-1.0","null","<p></p>","null","","","","","","","","","","","","","","","","","","","","","","",""
"","do_trial","104","638052","0.0-62.0-0.0","1219.7999997138977","","","","","","","","49","0,0,0","0","forest","8","probe-91","0.5591727550482621","0.11219725782358615","0.16528650761542935","0","","","","","","","",""
"","html-keyboard-response","105","639053","0.0-62.0-1.0","null","<p></p>","null","","","","","","","","","","","","","","","","","","","","","","",""
"","do_trial","106","644174","0.0-63.0-0.0","584.8000001907349","","","","","","","","50","0,0,0","0","forest","9","probe-01","0.5779428714272787","0.0765016940029372","0.15847103325468723","0","","","","","","","",""
"","html-keyboard-response","107","645179","0.0-63.0-1.0","null","<p></p>","null","","","","","","","","","","","","","","","","","","","","","","",""
"","do_trial","108","650410","0.0-64.0-0.0","689.3000001907349","","","","","","","","51","0,0,0","0","forest","10","probe-47","0.7142431712954154","0.14405568014158743","0.22634812914769206","0","","","","","","","",""
"","html-keyboard-response","109","651414","0.0-64.0-1.0","null","<p></p>","null","","","","","","","","","","","","","","","","","","","","","","",""
"","do_trial","110","656418","0.0-65.0-0.0","465","","","","","","","","49","1,1,0","0","forest","11","probe-90","0.6436610010577392","0.26031737975010083","0.17554681301509384","1","","","","","","","",""
"","html-keyboard-response","111","657422","0.0-65.0-1.0","null","<p></p>","null","","","","","","","","","","","","","","","","","","","","","","",""
"","do_trial","112","663122","0.0-66.0-0.0","1162.0999999046326","","","","","","","","49","0,0,0","0","forest","12","probe-139","0.6582668335780857","0.26646328551869736","0.14971792429967187","0","","","","","","","",""
"","html-keyboard-response","113","664127","0.0-66.0-1.0","null","<p></p>","null","","","","","","","","","","","","","","","","","","","","","","",""
"","do_trial","114","669781","0.0-67.0-0.0","1117.9000000953674","","","","","","","","50","1,0,1","0","forest","13","probe-208","0.7083340389500893","0.3205788826837279","0.07661311358751507","0","","","","","","","",""
"","html-keyboard-response","115","670785","0.0-67.0-1.0","null","<p></p>","null","","","","","","","","","","","","","","","","","","","","","","",""
"","do_trial","116","675899","0.0-68.0-0.0","579.2000002861023","","","","","","","","51","1,0,0","0","forest","14","probe-121","0.633394062790464","0.32699359263947597","0.056896108195717277","0","","","","","","","",""
"","html-keyboard-response","117","676903","0.0-68.0-1.0","null","<p></p>","null","","","","","","","","","","","","","","","","","","","","","","",""
"","do_trial","118","682424","0.0-69.0-0.0","987","","","","","","","","49","1,0,0","0","forest","15","probe-164","0.5877970878633697","0.3435845720357117","0.06489942405757393","1","","","","","","","",""
"","html-keyboard-response","119","683428","0.0-69.0-1.0","null","<p></p>","null","","","","","","","","","","","","","","","","","","","","","","",""
"","do_trial","120","689308","0.0-70.0-0.0","1346.0999999046326","","","","","","","","49","0,1,0","0","forest","16","probe-122","0.5056869637305402","0.24000856687008226","0.08473913758266445","0","","","","","","","",""
"","html-keyboard-response","121","690313","0.0-70.0-1.0","null","<p></p>","null","","","","","","","","","","","","","","","","","","","","","","",""
"","do_trial","122","695700","0.0-71.0-0.0","852.9000000953674","","","","","","","","50","0,0,0","0","forest","17","probe-212","0.4317773076487476","0.2572924588387426","0.1383124778886054","0","","","","","","","",""
"","html-keyboard-response","123","696704","0.0-71.0-1.0","null","<p></p>","null","","","","","","","","","","","","","","","","","","","","","","",""
"","do_trial","124","702294","0.0-72.0-0.0","1053.7000002861023","","","","","","","","51","1,1,0","0","forest","18","probe-183","0.37467938905973264","0.38469164617235296","0.05011650593784359","0","","","","","","","",""
"","html-keyboard-response","125","703298","0.0-72.0-1.0","null","<p></p>","null","","","","","","","","","","","","","","","","","","","","","","",""
"","do_trial","126","708337","0.0-73.0-0.0","502.40000009536743","","","","","","","","49","0,1,0","0","forest","19","probe-33","0.38337353826645904","0.4492459342122797","0.09812350772709648","0","","","","","","","",""
"","html-keyboard-response","127","709341","0.0-73.0-1.0","null","<p></p>","null","","","","","","","","","","","","","","","","","","","","","","",""
"","do_trial","128","714322","0.0-74.0-0.0","443.09999990463257","","","","","","","","50","0,1,1","0","forest","20","probe-200","0.45217214809964323","0.4280485831928163","0.18913799260888137","1","","","","","","","",""
"","html-keyboard-response","129","715326","0.0-74.0-1.0","null","<p></p>","null","","","","","","","","","","","","","","","","","","","","","","",""
"","do_trial","130","720372","0.0-75.0-0.0","511.59999990463257","","","","","","","","50","1,0,0","0","forest","21","probe-114","0.4455054818778312","0.4016766111337489","0.23525901418153325","0","","","","","","","",""
"","html-keyboard-response","131","721375","0.0-75.0-1.0","null","<p></p>","null","","","","","","","","","","","","","","","","","","","","","","",""
"","do_trial","132","726878","0.0-76.0-0.0","964.9000000953674","","","","","","","","51","1,1,0","0","forest","22","probe-144","0.5299282195131645","0.35997018026067323","0.2228534561223559","0","","","","","","","",""
"","html-keyboard-response","133","727882","0.0-76.0-1.0","null","<p></p>","null","","","","","","","","","","","","","","","","","","","","","","",""
"","do_trial","134","733019","0.0-77.0-0.0","600.1999998092651","","","","","","","","49","1,1,0","0","forest","23","probe-17","0.5093584309851705","0.20335795567905762","0.07493002551210699","1","","","","","","","",""
"","html-keyboard-response","135","734023","0.0-77.0-1.0","null","<p></p>","null","","","","","","","","","","","","","","","","","","","","","","",""
"","do_trial","136","739802","0.0-78.0-0.0","1242.9000000953674","","","","","","","","49","1,1,0","0","forest","24","probe-191","0.5851402617129686","0.2225960537276954","0.12874955272839866","1","","","","","","","",""
"","html-keyboard-response","137","740804","0.0-78.0-1.0","null","<p></p>","null","","","","","","","","","","","","","","","","","","","","","","",""
"","do_trial","138","746330","0.0-79.0-0.0","988.0999999046326","","","","","","","","49","0,0,0","0","forest","25","probe-26","0.507408182932176","0.20446604675136051","0.19319797713698844","0","","","","","","","",""
"","html-keyboard-response","139","747334","0.0-79.0-1.0","null","<p></p>","null","","","","","","","","","","","","","","","","","","","","","","",""
"","do_trial","140","752526","0.0-80.0-0.0","656.4000000953674","","","","","","","","50","1,1,0","0","forest","26","probe-81","0.49460535414525253","0.3009853810462134","0.12044228360139987","1","","","","","","","",""
"","html-keyboard-response","141","753528","0.0-80.0-1.0","null","<p></p>","null","","","","","","","","","","","","","","","","","","","","","","",""
"","do_trial","142","758602","0.0-81.0-0.0","538.0999999046326","","","","","","","","50","1,1,0","0","forest","27","probe-113","0.3832478882794855","0.27083504435032646","0.17094951744357245","1","","","","","","","",""
"","html-keyboard-response","143","759606","0.0-81.0-1.0","null","<p></p>","null","","","","","","","","","","","","","","","","","","","","","","",""
"","do_trial","144","765047","0.0-82.0-0.0","906.7000002861023","","","","","","","","50","0,0,1","0","forest","28","probe-22","0.3745717266472458","0.21954778637069033","0.31887187535167244","0","","","","","","","",""
"","html-keyboard-response","145","766049","0.0-82.0-1.0","null","<p></p>","null","","","","","","","","","","","","","","","","","","","","","","",""
"","do_trial","146","771158","0.0-83.0-0.0","572","","","","","","","","51","0,1,0","0","forest","29","probe-79","0.44812914809751236","0.33703938831580116","0.15490918988601038","0","","","","","","","",""
"","html-keyboard-response","147","772162","0.0-83.0-1.0","null","<p></p>","null","","","","","","","","","","","","","","","","","","","","","","",""
"","do_bye","148","773668","0.0-84.0-0.0","null","","","","","","","","null","","","","","","","","","","","","","","","","",""
"","do_travel","149","779673","0.0-85.0-0.0","null","","","","","","","","null","","","","","","","","","","","","","","","","",""
"","do_welcome","150","781177","0.0-85.0-1.0","null","","","","","","","","null","","","","","","","","","","","","","","","","",""
"","do_trial","151","787324","0.0-86.0-0.0","1611.8000001907349","","","","","","","","49","1,1,0","1","city","30","probe-06","1","0.2350237072859557","0.24034101806497085","1","","","","","","","",""
"","html-keyboard-response","152","788329","0.0-86.0-1.0","null","<p></p>","null","","","","","","","","","","","","","","","","","","","","","","",""
"","do_trial","153","793299","0.0-87.0-0.0","433.2000002861023","","","","","","","","49","1,1,0","1","city","31","probe-168","1","0.19466411618128818","0.23004232715085932","1","","","","","","","",""
"","html-keyboard-response","154","794302","0.0-87.0-1.0","null","<p></p>","null","","","","","","","","","","","","","","","","","","","","","","",""
"","do_trial","155","800072","0.0-88.0-0.0","1233.2000002861023","","","","","","","","49","1,1,0","1","city","32","probe-85","1","0.18421270281836488","0.06773106515814278","1","","","","","","","",""
"","html-keyboard-response","156","801076","0.0-88.0-1.0","null","<p></p>","null","","","","","","","","","","","","","","","","","","","","","","",""
"","do_trial","157","806092","0.0-89.0-0.0","477.90000009536743","","","","","","","","49","1,1,0","1","city","33","probe-72","0.7267678188050292","0.25582927923116283","0.18541181117730887","1","","","","","","","",""
"","html-keyboard-response","158","807096","0.0-89.0-1.0","null","<p></p>","null","","","","","","","","","","","","","","","","","","","","","","",""
"","do_trial","159","812482","0.0-90.0-0.0","848.1000003814697","","","","","","","","49","0,0,1","1","city","34","probe-155","0.7625410503777599","0.33446336299162305","0.12088678169343949","0","","","","","","","",""
"","html-keyboard-response","160","813487","0.0-90.0-1.0","null","<p></p>","null","","","","","","","","","","","","","","","","","","","","","","",""
"","do_trial","161","818648","0.0-91.0-0.0","622.0999999046326","","","","","","","","50","1,1,0","1","city","35","probe-179","0.7865058965109368","0.32698277837324957","0.10422968601087552","1","","","","","","","",""
"","html-keyboard-response","162","819649","0.0-91.0-1.0","null","<p></p>","null","","","","","","","","","","","","","","","","","","","","","","",""
"","do_trial","163","825138","0.0-92.0-0.0","951.2000002861023","","","","","","","","51","0,0,0","1","city","36","probe-187","0.6478069670153603","0.4906709178667923","0.08590547144279369","0","","","","","","","",""
"","html-keyboard-response","164","826142","0.0-92.0-1.0","null","<p></p>","null","","","","","","","","","","","","","","","","","","","","","","",""
"","do_trial","165","831561","0.0-93.0-0.0","882.8000001907349","","","","","","","","49","1,0,0","1","city","37","probe-227","0.8137053512003216","0.3951464270209434","0.12838075194654713","1","","","","","","","",""
"","html-keyboard-response","166","832565","0.0-93.0-1.0","null","<p></p>","null","","","","","","","","","","","","","","","","","","","","","","",""
"","do_trial","167","839911","0.0-94.0-0.0","2807.5","","","","","","","","49","0,0,0","1","city","38","probe-228","0.7536586097820444","0.4176360160920445","0.14180778481753176","0","","","","","","","",""
"","html-keyboard-response","168","840915","0.0-94.0-1.0","null","<p></p>","null","","","","","","","","","","","","","","","","","","","","","","",""
"","do_trial","169","846140","0.0-95.0-0.0","689.9000000953674","","","","","","","","49","1,1,0","1","city","39","probe-188","0.6441999244129375","0.42691577238545947","0.08894016266989764","1","","","","","","","",""
"","html-keyboard-response","170","847144","0.0-95.0-1.0","null","<p></p>","null","","","","","","","","","","","","","","","","","","","","","","",""
"","do_trial","171","852710","0.0-96.0-0.0","1031","","","","","","","","49","1,1,0","1","city","40","probe-104","0.7512633967210964","0.6382814232320899","0.12361719159935593","1","","","","","","","",""
"","html-keyboard-response","172","853714","0.0-96.0-1.0","null","<p></p>","null","","","","","","","","","","","","","","","","","","","","","","",""
"","do_trial","173","859114","0.0-97.0-0.0","861.0999999046326","","","","","","","","49","1,0,0","1","city","41","probe-09","0.6861009359286423","0.5479078032020306","0.18233997643342156","1","","","","","","","",""
"","html-keyboard-response","174","860118","0.0-97.0-1.0","null","<p></p>","null","","","","","","","","","","","","","","","","","","","","","","",""
"","do_trial","175","865267","0.0-98.0-0.0","613.1999998092651","","","","","","","","49","1,0,0","1","city","42","probe-169","0.4521094001990985","0.548929975074227","0.46442467483264344","1","","","","","","","",""
"","html-keyboard-response","176","866268","0.0-98.0-1.0","null","<p></p>","null","","","","","","","","","","","","","","","","","","","","","","",""
"","do_trial","177","871298","0.0-99.0-0.0","490.69999980926514","","","","","","","","49","0,1,1","1","city","43","probe-151","0.31278090672545444","0.38187440679711493","0.41945856996394276","0","","","","","","","",""
"","html-keyboard-response","178","872303","0.0-99.0-1.0","null","<p></p>","null","","","","","","","","","","","","","","","","","","","","","","",""
"","do_trial","179","877306","0.0-100.0-0.0","466.40000009536743","","","","","","","","50","0,1,1","1","city","44","probe-04","0.2669277505358927","0.404899996740572","0.4796470722167729","1","","","","","","","",""
"","html-keyboard-response","180","878311","0.0-100.0-1.0","null","<p></p>","null","","","","","","","","","","","","","","","","","","","","","","",""
"","do_trial","181","884348","0.0-101.0-0.0","null","","","","","","","","null","0,0,0","1","city","45","probe-48","0.1956752797138899","0.22351984109374862","0.5829659036091247","","","","","","","","",""
"","html-keyboard-response","182","885350","0.0-101.0-1.0","null","<p></p>","null","","","","","","","","","","","","","","","","","","","","","","",""
"","do_trial","183","890437","0.0-102.0-0.0","548.6999998092651","","","","","","","","50","0,0,1","1","city","46","probe-29","0.1747881926362072","0.18711987093519064","0.5548024458647206","0","","","","","","","",""
"","html-keyboard-response","184","891441","0.0-102.0-1.0","null","<p></p>","null","","","","","","","","","","","","","","","","","","","","","","",""
"","do_trial","185","897902","0.0-103.0-0.0","1926.6999998092651","","","","","","","","51","0,0,0","1","city","47","probe-100","0.053240319150676355","0.18696483374881434","0.5321237840802092","0","","","","","","","",""
"","html-keyboard-response","186","898906","0.0-103.0-1.0","null","<p></p>","null","","","","","","","","","","","","","","","","","","","","","","",""
"","do_trial","187","903945","0.0-104.0-0.0","503.90000009536743","","","","","","","","49","0,0,1","1","city","48","probe-19","0.2113864327014025","0.14059287124147857","0.5003256783236282","0","","","","","","","",""
"","html-keyboard-response","188","904947","0.0-104.0-1.0","null","<p></p>","null","","","","","","","","","","","","","","","","","","","","","","",""
"","do_trial","189","909843","0.0-105.0-0.0","358.1000003814697","","","","","","","","50","1,0,1","1","city","49","probe-129","0.16107869555480833","0.10378765329227754","0.4377590596150467","0","","","","","","","",""
"","html-keyboard-response","190","910847","0.0-105.0-1.0","null","<p></p>","null","","","","","","","","","","","","","","","","","","","","","","",""
"","do_trial","191","916466","0.0-106.0-0.0","1084.3000001907349","","","","","","","","51","0,0,0","1","city","50","probe-02","0.28807520753948557","0.07787478604721491","0.5365023757197236","0","","","","","","","",""
"","html-keyboard-response","192","917470","0.0-106.0-1.0","null","<p></p>","null","","","","","","","","","","","","","","","","","","","","","","",""
"","do_trial","193","922411","0.0-107.0-0.0","401.2999997138977","","","","","","","","49","0,1,0","1","city","51","probe-67","0.4014156126666974","0.1243493297749984","0.5753772192727993","0","","","","","","","",""
"","html-keyboard-response","194","923415","0.0-107.0-1.0","null","<p></p>","null","","","","","","","","","","","","","","","","","","","","","","",""
"","do_trial","195","928416","0.0-108.0-0.0","463.90000009536743","","","","","","","","50","0,0,0","1","city","52","probe-185","0.368639613548954","0.10028509875320801","0.6312489425287228","0","","","","","","","",""
"","html-keyboard-response","196","929420","0.0-108.0-1.0","null","<p></p>","null","","","","","","","","","","","","","","","","","","","","","","",""
"","do_trial","197","934380","0.0-109.0-0.0","422.90000009536743","","","","","","","","51","0,0,0","1","city","53","probe-209","0.5108380890443605","0.08022303104682678","0.6523221345551872","0","","","","","","","",""
"","html-keyboard-response","198","935384","0.0-109.0-1.0","null","<p></p>","null","","","","","","","","","","","","","","","","","","","","","","",""
"","do_trial","199","940893","0.0-110.0-0.0","971.3999996185303","","","","","","","","49","0,0,1","1","city","54","probe-99","0.37451741780836606","0.055255550131507666","0.6085285798990178","0","","","","","","","",""
"","html-keyboard-response","200","941898","0.0-110.0-1.0","null","<p></p>","null","","","","","","","","","","","","","","","","","","","","","","",""
"","do_trial","201","947575","0.0-111.0-0.0","1141.7000002861023","","","","","","","","50","0,0,1","1","city","55","probe-71","0.3684860325276194","0.050957030474869866","0.5814146134587612","0","","","","","","","",""
"","html-keyboard-response","202","948579","0.0-111.0-1.0","null","<p></p>","null","","","","","","","","","","","","","","","","","","","","","","",""
"","do_trial","203","955336","0.0-112.0-0.0","2222.3999996185303","","","","","","","","51","0,0,0","1","city","56","probe-140","0.391676283321272","0.11572258848613005","0.6020084882671181","0","","","","","","","",""
"","html-keyboard-response","204","956340","0.0-112.0-1.0","null","<p></p>","null","","","","","","","","","","","","","","","","","","","","","","",""
"","do_trial","205","961321","0.0-113.0-0.0","446.80000019073486","","","","","","","","49","0,0,0","1","city","57","probe-137","0.39359936355502584","0.07355486304670034","0.5638681680206987","0","","","","","","","",""
"","html-keyboard-response","206","962325","0.0-113.0-1.0","null","<p></p>","null","","","","","","","","","","","","","","","","","","","","","","",""
"","do_trial","207","967195","0.0-114.0-0.0","334.5","","","","","","","","50","1,0,1","1","city","58","probe-07","0.2564193240854186","0.10814074733800905","0.5632452814325943","0","","","","","","","",""
"","html-keyboard-response","208","968200","0.0-114.0-1.0","null","<p></p>","null","","","","","","","","","","","","","","","","","","","","","","",""
"","do_trial","209","973831","0.0-115.0-0.0","1097.5999999046326","","","","","","","","51","0,1,0","1","city","59","probe-165","0.4127057651159738","0.16007753037752806","0.7509118994722077","0","","","","","","","",""
"","html-keyboard-response","210","974835","0.0-115.0-1.0","null","<p></p>","null","","","","","","","","","","","","","","","","","","","","","","",""
"","do_trial","211","980872","0.0-116.0-0.0","null","","","","","","","","null","0,0,1","1","city","60","probe-138","0.3187344194241964","0.08015062162763709","0.6576483644155564","","","","","","","","",""
"","html-keyboard-response","212","981876","0.0-116.0-1.0","null","<p></p>","null","","","","","","","","","","","","","","","","","","","","","","",""
"","do_trial","213","987913","0.0-117.0-0.0","null","","","","","","","","null","0,0,1","1","city","61","probe-37","0.3598758364369645","0.18260731839417177","0.5970428252214505","","","","","","","","",""
"","html-keyboard-response","214","988917","0.0-117.0-1.0","null","<p></p>","null","","","","","","","","","","","","","","","","","","","","","","",""
"","do_trial","215","994954","0.0-118.0-0.0","null","","","","","","","","null","1,0,0","1","city","62","probe-106","0.46592197830724713","0.19608904871240362","0.6976891427214984","","","","","","","","",""
"","html-keyboard-response","216","995956","0.0-118.0-1.0","null","<p></p>","null","","","","","","","","","","","","","","","","","","","","","","",""
"","do_trial","217","1001601","0.0-119.0-0.0","1106.7999997138977","","","","","","","","49","1,0,0","1","city","63","probe-98","0.5940605202558464","0.0784946568280223","0.505168103789149","1","","","","","","","",""
"","html-keyboard-response","218","1002605","0.0-119.0-1.0","null","<p></p>","null","","","","","","","","","","","","","","","","","","","","","","",""
"","do_trial","219","1008360","0.0-120.0-0.0","1218.1999998092651","","","","","","","","49","0,0,1","1","city","64","probe-202","0.49547011342855163","0.11681621153458313","0.5736517848812536","0","","","","","","","",""
"","html-keyboard-response","220","1009379","0.0-120.0-1.0","null","<p></p>","null","","","","","","","","","","","","","","","","","","","","","","",""
"","do_trial","221","1014976","0.0-121.0-0.0","1059.0999999046326","","","","","","","","50","1,1,0","1","city","65","probe-177","0.4876167281138573","0.2056250625712485","0.5122035250949163","1","","","","","","","",""
"","html-keyboard-response","222","1015980","0.0-121.0-1.0","null","<p></p>","null","","","","","","","","","","","","","","","","","","","","","","",""
"","do_trial","223","1021501","0.0-122.0-0.0","985.1000003814697","","","","","","","","50","1,0,1","1","city","66","probe-46","0.39322329376737886","0.1285017210585316","0.6184275964905533","0","","","","","","","",""
"","html-keyboard-response","224","1022505","0.0-122.0-1.0","null","<p></p>","null","","","","","","","","","","","","","","","","","","","","","","",""
"","do_trial","225","1028095","0.0-123.0-0.0","1053.1999998092651","","","","","","","","51","0,0,0","1","city","67","probe-35","0.3676827017090484","0.07189599451072716","0.7128940552459042","0","","","","","","","",""
"","html-keyboard-response","226","1029099","0.0-123.0-1.0","null","<p></p>","null","","","","","","","","","","","","","","","","","","","","","","",""
"","do_trial","227","1034247","0.0-124.0-0.0","613","","","","","","","","49","1,1,1","1","city","68","probe-124","0.32750008772846173","0.14940030361122525","0.6783019909069247","1","","","","","","","",""
"","html-keyboard-response","228","1035249","0.0-124.0-1.0","null","<p></p>","null","","","","","","","","","","","","","","","","","","","","","","",""
"","do_trial","229","1040198","0.0-125.0-0.0","414.1000003814697","","","","","","","","49","0,1,1","1","city","69","probe-205","0.2997439512550379","0.07051076860863727","0.5725278367174296","0","","","","","","","",""
"","html-keyboard-response","230","1041202","0.0-125.0-1.0","null","<p></p>","null","","","","","","","","","","","","","","","","","","","","","","",""
"","do_bye","231","1042706","0.0-126.0-0.0","null","","","","","","","","null","","","","","","","","","","","","","","","","",""
"","do_travel","232","1048708","0.0-127.0-0.0","null","","","","","","","","null","","","","","","","","","","","","","","","","",""
"","do_welcome","233","1050212","0.0-127.0-1.0","null","","","","","","","","null","","","","","","","","","","","","","","","","",""
"","do_trial","234","1056605","0.0-128.0-0.0","1855.8000001907349","","","","","","","","49","0,0,1","2","countryside","70","probe-103","0.20524965890758945","0.10502267555798138","1","0","","","","","","","",""
"","html-keyboard-response","235","1057611","0.0-128.0-1.0","null","<p></p>","null","","","","","","","","","","","","","","","","","","","","","","",""
"","do_trial","236","1064782","0.0-129.0-0.0","2634","","","","","","","","50","0,0,1","2","countryside","71","probe-180","0.30848868387211004","0.1396431790632378","1","0","","","","","","","",""
"","html-keyboard-response","237","1065786","0.0-129.0-1.0","null","<p></p>","null","","","","","","","","","","","","","","","","","","","","","","",""
"","do_trial","238","1071608","0.0-130.0-0.0","1287.5999999046326","","","","","","","","51","0,0,1","2","countryside","72","probe-132","0.24425255844785315","0.11605164266858936","0.8972384557964728","1","","","","","","","",""
"","html-keyboard-response","239","1072612","0.0-130.0-1.0","null","<p></p>","null","","","","","","","","","","","","","","","","","","","","","","",""
"","do_trial","240","1078336","0.0-131.0-0.0","1189.1999998092651","","","","","","","","49","1,0,1","2","countryside","73","probe-50","0.2824980235434246","0.11495651683480448","0.7545678179180952","1","","","","","","","",""
"","html-keyboard-response","241","1079341","0.0-131.0-1.0","null","<p></p>","null","","","","","","","","","","","","","","","","","","","","","","",""
"","do_trial","242","1085395","0.0-132.0-0.0","1515.6999998092651","","","","","","","","49","0,0,0","2","countryside","74","probe-175","0.3092052025379493","0.1495428944751801","0.7362242802465849","0","","","","","","","",""
"","html-keyboard-response","243","1086399","0.0-132.0-1.0","null","<p></p>","null","","","","","","","","","","","","","","","","","","","","","","",""
"","do_trial","244","1092164","0.0-133.0-0.0","1229.0999999046326","","","","","","","","50","0,0,1","2","countryside","75","probe-20","0.2564608708190368","0.2082307622100278","0.7582230632479494","0","","","","","","","",""
"","html-keyboard-response","245","1093168","0.0-133.0-1.0","null","<p></p>","null","","","","","","","","","","","","","","","","","","","","","","",""
"","do_trial","246","1098590","0.0-134.0-0.0","884.8000001907349","","","","","","","","51","1,0,1","2","countryside","76","probe-186","0.3415892081998619","0.272259005795337","0.6323602255933161","1","","","","","","","",""
"","html-keyboard-response","247","1099594","0.0-134.0-1.0","null","<p></p>","null","","","","","","","","","","","","","","","","","","","","","","",""
"","do_trial","248","1106113","0.0-135.0-0.0","1985.1999998092651","","","","","","","","51","1,0,1","2","countryside","77","probe-13","0.23716106778509471","0.17120032387166323","0.6389157406606857","1","","","","","","","",""
"","html-keyboard-response","249","1107117","0.0-135.0-1.0","null","<p></p>","null","","","","","","","","","","","","","","","","","","","","","","",""
"","do_trial","250","1112121","0.0-136.0-0.0","469.7999997138977","","","","","","","","51","1,1,1","2","countryside","78","probe-92","0.44503303943634115","0.1587380031879592","0.6032694692156908","1","","","","","","","",""
"","html-keyboard-response","251","1113125","0.0-136.0-1.0","null","<p></p>","null","","","","","","","","","","","","","","","","","","","","","","",""
"","do_trial","252","1118617","0.0-137.0-0.0","953.2999997138977","","","","","","","","51","1,0,0","2","countryside","79","probe-223","0.4140418888849684","0.18196768805405028","0.48072340258854485","0","","","","","","","",""
"","html-keyboard-response","253","1119621","0.0-137.0-1.0","null","<p></p>","null","","","","","","","","","","","","","","","","","","","","","","",""
"","do_trial","254","1124689","0.0-138.0-0.0","532.0999999046326","","","","","","","","49","0,0,0","2","countryside","80","probe-51","0.5645508661234723","0.12408350141813781","0.3077185625547798","0","","","","","","","",""
"","html-keyboard-response","255","1125693","0.0-138.0-1.0","null","<p></p>","null","","","","","","","","","","","","","","","","","","","","","","",""
"","do_trial","256","1130981","0.0-139.0-0.0","749.6999998092651","","","","","","","","50","1,0,1","2","countryside","81","probe-127","0.6142769494958619","0.07605397918663435","0.30100038859858785","0","","","","","","","",""
"","html-keyboard-response","257","1131985","0.0-139.0-1.0","null","<p></p>","null","","","","","","","","","","","","","","","","","","","","","","",""
"","do_trial","258","1137570","0.0-140.0-0.0","1049.6999998092651","","","","","","","","51","1,0,1","2","countryside","82","probe-226","0.5227335340049533","0.061564573744947886","0.34108025649602774","1","","","","","","","",""
"","html-keyboard-response","259","1138574","0.0-140.0-1.0","null","<p></p>","null","","","","","","","","","","","","","","","","","","","","","","",""
"","do_trial","260","1144274","0.0-141.0-0.0","1165.5","","","","","","","","51","0,0,1","2","countryside","83","probe-204","0.6050546316440167","0.11964959622935391","0.36510603797685576","1","","","","","","","",""
"","html-keyboard-response","261","1145278","0.0-141.0-1.0","null","<p></p>","null","","","","","","","","","","","","","","","","","","","","","","",""
"","do_trial","262","1150915","0.0-142.0-0.0","1099.7000002861023","","","","","","","","51","1,0,0","2","countryside","84","probe-190","0.6211643684562418","0.08369438290777204","0.22395195404132537","0","","","","","","","",""
"","html-keyboard-response","263","1151919","0.0-142.0-1.0","null","<p></p>","null","","","","","","","","","","","","","","","","","","","","","","",""
"","do_trial","264","1156923","0.0-143.0-0.0","466.6000003814697","","","","","","","","49","1,0,0","2","countryside","85","probe-96","0.6219002129861021","0.07515360759953786","0.34768556915947363","1","","","","","","","",""
"","html-keyboard-response","265","1157927","0.0-143.0-1.0","null","<p></p>","null","","","","","","","","","","","","","","","","","","","","","","",""
"","do_trial","266","1163494","0.0-144.0-0.0","1029.3000001907349","","","","","","","","49","0,0,0","2","countryside","86","probe-146","0.6515187472212192","0.06374651454365673","0.30168200093629816","0","","","","","","","",""
"","html-keyboard-response","267","1164499","0.0-144.0-1.0","null","<p></p>","null","","","","","","","","","","","","","","","","","","","","","","",""
"","do_trial","268","1170152","0.0-145.0-0.0","1117.8000001907349","","","","","","","","50","1,0,0","2","countryside","87","probe-101","0.7201368960505876","0.10554634421313958","0.3658966341868855","0","","","","","","","",""
"","html-keyboard-response","269","1171155","0.0-145.0-1.0","null","<p></p>","null","","","","","","","","","","","","","","","","","","","","","","",""
"","do_trial","270","1176799","0.0-146.0-0.0","1110.5999999046326","","","","","","","","51","0,0,0","2","countryside","88","probe-141","0.6674322613723984","0.16910113407942595","0.238276545153716","0","","","","","","","",""
"","html-keyboard-response","271","1177803","0.0-146.0-1.0","null","<p></p>","null","","","","","","","","","","","","","","","","","","","","","","",""
"","do_trial","272","1183429","0.0-147.0-0.0","1088.5","","","","","","","","49","1,0,0","2","countryside","89","probe-49","0.7127064023270978","0.17831942724195202","0.42010138577425504","1","","","","","","","",""
"","html-keyboard-response","273","1184433","0.0-147.0-1.0","null","<p></p>","null","","","","","","","","","","","","","","","","","","","","","","",""
"","do_trial","274","1190650","0.0-148.0-0.0","1682","","","","","","","","50","1,0,1","2","countryside","90","probe-210","0.8088029686357768","0.11984430096131565","0.4658969605651987","0","","","","","","","",""
"","html-keyboard-response","275","1191653","0.0-148.0-1.0","null","<p></p>","null","","","","","","","","","","","","","","","","","","","","","","",""
"","do_trial","276","1196872","0.0-149.0-0.0","683.5","","","","","","","","51","1,0,0","2","countryside","91","probe-75","0.6720581148418193","0.05034783747728988","0.39843229446680006","0","","","","","","","",""
"","html-keyboard-response","277","1197877","0.0-149.0-1.0","null","<p></p>","null","","","","","","","","","","","","","","","","","","","","","","",""
"","do_trial","278","1204286","0.0-150.0-0.0","1873.2000002861023","","","","","","","","49","1,1,0","2","countryside","92","probe-218","0.5565223712682202","0.14186306103824323","0.3812738196452554","1","","","","","","","",""
"","html-keyboard-response","279","1205289","0.0-150.0-1.0","null","<p></p>","null","","","","","","","","","","","","","","","","","","","","","","",""
"","do_trial","280","1211263","0.0-151.0-0.0","1436.6999998092651","","","","","","","","50","1,0,1","2","countryside","93","probe-97","0.48427783779237865","0.1157632035659603","0.35310279593637645","0","","","","","","","",""
"","html-keyboard-response","281","1212267","0.0-151.0-1.0","null","<p></p>","null","","","","","","","","","","","","","","","","","","","","","","",""
"","do_trial","282","1217788","0.0-152.0-0.0","983.8000001907349","","","","","","","","51","0,1,1","2","countryside","94","probe-118","0.5164039367960271","0.11683987278969196","0.4545769772622528","1","","","","","","","",""
"","html-keyboard-response","283","1218791","0.0-152.0-1.0","null","<p></p>","null","","","","","","","","","","","","","","","","","","","","","","",""
"","do_trial","284","1223748","0.0-153.0-0.0","422.19999980926514","","","","","","","","51","0,1,1","2","countryside","95","probe-57","0.6390777345929947","0.17748280814435297","0.4939768980545526","1","","","","","","","",""
"","html-keyboard-response","285","1224749","0.0-153.0-1.0","null","<p></p>","null","","","","","","","","","","","","","","","","","","","","","","",""
"","do_trial","286","1231353","0.0-154.0-0.0","2069.199999809265","","","","","","","","51","1,0,1","2","countryside","96","probe-40","0.5232297849219034","0.18898336211696035","0.5225690653349407","1","","","","","","","",""
"","html-keyboard-response","287","1232355","0.0-154.0-1.0","null","<p></p>","null","","","","","","","","","","","","","","","","","","","","","","",""
"","do_trial","288","1237925","0.0-155.0-0.0","1033.3999996185303","","","","","","","","51","1,0,1","2","countryside","97","probe-206","0.48218457725133435","0.054494944077075565","0.5561444768005146","1","","","","","","","",""
"","html-keyboard-response","289","1238929","0.0-155.0-1.0","null","<p></p>","null","","","","","","","","","","","","","","","","","","","","","","",""
"","do_trial","290","1243887","0.0-156.0-0.0","422","","","","","","","","51","0,0,1","2","countryside","98","probe-28","0.6797833422460172","0.09250833611235948","0.5063645347565527","1","","","","","","","",""
"","html-keyboard-response","291","1244891","0.0-156.0-1.0","null","<p></p>","null","","","","","","","","","","","","","","","","","","","","","","",""
"","do_trial","292","1250202","0.0-157.0-0.0","771.5999999046326","","","","","","","","51","1,0,1","2","countryside","99","probe-131","0.861571011823049","0.1141193777352656","0.46065939943771145","1","","","","","","","",""
"","html-keyboard-response","293","1251207","0.0-157.0-1.0","null","<p></p>","null","","","","","","","","","","","","","","","","","","","","","","",""
"","do_trial","294","1256826","0.0-158.0-0.0","1081.7000002861023","","","","","","","","51","1,0,0","2","countryside","100","probe-14","0.6225321928773968","0.06827875336880795","0.4530500232447854","0","","","","","","","",""
"","html-keyboard-response","295","1257830","0.0-158.0-1.0","null","<p></p>","null","","","","","","","","","","","","","","","","","","","","","","",""
"","do_trial","296","1262731","0.0-159.0-0.0","366","","","","","","","","49","0,0,0","2","countryside","101","probe-230","0.6236594085786973","0.06367861600481244","0.3532032782818413","0","","","","","","","",""
"","html-keyboard-response","297","1263734","0.0-159.0-1.0","null","<p></p>","null","","","","","","","","","","","","","","","","","","","","","","",""
"","do_trial","298","1268807","0.0-160.0-0.0","537.9000000953674","","","","","","","","50","0,0,0","2","countryside","102","probe-39","0.5593441198156652","0.10551036203383035","0.34507117879619587","0","","","","","","","",""
"","html-keyboard-response","299","1269811","0.0-160.0-1.0","null","<p></p>","null","","","","","","","","","","","","","","","","","","","","","","",""
"","do_trial","300","1275029","0.0-161.0-0.0","682.0999999046326","","","","","","","","51","1,0,1","2","countryside","103","probe-178","0.579934212189936","0.11640376600911133","0.3908453114037546","1","","","","","","","",""
"","html-keyboard-response","301","1276034","0.0-161.0-1.0","null","<p></p>","null","","","","","","","","","","","","","","","","","","","","","","",""
"","do_trial","302","1280968","0.0-162.0-0.0","398.19999980926514","","","","","","","","51","0,0,1","2","countryside","104","probe-126","0.5344831527990378","0.14252762597341456","0.5047551160275446","1","","","","","","","",""
"","html-keyboard-response","303","1281973","0.0-162.0-1.0","null","<p></p>","null","","","","","","","","","","","","","","","","","","","","","","",""
"","do_trial","304","1288348","0.0-163.0-0.0","1840.4000000953674","","","","","","","","51","1,0,1","2","countryside","105","probe-73","0.5903726326348442","0.23921634189490273","0.6075266974554088","1","","","","","","","",""
"","html-keyboard-response","305","1289351","0.0-163.0-1.0","null","<p></p>","null","","","","","","","","","","","","","","","","","","","","","","",""
"","do_trial","306","1295388","0.0-164.0-0.0","null","","","","","","","","null","0,0,0","2","countryside","106","probe-160","0.5703542735400382","0.13223893808571086","0.3840932044021721","","","","","","","","",""
"","html-keyboard-response","307","1296392","0.0-164.0-1.0","null","<p></p>","null","","","","","","","","","","","","","","","","","","","","","","",""
"","do_trial","308","1302357","0.0-165.0-0.0","1429","","","","","","","","51","1,0,0","2","countryside","107","probe-225","0.5470609744862643","0.17720814521315859","0.336067383313738","0","","","","","","","",""
"","html-keyboard-response","309","1303362","0.0-165.0-1.0","null","<p></p>","null","","","","","","","","","","","","","","","","","","","","","","",""
"","do_trial","310","1308536","0.0-166.0-0.0","634.7000002861023","","","","","","","","49","0,0,0","2","countryside","108","probe-214","0.6326651963920878","0.12391494567395966","0.4047127754251274","0","","","","","","","",""
"","html-keyboard-response","311","1309540","0.0-166.0-1.0","null","<p></p>","null","","","","","","","","","","","","","","","","","","","","","","",""
"","do_trial","312","1314585","0.0-167.0-0.0","508.59999990463257","","","","","","","","50","0,0,0","2","countryside","109","probe-102","0.5242241278306914","0.0709440968217536","0.3120912967422099","0","","","","","","","",""
"","html-keyboard-response","313","1315589","0.0-167.0-1.0","null","<p></p>","null","","","","","","","","","","","","","","","","","","","","","","",""
"","do_bye","314","1317092","0.0-168.0-0.0","null","","","","","","","","null","","","","","","","","","","","","","","","","",""
"","do_travel","315","1323094","0.0-169.0-0.0","null","","","","","","","","null","","","","","","","","","","","","","","","","",""
"","do_welcome","316","1324598","0.0-169.0-1.0","null","","","","","","","","null","","","","","","","","","","","","","","","","",""
"","do_trial","317","1330873","0.0-170.0-0.0","1741.5999999046326","","","","","","","","51","1,1,1","3","highway","110","probe-89","1","0.17075879951260525","0.351445126628501","1","","","","","","","",""
"","html-keyboard-response","318","1331877","0.0-170.0-1.0","null","<p></p>","null","","","","","","","","","","","","","","","","","","","","","","",""
"","do_trial","319","1337915","0.0-171.0-0.0","null","","","","","","","","null","1,0,1","3","highway","111","probe-41","1","0.2452261973790276","0.4614319402036545","","","","","","","","",""
"","html-keyboard-response","320","1338919","0.0-171.0-1.0","null","<p></p>","null","","","","","","","","","","","","","","","","","","","","","","",""
"","do_trial","321","1344956","0.0-172.0-0.0","null","","","","","","","","null","1,0,0","3","highway","112","probe-199","0.9038933398086623","0.14040767057350972","0.37083589627125335","","","","","","","","",""
"","html-keyboard-response","322","1345960","0.0-172.0-1.0","null","<p></p>","null","","","","","","","","","","","","","","","","","","","","","","",""
"","do_trial","323","1351997","0.0-173.0-0.0","null","","","","","","","","null","0,0,0","3","highway","113","probe-156","0.7299409154708296","0.13845083756688056","0.2453904799756301","","","","","","","","",""
"","html-keyboard-response","324","1353002","0.0-173.0-1.0","null","<p></p>","null","","","","","","","","","","","","","","","","","","","","","","",""
"","do_trial","325","1359039","0.0-174.0-0.0","null","","","","","","","","null","0,1,0","3","highway","114","probe-55","0.6364840383776231","0.07648834940271484","0.20992589723212526","","","","","","","","",""
"","html-keyboard-response","326","1360040","0.0-174.0-1.0","null","<p></p>","null","","","","","","","","","","","","","","","","","","","","","","",""
"","do_trial","327","1366663","0.0-175.0-0.0","2086.7999997138977","","","","","","","","51","0,0,0","3","highway","115","probe-87","0.4895470728891164","0.07678426093049626","0.26187677832556977","0","","","","","","","",""
"","html-keyboard-response","328","1367665","0.0-175.0-1.0","null","<p></p>","null","","","","","","","","","","","","","","","","","","","","","","",""
"","do_trial","329","1372976","0.0-176.0-0.0","773.5999999046326","","","","","","","","49","0,0,0","3","highway","116","probe-59","0.5070998581432423","0.08697578129315221","0.31327880626486226","0","","","","","","","",""
"","html-keyboard-response","330","1373981","0.0-176.0-1.0","null","<p></p>","null","","","","","","","","","","","","","","","","","","","","","","",""
"","do_trial","331","1379037","0.0-177.0-0.0","522.1999998092651","","","","","","","","50","0,0,0","3","highway","117","probe-44","0.5619746961816695","0.09291425867744313","0.2564037068545705","0","","","","","","","",""
"","html-keyboard-response","332","1380041","0.0-177.0-1.0","null","<p></p>","null","","","","","","","","","","","","","","","","","","","","","","",""
"","do_trial","333","1385488","0.0-178.0-0.0","908.2000002861023","","","","","","","","51","0,0,0","3","highway","118","probe-162","0.5319243771211571","0.06426036683182665","0.23676422023898844","0","","","","","","","",""
"","html-keyboard-response","334","1386490","0.0-178.0-1.0","null","<p></p>","null","","","","","","","","","","","","","","","","","","","","","","",""
"","do_trial","335","1391910","0.0-179.0-0.0","882.7000002861023","","","","","","","","49","1,0,1","3","highway","119","probe-194","0.606001962559078","0.11157097178939271","0.3501291812835634","1","","","","","","","",""
"","html-keyboard-response","336","1392916","0.0-179.0-1.0","null","<p></p>","null","","","","","","","","","","","","","","","","","","","","","","",""
"","do_trial","337","1397938","0.0-180.0-0.0","486.69999980926514","","","","","","","","49","1,1,0","3","highway","120","probe-69","0.6379669058722693","0.17788531521463846","0.2742033796075133","1","","","","","","","",""
"","html-keyboard-response","338","1398941","0.0-180.0-1.0","null","<p></p>","null","","","","","","","","","","","","","","","","","","","","","","",""
"","do_trial","339","1404962","0.0-181.0-0.0","1482.5","","","","","","","","49","1,0,1","3","highway","121","probe-95","0.5770845000752703","0.25613773344276686","0.49101831892018283","1","","","","","","","",""
"","html-keyboard-response","340","1405966","0.0-181.0-1.0","null","<p></p>","null","","","","","","","","","","","","","","","","","","","","","","",""
"","do_trial","341","1412275","0.0-182.0-0.0","1770.7000002861023","","","","","","","","49","0,0,0","3","highway","122","probe-171","0.3525761805968972","0.6020046403389485","0.38645832793347545","0","","","","","","","",""
"","html-keyboard-response","342","1413280","0.0-182.0-1.0","null","<p></p>","null","","","","","","","","","","","","","","","","","","","","","","",""
"","do_trial","343","1419349","0.0-183.0-0.0","1532.7999997138977","","","","","","","","50","0,1,0","3","highway","123","probe-60","0.3699160517076252","0.6076698122057214","0.2989179290130419","1","","","","","","","",""
"","html-keyboard-response","344","1420350","0.0-183.0-1.0","null","<p></p>","null","","","","","","","","","","","","","","","","","","","","","","",""
"","do_trial","345","1425592","0.0-184.0-0.0","706.5999999046326","","","","","","","","50","0,0,1","3","highway","124","probe-109","0.28904511160802604","0.6263224868953717","0.3502537372959551","0","","","","","","","",""
"","html-keyboard-response","346","1426596","0.0-184.0-1.0","null","<p></p>","null","","","","","","","","","","","","","","","","","","","","","","",""
"","do_trial","347","1432634","0.0-185.0-0.0","null","","","","","","","","null","0,0,0","3","highway","125","probe-176","0.10532835872806048","0.7034658917860951","0.3526196653119159","","","","","","","","",""
"","html-keyboard-response","348","1433638","0.0-185.0-1.0","null","<p></p>","null","","","","","","","","","","","","","","","","","","","","","","",""
"","do_trial","349","1439675","0.0-186.0-0.0","null","","","","","","","","null","0,0,0","3","highway","126","probe-52","0.11870380774651168","0.6837190974865632","0.3488923700377425","","","","","","","","",""
"","html-keyboard-response","350","1440679","0.0-186.0-1.0","null","<p></p>","null","","","","","","","","","","","","","","","","","","","","","","",""
"","do_trial","351","1446716","0.0-187.0-0.0","null","","","","","","","","null","0,0,0","3","highway","127","probe-80","0.11394184336490196","0.483906726034399","0.3225042963371369","","","","","","","","",""
"","html-keyboard-response","352","1447720","0.0-187.0-1.0","null","<p></p>","null","","","","","","","","","","","","","","","","","","","","","","",""
"","do_trial","353","1453758","0.0-188.0-0.0","null","","","","","","","","null","0,1,0","3","highway","128","probe-193","0.13118836454996693","0.5146650373378097","0.37108440991970326","","","","","","","","",""
"","html-keyboard-response","354","1454761","0.0-188.0-1.0","null","<p></p>","null","","","","","","","","","","","","","","","","","","","","","","",""
"","do_trial","355","1461651","0.0-189.0-0.0","2349.0999999046326","","","","","","","","51","0,1,0","3","highway","129","probe-207","0.18411991097205138","0.6207625367246129","0.44502302324748394","0","","","","","","","",""
"","html-keyboard-response","356","1462654","0.0-189.0-1.0","null","<p></p>","null","","","","","","","","","","","","","","","","","","","","","","",""
"","do_trial","357","1467533","0.0-190.0-0.0","343.59999990463257","","","","","","","","49","1,1,0","3","highway","130","probe-148","0.16604953338699577","0.6966226358536315","0.36483096943299165","1","","","","","","","",""
"","html-keyboard-response","358","1468537","0.0-190.0-1.0","null","<p></p>","null","","","","","","","","","","","","","","","","","","","","","","",""
"","do_trial","359","1473465","0.0-191.0-0.0","390.3999996185303","","","","","","","","49","0,1,0","3","highway","131","probe-120","0.09277490041500785","0.7116710061607642","0.42964515955279936","0","","","","","","","",""
"","html-keyboard-response","360","1474470","0.0-191.0-1.0","null","<p></p>","null","","","","","","","","","","","","","","","","","","","","","","",""
"","do_trial","361","1479942","0.0-192.0-0.0","937.7000002861023","","","","","","","","50","0,1,0","3","highway","132","probe-78","0.06894751735322795","0.6693775135854669","0.2634394276324021","1","","","","","","","",""
"","html-keyboard-response","362","1480944","0.0-192.0-1.0","null","<p></p>","null","","","","","","","","","","","","","","","","","","","","","","",""
"","do_trial","363","1486793","0.0-193.0-0.0","1314.9000000953674","","","","","","","","50","0,1,0","3","highway","133","probe-174","0.07371080530116138","0.8782513361620761","0.31796738796183144","1","","","","","","","",""
"","html-keyboard-response","364","1487798","0.0-193.0-1.0","null","<p></p>","null","","","","","","","","","","","","","","","","","","","","","","",""
"","do_trial","365","1492894","0.0-194.0-0.0","559","","","","","","","","50","0,1,0","3","highway","134","probe-15","0.0603920129750641","0.8207687832466146","0.4564185691634075","1","","","","","","","",""
"","html-keyboard-response","366","1493899","0.0-194.0-1.0","null","<p></p>","null","","","","","","","","","","","","","","","","","","","","","","",""
"","do_trial","367","1498798","0.0-195.0-0.0","364.40000009536743","","","","","","","","50","0,0,1","3","highway","135","probe-63","0.2619251499421453","0.6648545842651212","0.4627898846930368","0","","","","","","","",""
"","html-keyboard-response","368","1499802","0.0-195.0-1.0","null","<p></p>","null","","","","","","","","","","","","","","","","","","","","","","",""
"","do_trial","369","1505079","0.0-196.0-0.0","738.3000001907349","","","","","","","","51","1,0,0","3","highway","136","probe-182","0.16800290530375145","0.7607253037259213","0.30554960852255497","0","","","","","","","",""
"","html-keyboard-response","370","1506082","0.0-196.0-1.0","null","<p></p>","null","","","","","","","","","","","","","","","","","","","","","","",""
"","do_trial","371","1511094","0.0-197.0-0.0","477.2999997138977","","","","","","","","49","1,0,0","3","highway","137","probe-211","0.19743136662963637","0.652685513040218","0.2529939947291246","1","","","","","","","",""
"","html-keyboard-response","372","1512097","0.0-197.0-1.0","null","<p></p>","null","","","","","","","","","","","","","","","","","","","","","","",""
"","do_trial","373","1517698","0.0-198.0-0.0","1065.9000000953674","","","","","","","","49","0,1,0","3","highway","138","probe-161","0.1389941521932972","0.6548518245957428","0.2675458325564543","0","","","","","","","",""
"","html-keyboard-response","374","1518703","0.0-198.0-1.0","null","<p></p>","null","","","","","","","","","","","","","","","","","","","","","","",""
"","do_trial","375","1523631","0.0-199.0-0.0","389.7000002861023","","","","","","","","50","0,1,0","3","highway","139","probe-135","0.08418756454909522","0.49279360158190133","0.3132037547749266","1","","","","","","","",""
"","html-keyboard-response","376","1524636","0.0-199.0-1.0","null","<p></p>","null","","","","","","","","","","","","","","","","","","","","","","",""
"","do_trial","377","1529581","0.0-200.0-0.0","408","","","","","","","","50","1,0,0","3","highway","140","probe-147","0.0846123215028428","0.448069566533286","0.3305782274105389","0","","","","","","","",""
"","html-keyboard-response","378","1530586","0.0-200.0-1.0","null","<p></p>","null","","","","","","","","","","","","","","","","","","","","","","",""
"","do_trial","379","1535833","0.0-201.0-0.0","713.6999998092651","","","","","","","","51","0,0,1","3","highway","141","probe-133","0.11618008076122323","0.42235157585534966","0.3193346007256983","1","","","","","","","",""
"","html-keyboard-response","380","1536837","0.0-201.0-1.0","null","<p></p>","null","","","","","","","","","","","","","","","","","","","","","","",""
"","do_trial","381","1541789","0.0-202.0-0.0","414.09999990463257","","","","","","","","51","0,0,1","3","highway","142","probe-70","0.1162654418085735","0.5172150739649892","0.3600255990066145","1","","","","","","","",""
"","html-keyboard-response","382","1542793","0.0-202.0-1.0","null","<p></p>","null","","","","","","","","","","","","","","","","","","","","","","",""
"","do_trial","383","1548482","0.0-203.0-0.0","1152","","","","","","","","51","0,1,0","3","highway","143","probe-84","0.06532920542601665","0.6949703076050663","0.2579986861870143","0","","","","","","","",""
"","html-keyboard-response","384","1549486","0.0-203.0-1.0","null","<p></p>","null","","","","","","","","","","","","","","","","","","","","","","",""
"","do_trial","385","1554501","0.0-204.0-0.0","476.80000019073486","","","","","","","","49","0,1,0","3","highway","144","probe-45","0.15530436626631347","0.5684412999395773","0.22613869667282324","0","","","","","","","",""
"","html-keyboard-response","386","1555506","0.0-204.0-1.0","null","<p></p>","null","","","","","","","","","","","","","","","","","","","","","","",""
"","do_trial","387","1560641","0.0-205.0-0.0","600.5999999046326","","","","","","","","50","0,1,0","3","highway","145","probe-66","0.13695378824235377","0.608088544597161","0.20996915351678325","1","","","","","","","",""
"","html-keyboard-response","388","1561642","0.0-205.0-1.0","null","<p></p>","null","","","","","","","","","","","","","","","","","","","","","","",""
"","do_trial","389","1567505","0.0-206.0-0.0","1327","","","","","","","","50","0,0,0","3","highway","146","probe-158","0.054697933719104405","0.6030990492942493","0.23865515928389797","0","","","","","","","",""
"","html-keyboard-response","390","1568509","0.0-206.0-1.0","null","<p></p>","null","","","","","","","","","","","","","","","","","","","","","","",""
"","do_trial","391","1574291","0.0-207.0-0.0","1243.7000002861023","","","","","","","","51","0,1,1","3","highway","147","probe-216","0.0937546643663678","0.7786935561448054","0.30795590194774014","1","","","","","","","",""
"","html-keyboard-response","392","1575295","0.0-207.0-1.0","null","<p></p>","null","","","","","","","","","","","","","","","","","","","","","","",""
"","do_trial","393","1580183","0.0-208.0-0.0","353","","","","","","","","51","0,1,0","3","highway","148","probe-166","0.06490243976198867","0.5013513904329996","0.2876723452364195","0","","","","","","","",""
"","html-keyboard-response","394","1581187","0.0-208.0-1.0","null","<p></p>","null","","","","","","","","","","","","","","","","","","","","","","",""
"","do_trial","395","1586597","0.0-209.0-0.0","875.2999997138977","","","","","","","","49","1,0,0","3","highway","149","probe-74","0.17153369073757496","0.5576471503902125","0.2569510651456087","1","","","","","","","",""
"","html-keyboard-response","396","1587601","0.0-209.0-1.0","null","<p></p>","null","","","","","","","","","","","","","","","","","","","","","","",""
"","do_bye","397","1589105","0.0-210.0-0.0","null","","","","","","","","null","","","","","","","","","","","","","","","","",""
"","do_travel","398","1595107","0.0-211.0-0.0","null","","","","","","","","null","","","","","","","","","","","","","","","","",""
"","do_welcome","399","1596611","0.0-211.0-1.0","null","","","","","","","","null","","","","","","","","","","","","","","","","",""
"","do_trial","400","1603539","0.0-212.0-0.0","2394","","","","","","","","49","1,1,1","4","mountain","150","probe-195","0.08940777200999132","1","0.2799525883427174","1","","","","","","","",""
"","html-keyboard-response","401","1604540","0.0-212.0-1.0","null","<p></p>","null","","","","","","","","","","","","","","","","","","","","","","",""
"","do_trial","402","1611011","0.0-213.0-0.0","1882.9000000953674","","","","","","","","49","0,1,0","4","mountain","151","probe-83","0.11485985888961413","1","0.15157012096153402","0","","","","","","","",""
"","html-keyboard-response","403","1612360","0.0-213.0-1.0","null","<p></p>","null","","","","","","","","","","","","","","","","","","","","","","",""
"","do_trial","404","1617500","0.0-214.0-0.0","604.8000001907349","","","","","","","","50","0,1,0","4","mountain","152","probe-31","0.14384693529856724","0.8516605944828065","0.0703389650207456","1","","","","","","","",""
"","html-keyboard-response","405","1618503","0.0-214.0-1.0","null","<p></p>","null","","","","","","","","","","","","","","","","","","","","","","",""
"","do_trial","406","1623575","0.0-215.0-0.0","538","","","","","","","","50","0,0,0","4","mountain","153","probe-150","0.27516393676119977","0.783336246492502","0.15363885705048894","0","","","","","","","",""
"","html-keyboard-response","407","1624602","0.0-215.0-1.0","null","<p></p>","null","","","","","","","","","","","","","","","","","","","","","","",""
"","do_trial","408","1629670","0.0-216.0-0.0","533.0999999046326","","","","","","","","51","0,1,1","4","mountain","154","probe-196","0.13843084093608457","0.6599437231006752","0.22928577980269618","1","","","","","","","",""
"","html-keyboard-response","409","1630673","0.0-216.0-1.0","null","<p></p>","null","","","","","","","","","","","","","","","","","","","","","","",""
"","do_trial","410","1635951","0.0-217.0-0.0","742.5","","","","","","","","51","1,0,1","4","mountain","155","probe-110","0.06284123269037513","0.6301517059372976","0.29823434609278177","1","","","","","","","",""
"","html-keyboard-response","411","1636955","0.0-217.0-1.0","null","<p></p>","null","","","","","","","","","","","","","","","","","","","","","","",""
"","do_trial","412","1641935","0.0-218.0-0.0","446.90000009536743","","","","","","","","51","1,1,0","4","mountain","156","probe-94","0.138882907876213","0.6547082533742051","0.16070539077568427","0","","","","","","","",""
"","html-keyboard-response","413","1642937","0.0-218.0-1.0","null","<p></p>","null","","","","","","","","","","","","","","","","","","","","","","",""
"","do_trial","414","1648733","0.0-219.0-0.0","1259.5999999046326","","","","","","","","49","0,1,0","4","mountain","157","probe-134","0.1784346532075313","0.6970168211941655","0.26845152877068285","0","","","","","","","",""
"","html-keyboard-response","415","1649737","0.0-219.0-1.0","null","<p></p>","null","","","","","","","","","","","","","","","","","","","","","","",""
"","do_trial","416","1655246","0.0-220.0-0.0","972.3000001907349","","","","","","","","50","0,0,0","4","mountain","158","probe-05","0.17972319697782502","0.6072357085591515","0.2117738487348685","0","","","","","","","",""
"","html-keyboard-response","417","1656249","0.0-220.0-1.0","null","<p></p>","null","","","","","","","","","","","","","","","","","","","","","","",""
"","do_trial","418","1661289","0.0-221.0-0.0","502.59999990463257","","","","","","","","51","0,1,1","4","mountain","159","probe-217","0.14441705171188773","0.5468696481538654","0.4347001497790435","1","","","","","","","",""
"","html-keyboard-response","419","1662293","0.0-221.0-1.0","null","<p></p>","null","","","","","","","","","","","","","","","","","","","","","","",""
"","do_trial","420","1667332","0.0-222.0-0.0","500.30000019073486","","","","","","","","51","0,0,0","4","mountain","160","probe-11","0.22810818211247813","0.6131450442501089","0.33090842039104396","0","","","","","","","",""
"","html-keyboard-response","421","1668336","0.0-222.0-1.0","null","<p></p>","null","","","","","","","","","","","","","","","","","","","","","","",""
"","do_trial","422","1673741","0.0-223.0-0.0","869.1999998092651","","","","","","","","49","0,0,1","4","mountain","161","probe-152","0.36919955785249386","0.49481999568930024","0.43657486166631004","0","","","","","","","",""
"","html-keyboard-response","423","1674744","0.0-223.0-1.0","null","<p></p>","null","","","","","","","","","","","","","","","","","","","","","","",""
"","do_trial","424","1679726","0.0-224.0-0.0","446.80000019073486","","","","","","","","50","0,1,0","4","mountain","162","probe-203","0.32128153158346867","0.4019316495935801","0.5225554055218311","1","","","","","","","",""
"","html-keyboard-response","425","1680730","0.0-224.0-1.0","null","<p></p>","null","","","","","","","","","","","","","","","","","","","","","","",""
"","do_trial","426","1686018","0.0-225.0-0.0","751.5","","","","","","","","51","0,1,0","4","mountain","163","probe-119","0.23823111566059083","0.3041527523154933","0.5274609716805359","0","","","","","","","",""
"","html-keyboard-response","427","1687022","0.0-225.0-1.0","null","<p></p>","null","","","","","","","","","","","","","","","","","","","","","","",""
"","do_trial","428","1692015","0.0-226.0-0.0","454.3999996185303","","","","","","","","49","0,1,0","4","mountain","164","probe-125","0.21822297431815593","0.43857241692355337","0.44357767918691127","0","","","","","","","",""
"","html-keyboard-response","429","1693019","0.0-226.0-1.0","null","<p></p>","null","","","","","","","","","","","","","","","","","","","","","","",""
"","do_trial","430","1698034","0.0-227.0-0.0","477.1000003814697","","","","","","","","50","0,0,1","4","mountain","165","probe-198","0.09067626718620947","0.34781094811936897","0.4571922406050614","0","","","","","","","",""
"","html-keyboard-response","431","1699036","0.0-227.0-1.0","null","<p></p>","null","","","","","","","","","","","","","","","","","","","","","","",""
"","do_trial","432","1703949","0.0-228.0-0.0","376.7999997138977","","","","","","","","51","0,1,1","4","mountain","166","probe-25","0.07769034919725934","0.37213754065155313","0.6863691246048073","1","","","","","","","",""
"","html-keyboard-response","433","1704954","0.0-228.0-1.0","null","<p></p>","null","","","","","","","","","","","","","","","","","","","","","","",""
"","do_trial","434","1709957","0.0-229.0-0.0","467.6000003814697","","","","","","","","51","0,0,1","4","mountain","167","probe-192","0.094559822430581","0.2098937477082189","0.785661996172211","1","","","","","","","",""
"","html-keyboard-response","435","1710961","0.0-229.0-1.0","null","<p></p>","null","","","","","","","","","","","","","","","","","","","","","","",""
"","do_trial","436","1715873","0.0-230.0-0.0","378.09999990463257","","","","","","","","51","0,0,1","4","mountain","168","probe-123","0.16195929735525197","0.32477891422247834","0.6780246532996431","1","","","","","","","",""
"","html-keyboard-response","437","1716877","0.0-230.0-1.0","null","<p></p>","null","","","","","","","","","","","","","","","","","","","","","","",""
"","do_trial","438","1722736","0.0-231.0-0.0","1324.5","","","","","","","","51","1,1,1","4","mountain","169","probe-32","0.1867736595110269","0.35586308114157994","0.6876608634373271","1","","","","","","","",""
"","html-keyboard-response","439","1723737","0.0-231.0-1.0","null","<p></p>","null","","","","","","","","","","","","","","","","","","","","","","",""
"","do_trial","440","1728882","0.0-232.0-0.0","600.6999998092651","","","","","","","","51","0,1,1","4","mountain","170","probe-181","0.15930800308788662","0.32054811925294807","0.6777583685021789","1","","","","","","","",""
"","html-keyboard-response","441","1729887","0.0-232.0-1.0","null","<p></p>","null","","","","","","","","","","","","","","","","","","","","","","",""
"","do_trial","442","1735449","0.0-233.0-0.0","1027.3000001907349","","","","","","","","51","0,0,1","4","mountain","171","probe-12","0.062442206310576884","0.29461053752641375","0.588372006468287","1","","","","","","","",""
"","html-keyboard-response","443","1736451","0.0-233.0-1.0","null","<p></p>","null","","","","","","","","","","","","","","","","","","","","","","",""
"","do_trial","444","1741380","0.0-234.0-0.0","392.7999997138977","","","","","","","","51","0,1,1","4","mountain","172","probe-222","0.07013573206679512","0.2943522701191644","0.6620041721486424","1","","","","","","","",""
"","html-keyboard-response","445","1742384","0.0-234.0-1.0","null","<p></p>","null","","","","","","","","","","","","","","","","","","","","","","",""
"","do_trial","446","1747422","0.0-235.0-0.0","501.59999990463257","","","","","","","","51","0,1,0","4","mountain","173","probe-111","0.12975606197499237","0.3956625277895047","0.6474309553073762","0","","","","","","","",""
"","html-keyboard-response","447","1748427","0.0-235.0-1.0","null","<p></p>","null","","","","","","","","","","","","","","","","","","","","","","",""
"","do_trial","448","1753912","0.0-236.0-0.0","949.7000002861023","","","","","","","","49","0,1,0","4","mountain","174","probe-189","0.15160250614449552","0.1886220077059236","0.7332911503592515","0","","","","","","","",""
"","html-keyboard-response","449","1754917","0.0-236.0-1.0","null","<p></p>","null","","","","","","","","","","","","","","","","","","","","","","",""
"","do_trial","450","1760066","0.0-237.0-0.0","613.4000000953674","","","","","","","","50","0,0,0","4","mountain","175","probe-215","0.11458968820430394","0.2216053403774106","0.683042058115352","0","","","","","","","",""
"","html-keyboard-response","451","1761070","0.0-237.0-1.0","null","<p></p>","null","","","","","","","","","","","","","","","","","","","","","","",""
"","do_trial","452","1766422","0.0-238.0-0.0","817.6999998092651","","","","","","","","51","0,0,1","4","mountain","176","probe-43","0.18937388018416265","0.2481893282612234","0.6365375247476837","1","","","","","","","",""
"","html-keyboard-response","453","1767426","0.0-238.0-1.0","null","<p></p>","null","","","","","","","","","","","","","","","","","","","","","","",""
"","do_trial","454","1772465","0.0-239.0-0.0","502.80000019073486","","","","","","","","49","1,0,1","4","mountain","177","probe-38","0.09169239683239595","0.38209748033601343","0.6390997556273978","1","","","","","","","",""
"","html-keyboard-response","455","1773469","0.0-239.0-1.0","null","<p></p>","null","","","","","","","","","","","","","","","","","","","","","","",""
"","do_trial","456","1778385","0.0-240.0-0.0","377.5","","","","","","","","49","0,0,0","4","mountain","178","probe-213","0.12700307084163537","0.49002788125785124","0.6835726307235612","0","","","","","","","",""
"","html-keyboard-response","457","1779390","0.0-240.0-1.0","null","<p></p>","null","","","","","","","","","","","","","","","","","","","","","","",""
"","do_trial","458","1784717","0.0-241.0-0.0","789.9000000953674","","","","","","","","50","0,1,1","4","mountain","179","probe-86","0.05256864330762746","0.4376147223271219","0.5740344774347362","1","","","","","","","",""
"","html-keyboard-response","459","1785720","0.0-241.0-1.0","null","<p></p>","null","","","","","","","","","","","","","","","","","","","","","","",""
"","do_trial","460","1790768","0.0-242.0-0.0","513.2999997138977","","","","","","","","50","0,1,1","4","mountain","180","probe-68","0.05709542840123207","0.4403810166317835","0.6606942926397311","1","","","","","","","",""
"","html-keyboard-response","461","1791772","0.0-242.0-1.0","null","<p></p>","null","","","","","","","","","","","","","","","","","","","","","","",""
"","do_trial","462","1799254","0.0-243.0-0.0","2944.699999809265","","","","","","","","50","0,1,0","4","mountain","181","probe-64","0.07941880232636785","0.40273909340806413","0.6233038998652882","1","","","","","","","",""
"","html-keyboard-response","463","1800258","0.0-243.0-1.0","null","<p></p>","null","","","","","","","","","","","","","","","","","","","","","","",""
"","do_trial","464","1805832","0.0-244.0-0.0","1038.9000000953674","","","","","","","","50","0,0,1","4","mountain","182","probe-201","0.11508575519665466","0.33554514397062285","0.6337025276630439","0","","","","","","","",""
"","html-keyboard-response","465","1806836","0.0-244.0-1.0","null","<p></p>","null","","","","","","","","","","","","","","","","","","","","","","",""
"","do_trial","466","1811996","0.0-245.0-0.0","626.7999997138977","","","","","","","","51","1,0,0","4","mountain","183","probe-56","0.11881545251003246","0.4172432614731203","0.5193162047155722","0","","","","","","","",""
"","html-keyboard-response","467","1813001","0.0-245.0-1.0","null","<p></p>","null","","","","","","","","","","","","","","","","","","","","","","",""
"","do_trial","468","1818527","0.0-246.0-0.0","987.7999997138977","","","","","","","","49","0,0,1","4","mountain","184","probe-112","0.07639997358371324","0.4307153827870289","0.5142514313176699","0","","","","","","","",""
"","html-keyboard-response","469","1819531","0.0-246.0-1.0","null","<p></p>","null","","","","","","","","","","","","","","","","","","","","","","",""
"","do_trial","470","1825858","0.0-247.0-0.0","1792","","","","","","","","50","0,0,1","4","mountain","185","probe-143","0.09320389961754072","0.3225376613852645","0.6169183058051181","0","","","","","","","",""
"","html-keyboard-response","471","1826863","0.0-247.0-1.0","null","<p></p>","null","","","","","","","","","","","","","","","","","","","","","","",""
"","do_trial","472","1831802","0.0-248.0-0.0","400.7000002861023","","","","","","","","51","0,0,0","4","mountain","186","probe-88","0.16805133463488492","0.2664183682992423","0.671553597534395","0","","","","","","","",""
"","html-keyboard-response","473","1832807","0.0-248.0-1.0","null","<p></p>","null","","","","","","","","","","","","","","","","","","","","","","",""
"","do_trial","474","1838066","0.0-249.0-0.0","722.5","","","","","","","","49","0,1,1","4","mountain","187","probe-184","0.1191488524293458","0.37797736021548634","0.7220667289278759","0","","","","","","","",""
"","html-keyboard-response","475","1839070","0.0-249.0-1.0","null","<p></p>","null","","","","","","","","","","","","","","","","","","","","","","",""
"","do_trial","476","1844457","0.0-250.0-0.0","849.1999998092651","","","","","","","","50","0,1,1","4","mountain","188","probe-229","0.15637606533568998","0.47905683978502867","0.6292536192202334","1","","","","","","","",""
