"success","trial_type","trial_index","time_elapsed","internal_node_id","interactions","blur_events","focus_events","fullscreenenter_events","fullscreenexit_events","rt","stimulus","key_press","subject_id","participant_id","age","gender","prompt","response","choice_outcomes","context_n","context_img_id","trial_n","probe_img_id","pR_red","pR_white","pR_black","outcome","contextArray_ind","validImageProbes","invalidImageProbes","pRew_Red","pRew_White","pRew_Black","availableForMemProbe","choice_blocks"
"true","fullscreen","0","4050","0.0-0.0","""event"",""trial"",""time""
""fullscreenenter"",""0"",""3062""
","
","
","""event"",""trial"",""time""
""fullscreenenter"",""0"",""3062""
","
","","","","","","","","","","","","","","","","","","","","","","","","","",""
"","pavlovia","1","4054","0.0-1.0","""event"",""trial"",""time""
""fullscreenenter"",""0"",""3062""
","
","
","""event"",""trial"",""time""
""fullscreenenter"",""0"",""3062""
","
","","","","","","","","","","","","","","","","","","","","","","","","","",""
"","instruc1","2","49233","0.0-2.0","""event"",""trial"",""time""
""fullscreenenter"",""0"",""3062""
","
","
","""event"",""trial"",""time""
""fullscreenenter"",""0"",""3062""
","
","null","run_exp/static/audio/clip_1_welcome.m4a","null","1465","1708","20","Male","<div class='center'><p>Welcome! This is the first part of the study. It will last ~30 minutes. In part 1 and part 2 of the study, you are the head captain of a pirate ship traveling around the world to different islands. You will play a few different games throughout these two parts. Here is an overview of them:</p><br><p>Part 1 (today)</p><p>1. Instructions, practice game, and quiz</p><p>2. Pick a pirate game on 6 different islands</p><br><p>Part 2 (tomorrow)</p><p>3. Pick a pirate game and memory game</p><p>4. Where did you see this ship? </p></div>","","","","","","","","","","","","","","","","","",""
"","html-keyboard-response","3","51117","0.0-3.0","""event"",""trial"",""time""
""fullscreenenter"",""0"",""3062""
","
","
","""event"",""trial"",""time""
""fullscreenenter"",""0"",""3062""
","
","1881.7999999523163","<div class='center'><p>Welcome! This is the first part of the study. It will last ~30 minutes. In part 1 and part 2 of the study, you are the head captain of a pirate ship traveling around the world to different islands. You will play a few different games throughout these two parts. Here is an overview of them:</p><br><p>Part 1 (today)</p><p>1. Instructions, practice game, and quiz</p><p>2. Pick a pirate game on 6 different islands</p><br><p>Part 2 (tomorrow)</p><p>3. Pick a pirate game and memory game</p><p>4. Where did you see this ship? </p><p><b>[Press the space bar to continue]</b></p></div>","32","","","","","","","","","","","","","","","","","","","","","","",""
"","instruc2","4","56443","0.0-4.0","""event"",""trial"",""time""
""fullscreenenter"",""0"",""3062""
","
","
","""event"",""trial"",""time""
""fullscreenenter"",""0"",""3062""
","
","null","run_exp/static/audio/clip_2_different_places.m4a","null","","","","","<div class='center'><p>Today, you’ll visit these 6 islands on your journey. You'll be able to see these islands from your ship.</p><p><img src='run_exp/static/images/contexts/all_contexts.png' height='500'></p></div>","","","","","","","","","","","","","","","","","",""
"","html-keyboard-response","5","62534","0.0-5.0","""event"",""trial"",""time""
""fullscreenenter"",""0"",""3062""
","
","
","""event"",""trial"",""time""
""fullscreenenter"",""0"",""3062""
","
","6089.300000071526","<div class='center'><p>Today, you’ll visit these 6 islands on your journey. You'll be able to see these islands from your ship.</p><p><img src='run_exp/static/images/contexts/all_contexts.png' height='500'></p><p><b>[Press the space bar to continue]</b></p></div>","32","","","","","","","","","","","","","","","","","","","","","","",""
"","instruc3","6","72273","0.0-6.0","""event"",""trial"",""time""
""fullscreenenter"",""0"",""3062""
","
","
","""event"",""trial"",""time""
""fullscreenenter"",""0"",""3062""
","
","null","run_exp/static/audio/clip_3_goal_of_game_1.m4a","null","","","","","<div class='center'><p> The pirates on your ship will rob other ships as they leave the island.</p> These ships have just sold their goods to the islanders, so they will be filled with lots and lots of gold.</p><p><img src='run_exp/static/images/tutorial/ship_center.png' height='400'></p></div>","","","","","","","","","","","","","","","","","",""
"","html-keyboard-response","7","75784","0.0-7.0","""event"",""trial"",""time""
""fullscreenenter"",""0"",""3062""
","
","
","""event"",""trial"",""time""
""fullscreenenter"",""0"",""3062""
","
","3509.7999999523163","<div class='center'><p> The pirates on your ship will rob other ships as they leave the island.</p> These ships have just sold their goods to the islanders, so they will be filled with lots and lots of gold.</p><p><img src='run_exp/static/images/tutorial/ship_center.png' height='400'></p><p><b>[Press the space bar to continue]</b></p></div>","32","","","","","","","","","","","","","","","","","","","","","","",""
"","instruc4","8","103804","0.0-8.0","""event"",""trial"",""time""
""fullscreenenter"",""0"",""3062""
","
","
","""event"",""trial"",""time""
""fullscreenenter"",""0"",""3062""
","
","null","run_exp/static/audio/clip_4_goal_of_game_2.m4a","null","","","","","<div class='center'><p>As the head captain, you do not have to rob any ships yourself. Another pirate will be doing the robbing for you. First, you will choose a pirate to rob the next ship.</p><p><img src='run_exp/static/images/tutorial/pirates_all_crop.png' height='200'></p><p>Then, you'll see if the pirate successfully robbed the ship of their gold. If they were successful, then you'll get a stack of gold coins like this:</p><p><img src='run_exp/static/images/tutorial/reward.png' height='150'></p><p> If they were <b>not</b> successful, then you'll get no gold coins, and you'll see a big red x like this: </p><p><img src='run_exp/static/images/tutorial/reward_no.png' height='150'></p><p> How much bonus money you make is based on how many gold coins you collect.</p><div>","","","","","","","","","","","","","","","","","",""
"","html-keyboard-response","9","108620","0.0-9.0","""event"",""trial"",""time""
""fullscreenenter"",""0"",""3062""
","
","
","""event"",""trial"",""time""
""fullscreenenter"",""0"",""3062""
","
","4813.600000023842","<div class='center'><p>As the head captain, you do not have to rob any ships yourself. Another pirate will be doing the robbing for you. First, you will choose a pirate to rob the next ship.</p><p><img src='run_exp/static/images/tutorial/pirates_all_crop.png' height='200'></p><p>Then, you'll see if the pirate successfully robbed the ship of their gold. If they were successful, then you'll get a stack of gold coins like this:</p><p><img src='run_exp/static/images/tutorial/reward.png' height='150'></p><p> If they were <b>not</b> successful, then you'll get no gold coins, and you'll see a big red x like this: </p><p><img src='run_exp/static/images/tutorial/reward_no.png' height='150'></p><p> How much bonus money you make is based on how many gold coins you collect.</p<p><b>[Press the space bar to continue]</b></p></div>","32","","","","","","","","","","","","","","","","","","","","","","",""
"","instruc5","10","131074","0.0-10.0","""event"",""trial"",""time""
""fullscreenenter"",""0"",""3062""
","
","
","""event"",""trial"",""time""
""fullscreenenter"",""0"",""3062""
","
","22452.5","run_exp/static/audio/clip_5_probabilistic.m4a","49","","","","","<div class='center'><p>Even the most skilled pirate can not rob EVERY ship.</p><p> Some ships will have very strong protections against pirate attacks.</p><p> Blue beard, here, is very, very good at robbing ships, but he won't be successful every time he tries to rob one.</p><p> You can press the <b>‘1’</b> key on the keyboard to choose him.</p><p> Try choosing him 10 times to see how often he succeeds at robbing a ship. </p><p><img src='run_exp/static/images/tutorial/blue.png' height='500'></p></div>","","","","","","","","","","","","","","","","","",""
"","html-keyboard-response","11","132577","0.0-11.0","""event"",""trial"",""time""
""fullscreenenter"",""0"",""3062""
","
","
","""event"",""trial"",""time""
""fullscreenenter"",""0"",""3062""
","
","null","<div class='center'><p><img src='run_exp/static/images/tutorial/blue_win.png' height='500'></p></div>","null","","","","","","","","","","","","","","","","","","","","","","",""
"","html-keyboard-response","12","133475","0.0-12.0","""event"",""trial"",""time""
""fullscreenenter"",""0"",""3062""
","
","
","""event"",""trial"",""time""
""fullscreenenter"",""0"",""3062""
","
","895.8999999761581","<div class='center'><img src='run_exp/static/images/tutorial/blue.png' height='500'></p></div>","49","","","","","","","","","","","","","","","","","","","","","","",""
"","html-keyboard-response","13","134981","0.0-13.0","""event"",""trial"",""time""
""fullscreenenter"",""0"",""3062""
","
","
","""event"",""trial"",""time""
""fullscreenenter"",""0"",""3062""
","
","null","<div class='center'><p><img src='run_exp/static/images/tutorial/blue_win.png' height='500'></p></div>","null","","","","","","","","","","","","","","","","","","","","","","",""
"","html-keyboard-response","14","135461","0.0-14.0","""event"",""trial"",""time""
""fullscreenenter"",""0"",""3062""
","
","
","""event"",""trial"",""time""
""fullscreenenter"",""0"",""3062""
","
","478.5","<div class='center'><img src='run_exp/static/images/tutorial/blue.png' height='500'></p></div>","49","","","","","","","","","","","","","","","","","","","","","","",""
"","html-keyboard-response","15","136967","0.0-15.0","""event"",""trial"",""time""
""fullscreenenter"",""0"",""3062""
","
","
","""event"",""trial"",""time""
""fullscreenenter"",""0"",""3062""
","
","null","<div class='center'><p><img src='run_exp/static/images/tutorial/blue_win.png' height='500'></p></div>","null","","","","","","","","","","","","","","","","","","","","","","",""
"","html-keyboard-response","16","137379","0.0-16.0","""event"",""trial"",""time""
""fullscreenenter"",""0"",""3062""
","
","
","""event"",""trial"",""time""
""fullscreenenter"",""0"",""3062""
","
","410.7999999523163","<div class='center'><img src='run_exp/static/images/tutorial/blue.png' height='500'></p></div>","49","","","","","","","","","","","","","","","","","","","","","","",""
"","html-keyboard-response","17","138880","0.0-17.0","""event"",""trial"",""time""
""fullscreenenter"",""0"",""3062""
","
","
","""event"",""trial"",""time""
""fullscreenenter"",""0"",""3062""
","
","null","<div class='center'><p><img src='run_exp/static/images/tutorial/blue_no_win.png' height='500'></p></div>","null","","","","","","","","","","","","","","","","","","","","","","",""
"","html-keyboard-response","18","139223","0.0-18.0","""event"",""trial"",""time""
""fullscreenenter"",""0"",""3062""
","
","
","""event"",""trial"",""time""
""fullscreenenter"",""0"",""3062""
","
","341.6999999284744","<div class='center'><img src='run_exp/static/images/tutorial/blue.png' height='500'></p></div>","49","","","","","","","","","","","","","","","","","","","","","","",""
"","html-keyboard-response","19","140728","0.0-19.0","""event"",""trial"",""time""
""fullscreenenter"",""0"",""3062""
","
","
","""event"",""trial"",""time""
""fullscreenenter"",""0"",""3062""
","
","null","<div class='center'><p><img src='run_exp/static/images/tutorial/blue_win.png' height='500'></p></div>","null","","","","","","","","","","","","","","","","","","","","","","",""
"","html-keyboard-response","20","141034","0.0-20.0","""event"",""trial"",""time""
""fullscreenenter"",""0"",""3062""
","
","
","""event"",""trial"",""time""
""fullscreenenter"",""0"",""3062""
","
","304.6999999284744","<div class='center'><img src='run_exp/static/images/tutorial/blue.png' height='500'></p></div>","49","","","","","","","","","","","","","","","","","","","","","","",""
"","html-keyboard-response","21","142536","0.0-21.0","""event"",""trial"",""time""
""fullscreenenter"",""0"",""3062""
","
","
","""event"",""trial"",""time""
""fullscreenenter"",""0"",""3062""
","
","null","<div class='center'><p><img src='run_exp/static/images/tutorial/blue_win.png' height='500'></p></div>","null","","","","","","","","","","","","","","","","","","","","","","",""
"","html-keyboard-response","22","142901","0.0-22.0","""event"",""trial"",""time""
""fullscreenenter"",""0"",""3062""
","
","
","""event"",""trial"",""time""
""fullscreenenter"",""0"",""3062""
","
","363.89999997615814","<div class='center'><img src='run_exp/static/images/tutorial/blue.png' height='500'></p></div>","49","","","","","","","","","","","","","","","","","","","","","","",""
"","html-keyboard-response","23","144407","0.0-23.0","""event"",""trial"",""time""
""fullscreenenter"",""0"",""3062""
","
","
","""event"",""trial"",""time""
""fullscreenenter"",""0"",""3062""
","
","null","<div class='center'><p><img src='run_exp/static/images/tutorial/blue_win.png' height='500'></p></div>","null","","","","","","","","","","","","","","","","","","","","","","",""
"","html-keyboard-response","24","144760","0.0-24.0","""event"",""trial"",""time""
""fullscreenenter"",""0"",""3062""
","
","
","""event"",""trial"",""time""
""fullscreenenter"",""0"",""3062""
","
","351.10000002384186","<div class='center'><img src='run_exp/static/images/tutorial/blue.png' height='500'></p></div>","49","","","","","","","","","","","","","","","","","","","","","","",""
"","html-keyboard-response","25","146265","0.0-25.0","""event"",""trial"",""time""
""fullscreenenter"",""0"",""3062""
","
","
","""event"",""trial"",""time""
""fullscreenenter"",""0"",""3062""
","
","null","<div class='center'><p><img src='run_exp/static/images/tutorial/blue_no_win.png' height='500'></p></div>","null","","","","","","","","","","","","","","","","","","","","","","",""
"","html-keyboard-response","26","146635","0.0-26.0","""event"",""trial"",""time""
""fullscreenenter"",""0"",""3062""
","
","
","""event"",""trial"",""time""
""fullscreenenter"",""0"",""3062""
","
","368.5","<div class='center'><img src='run_exp/static/images/tutorial/blue.png' height='500'></p></div>","49","","","","","","","","","","","","","","","","","","","","","","",""
"","html-keyboard-response","27","148139","0.0-27.0","""event"",""trial"",""time""
""fullscreenenter"",""0"",""3062""
","
","
","""event"",""trial"",""time""
""fullscreenenter"",""0"",""3062""
","
","null","<div class='center'><p><img src='run_exp/static/images/tutorial/blue_win.png' height='500'></p></div>","null","","","","","","","","","","","","","","","","","","","","","","",""
"","html-keyboard-response","28","149223","0.0-28.0","""event"",""trial"",""time""
""fullscreenenter"",""0"",""3062""
","
","
","""event"",""trial"",""time""
""fullscreenenter"",""0"",""3062""
","
","1082.3999999761581","<div class='center'><img src='run_exp/static/images/tutorial/blue.png' height='500'></p></div>","49","","","","","","","","","","","","","","","","","","","","","","",""
"","html-keyboard-response","29","150729","0.0-29.0","""event"",""trial"",""time""
""fullscreenenter"",""0"",""3062""
","
","
","""event"",""trial"",""time""
""fullscreenenter"",""0"",""3062""
","
","null","<div class='center'><p><img src='run_exp/static/images/tutorial/blue_win.png' height='500'></p></div>","null","","","","","","","","","","","","","","","","","","","","","","",""
"","instruc6","30","156162","0.0-30.0","""event"",""trial"",""time""
""fullscreenenter"",""0"",""3062""
","
","
","""event"",""trial"",""time""
""fullscreenenter"",""0"",""3062""
","
","null","run_exp/static/audio/clip_6_blue_beard_outcome.m4a","null","","","","","<div class='center'><p> See, he succeeded in robbing the ships most of the time but not every time. </p></div>","","","","","","","","","","","","","","","","","",""
"","html-keyboard-response","31","157715","0.0-31.0","""event"",""trial"",""time""
""fullscreenenter"",""0"",""3062""
","
","
","""event"",""trial"",""time""
""fullscreenenter"",""0"",""3062""
","
","1551.2999999523163","<div class='center'><p> See, he succeeded in robbing the ships most of the time but not every time. </p><p><b>[Press the space bar to continue]</b></p></div>","32","","","","","","","","","","","","","","","","","","","","","","",""
"","audio-keyboard-response","32","173674","0.0-32.0","""event"",""trial"",""time""
""fullscreenenter"",""0"",""3062""
","
","
","""event"",""trial"",""time""
""fullscreenenter"",""0"",""3062""
","
","15957.399999976158","run_exp/static/audio/clip_7_pick_pirate.m4a","51","","","","","","","","","","","","","","","","","","","","","","",""
"","audio-keyboard-response","33","177536","0.0-33.0-0.0","""event"",""trial"",""time""
""fullscreenenter"",""0"",""3062""
","
","
","""event"",""trial"",""time""
""fullscreenenter"",""0"",""3062""
","
","3859","run_exp/static/audio/clip_8_chosen_pirate_win.m4a","32","","","","","","","","","","","","","","","","","","","","","","",""
"","audio-keyboard-response","34","179662","0.0-33.0-1.0","""event"",""trial"",""time""
""fullscreenenter"",""0"",""3062""
","
","
","""event"",""trial"",""time""
""fullscreenenter"",""0"",""3062""
","
","2123.5999999046326","run_exp/static/audio/clip_9_pick_a_pirate_again.m4a","51","","","","","","","","","","","","","","","","","","","","","","",""
"","audio-keyboard-response","35","181265","0.0-34.0-0.0","""event"",""trial"",""time""
""fullscreenenter"",""0"",""3062""
","
","
","""event"",""trial"",""time""
""fullscreenenter"",""0"",""3062""
","
","1601.8999999761581","run_exp/static/audio/clip_10_chosen_pirate_loss.m4a","32","","","","","","","","","","","","","","","","","","","","","","",""
"","instruc9","36","186776","0.0-35.0-0.0","""event"",""trial"",""time""
""fullscreenenter"",""0"",""3062""
","
","
","""event"",""trial"",""time""
""fullscreenenter"",""0"",""3062""
","
","null","run_exp/static/audio/clip_11_time_out.m4a","null","","","","","<div class='center'><p>If you don’t make your choice fast enough, you’ll have to wait a few seconds before you can make another one. </p><p><img src='run_exp/static/images/miscellaneous/hurry_up.png' height='500'></p></div>","","","","","","","","","","","","","","","","","",""
"","html-keyboard-response","37","187453","0.0-35.0-1.0","""event"",""trial"",""time""
""fullscreenenter"",""0"",""3062""
","
","
","""event"",""trial"",""time""
""fullscreenenter"",""0"",""3062""
","
","675.5","<div class='center'><p>If you don’t make your choice fast enough, you’ll have to wait a few seconds before you can make another one. </p><p><img src='run_exp/static/images/miscellaneous/hurry_up.png' height='500'></p><p><b>[Press the space bar to continue]</b></p></div>","32","","","","","","","","","","","","","","","","","","","","","","",""
"","instruc10","38","226563","0.0-35.0-2.0","""event"",""trial"",""time""
""fullscreenenter"",""0"",""3062""
","
","
","""event"",""trial"",""time""
""fullscreenenter"",""0"",""3062""
","
","null","run_exp/static/audio/clip_12_probe.m4a","null","","","","","<div class='center'><p>Once you've chosen a pirate, you’ll be shown the ship they are robbing. You will never rob the same ship twice. Ships can be told apart from one another by the image on them. These are the goods that they sell. See, this ship has a travel mug on it. </p><p> You’ll have to remember which island you saw each ship on. You will win more gold coins and hence more bonus money if you remember correctly! To help you remember, you can imagine a story. For example, here, you could imagine a mug full of water in the desert. Or, as another example, if on the forest island, your pirate robbed a ship with an apple on it, you could imagine an apple falling from a tree in the forest. </p><p><img src='run_exp/static/images/tutorial/example_probe.png' height='500'></p></div>","","","","","","","","","","","","","","","","","",""
"","html-keyboard-response","39","230782","0.0-35.0-3.0","""event"",""trial"",""time""
""fullscreenenter"",""0"",""3062""
","
","
","""event"",""trial"",""time""
""fullscreenenter"",""0"",""3062""
","
","4217.5","<div class='center'><p>Once you've chosen a pirate, you’ll be shown the ship they are robbing. You will never rob the same ship twice. Ships can be told apart from one another by the image on them. These are the goods that they sell. See, this ship has a travel mug on it. </p><p> You’ll have to remember which island you saw each ship on. You will win more gold coins and hence more bonus money if you remember correctly! To help you remember, you can imagine a story. For example, here, you could imagine a mug full of water in the desert. Or, as another example, if on the forest island, your pirate robbed a ship with an apple on it, you could imagine an apple falling from a tree in the forest. </p><p><img src='run_exp/static/images/tutorial/example_probe.png' height='500'></p><p><b>[Press the space bar to continue]</b></p></div>","32","","","","","","","","","","","","","","","","","","","","","","",""
"","instruc11","40","247193","0.0-35.0-4.0","""event"",""trial"",""time""
""fullscreenenter"",""0"",""3062""
","
","
","""event"",""trial"",""time""
""fullscreenenter"",""0"",""3062""
","
","null","run_exp/static/audio/clip_13_changepoint.m4a","null","","","","","<div class='center'><p>How successful a pirate is at robbing ships will depend on the island you’re on.</p><p> A pirate may have visited this island many times before and gained a lot of practice robbing ships there.</p><p>So, they’re more likely to be successful than a pirate who has never visited the island before.</p></div>","","","","","","","","","","","","","","","","","",""
"","html-keyboard-response","41","248607","0.0-35.0-5.0","""event"",""trial"",""time""
""fullscreenenter"",""0"",""3062""
","
","
","""event"",""trial"",""time""
""fullscreenenter"",""0"",""3062""
","
","1412.3999999761581","<div class='center'><p>How successful a pirate is at robbing ships will depend on the island you’re on.</p><p> A pirate may have visited this island many times before and gained a lot of practice robbing ships there.</p><p>So, they’re more likely to be successful than a pirate who has never visited the island before.</p><p><b>[Press the space bar to continue]</b></p></div>","32","","","","","","","","","","","","","","","","","","","","","","",""
"","instruc12","42","289711","0.0-35.0-6.0","""event"",""trial"",""time""
""fullscreenenter"",""0"",""3062""
","
","
","""event"",""trial"",""time""
""fullscreenenter"",""0"",""3062""
","
","null","run_exp/static/audio/clip_14_drift.m4a","null","","","","","<div class='center'><p>How successful a pirate is at robbing ships can also change over the time spent on the island. </p><p> Ships may hear from islanders about the pirates coming and will improve their protections against the attack. This may make it harder to rob them.</p><p> Ships may also become lazy and weaken the strength of their protections. This may make it easier to rob them.</p><br><p>Things are always changing on the high seas! So, try your best to pay attention!</p><p><img src='run_exp/static/images/tutorial/contingency.png' height='500'></p></div>","","","","","","","","","","","","","","","","","",""
"","html-keyboard-response","43","291754","0.0-35.0-7.0","""event"",""trial"",""time""
""fullscreenenter"",""0"",""3062""
","
","
","""event"",""trial"",""time""
""fullscreenenter"",""0"",""3062""
","
","2041","<div class='center'><p>How successful a pirate is at robbing ships can also change over the time spent on the island. </p><p> Ships may hear from islanders about the pirates coming and will improve their protections against the attack. This may make it harder to rob them.</p><p> Ships may also become lazy and weaken the strength of their protections. This may make it easier to rob them.</p><br><p>Things are always changing on the high seas! So, try your best to pay attention!</p><p><img src='run_exp/static/images/tutorial/contingency.png' height='500'></p><p><b>[Press the space bar to continue]</b></p></div>","32","","","","","","","","","","","","","","","","","","","","","","",""
"","instruc13","44","326960","0.0-35.0-8.0","""event"",""trial"",""time""
""fullscreenenter"",""0"",""3062""
","
","
","""event"",""trial"",""time""
""fullscreenenter"",""0"",""3062""
","
","null","run_exp/static/audio/clip_15_summary.m4a","null","","","","","<div class='center'><p>Let's go over the instructions quickly again. You have two important things to do: </p><b><p> 1. Pick the pirate who is the best at robbing ships on the current island. </p></b><b><p> 2. Remember on which island a ship was robbed.</p> </b><p>The amount of bonus money you can win depends on both.</p><p><br><p>Let’s try a practice game. The game will start by showing you the pirates. First, pick a pirate using the <b> 1, 2, 3 </b> keys on your keyboard. When you are shown a ship, try to remember which island you’re on by making up a story.</p><p>This is just a practice game, so you’re not playing for money. </p><p> Good luck! This game will be very difficult but try your best!</p></div>","","","","","","","","","","","","","","","","","",""
"","html-keyboard-response","45","333795","0.0-35.0-9.0","""event"",""trial"",""time""
""fullscreenenter"",""0"",""3062""
","
","
","""event"",""trial"",""time""
""fullscreenenter"",""0"",""3062""
","
","6834.299999952316","<div class='center'><p>Let's go over the instructions quickly again. You have two important things to do: </p><b><p> 1. Pick the pirate who is the best at robbing ships on the current island. </p></b><b><p> 2. Remember on which island a ship was robbed.</p> </b><p>The amount of bonus money you can win depends on both.</p><p><br><p>Let’s try a practice game. The game will start by showing you the pirates. First, pick a pirate using the <b> 1, 2, 3 </b> keys on your keyboard. When you are shown a ship, try to remember which island you’re on by making up a story.</p><p>This is just a practice game, so you’re not playing for money. </p><p> Good luck! This game will be very difficult but try your best!</p><p><b>[Press the space bar to continue]</b></p></div>","32","","","","","","","","","","","","","","","","","","","","","","",""
"","do_welcome","46","337806","0.0-35.0-10.0","""event"",""trial"",""time""
""fullscreenenter"",""0"",""3062""
","
","
","""event"",""trial"",""time""
""fullscreenenter"",""0"",""3062""
","
","null","","","","","","","","null","","","","","","","","","","","","","","","","",""
"","do_trial","47","344549","0.0-35.0-11.0","""event"",""trial"",""time""
""fullscreenenter"",""0"",""3062""
","
","
","""event"",""trial"",""time""
""fullscreenenter"",""0"",""3062""
","
","2233.7999999523163","","","","","","","","50","1,0,0","","","","","","","","","","","","","","","",""
"","html-keyboard-response","48","345555","0.0-36.0-0.0","""event"",""trial"",""time""
""fullscreenenter"",""0"",""3062""
""blur"",""49"",""345920""
""focus"",""49"",""348937""
","""event"",""trial"",""time""
""blur"",""49"",""345920""
","""event"",""trial"",""time""
""focus"",""49"",""348937""
","""event"",""trial"",""time""
""fullscreenenter"",""0"",""3062""
","
","null","<p></p>","null","","","","","","","","","","","","","","","","","","","","","","",""
"","do_trial","49","351585","0.0-36.0-1.0","""event"",""trial"",""time""
""fullscreenenter"",""0"",""3062""
""blur"",""49"",""345920""
""focus"",""49"",""348937""
","""event"",""trial"",""time""
""blur"",""49"",""345920""
","""event"",""trial"",""time""
""focus"",""49"",""348937""
","""event"",""trial"",""time""
""fullscreenenter"",""0"",""3062""
","
","null","","","","","","","","null","1,1,0","","","","","","","","","","","","","","","",""
"","html-keyboard-response","50","352590","0.0-37.0-0.0","""event"",""trial"",""time""
""fullscreenenter"",""0"",""3062""
""blur"",""49"",""345920""
""focus"",""49"",""348937""
","""event"",""trial"",""time""
""blur"",""49"",""345920""
","""event"",""trial"",""time""
""focus"",""49"",""348937""
","""event"",""trial"",""time""
""fullscreenenter"",""0"",""3062""
","
","null","<p></p>","null","","","","","","","","","","","","","","","","","","","","","","",""
"","do_trial","51","357909","0.0-37.0-1.0","""event"",""trial"",""time""
""fullscreenenter"",""0"",""3062""
""blur"",""49"",""345920""
""focus"",""49"",""348937""
","""event"",""trial"",""time""
""blur"",""49"",""345920""
","""event"",""trial"",""time""
""focus"",""49"",""348937""
","""event"",""trial"",""time""
""fullscreenenter"",""0"",""3062""
","
","805.1000000238419","","","","","","","","49","1,1,0","","","","","","","","","","","","","","","",""
"","html-keyboard-response","52","358914","0.0-38.0-0.0","""event"",""trial"",""time""
""fullscreenenter"",""0"",""3062""
""blur"",""49"",""345920""
""focus"",""49"",""348937""
","""event"",""trial"",""time""
""blur"",""49"",""345920""
","""event"",""trial"",""time""
""focus"",""49"",""348937""
","""event"",""trial"",""time""
""fullscreenenter"",""0"",""3062""
","
","null","<p></p>","null","","","","","","","","","","","","","","","","","","","","","","",""
"","do_trial","53","364762","0.0-38.0-1.0","""event"",""trial"",""time""
""fullscreenenter"",""0"",""3062""
""blur"",""49"",""345920""
""focus"",""49"",""348937""
","""event"",""trial"",""time""
""blur"",""49"",""345920""
","""event"",""trial"",""time""
""focus"",""49"",""348937""
","""event"",""trial"",""time""
""fullscreenenter"",""0"",""3062""
","
","1338.5","","","","","","","","51","1,0,1","","","","","","","","","","","","","","","",""
"","html-keyboard-response","54","365767","0.0-39.0-0.0","""event"",""trial"",""time""
""fullscreenenter"",""0"",""3062""
""blur"",""49"",""345920""
""focus"",""49"",""348937""
","""event"",""trial"",""time""
""blur"",""49"",""345920""
","""event"",""trial"",""time""
""focus"",""49"",""348937""
","""event"",""trial"",""time""
""fullscreenenter"",""0"",""3062""
","
","null","<p></p>","null","","","","","","","","","","","","","","","","","","","","","","",""
"","do_trial","55","370926","0.0-39.0-1.0","""event"",""trial"",""time""
""fullscreenenter"",""0"",""3062""
""blur"",""49"",""345920""
""focus"",""49"",""348937""
","""event"",""trial"",""time""
""blur"",""49"",""345920""
","""event"",""trial"",""time""
""focus"",""49"",""348937""
","""event"",""trial"",""time""
""fullscreenenter"",""0"",""3062""
","
","650.1000000238419","","","","","","","","50","0,1,0","","","","","","","","","","","","","","","",""
"","html-keyboard-response","56","371931","0.0-40.0-0.0","""event"",""trial"",""time""
""fullscreenenter"",""0"",""3062""
""blur"",""49"",""345920""
""focus"",""49"",""348937""
","""event"",""trial"",""time""
""blur"",""49"",""345920""
","""event"",""trial"",""time""
""focus"",""49"",""348937""
","""event"",""trial"",""time""
""fullscreenenter"",""0"",""3062""
","
","null","<p></p>","null","","","","","","","","","","","","","","","","","","","","","","",""
"","do_trial","57","376963","0.0-40.0-1.0","""event"",""trial"",""time""
""fullscreenenter"",""0"",""3062""
""blur"",""49"",""345920""
""focus"",""49"",""348937""
","""event"",""trial"",""time""
""blur"",""49"",""345920""
","""event"",""trial"",""time""
""focus"",""49"",""348937""
","""event"",""trial"",""time""
""fullscreenenter"",""0"",""3062""
","
","520.6000000238419","","","","","","","","50","1,0,0","","","","","","","","","","","","","","","",""
"","do_bye","58","378473","0.0-41.0-0.0","""event"",""trial"",""time""
""fullscreenenter"",""0"",""3062""
""blur"",""49"",""345920""
""focus"",""49"",""348937""
","""event"",""trial"",""time""
""blur"",""49"",""345920""
","""event"",""trial"",""time""
""focus"",""49"",""348937""
","""event"",""trial"",""time""
""fullscreenenter"",""0"",""3062""
","
","null","","","","","","","","null","","","","","","","","","","","","","","","","",""
"","do_travel","59","387482","0.0-41.0-1.0","""event"",""trial"",""time""
""fullscreenenter"",""0"",""3062""
""blur"",""49"",""345920""
""focus"",""49"",""348937""
","""event"",""trial"",""time""
""blur"",""49"",""345920""
","""event"",""trial"",""time""
""focus"",""49"",""348937""
","""event"",""trial"",""time""
""fullscreenenter"",""0"",""3062""
","
","null","","","","","","","","null","","","","","","","","","","","","","","","","",""
"","do_welcome","60","391495","0.0-41.0-2.0","""event"",""trial"",""time""
""fullscreenenter"",""0"",""3062""
""blur"",""49"",""345920""
""focus"",""49"",""348937""
","""event"",""trial"",""time""
""blur"",""49"",""345920""
","""event"",""trial"",""time""
""focus"",""49"",""348937""
","""event"",""trial"",""time""
""fullscreenenter"",""0"",""3062""
","
","null","","","","","","","","null","","","","","","","","","","","","","","","","",""
"","do_trial","61","396870","0.0-41.0-3.0","""event"",""trial"",""time""
""fullscreenenter"",""0"",""3062""
""blur"",""49"",""345920""
""focus"",""49"",""348937""
","""event"",""trial"",""time""
""blur"",""49"",""345920""
","""event"",""trial"",""time""
""focus"",""49"",""348937""
","""event"",""trial"",""time""
""fullscreenenter"",""0"",""3062""
","
","862.1000000238419","","","","","","","","49","1,0,0","","","","","","","","","","","","","","","",""
"","html-keyboard-response","62","397875","0.0-42.0-0.0","""event"",""trial"",""time""
""fullscreenenter"",""0"",""3062""
""blur"",""49"",""345920""
""focus"",""49"",""348937""
","""event"",""trial"",""time""
""blur"",""49"",""345920""
","""event"",""trial"",""time""
""focus"",""49"",""348937""
","""event"",""trial"",""time""
""fullscreenenter"",""0"",""3062""
","
","null","<p></p>","null","","","","","","","","","","","","","","","","","","","","","","",""
"","do_trial","63","402782","0.0-42.0-1.0","""event"",""trial"",""time""
""fullscreenenter"",""0"",""3062""
""blur"",""49"",""345920""
""focus"",""49"",""348937""
","""event"",""trial"",""time""
""blur"",""49"",""345920""
","""event"",""trial"",""time""
""focus"",""49"",""348937""
","""event"",""trial"",""time""
""fullscreenenter"",""0"",""3062""
","
","392.8000000715256","","","","","","","","49","1,0,1","","","","","","","","","","","","","","","",""
"","html-keyboard-response","64","403788","0.0-43.0-0.0","""event"",""trial"",""time""
""fullscreenenter"",""0"",""3062""
""blur"",""49"",""345920""
""focus"",""49"",""348937""
","""event"",""trial"",""time""
""blur"",""49"",""345920""
","""event"",""trial"",""time""
""focus"",""49"",""348937""
","""event"",""trial"",""time""
""fullscreenenter"",""0"",""3062""
","
","null","<p></p>","null","","","","","","","","","","","","","","","","","","","","","","",""
"","do_trial","65","408621","0.0-43.0-1.0","""event"",""trial"",""time""
""fullscreenenter"",""0"",""3062""
""blur"",""49"",""345920""
""focus"",""49"",""348937""
","""event"",""trial"",""time""
""blur"",""49"",""345920""
","""event"",""trial"",""time""
""focus"",""49"",""348937""
","""event"",""trial"",""time""
""fullscreenenter"",""0"",""3062""
","
","319.7000000476837","","","","","","","","49","1,1,0","","","","","","","","","","","","","","","",""
"","html-keyboard-response","66","409624","0.0-44.0-0.0","""event"",""trial"",""time""
""fullscreenenter"",""0"",""3062""
""blur"",""49"",""345920""
""focus"",""49"",""348937""
","""event"",""trial"",""time""
""blur"",""49"",""345920""
","""event"",""trial"",""time""
""focus"",""49"",""348937""
","""event"",""trial"",""time""
""fullscreenenter"",""0"",""3062""
","
","null","<p></p>","null","","","","","","","","","","","","","","","","","","","","","","",""
"","do_trial","67","414819","0.0-44.0-1.0","""event"",""trial"",""time""
""fullscreenenter"",""0"",""3062""
""blur"",""49"",""345920""
""focus"",""49"",""348937""
","""event"",""trial"",""time""
""blur"",""49"",""345920""
","""event"",""trial"",""time""
""focus"",""49"",""348937""
","""event"",""trial"",""time""
""fullscreenenter"",""0"",""3062""
","
","681.3999999761581","","","","","","","","49","0,0,1","","","","","","","","","","","","","","","",""
"","html-keyboard-response","68","415824","0.0-45.0-0.0","""event"",""trial"",""time""
""fullscreenenter"",""0"",""3062""
""blur"",""49"",""345920""
""focus"",""49"",""348937""
","""event"",""trial"",""time""
""blur"",""49"",""345920""
","""event"",""trial"",""time""
""focus"",""49"",""348937""
","""event"",""trial"",""time""
""fullscreenenter"",""0"",""3062""
","
","null","<p></p>","null","","","","","","","","","","","","","","","","","","","","","","",""
"","do_trial","69","420887","0.0-45.0-1.0","""event"",""trial"",""time""
""fullscreenenter"",""0"",""3062""
""blur"",""49"",""345920""
""focus"",""49"",""348937""
","""event"",""trial"",""time""
""blur"",""49"",""345920""
","""event"",""trial"",""time""
""focus"",""49"",""348937""
","""event"",""trial"",""time""
""fullscreenenter"",""0"",""3062""
","
","548.1000000238419","","","","","","","","49","1,0,1","","","","","","","","","","","","","","","",""
"","html-keyboard-response","70","422577","0.0-46.0-0.0","""event"",""trial"",""time""
""fullscreenenter"",""0"",""3062""
""blur"",""49"",""345920""
""focus"",""49"",""348937""
","""event"",""trial"",""time""
""blur"",""49"",""345920""
","""event"",""trial"",""time""
""focus"",""49"",""348937""
","""event"",""trial"",""time""
""fullscreenenter"",""0"",""3062""
","
","1688","<div class='center'><p><img src='run_exp/static/images/tutorial/prac_best_pirate.png'  height='500'></p></div>","49","","","","","","","","","","","","","","","","","","","","","","",""
"","html-keyboard-response","71","424001","0.0-47.0-0.0","""event"",""trial"",""time""
""fullscreenenter"",""0"",""3062""
""blur"",""49"",""345920""
""focus"",""49"",""348937""
","""event"",""trial"",""time""
""blur"",""49"",""345920""
","""event"",""trial"",""time""
""focus"",""49"",""348937""
","""event"",""trial"",""time""
""fullscreenenter"",""0"",""3062""
","
","1423.1999999284744","<div class='center'><p>That's correct! Red beard was the best.</p><p><b>[Press the space bar to continue]</b></p></div>","32","","","","","","","","","","","","","","","","","","","","","","",""
"","html-keyboard-response","72","427692","0.0-47.0-1.0","""event"",""trial"",""time""
""fullscreenenter"",""0"",""3062""
""blur"",""49"",""345920""
""focus"",""49"",""348937""
","""event"",""trial"",""time""
""blur"",""49"",""345920""
","""event"",""trial"",""time""
""focus"",""49"",""348937""
","""event"",""trial"",""time""
""fullscreenenter"",""0"",""3062""
","
","3689.399999976158","<div class='center'><p><img src='run_exp/static/images/tutorial/prac_source.png'  height='500'></p></div>","50","","","","","","","","","","","","","","","","","","","","","","",""
"","html-keyboard-response","73","430541","0.0-48.0-0.0","""event"",""trial"",""time""
""fullscreenenter"",""0"",""3062""
""blur"",""49"",""345920""
""focus"",""49"",""348937""
","""event"",""trial"",""time""
""blur"",""49"",""345920""
","""event"",""trial"",""time""
""focus"",""49"",""348937""
","""event"",""trial"",""time""
""fullscreenenter"",""0"",""3062""
","
","2848","<div class='center'><p>That's correct! You saw this ship on the cavern island.</p><p><b>[Press the space bar to continue]</b></p></div>","32","","","","","","","","","","","","","","","","","","","","","","",""
"","quiz_beginning","74","441785","0.0-48.0-1.0","""event"",""trial"",""time""
""fullscreenenter"",""0"",""3062""
""blur"",""49"",""345920""
""focus"",""49"",""348937""
","""event"",""trial"",""time""
""blur"",""49"",""345920""
","""event"",""trial"",""time""
""focus"",""49"",""348937""
","""event"",""trial"",""time""
""fullscreenenter"",""0"",""3062""
","
","null","run_exp/static/audio/clip_16_quiz_intro.m4a","null","","","","","<div class='center'><p>Good job on the practice game! Now, you will be asked some true or false questions to make sure you really understand the rules of the game.</p><p> Press <b>'1'</b> on the keyboard for true and press <b>'2'</b> for false.</p></div>","","","","","","","","","","","","","","","","","",""
"","audio-keyboard-response","75","445180","0.0-48.0-2.0","""event"",""trial"",""time""
""fullscreenenter"",""0"",""3062""
""blur"",""49"",""345920""
""focus"",""49"",""348937""
","""event"",""trial"",""time""
""blur"",""49"",""345920""
","""event"",""trial"",""time""
""focus"",""49"",""348937""
","""event"",""trial"",""time""
""fullscreenenter"",""0"",""3062""
","
","3393.5999999046326","run_exp/static/audio/clip_17_q1.m4a","49","","","","","","","","","","","","","","","","","","","","","","",""
"","correct","76","447588","0.0-49.0-0.0","""event"",""trial"",""time""
""fullscreenenter"",""0"",""3062""
""blur"",""49"",""345920""
""focus"",""49"",""348937""
","""event"",""trial"",""time""
""blur"",""49"",""345920""
","""event"",""trial"",""time""
""focus"",""49"",""348937""
","""event"",""trial"",""time""
""fullscreenenter"",""0"",""3062""
","
","null","run_exp/static/audio/clip_18_correct.m4a","null","","","","","<div class='center'><p>That's correct!</p></div>","","","","","","","","","","","","","","","","","",""
"","html-keyboard-response","77","448366","0.0-49.0-1.0","""event"",""trial"",""time""
""fullscreenenter"",""0"",""3062""
""blur"",""49"",""345920""
""focus"",""49"",""348937""
","""event"",""trial"",""time""
""blur"",""49"",""345920""
","""event"",""trial"",""time""
""focus"",""49"",""348937""
","""event"",""trial"",""time""
""fullscreenenter"",""0"",""3062""
","
","777.2999999523163","<div class='center'><p>That's correct!</p><p><b>[Press the space bar to continue]</b></p></div>","32","","","","","","","","","","","","","","","","","","","","","","",""
"","audio-keyboard-response","78","456048","0.0-49.0-2.0","""event"",""trial"",""time""
""fullscreenenter"",""0"",""3062""
""blur"",""49"",""345920""
""focus"",""49"",""348937""
","""event"",""trial"",""time""
""blur"",""49"",""345920""
","""event"",""trial"",""time""
""focus"",""49"",""348937""
","""event"",""trial"",""time""
""fullscreenenter"",""0"",""3062""
","
","7680.399999976158","run_exp/static/audio/clip_20_q2.m4a","50","","","","","","","","","","","","","","","","","","","","","","",""
"","correct","79","458447","0.0-50.0-0.0","""event"",""trial"",""time""
""fullscreenenter"",""0"",""3062""
""blur"",""49"",""345920""
""focus"",""49"",""348937""
","""event"",""trial"",""time""
""blur"",""49"",""345920""
","""event"",""trial"",""time""
""focus"",""49"",""348937""
","""event"",""trial"",""time""
""fullscreenenter"",""0"",""3062""
","
","null","run_exp/static/audio/clip_18_correct.m4a","null","","","","","<div class='center'><p>That's correct!</p></div>","","","","","","","","","","","","","","","","","",""
"","html-keyboard-response","80","459251","0.0-50.0-1.0","""event"",""trial"",""time""
""fullscreenenter"",""0"",""3062""
""blur"",""49"",""345920""
""focus"",""49"",""348937""
","""event"",""trial"",""time""
""blur"",""49"",""345920""
","""event"",""trial"",""time""
""focus"",""49"",""348937""
","""event"",""trial"",""time""
""fullscreenenter"",""0"",""3062""
","
","803.7999999523163","<div class='center'><p>That's correct!</p><p><b>[Press the space bar to continue]</b></p></div>","32","","","","","","","","","","","","","","","","","","","","","","",""
"","audio-keyboard-response","81","461817","0.0-50.0-2.0","""event"",""trial"",""time""
""fullscreenenter"",""0"",""3062""
""blur"",""49"",""345920""
""focus"",""49"",""348937""
","""event"",""trial"",""time""
""blur"",""49"",""345920""
","""event"",""trial"",""time""
""focus"",""49"",""348937""
","""event"",""trial"",""time""
""fullscreenenter"",""0"",""3062""
","
","2564","run_exp/static/audio/clip_22_q3.m4a","50","","","","","","","","","","","","","","","","","","","","","","",""
"","correct","82","464228","0.0-51.0-0.0","""event"",""trial"",""time""
""fullscreenenter"",""0"",""3062""
""blur"",""49"",""345920""
""focus"",""49"",""348937""
","""event"",""trial"",""time""
""blur"",""49"",""345920""
","""event"",""trial"",""time""
""focus"",""49"",""348937""
","""event"",""trial"",""time""
""fullscreenenter"",""0"",""3062""
","
","null","run_exp/static/audio/clip_18_correct.m4a","null","","","","","<div class='center'><p>That's correct!</p></div>","","","","","","","","","","","","","","","","","",""
"","html-keyboard-response","83","464669","0.0-51.0-1.0","""event"",""trial"",""time""
""fullscreenenter"",""0"",""3062""
""blur"",""49"",""345920""
""focus"",""49"",""348937""
","""event"",""trial"",""time""
""blur"",""49"",""345920""
","""event"",""trial"",""time""
""focus"",""49"",""348937""
","""event"",""trial"",""time""
""fullscreenenter"",""0"",""3062""
","
","439.60000002384186","<div class='center'><p>That's correct!</p><p><b>[Press the space bar to continue]</b></p></div>","32","","","","","","","","","","","","","","","","","","","","","","",""
"","audio-keyboard-response","84","465984","0.0-51.0-2.0","""event"",""trial"",""time""
""fullscreenenter"",""0"",""3062""
""blur"",""49"",""345920""
""focus"",""49"",""348937""
","""event"",""trial"",""time""
""blur"",""49"",""345920""
","""event"",""trial"",""time""
""focus"",""49"",""348937""
","""event"",""trial"",""time""
""fullscreenenter"",""0"",""3062""
","
","1314.5999999046326","run_exp/static/audio/clip_24_q4.m4a","49","","","","","","","","","","","","","","","","","","","","","","",""
"","correct","85","468431","0.0-52.0-0.0","""event"",""trial"",""time""
""fullscreenenter"",""0"",""3062""
""blur"",""49"",""345920""
""focus"",""49"",""348937""
","""event"",""trial"",""time""
""blur"",""49"",""345920""
","""event"",""trial"",""time""
""focus"",""49"",""348937""
","""event"",""trial"",""time""
""fullscreenenter"",""0"",""3062""
","
","null","run_exp/static/audio/clip_18_correct.m4a","null","","","","","<div class='center'><p>That's correct!</p></div>","","","","","","","","","","","","","","","","","",""
"","html-keyboard-response","86","468854","0.0-52.0-1.0","""event"",""trial"",""time""
""fullscreenenter"",""0"",""3062""
""blur"",""49"",""345920""
""focus"",""49"",""348937""
","""event"",""trial"",""time""
""blur"",""49"",""345920""
","""event"",""trial"",""time""
""focus"",""49"",""348937""
","""event"",""trial"",""time""
""fullscreenenter"",""0"",""3062""
","
","422.10000002384186","<div class='center'><p>That's correct!</p><p><b>[Press the space bar to continue]</b></p></div>","32","","","","","","","","","","","","","","","","","","","","","","",""
"","q_all_corr","87","477349","0.0-53.0-0.0","""event"",""trial"",""time""
""fullscreenenter"",""0"",""3062""
""blur"",""49"",""345920""
""focus"",""49"",""348937""
","""event"",""trial"",""time""
""blur"",""49"",""345920""
","""event"",""trial"",""time""
""focus"",""49"",""348937""
","""event"",""trial"",""time""
""fullscreenenter"",""0"",""3062""
","
","null","run_exp/static/audio/clip_27_quiz_all_correct.m4a","null","","","","","<div class='center'><p>Good job! You’re now ready to move on to the real game! Remember this game will be difficult but don't get discouraged and try your best!</p></div>","","","","","","","","","","","","","","","","","",""
"","html-keyboard-response","88","482337","0.0-53.0-1.0","""event"",""trial"",""time""
""fullscreenenter"",""0"",""3062""
""blur"",""49"",""345920""
""focus"",""49"",""348937""
","""event"",""trial"",""time""
""blur"",""49"",""345920""
","""event"",""trial"",""time""
""focus"",""49"",""348937""
","""event"",""trial"",""time""
""fullscreenenter"",""0"",""3062""
","
","4986.600000023842","<div class='center'><p>Good job! You’re now ready to move on to the real game! Remember this game will be difficult but don't get discouraged and try your best!</p><p><b>[Press the space bar to continue]</b></p></div>","32","","","","","","","","","","","","","","","","","","","","","","",""
"","do_welcome","89","486345","0.0-54.0-0.0","""event"",""trial"",""time""
""fullscreenenter"",""0"",""3062""
""blur"",""49"",""345920""
""focus"",""49"",""348937""
","""event"",""trial"",""time""
""blur"",""49"",""345920""
","""event"",""trial"",""time""
""focus"",""49"",""348937""
","""event"",""trial"",""time""
""fullscreenenter"",""0"",""3062""
","
","null","","","","","","","","null","","","","","","","","","","","","","","","","",""
"","do_trial","90","493210","0.0-55.0-0.0","""event"",""trial"",""time""
""fullscreenenter"",""0"",""3062""
""blur"",""49"",""345920""
""focus"",""49"",""348937""
","""event"",""trial"",""time""
""blur"",""49"",""345920""
","""event"",""trial"",""time""
""focus"",""49"",""348937""
","""event"",""trial"",""time""
""fullscreenenter"",""0"",""3062""
","
","2314.399999976158","","","","","","","","49","1,0,0","0","countryside","0","probe-90","0.6","0.3","0.1","1","","","","","","","",""
"","html-keyboard-response","91","494216","0.0-55.0-1.0","""event"",""trial"",""time""
""fullscreenenter"",""0"",""3062""
""blur"",""49"",""345920""
""focus"",""49"",""348937""
","""event"",""trial"",""time""
""blur"",""49"",""345920""
","""event"",""trial"",""time""
""focus"",""49"",""348937""
","""event"",""trial"",""time""
""fullscreenenter"",""0"",""3062""
","
","null","<p></p>","null","","","","","","","","","","","","","","","","","","","","","","",""
"","do_trial","92","499370","0.0-56.0-0.0","""event"",""trial"",""time""
""fullscreenenter"",""0"",""3062""
""blur"",""49"",""345920""
""focus"",""49"",""348937""
","""event"",""trial"",""time""
""blur"",""49"",""345920""
","""event"",""trial"",""time""
""focus"",""49"",""348937""
","""event"",""trial"",""time""
""fullscreenenter"",""0"",""3062""
","
","607.2999999523163","","","","","","","","49","0,0,0","0","countryside","1","probe-159","0.49910382178519874","0.3446787342161762","0.08674463000946643","0","","","","","","","",""
"","html-keyboard-response","93","500376","0.0-56.0-1.0","""event"",""trial"",""time""
""fullscreenenter"",""0"",""3062""
""blur"",""49"",""345920""
""focus"",""49"",""348937""
","""event"",""trial"",""time""
""blur"",""49"",""345920""
","""event"",""trial"",""time""
""focus"",""49"",""348937""
","""event"",""trial"",""time""
""fullscreenenter"",""0"",""3062""
","
","null","<p></p>","null","","","","","","","","","","","","","","","","","","","","","","",""
"","do_trial","94","505509","0.0-57.0-0.0","""event"",""trial"",""time""
""fullscreenenter"",""0"",""3062""
""blur"",""49"",""345920""
""focus"",""49"",""348937""
","""event"",""trial"",""time""
""blur"",""49"",""345920""
","""event"",""trial"",""time""
""focus"",""49"",""348937""
","""event"",""trial"",""time""
""fullscreenenter"",""0"",""3062""
","
","576.0999999046326","","","","","","","","49","0,1,0","0","countryside","2","probe-48","0.5676845134134955","0.40211288749970836","0.1958146013988938","0","","","","","","","",""
"","html-keyboard-response","95","506514","0.0-57.0-1.0","""event"",""trial"",""time""
""fullscreenenter"",""0"",""3062""
""blur"",""49"",""345920""
""focus"",""49"",""348937""
","""event"",""trial"",""time""
""blur"",""49"",""345920""
","""event"",""trial"",""time""
""focus"",""49"",""348937""
","""event"",""trial"",""time""
""fullscreenenter"",""0"",""3062""
","
","null","<p></p>","null","","","","","","","","","","","","","","","","","","","","","","",""
"","do_trial","96","511608","0.0-58.0-0.0","""event"",""trial"",""time""
""fullscreenenter"",""0"",""3062""
""blur"",""49"",""345920""
""focus"",""49"",""348937""
","""event"",""trial"",""time""
""blur"",""49"",""345920""
","""event"",""trial"",""time""
""focus"",""49"",""348937""
","""event"",""trial"",""time""
""fullscreenenter"",""0"",""3062""
","
","541.3000000715256","","","","","","","","50","0,0,0","0","countryside","3","probe-01","0.715281887079412","0.2590988452884254","0.26701722617995216","0","","","","","","","",""
"","html-keyboard-response","97","512614","0.0-58.0-1.0","""event"",""trial"",""time""
""fullscreenenter"",""0"",""3062""
""blur"",""49"",""345920""
""focus"",""49"",""348937""
","""event"",""trial"",""time""
""blur"",""49"",""345920""
","""event"",""trial"",""time""
""focus"",""49"",""348937""
","""event"",""trial"",""time""
""fullscreenenter"",""0"",""3062""
","
","null","<p></p>","null","","","","","","","","","","","","","","","","","","","","","","",""
"","do_trial","98","517874","0.0-59.0-0.0","""event"",""trial"",""time""
""fullscreenenter"",""0"",""3062""
""blur"",""49"",""345920""
""focus"",""49"",""348937""
","""event"",""trial"",""time""
""blur"",""49"",""345920""
","""event"",""trial"",""time""
""focus"",""49"",""348937""
","""event"",""trial"",""time""
""fullscreenenter"",""0"",""3062""
","
","709.5999999046326","","","","","","","","50","1,0,0","0","countryside","4","probe-28","0.7953073495184332","0.23278821274527584","0.26684240602348114","0","","","","","","","",""
"","html-keyboard-response","99","518879","0.0-59.0-1.0","""event"",""trial"",""time""
""fullscreenenter"",""0"",""3062""
""blur"",""49"",""345920""
""focus"",""49"",""348937""
","""event"",""trial"",""time""
""blur"",""49"",""345920""
","""event"",""trial"",""time""
""focus"",""49"",""348937""
","""event"",""trial"",""time""
""fullscreenenter"",""0"",""3062""
","
","null","<p></p>","null","","","","","","","","","","","","","","","","","","","","","","",""
"","do_trial","100","524336","0.0-60.0-0.0","""event"",""trial"",""time""
""fullscreenenter"",""0"",""3062""
""blur"",""49"",""345920""
""focus"",""49"",""348937""
","""event"",""trial"",""time""
""blur"",""49"",""345920""
","""event"",""trial"",""time""
""focus"",""49"",""348937""
","""event"",""trial"",""time""
""fullscreenenter"",""0"",""3062""
","
","901.5","","","","","","","","51","1,1,0","0","countryside","5","probe-37","0.8103592119546568","0.16132635196407216","0.11156881436352702","0","","","","","","","",""
"","html-keyboard-response","101","525341","0.0-60.0-1.0","""event"",""trial"",""time""
""fullscreenenter"",""0"",""3062""
""blur"",""49"",""345920""
""focus"",""49"",""348937""
","""event"",""trial"",""time""
""blur"",""49"",""345920""
","""event"",""trial"",""time""
""focus"",""49"",""348937""
","""event"",""trial"",""time""
""fullscreenenter"",""0"",""3062""
","
","null","<p></p>","null","","","","","","","","","","","","","","","","","","","","","","",""
"","do_trial","102","530553","0.0-61.0-0.0","""event"",""trial"",""time""
""fullscreenenter"",""0"",""3062""
""blur"",""49"",""345920""
""focus"",""49"",""348937""
","""event"",""trial"",""time""
""blur"",""49"",""345920""
","""event"",""trial"",""time""
""focus"",""49"",""348937""
","""event"",""trial"",""time""
""fullscreenenter"",""0"",""3062""
","
","658.8000000715256","","","","","","","","51","1,1,0","0","countryside","6","probe-115","0.7449199054524139","0.27504138167484227","0.18332362967888335","0","","","","","","","",""
"","html-keyboard-response","103","531557","0.0-61.0-1.0","""event"",""trial"",""time""
""fullscreenenter"",""0"",""3062""
""blur"",""49"",""345920""
""focus"",""49"",""348937""
","""event"",""trial"",""time""
""blur"",""49"",""345920""
","""event"",""trial"",""time""
""focus"",""49"",""348937""
","""event"",""trial"",""time""
""fullscreenenter"",""0"",""3062""
","
","null","<p></p>","null","","","","","","","","","","","","","","","","","","","","","","",""
"","do_trial","104","536675","0.0-62.0-0.0","""event"",""trial"",""time""
""fullscreenenter"",""0"",""3062""
""blur"",""49"",""345920""
""focus"",""49"",""348937""
","""event"",""trial"",""time""
""blur"",""49"",""345920""
","""event"",""trial"",""time""
""focus"",""49"",""348937""
","""event"",""trial"",""time""
""fullscreenenter"",""0"",""3062""
","
","562.8000000715256","","","","","","","","49","1,0,0","0","countryside","7","probe-47","0.6254565277210941","0.16701593385384797","0.23897694189021274","1","","","","","","","",""
"","html-keyboard-response","105","537681","0.0-62.0-1.0","""event"",""trial"",""time""
""fullscreenenter"",""0"",""3062""
""blur"",""49"",""345920""
""focus"",""49"",""348937""
","""event"",""trial"",""time""
""blur"",""49"",""345920""
","""event"",""trial"",""time""
""focus"",""49"",""348937""
","""event"",""trial"",""time""
""fullscreenenter"",""0"",""3062""
","
","null","<p></p>","null","","","","","","","","","","","","","","","","","","","","","","",""
"","do_trial","106","542706","0.0-63.0-0.0","""event"",""trial"",""time""
""fullscreenenter"",""0"",""3062""
""blur"",""49"",""345920""
""focus"",""49"",""348937""
","""event"",""trial"",""time""
""blur"",""49"",""345920""
","""event"",""trial"",""time""
""focus"",""49"",""348937""
","""event"",""trial"",""time""
""fullscreenenter"",""0"",""3062""
","
","471.7999999523163","","","","","","","","49","1,0,1","0","countryside","8","probe-125","0.6135411719478072","0.2897337651405463","0.23928856128015719","1","","","","","","","",""
"","html-keyboard-response","107","543710","0.0-63.0-1.0","""event"",""trial"",""time""
""fullscreenenter"",""0"",""3062""
""blur"",""49"",""345920""
""focus"",""49"",""348937""
","""event"",""trial"",""time""
""blur"",""49"",""345920""
","""event"",""trial"",""time""
""focus"",""49"",""348937""
","""event"",""trial"",""time""
""fullscreenenter"",""0"",""3062""
","
","null","<p></p>","null","","","","","","","","","","","","","","","","","","","","","","",""
"","do_trial","108","548688","0.0-64.0-0.0","""event"",""trial"",""time""
""fullscreenenter"",""0"",""3062""
""blur"",""49"",""345920""
""focus"",""49"",""348937""
","""event"",""trial"",""time""
""blur"",""49"",""345920""
","""event"",""trial"",""time""
""focus"",""49"",""348937""
","""event"",""trial"",""time""
""fullscreenenter"",""0"",""3062""
","
","428.40000009536743","","","","","","","","49","1,0,0","0","countryside","9","probe-75","0.5635708612752648","0.25701432641316224","0.13749065949050404","1","","","","","","","",""
"","html-keyboard-response","109","549693","0.0-64.0-1.0","""event"",""trial"",""time""
""fullscreenenter"",""0"",""3062""
""blur"",""49"",""345920""
""focus"",""49"",""348937""
","""event"",""trial"",""time""
""blur"",""49"",""345920""
","""event"",""trial"",""time""
""focus"",""49"",""348937""
","""event"",""trial"",""time""
""fullscreenenter"",""0"",""3062""
","
","null","<p></p>","null","","","","","","","","","","","","","","","","","","","","","","",""
"","do_trial","110","554775","0.0-65.0-0.0","""event"",""trial"",""time""
""fullscreenenter"",""0"",""3062""
""blur"",""49"",""345920""
""focus"",""49"",""348937""
","""event"",""trial"",""time""
""blur"",""49"",""345920""
","""event"",""trial"",""time""
""focus"",""49"",""348937""
","""event"",""trial"",""time""
""fullscreenenter"",""0"",""3062""
","
","528.2000000476837","","","","","","","","49","1,0,0","0","countryside","10","probe-170","0.6476645100551407","0.16673275980011507","0.17003867779002227","1","","","","","","","",""
"","html-keyboard-response","111","555779","0.0-65.0-1.0","""event"",""trial"",""time""
""fullscreenenter"",""0"",""3062""
""blur"",""49"",""345920""
""focus"",""49"",""348937""
","""event"",""trial"",""time""
""blur"",""49"",""345920""
","""event"",""trial"",""time""
""focus"",""49"",""348937""
","""event"",""trial"",""time""
""fullscreenenter"",""0"",""3062""
","
","null","<p></p>","null","","","","","","","","","","","","","","","","","","","","","","",""
"","do_trial","112","561007","0.0-66.0-0.0","""event"",""trial"",""time""
""fullscreenenter"",""0"",""3062""
""blur"",""49"",""345920""
""focus"",""49"",""348937""
","""event"",""trial"",""time""
""blur"",""49"",""345920""
","""event"",""trial"",""time""
""focus"",""49"",""348937""
","""event"",""trial"",""time""
""fullscreenenter"",""0"",""3062""
","
","673.4000000953674","","","","","","","","49","0,0,0","0","countryside","11","probe-83","0.5959478243806539","0.2516181775955601","0.11365900277529672","0","","","","","","","",""
"","html-keyboard-response","113","562011","0.0-66.0-1.0","""event"",""trial"",""time""
""fullscreenenter"",""0"",""3062""
""blur"",""49"",""345920""
""focus"",""49"",""348937""
","""event"",""trial"",""time""
""blur"",""49"",""345920""
","""event"",""trial"",""time""
""focus"",""49"",""348937""
","""event"",""trial"",""time""
""fullscreenenter"",""0"",""3062""
","
","null","<p></p>","null","","","","","","","","","","","","","","","","","","","","","","",""
"","do_trial","114","567241","0.0-67.0-0.0","""event"",""trial"",""time""
""fullscreenenter"",""0"",""3062""
""blur"",""49"",""345920""
""focus"",""49"",""348937""
","""event"",""trial"",""time""
""blur"",""49"",""345920""
","""event"",""trial"",""time""
""focus"",""49"",""348937""
","""event"",""trial"",""time""
""fullscreenenter"",""0"",""3062""
","
","674.5","","","","","","","","49","0,1,0","0","countryside","12","probe-162","0.6095123229487258","0.47609323550511984","0.10020595815662052","0","","","","","","","",""
"","html-keyboard-response","115","568246","0.0-67.0-1.0","""event"",""trial"",""time""
""fullscreenenter"",""0"",""3062""
""blur"",""49"",""345920""
""focus"",""49"",""348937""
","""event"",""trial"",""time""
""blur"",""49"",""345920""
","""event"",""trial"",""time""
""focus"",""49"",""348937""
","""event"",""trial"",""time""
""fullscreenenter"",""0"",""3062""
","
","null","<p></p>","null","","","","","","","","","","","","","","","","","","","","","","",""
"","do_trial","116","573419","0.0-68.0-0.0","""event"",""trial"",""time""
""fullscreenenter"",""0"",""3062""
""blur"",""49"",""345920""
""focus"",""49"",""348937""
","""event"",""trial"",""time""
""blur"",""49"",""345920""
","""event"",""trial"",""time""
""focus"",""49"",""348937""
","""event"",""trial"",""time""
""fullscreenenter"",""0"",""3062""
","
","620.7000000476837","","","","","","","","49","0,0,0","0","countryside","13","probe-88","0.5504352519292475","0.33557003804181657","0.1545750941127509","0","","","","","","","",""
"","html-keyboard-response","117","574424","0.0-68.0-1.0","""event"",""trial"",""time""
""fullscreenenter"",""0"",""3062""
""blur"",""49"",""345920""
""focus"",""49"",""348937""
","""event"",""trial"",""time""
""blur"",""49"",""345920""
","""event"",""trial"",""time""
""focus"",""49"",""348937""
","""event"",""trial"",""time""
""fullscreenenter"",""0"",""3062""
","
","null","<p></p>","null","","","","","","","","","","","","","","","","","","","","","","",""
"","do_trial","118","579527","0.0-69.0-0.0","""event"",""trial"",""time""
""fullscreenenter"",""0"",""3062""
""blur"",""49"",""345920""
""focus"",""49"",""348937""
","""event"",""trial"",""time""
""blur"",""49"",""345920""
","""event"",""trial"",""time""
""focus"",""49"",""348937""
","""event"",""trial"",""time""
""fullscreenenter"",""0"",""3062""
","
","553.3999999761581","","","","","","","","49","0,0,0","0","countryside","14","probe-40","0.49806518937784","0.22274648030214764","0.05019788976319589","0","","","","","","","",""
"","html-keyboard-response","119","580532","0.0-69.0-1.0","""event"",""trial"",""time""
""fullscreenenter"",""0"",""3062""
""blur"",""49"",""345920""
""focus"",""49"",""348937""
","""event"",""trial"",""time""
""blur"",""49"",""345920""
","""event"",""trial"",""time""
""focus"",""49"",""348937""
","""event"",""trial"",""time""
""fullscreenenter"",""0"",""3062""
","
","null","<p></p>","null","","","","","","","","","","","","","","","","","","","","","","",""
"","do_trial","120","585542","0.0-70.0-0.0","""event"",""trial"",""time""
""fullscreenenter"",""0"",""3062""
""blur"",""49"",""345920""
""focus"",""49"",""348937""
","""event"",""trial"",""time""
""blur"",""49"",""345920""
","""event"",""trial"",""time""
""focus"",""49"",""348937""
","""event"",""trial"",""time""
""fullscreenenter"",""0"",""3062""
","
","456.5","","","","","","","","50","1,1,0","0","countryside","15","probe-55","0.7363004730245793","0.15321550977770854","0.08998147911856576","1","","","","","","","",""
"","html-keyboard-response","121","586544","0.0-70.0-1.0","""event"",""trial"",""time""
""fullscreenenter"",""0"",""3062""
""blur"",""49"",""345920""
""focus"",""49"",""348937""
","""event"",""trial"",""time""
""blur"",""49"",""345920""
","""event"",""trial"",""time""
""focus"",""49"",""348937""
","""event"",""trial"",""time""
""fullscreenenter"",""0"",""3062""
","
","null","<p></p>","null","","","","","","","","","","","","","","","","","","","","","","",""
"","do_trial","122","591696","0.0-71.0-0.0","""event"",""trial"",""time""
""fullscreenenter"",""0"",""3062""
""blur"",""49"",""345920""
""focus"",""49"",""348937""
","""event"",""trial"",""time""
""blur"",""49"",""345920""
","""event"",""trial"",""time""
""focus"",""49"",""348937""
","""event"",""trial"",""time""
""fullscreenenter"",""0"",""3062""
","
","599.5","","","","","","","","50","1,1,0","0","countryside","16","probe-139","0.5826050852097499","0.3024700921991956","0.10594519653395018","1","","","","","","","",""
"","html-keyboard-response","123","592702","0.0-71.0-1.0","""event"",""trial"",""time""
""fullscreenenter"",""0"",""3062""
""blur"",""49"",""345920""
""focus"",""49"",""348937""
","""event"",""trial"",""time""
""blur"",""49"",""345920""
","""event"",""trial"",""time""
""focus"",""49"",""348937""
","""event"",""trial"",""time""
""fullscreenenter"",""0"",""3062""
","
","null","<p></p>","null","","","","","","","","","","","","","","","","","","","","","","",""
"","do_trial","124","597757","0.0-72.0-0.0","""event"",""trial"",""time""
""fullscreenenter"",""0"",""3062""
""blur"",""49"",""345920""
""focus"",""49"",""348937""
","""event"",""trial"",""time""
""blur"",""49"",""345920""
","""event"",""trial"",""time""
""focus"",""49"",""348937""
","""event"",""trial"",""time""
""fullscreenenter"",""0"",""3062""
","
","502.5","","","","","","","","50","1,0,0","0","countryside","17","probe-72","0.5628636876940822","0.2732651457709833","0.10339214918501831","0","","","","","","","",""
"","html-keyboard-response","125","598762","0.0-72.0-1.0","""event"",""trial"",""time""
""fullscreenenter"",""0"",""3062""
""blur"",""49"",""345920""
""focus"",""49"",""348937""
","""event"",""trial"",""time""
""blur"",""49"",""345920""
","""event"",""trial"",""time""
""focus"",""49"",""348937""
","""event"",""trial"",""time""
""fullscreenenter"",""0"",""3062""
","
","null","<p></p>","null","","","","","","","","","","","","","","","","","","","","","","",""
"","do_trial","126","603832","0.0-73.0-0.0","""event"",""trial"",""time""
""fullscreenenter"",""0"",""3062""
""blur"",""49"",""345920""
""focus"",""49"",""348937""
","""event"",""trial"",""time""
""blur"",""49"",""345920""
","""event"",""trial"",""time""
""focus"",""49"",""348937""
","""event"",""trial"",""time""
""fullscreenenter"",""0"",""3062""
","
","516.5999999046326","","","","","","","","50","1,1,1","0","countryside","18","probe-39","0.5740966301209596","0.3205327570267344","0.11677023537159692","1","","","","","","","",""
"","html-keyboard-response","127","604836","0.0-73.0-1.0","""event"",""trial"",""time""
""fullscreenenter"",""0"",""3062""
""blur"",""49"",""345920""
""focus"",""49"",""348937""
","""event"",""trial"",""time""
""blur"",""49"",""345920""
","""event"",""trial"",""time""
""focus"",""49"",""348937""
","""event"",""trial"",""time""
""fullscreenenter"",""0"",""3062""
","
","null","<p></p>","null","","","","","","","","","","","","","","","","","","","","","","",""
"","do_trial","128","609991","0.0-74.0-0.0","""event"",""trial"",""time""
""fullscreenenter"",""0"",""3062""
""blur"",""49"",""345920""
""focus"",""49"",""348937""
","""event"",""trial"",""time""
""blur"",""49"",""345920""
","""event"",""trial"",""time""
""focus"",""49"",""348937""
","""event"",""trial"",""time""
""fullscreenenter"",""0"",""3062""
","
","603.8999999761581","","","","","","","","50","0,1,0","0","countryside","19","probe-120","0.6574228911965357","0.27437025070626303","0.16928947566234206","1","","","","","","","",""
"","html-keyboard-response","129","610993","0.0-74.0-1.0","""event"",""trial"",""time""
""fullscreenenter"",""0"",""3062""
""blur"",""49"",""345920""
""focus"",""49"",""348937""
","""event"",""trial"",""time""
""blur"",""49"",""345920""
","""event"",""trial"",""time""
""focus"",""49"",""348937""
","""event"",""trial"",""time""
""fullscreenenter"",""0"",""3062""
","
","null","<p></p>","null","","","","","","","","","","","","","","","","","","","","","","",""
"","do_trial","130","616079","0.0-75.0-0.0","""event"",""trial"",""time""
""fullscreenenter"",""0"",""3062""
""blur"",""49"",""345920""
""focus"",""49"",""348937""
","""event"",""trial"",""time""
""blur"",""49"",""345920""
","""event"",""trial"",""time""
""focus"",""49"",""348937""
","""event"",""trial"",""time""
""fullscreenenter"",""0"",""3062""
","
","534.6999999284744","","","","","","","","50","1,0,0","0","countryside","20","probe-14","0.7362247797618872","0.20233212984705162","0.05297461642809994","0","","","","","","","",""
"","html-keyboard-response","131","617083","0.0-75.0-1.0","""event"",""trial"",""time""
""fullscreenenter"",""0"",""3062""
""blur"",""49"",""345920""
""focus"",""49"",""348937""
","""event"",""trial"",""time""
""blur"",""49"",""345920""
","""event"",""trial"",""time""
""focus"",""49"",""348937""
","""event"",""trial"",""time""
""fullscreenenter"",""0"",""3062""
","
","null","<p></p>","null","","","","","","","","","","","","","","","","","","","","","","",""
"","do_trial","132","622048","0.0-76.0-0.0","""event"",""trial"",""time""
""fullscreenenter"",""0"",""3062""
""blur"",""49"",""345920""
""focus"",""49"",""348937""
","""event"",""trial"",""time""
""blur"",""49"",""345920""
","""event"",""trial"",""time""
""focus"",""49"",""348937""
","""event"",""trial"",""time""
""fullscreenenter"",""0"",""3062""
","
","409.7000000476837","","","","","","","","50","1,0,0","0","countryside","21","probe-27","0.7477797365905521","0.398846617498141","0.15413993187510275","0","","","","","","","",""
"","html-keyboard-response","133","623053","0.0-76.0-1.0","""event"",""trial"",""time""
""fullscreenenter"",""0"",""3062""
""blur"",""49"",""345920""
""focus"",""49"",""348937""
","""event"",""trial"",""time""
""blur"",""49"",""345920""
","""event"",""trial"",""time""
""focus"",""49"",""348937""
","""event"",""trial"",""time""
""fullscreenenter"",""0"",""3062""
","
","null","<p></p>","null","","","","","","","","","","","","","","","","","","","","","","",""
"","do_trial","134","628069","0.0-77.0-0.0","""event"",""trial"",""time""
""fullscreenenter"",""0"",""3062""
""blur"",""49"",""345920""
""focus"",""49"",""348937""
","""event"",""trial"",""time""
""blur"",""49"",""345920""
","""event"",""trial"",""time""
""focus"",""49"",""348937""
","""event"",""trial"",""time""
""fullscreenenter"",""0"",""3062""
","
","460.60000002384186","","","","","","","","50","0,0,0","0","countryside","22","probe-167","0.5964974258393866","0.3539050667115177","0.12077142762278195","0","","","","","","","",""
"","html-keyboard-response","135","629071","0.0-77.0-1.0","""event"",""trial"",""time""
""fullscreenenter"",""0"",""3062""
""blur"",""49"",""345920""
""focus"",""49"",""348937""
","""event"",""trial"",""time""
""blur"",""49"",""345920""
","""event"",""trial"",""time""
""focus"",""49"",""348937""
","""event"",""trial"",""time""
""fullscreenenter"",""0"",""3062""
","
","null","<p></p>","null","","","","","","","","","","","","","","","","","","","","","","",""
"","do_trial","136","634214","0.0-78.0-0.0","""event"",""trial"",""time""
""fullscreenenter"",""0"",""3062""
""blur"",""49"",""345920""
""focus"",""49"",""348937""
","""event"",""trial"",""time""
""blur"",""49"",""345920""
","""event"",""trial"",""time""
""focus"",""49"",""348937""
","""event"",""trial"",""time""
""fullscreenenter"",""0"",""3062""
","
","583.3999999761581","","","","","","","","51","0,0,0","0","countryside","23","probe-117","0.6386269685207495","0.41707435521342967","0.10850778632623753","0","","","","","","","",""
"","html-keyboard-response","137","635219","0.0-78.0-1.0","""event"",""trial"",""time""
""fullscreenenter"",""0"",""3062""
""blur"",""49"",""345920""
""focus"",""49"",""348937""
","""event"",""trial"",""time""
""blur"",""49"",""345920""
","""event"",""trial"",""time""
""focus"",""49"",""348937""
","""event"",""trial"",""time""
""fullscreenenter"",""0"",""3062""
","
","null","<p></p>","null","","","","","","","","","","","","","","","","","","","","","","",""
"","do_trial","138","640284","0.0-79.0-0.0","""event"",""trial"",""time""
""fullscreenenter"",""0"",""3062""
""blur"",""49"",""345920""
""focus"",""49"",""348937""
","""event"",""trial"",""time""
""blur"",""49"",""345920""
","""event"",""trial"",""time""
""focus"",""49"",""348937""
","""event"",""trial"",""time""
""fullscreenenter"",""0"",""3062""
","
","509.5","","","","","","","","51","0,0,0","0","countryside","24","probe-140","0.6555593473262951","0.2911798763460514","0.18713763408452586","0","","","","","","","",""
"","html-keyboard-response","139","641289","0.0-79.0-1.0","""event"",""trial"",""time""
""fullscreenenter"",""0"",""3062""
""blur"",""49"",""345920""
""focus"",""49"",""348937""
","""event"",""trial"",""time""
""blur"",""49"",""345920""
","""event"",""trial"",""time""
""focus"",""49"",""348937""
","""event"",""trial"",""time""
""fullscreenenter"",""0"",""3062""
","
","null","<p></p>","null","","","","","","","","","","","","","","","","","","","","","","",""
"","do_trial","140","646271","0.0-80.0-0.0","""event"",""trial"",""time""
""fullscreenenter"",""0"",""3062""
""blur"",""49"",""345920""
""focus"",""49"",""348937""
","""event"",""trial"",""time""
""blur"",""49"",""345920""
","""event"",""trial"",""time""
""focus"",""49"",""348937""
","""event"",""trial"",""time""
""fullscreenenter"",""0"",""3062""
","
","432.2000000476837","","","","","","","","51","0,0,0","0","countryside","25","probe-203","0.5640593521538739","0.08905296555650807","0.17172772898507335","0","","","","","","","",""
"","html-keyboard-response","141","647277","0.0-80.0-1.0","""event"",""trial"",""time""
""fullscreenenter"",""0"",""3062""
""blur"",""49"",""345920""
""focus"",""49"",""348937""
","""event"",""trial"",""time""
""blur"",""49"",""345920""
","""event"",""trial"",""time""
""focus"",""49"",""348937""
","""event"",""trial"",""time""
""fullscreenenter"",""0"",""3062""
","
","null","<p></p>","null","","","","","","","","","","","","","","","","","","","","","","",""
"","do_trial","142","652379","0.0-81.0-0.0","""event"",""trial"",""time""
""fullscreenenter"",""0"",""3062""
""blur"",""49"",""345920""
""focus"",""49"",""348937""
","""event"",""trial"",""time""
""blur"",""49"",""345920""
","""event"",""trial"",""time""
""focus"",""49"",""348937""
","""event"",""trial"",""time""
""fullscreenenter"",""0"",""3062""
","
","546.2999999523163","","","","","","","","49","0,0,0","0","countryside","26","probe-217","0.4665815402837308","0.07943043584441536","0.10597018504584561","0","","","","","","","",""
"","html-keyboard-response","143","653384","0.0-81.0-1.0","""event"",""trial"",""time""
""fullscreenenter"",""0"",""3062""
""blur"",""49"",""345920""
""focus"",""49"",""348937""
","""event"",""trial"",""time""
""blur"",""49"",""345920""
","""event"",""trial"",""time""
""focus"",""49"",""348937""
","""event"",""trial"",""time""
""fullscreenenter"",""0"",""3062""
","
","null","<p></p>","null","","","","","","","","","","","","","","","","","","","","","","",""
"","do_trial","144","658500","0.0-82.0-0.0","""event"",""trial"",""time""
""fullscreenenter"",""0"",""3062""
""blur"",""49"",""345920""
""focus"",""49"",""348937""
","""event"",""trial"",""time""
""blur"",""49"",""345920""
","""event"",""trial"",""time""
""focus"",""49"",""348937""
","""event"",""trial"",""time""
""fullscreenenter"",""0"",""3062""
","
","561.3999999761581","","","","","","","","49","1,0,0","0","countryside","27","probe-161","0.5944326826923038","0.08356235542724781","0.15620257141504995","1","","","","","","","",""
"","html-keyboard-response","145","659504","0.0-82.0-1.0","""event"",""trial"",""time""
""fullscreenenter"",""0"",""3062""
""blur"",""49"",""345920""
""focus"",""49"",""348937""
","""event"",""trial"",""time""
""blur"",""49"",""345920""
","""event"",""trial"",""time""
""focus"",""49"",""348937""
","""event"",""trial"",""time""
""fullscreenenter"",""0"",""3062""
","
","null","<p></p>","null","","","","","","","","","","","","","","","","","","","","","","",""
"","do_trial","146","664544","0.0-83.0-0.0","""event"",""trial"",""time""
""fullscreenenter"",""0"",""3062""
""blur"",""49"",""345920""
""focus"",""49"",""348937""
","""event"",""trial"",""time""
""blur"",""49"",""345920""
","""event"",""trial"",""time""
""focus"",""49"",""348937""
","""event"",""trial"",""time""
""fullscreenenter"",""0"",""3062""
","
","491.7999999523163","","","","","","","","49","1,1,0","0","countryside","28","probe-22","0.6583649779218769","0.22430838055320762","0.06090462166656899","1","","","","","","","",""
"","html-keyboard-response","147","665547","0.0-83.0-1.0","""event"",""trial"",""time""
""fullscreenenter"",""0"",""3062""
""blur"",""49"",""345920""
""focus"",""49"",""348937""
","""event"",""trial"",""time""
""blur"",""49"",""345920""
","""event"",""trial"",""time""
""focus"",""49"",""348937""
","""event"",""trial"",""time""
""fullscreenenter"",""0"",""3062""
","
","null","<p></p>","null","","","","","","","","","","","","","","","","","","","","","","",""
"","do_trial","148","670649","0.0-84.0-0.0","""event"",""trial"",""time""
""fullscreenenter"",""0"",""3062""
""blur"",""49"",""345920""
""focus"",""49"",""348937""
","""event"",""trial"",""time""
""blur"",""49"",""345920""
","""event"",""trial"",""time""
""focus"",""49"",""348937""
","""event"",""trial"",""time""
""fullscreenenter"",""0"",""3062""
","
","549.8999999761581","","","","","","","","49","1,0,0","0","countryside","29","probe-79","0.6939448090199742","0.2693802203535836","0.08403132558897265","1","","","","","","","",""
"","html-keyboard-response","149","671651","0.0-84.0-1.0","""event"",""trial"",""time""
""fullscreenenter"",""0"",""3062""
""blur"",""49"",""345920""
""focus"",""49"",""348937""
","""event"",""trial"",""time""
""blur"",""49"",""345920""
","""event"",""trial"",""time""
""focus"",""49"",""348937""
","""event"",""trial"",""time""
""fullscreenenter"",""0"",""3062""
","
","null","<p></p>","null","","","","","","","","","","","","","","","","","","","","","","",""
"","do_bye","150","673160","0.0-85.0-0.0","""event"",""trial"",""time""
""fullscreenenter"",""0"",""3062""
""blur"",""49"",""345920""
""focus"",""49"",""348937""
","""event"",""trial"",""time""
""blur"",""49"",""345920""
","""event"",""trial"",""time""
""focus"",""49"",""348937""
","""event"",""trial"",""time""
""fullscreenenter"",""0"",""3062""
","
","null","","","","","","","","null","","","","","","","","","","","","","","","","",""
"","break","151","718445","0.0-85.0-1.0","""event"",""trial"",""time""
""fullscreenenter"",""0"",""3062""
""blur"",""49"",""345920""
""focus"",""49"",""348937""
","""event"",""trial"",""time""
""blur"",""49"",""345920""
","""event"",""trial"",""time""
""focus"",""49"",""348937""
","""event"",""trial"",""time""
""fullscreenenter"",""0"",""3062""
","
","45283.09999990463","<div class='center'><p>Time to take a quick break! You have 2 minutes to rest, but you can move on sooner if you'd like.</p><p> Press the <b>space bar</b> to continue.</p></div>","32","","","","","","","","","","","","","","","","","","","","","","",""
"","do_travel","152","727453","0.0-86.0-0.0","""event"",""trial"",""time""
""fullscreenenter"",""0"",""3062""
""blur"",""49"",""345920""
""focus"",""49"",""348937""
","""event"",""trial"",""time""
""blur"",""49"",""345920""
","""event"",""trial"",""time""
""focus"",""49"",""348937""
","""event"",""trial"",""time""
""fullscreenenter"",""0"",""3062""
","
","null","","","","","","","","null","","","","","","","","","","","","","","","","",""
"","do_welcome","153","731464","0.0-86.0-1.0","""event"",""trial"",""time""
""fullscreenenter"",""0"",""3062""
""blur"",""49"",""345920""
""focus"",""49"",""348937""
","""event"",""trial"",""time""
""blur"",""49"",""345920""
","""event"",""trial"",""time""
""focus"",""49"",""348937""
","""event"",""trial"",""time""
""fullscreenenter"",""0"",""3062""
","
","null","","","","","","","","null","","","","","","","","","","","","","","","","",""
"","do_trial","154","737265","0.0-87.0-0.0","""event"",""trial"",""time""
""fullscreenenter"",""0"",""3062""
""blur"",""49"",""345920""
""focus"",""49"",""348937""
","""event"",""trial"",""time""
""blur"",""49"",""345920""
","""event"",""trial"",""time""
""focus"",""49"",""348937""
","""event"",""trial"",""time""
""fullscreenenter"",""0"",""3062""
","
","1251","","","","","","","","49","1,0,0","1","highway","30","probe-218","1","0.3155025111271846","0.1467969284401625","1","","","","","","","",""
"","html-keyboard-response","155","738271","0.0-87.0-1.0","""event"",""trial"",""time""
""fullscreenenter"",""0"",""3062""
""blur"",""49"",""345920""
""focus"",""49"",""348937""
","""event"",""trial"",""time""
""blur"",""49"",""345920""
","""event"",""trial"",""time""
""focus"",""49"",""348937""
","""event"",""trial"",""time""
""fullscreenenter"",""0"",""3062""
","
","null","<p></p>","null","","","","","","","","","","","","","","","","","","","","","","",""
"","do_trial","156","743276","0.0-88.0-0.0","""event"",""trial"",""time""
""fullscreenenter"",""0"",""3062""
""blur"",""49"",""345920""
""focus"",""49"",""348937""
","""event"",""trial"",""time""
""blur"",""49"",""345920""
","""event"",""trial"",""time""
""focus"",""49"",""348937""
","""event"",""trial"",""time""
""fullscreenenter"",""0"",""3062""
","
","454.1999999284744","","","","","","","","49","1,0,1","1","highway","31","probe-166","1","0.3567540844139223","0.223371864253209","1","","","","","","","",""
"","html-keyboard-response","157","744281","0.0-88.0-1.0","""event"",""trial"",""time""
""fullscreenenter"",""0"",""3062""
""blur"",""49"",""345920""
""focus"",""49"",""348937""
","""event"",""trial"",""time""
""blur"",""49"",""345920""
","""event"",""trial"",""time""
""focus"",""49"",""348937""
","""event"",""trial"",""time""
""fullscreenenter"",""0"",""3062""
","
","null","<p></p>","null","","","","","","","","","","","","","","","","","","","","","","",""
"","do_trial","158","749214","0.0-89.0-0.0","""event"",""trial"",""time""
""fullscreenenter"",""0"",""3062""
""blur"",""49"",""345920""
""focus"",""49"",""348937""
","""event"",""trial"",""time""
""blur"",""49"",""345920""
","""event"",""trial"",""time""
""focus"",""49"",""348937""
","""event"",""trial"",""time""
""fullscreenenter"",""0"",""3062""
","
","377.59999990463257","","","","","","","","49","1,0,0","1","highway","32","probe-222","1","0.3534593954907708","0.06853239213017819","1","","","","","","","",""
"","html-keyboard-response","159","750219","0.0-89.0-1.0","""event"",""trial"",""time""
""fullscreenenter"",""0"",""3062""
""blur"",""49"",""345920""
""focus"",""49"",""348937""
","""event"",""trial"",""time""
""blur"",""49"",""345920""
","""event"",""trial"",""time""
""focus"",""49"",""348937""
","""event"",""trial"",""time""
""fullscreenenter"",""0"",""3062""
","
","null","<p></p>","null","","","","","","","","","","","","","","","","","","","","","","",""
"","do_trial","160","755214","0.0-90.0-0.0","""event"",""trial"",""time""
""fullscreenenter"",""0"",""3062""
""blur"",""49"",""345920""
""focus"",""49"",""348937""
","""event"",""trial"",""time""
""blur"",""49"",""345920""
","""event"",""trial"",""time""
""focus"",""49"",""348937""
","""event"",""trial"",""time""
""fullscreenenter"",""0"",""3062""
","
","442.89999997615814","","","","","","","","49","1,1,0","1","highway","33","probe-219","0.9088644728077019","0.4928710486854814","0.07475571161835172","1","","","","","","","",""
"","html-keyboard-response","161","756219","0.0-90.0-1.0","""event"",""trial"",""time""
""fullscreenenter"",""0"",""3062""
""blur"",""49"",""345920""
""focus"",""49"",""348937""
","""event"",""trial"",""time""
""blur"",""49"",""345920""
","""event"",""trial"",""time""
""focus"",""49"",""348937""
","""event"",""trial"",""time""
""fullscreenenter"",""0"",""3062""
","
","null","<p></p>","null","","","","","","","","","","","","","","","","","","","","","","",""
"","do_trial","162","761321","0.0-91.0-0.0","""event"",""trial"",""time""
""fullscreenenter"",""0"",""3062""
""blur"",""49"",""345920""
""focus"",""49"",""348937""
","""event"",""trial"",""time""
""blur"",""49"",""345920""
","""event"",""trial"",""time""
""focus"",""49"",""348937""
","""event"",""trial"",""time""
""fullscreenenter"",""0"",""3062""
","
","552.5999999046326","","","","","","","","49","1,0,0","1","highway","34","probe-207","0.7137177903899118","0.42104943375121734","0.05400750298246739","1","","","","","","","",""
"","html-keyboard-response","163","762326","0.0-91.0-1.0","""event"",""trial"",""time""
""fullscreenenter"",""0"",""3062""
""blur"",""49"",""345920""
""focus"",""49"",""348937""
","""event"",""trial"",""time""
""blur"",""49"",""345920""
","""event"",""trial"",""time""
""focus"",""49"",""348937""
","""event"",""trial"",""time""
""fullscreenenter"",""0"",""3062""
","
","null","<p></p>","null","","","","","","","","","","","","","","","","","","","","","","",""
"","do_trial","164","767342","0.0-92.0-0.0","""event"",""trial"",""time""
""fullscreenenter"",""0"",""3062""
""blur"",""49"",""345920""
""focus"",""49"",""348937""
","""event"",""trial"",""time""
""blur"",""49"",""345920""
","""event"",""trial"",""time""
""focus"",""49"",""348937""
","""event"",""trial"",""time""
""fullscreenenter"",""0"",""3062""
","
","466.59999990463257","","","","","","","","49","1,1,0","1","highway","35","probe-77","0.6317725488830382","0.3675847139243502","0.17901404849043026","1","","","","","","","",""
"","html-keyboard-response","165","768348","0.0-92.0-1.0","""event"",""trial"",""time""
""fullscreenenter"",""0"",""3062""
""blur"",""49"",""345920""
""focus"",""49"",""348937""
","""event"",""trial"",""time""
""blur"",""49"",""345920""
","""event"",""trial"",""time""
""focus"",""49"",""348937""
","""event"",""trial"",""time""
""fullscreenenter"",""0"",""3062""
","
","null","<p></p>","null","","","","","","","","","","","","","","","","","","","","","","",""
"","do_trial","166","773784","0.0-93.0-0.0","""event"",""trial"",""time""
""fullscreenenter"",""0"",""3062""
""blur"",""49"",""345920""
""focus"",""49"",""348937""
","""event"",""trial"",""time""
""blur"",""49"",""345920""
","""event"",""trial"",""time""
""focus"",""49"",""348937""
","""event"",""trial"",""time""
""fullscreenenter"",""0"",""3062""
","
","882.2999999523163","","","","","","","","49","0,0,0","1","highway","36","probe-153","0.5564067770244974","0.3066965122409067","0.1460712254234878","0","","","","","","","",""
"","html-keyboard-response","167","774789","0.0-93.0-1.0","""event"",""trial"",""time""
""fullscreenenter"",""0"",""3062""
""blur"",""49"",""345920""
""focus"",""49"",""348937""
","""event"",""trial"",""time""
""blur"",""49"",""345920""
","""event"",""trial"",""time""
""focus"",""49"",""348937""
","""event"",""trial"",""time""
""fullscreenenter"",""0"",""3062""
","
","null","<p></p>","null","","","","","","","","","","","","","","","","","","","","","","",""
"","do_trial","168","780179","0.0-94.0-0.0","""event"",""trial"",""time""
""fullscreenenter"",""0"",""3062""
""blur"",""49"",""345920""
""focus"",""49"",""348937""
","""event"",""trial"",""time""
""blur"",""49"",""345920""
","""event"",""trial"",""time""
""focus"",""49"",""348937""
","""event"",""trial"",""time""
""fullscreenenter"",""0"",""3062""
","
","839.6000000238419","","","","","","","","50","1,0,0","1","highway","37","probe-07","0.6659189122566366","0.38135312907751356","0.0834322873651581","0","","","","","","","",""
"","html-keyboard-response","169","781184","0.0-94.0-1.0","""event"",""trial"",""time""
""fullscreenenter"",""0"",""3062""
""blur"",""49"",""345920""
""focus"",""49"",""348937""
","""event"",""trial"",""time""
""blur"",""49"",""345920""
","""event"",""trial"",""time""
""focus"",""49"",""348937""
","""event"",""trial"",""time""
""fullscreenenter"",""0"",""3062""
","
","null","<p></p>","null","","","","","","","","","","","","","","","","","","","","","","",""
"","do_trial","170","786235","0.0-95.0-0.0","""event"",""trial"",""time""
""fullscreenenter"",""0"",""3062""
""blur"",""49"",""345920""
""focus"",""49"",""348937""
","""event"",""trial"",""time""
""blur"",""49"",""345920""
","""event"",""trial"",""time""
""focus"",""49"",""348937""
","""event"",""trial"",""time""
""fullscreenenter"",""0"",""3062""
","
","500.39999997615814","","","","","","","","50","1,0,1","1","highway","38","probe-175","0.6773824396751411","0.26442984062544717","0.22900878710367054","0","","","","","","","",""
"","html-keyboard-response","171","787240","0.0-95.0-1.0","""event"",""trial"",""time""
""fullscreenenter"",""0"",""3062""
""blur"",""49"",""345920""
""focus"",""49"",""348937""
","""event"",""trial"",""time""
""blur"",""49"",""345920""
","""event"",""trial"",""time""
""focus"",""49"",""348937""
","""event"",""trial"",""time""
""fullscreenenter"",""0"",""3062""
","
","null","<p></p>","null","","","","","","","","","","","","","","","","","","","","","","",""
"","do_trial","172","792250","0.0-96.0-0.0","""event"",""trial"",""time""
""fullscreenenter"",""0"",""3062""
""blur"",""49"",""345920""
""focus"",""49"",""348937""
","""event"",""trial"",""time""
""blur"",""49"",""345920""
","""event"",""trial"",""time""
""focus"",""49"",""348937""
","""event"",""trial"",""time""
""fullscreenenter"",""0"",""3062""
","
","454.39999997615814","","","","","","","","51","1,0,0","1","highway","39","probe-165","0.5987556569044705","0.23613992928321337","0.11986547940773568","0","","","","","","","",""
"","html-keyboard-response","173","793255","0.0-96.0-1.0","""event"",""trial"",""time""
""fullscreenenter"",""0"",""3062""
""blur"",""49"",""345920""
""focus"",""49"",""348937""
","""event"",""trial"",""time""
""blur"",""49"",""345920""
","""event"",""trial"",""time""
""focus"",""49"",""348937""
","""event"",""trial"",""time""
""fullscreenenter"",""0"",""3062""
","
","null","<p></p>","null","","","","","","","","","","","","","","","","","","","","","","",""
"","do_trial","174","798205","0.0-97.0-0.0","""event"",""trial"",""time""
""fullscreenenter"",""0"",""3062""
""blur"",""49"",""345920""
""focus"",""49"",""348937""
","""event"",""trial"",""time""
""blur"",""49"",""345920""
","""event"",""trial"",""time""
""focus"",""49"",""348937""
","""event"",""trial"",""time""
""fullscreenenter"",""0"",""3062""
","
","394.60000002384186","","","","","","","","51","0,0,0","1","highway","40","probe-03","0.44803907955307226","0.21540122550372456","0.1495849138796974","0","","","","","","","",""
"","html-keyboard-response","175","799209","0.0-97.0-1.0","""event"",""trial"",""time""
""fullscreenenter"",""0"",""3062""
""blur"",""49"",""345920""
""focus"",""49"",""348937""
","""event"",""trial"",""time""
""blur"",""49"",""345920""
","""event"",""trial"",""time""
""focus"",""49"",""348937""
","""event"",""trial"",""time""
""fullscreenenter"",""0"",""3062""
","
","null","<p></p>","null","","","","","","","","","","","","","","","","","","","","","","",""
"","do_trial","176","804215","0.0-98.0-0.0","""event"",""trial"",""time""
""fullscreenenter"",""0"",""3062""
""blur"",""49"",""345920""
""focus"",""49"",""348937""
","""event"",""trial"",""time""
""blur"",""49"",""345920""
","""event"",""trial"",""time""
""focus"",""49"",""348937""
","""event"",""trial"",""time""
""fullscreenenter"",""0"",""3062""
","
","450","","","","","","","","49","1,1,0","1","highway","41","probe-186","0.43869802519773254","0.16612997256372428","0.1714325334444753","1","","","","","","","",""
"","html-keyboard-response","177","805219","0.0-98.0-1.0","""event"",""trial"",""time""
""fullscreenenter"",""0"",""3062""
""blur"",""49"",""345920""
""focus"",""49"",""348937""
","""event"",""trial"",""time""
""blur"",""49"",""345920""
","""event"",""trial"",""time""
""focus"",""49"",""348937""
","""event"",""trial"",""time""
""fullscreenenter"",""0"",""3062""
","
","null","<p></p>","null","","","","","","","","","","","","","","","","","","","","","","",""
"","do_trial","178","810256","0.0-99.0-0.0","""event"",""trial"",""time""
""fullscreenenter"",""0"",""3062""
""blur"",""49"",""345920""
""focus"",""49"",""348937""
","""event"",""trial"",""time""
""blur"",""49"",""345920""
","""event"",""trial"",""time""
""focus"",""49"",""348937""
","""event"",""trial"",""time""
""fullscreenenter"",""0"",""3062""
","
","487.10000002384186","","","","","","","","49","0,1,0","1","highway","42","probe-100","0.5451289985480015","0.34795483772909835","0.17150738715582178","0","","","","","","","",""
"","html-keyboard-response","179","811260","0.0-99.0-1.0","""event"",""trial"",""time""
""fullscreenenter"",""0"",""3062""
""blur"",""49"",""345920""
""focus"",""49"",""348937""
","""event"",""trial"",""time""
""blur"",""49"",""345920""
","""event"",""trial"",""time""
""focus"",""49"",""348937""
","""event"",""trial"",""time""
""fullscreenenter"",""0"",""3062""
","
","null","<p></p>","null","","","","","","","","","","","","","","","","","","","","","","",""
"","do_trial","180","816235","0.0-100.0-0.0","""event"",""trial"",""time""
""fullscreenenter"",""0"",""3062""
""blur"",""49"",""345920""
""focus"",""49"",""348937""
","""event"",""trial"",""time""
""blur"",""49"",""345920""
","""event"",""trial"",""time""
""focus"",""49"",""348937""
","""event"",""trial"",""time""
""fullscreenenter"",""0"",""3062""
","
","419.2000000476837","","","","","","","","49","0,0,0","1","highway","43","probe-197","0.5278530833538615","0.4933321386755919","0.12128514571294803","0","","","","","","","",""
"","html-keyboard-response","181","817237","0.0-100.0-1.0","""event"",""trial"",""time""
""fullscreenenter"",""0"",""3062""
""blur"",""49"",""345920""
""focus"",""49"",""348937""
","""event"",""trial"",""time""
""blur"",""49"",""345920""
","""event"",""trial"",""time""
""focus"",""49"",""348937""
","""event"",""trial"",""time""
""fullscreenenter"",""0"",""3062""
","
","null","<p></p>","null","","","","","","","","","","","","","","","","","","","","","","",""
"","do_trial","182","822198","0.0-101.0-0.0","""event"",""trial"",""time""
""fullscreenenter"",""0"",""3062""
""blur"",""49"",""345920""
""focus"",""49"",""348937""
","""event"",""trial"",""time""
""blur"",""49"",""345920""
","""event"",""trial"",""time""
""focus"",""49"",""348937""
","""event"",""trial"",""time""
""fullscreenenter"",""0"",""3062""
","
","404.2000000476837","","","","","","","","49","0,0,0","1","highway","44","probe-212","0.3001774868028248","0.536573572499248","0.15460264483225494","0","","","","","","","",""
"","html-keyboard-response","183","823200","0.0-101.0-1.0","""event"",""trial"",""time""
""fullscreenenter"",""0"",""3062""
""blur"",""49"",""345920""
""focus"",""49"",""348937""
","""event"",""trial"",""time""
""blur"",""49"",""345920""
","""event"",""trial"",""time""
""focus"",""49"",""348937""
","""event"",""trial"",""time""
""fullscreenenter"",""0"",""3062""
","
","null","<p></p>","null","","","","","","","","","","","","","","","","","","","","","","",""
"","do_trial","184","828202","0.0-102.0-0.0","""event"",""trial"",""time""
""fullscreenenter"",""0"",""3062""
""blur"",""49"",""345920""
""focus"",""49"",""348937""
","""event"",""trial"",""time""
""blur"",""49"",""345920""
","""event"",""trial"",""time""
""focus"",""49"",""348937""
","""event"",""trial"",""time""
""fullscreenenter"",""0"",""3062""
","
","449.60000002384186","","","","","","","","49","1,1,0","1","highway","45","probe-163","0.3630276281421192","0.5994318667747345","0.2441367717653952","1","","","","","","","",""
"","html-keyboard-response","185","829208","0.0-102.0-1.0","""event"",""trial"",""time""
""fullscreenenter"",""0"",""3062""
""blur"",""49"",""345920""
""focus"",""49"",""348937""
","""event"",""trial"",""time""
""blur"",""49"",""345920""
","""event"",""trial"",""time""
""focus"",""49"",""348937""
","""event"",""trial"",""time""
""fullscreenenter"",""0"",""3062""
","
","null","<p></p>","null","","","","","","","","","","","","","","","","","","","","","","",""
"","do_trial","186","834385","0.0-103.0-0.0","""event"",""trial"",""time""
""fullscreenenter"",""0"",""3062""
""blur"",""49"",""345920""
""focus"",""49"",""348937""
","""event"",""trial"",""time""
""blur"",""49"",""345920""
","""event"",""trial"",""time""
""focus"",""49"",""348937""
","""event"",""trial"",""time""
""fullscreenenter"",""0"",""3062""
","
","627.1999999284744","","","","","","","","49","1,1,1","1","highway","46","probe-101","0.3125116456681849","0.6717194287996157","0.27266697598550144","1","","","","","","","",""
"","html-keyboard-response","187","835390","0.0-103.0-1.0","""event"",""trial"",""time""
""fullscreenenter"",""0"",""3062""
""blur"",""49"",""345920""
""focus"",""49"",""348937""
","""event"",""trial"",""time""
""blur"",""49"",""345920""
","""event"",""trial"",""time""
""focus"",""49"",""348937""
","""event"",""trial"",""time""
""fullscreenenter"",""0"",""3062""
","
","null","<p></p>","null","","","","","","","","","","","","","","","","","","","","","","",""
"","do_trial","188","840485","0.0-104.0-0.0","""event"",""trial"",""time""
""fullscreenenter"",""0"",""3062""
""blur"",""49"",""345920""
""focus"",""49"",""348937""
","""event"",""trial"",""time""
""blur"",""49"",""345920""
","""event"",""trial"",""time""
""focus"",""49"",""348937""
","""event"",""trial"",""time""
""fullscreenenter"",""0"",""3062""
","
","539.7999999523163","","","","","","","","49","1,1,0","1","highway","47","probe-18","0.22757958033686168","0.7656441423822663","0.25047964238578035","1","","","","","","","",""
"","html-keyboard-response","189","841489","0.0-104.0-1.0","""event"",""trial"",""time""
""fullscreenenter"",""0"",""3062""
""blur"",""49"",""345920""
""focus"",""49"",""348937""
","""event"",""trial"",""time""
""blur"",""49"",""345920""
","""event"",""trial"",""time""
""focus"",""49"",""348937""
","""event"",""trial"",""time""
""fullscreenenter"",""0"",""3062""
","
","null","<p></p>","null","","","","","","","","","","","","","","","","","","","","","","",""
"","do_trial","190","846694","0.0-105.0-0.0","""event"",""trial"",""time""
