"success","trial_type","trial_index","time_elapsed","internal_node_id","rt","stimulus","key_press","subject_id","participant_id","age","gender","prompt","response","choice_outcomes","context_n","context_img_id","trial_n","probe_img_id","pR_red","pR_white","pR_black","outcome","contextArray_ind","validImageProbes","invalidImageProbes","pRew_Red","pRew_White","pRew_Black","availableForMemProbe","choice_blocks"
"true","fullscreen","0","3358","0.0-0.0","","","","","","","","","","","","","","","","","","","","","","","","","",""
"","pavlovia","1","3361","0.0-1.0","","","","","","","","","","","","","","","","","","","","","","","","","",""
"","instruc1","2","59463","0.0-2.0","null","run_exp/static/audio/clip_1_welcome.m4a","null","62","520","12","Male","<div class='center'><p>Welcome! This is the first part of the experiment. It will last ~30 minutes. In this experiment, you are the head captain of a pirate ship traveling around the world to different islands. You will play a few different games during this experiment. Here is an overview of these games:</p><br><p>Part 1 (today)</p><p>1. Instructions, practice game, and quiz</p><p>2. Pick a pirate game on 6 different islands</p><br><p>Part 2 (1 day later)</p><p>3. Pick a pirate game and memory game</p><p>4. Where did I see this ship? game</p><p>5. Which pirate was the best? game</p><br><p>Part 3 (1 week later)</p><p>6. Alien space mining game</p><p>7. Memory game</p></div>","","","","","","","","","","","","","","","","","",""
"","html-keyboard-response","3","59591","0.0-3.0","127","<div class='center'><p>Welcome! This is the first part of the experiment. It will last ~30 minutes. In this experiment, you are the head captain of a pirate ship traveling around the world to different islands. You will play a few different games during this experiment. Here is an overview of these games:</p><br><p>Part 1 (today)</p><p>1. Instructions, practice game, and quiz</p><p>2. Pick a pirate game on 6 different islands</p><br><p>Part 2 (1 day later)</p><p>3. Pick a pirate game and memory game</p><p>4. Where did I see this ship? game</p><p>5. Which pirate was the best? game</p><br><p>Part 3 (1 week later)</p><p>6. Alien space mining game</p><p>7. Memory game</p><p><b>[Press the space bar to continue]</b></p></div>","32","","","","","","","","","","","","","","","","","","","","","","",""
"","instruc2","4","67589","0.0-4.0","null","run_exp/static/audio/clip_2_different_places.m4a","null","","","","","<div class='center'><p>Today, you’ll visit these 6 islands on your journey. You'll be able to see these islands from your ship.</p><p><img src='run_exp/static/images/contexts/all_contexts.png' height='500'></p></div>","","","","","","","","","","","","","","","","","",""
"","html-keyboard-response","5","69774","0.0-5.0","2184.0999999046326","<div class='center'><p>Today, you’ll visit these 6 islands on your journey. You'll be able to see these islands from your ship.</p><p><img src='run_exp/static/images/contexts/all_contexts.png' height='500'></p><p><b>[Press the space bar to continue]</b></p></div>","32","","","","","","","","","","","","","","","","","","","","","","",""
"","instruc3","6","82358","0.0-6.0","null","run_exp/static/audio/clip_3_goal_of_game_1.m4a","null","","","","","<div class='center'><p> The pirates on your ship will rob other ships as they leave the island</p> These ships have just sold their things to people on the island, so they will be filled with lots and lots of gold.</p><p><img src='run_exp/static/images/tutorial/ship_center.png' height='400'></p></div>","","","","","","","","","","","","","","","","","",""
"","html-keyboard-response","7","83206","0.0-7.0","847.4000000953674","<div class='center'><p> The pirates on your ship will rob other ships as they leave the island</p> These ships have just sold their things to people on the island, so they will be filled with lots and lots of gold.</p><p><img src='run_exp/static/images/tutorial/ship_center.png' height='400'></p><p><b>[Press the space bar to continue]</b></p></div>","32","","","","","","","","","","","","","","","","","","","","","","",""
"","instruc4","8","116422","0.0-8.0","null","run_exp/static/audio/clip_4_goal_of_game_2.m4a","null","","","","","<div class='center'><p>As the head captain, you do not have to rob any ships yourself.</p><p>Another pirate will be doing the robbing for you. </p><p>First, you will  choose a pirate to rob the next ship.</p><p><img src='run_exp/static/images/tutorial/pirates_all_crop.png' height='200'></p><p>Then, you'll see if the pirate successfully robbed the ship of their gold. If they were successful, then you'll  get a stack of gold coins like this:</p><p><img src='run_exp/static/images/tutorial/reward.png' height='150'></p><p> If they were <b>not</b> successful, then you'll get no gold coins, and you'll see a big red x like this: </p><p><img src='run_exp/static/images/tutorial/reward_no.png' height='150'></p><p> How much bonus money you make is based on how many gold coins you collect.</p><div>","","","","","","","","","","","","","","","","","",""
"","html-keyboard-response","9","118573","0.0-9.0","2148.800000190735","<div class='center'><p>As the head captain, you do not have to rob any ships yourself.</p><p>Another pirate will be doing the robbing for you. </p><p>First, you will  choose a pirate to rob the next ship.</p><p><img src='run_exp/static/images/tutorial/pirates_all_crop.png' height='200'></p><p>Then, you'll see if the pirate successfully robbed the ship of their gold. If they were successful, then you'll  get a stack of gold coins like this:</p><p><img src='run_exp/static/images/tutorial/reward.png' height='150'></p><p> If they were <b>not</b> successful, then you'll get no gold coins, and you'll see a big red x like this: </p><p><img src='run_exp/static/images/tutorial/reward_no.png' height='150'></p><p> How much bonus money you make is based on how many gold coins you collect.</p<p><b>[Press the space bar to continue]</b></p></div>","32","","","","","","","","","","","","","","","","","","","","","","",""
"","instruc5","10","144115","0.0-10.0","25540.900000095367","run_exp/static/audio/clip_5_probabilistic.m4a","49","","","","","<div class='center'><p>Even the most skilled pirate can not rob EVERY ship.</p><p> Some ships will have very strong protections against pirate attacks.</p><p> Blue beard, here, is very, very good at robbing ships, but he won't be successful every time he tries to rob one.</p><p> You can press the <b>‘1’</b> key on the keyboard to choose him.</p><p> Try choosing him 10 times to see how often he succeeds at robbing a ship. </p><p><img src='run_exp/static/images/tutorial/blue.png' height='500'></p></div>","","","","","","","","","","","","","","","","","",""
"","html-keyboard-response","11","145617","0.0-11.0","null","<div class='center'><p><img src='run_exp/static/images/tutorial/blue_win.png' height='500'></p></div>","null","","","","","","","","","","","","","","","","","","","","","","",""
"","html-keyboard-response","12","147395","0.0-12.0","1776.6000003814697","<div class='center'><img src='run_exp/static/images/tutorial/blue.png' height='500'></p></div>","49","","","","","","","","","","","","","","","","","","","","","","",""
"","html-keyboard-response","13","148897","0.0-13.0","null","<div class='center'><p><img src='run_exp/static/images/tutorial/blue_win.png' height='500'></p></div>","null","","","","","","","","","","","","","","","","","","","","","","",""
"","html-keyboard-response","14","150042","0.0-14.0","1144.5999999046326","<div class='center'><img src='run_exp/static/images/tutorial/blue.png' height='500'></p></div>","49","","","","","","","","","","","","","","","","","","","","","","",""
"","html-keyboard-response","15","151548","0.0-15.0","null","<div class='center'><p><img src='run_exp/static/images/tutorial/blue_win.png' height='500'></p></div>","null","","","","","","","","","","","","","","","","","","","","","","",""
"","html-keyboard-response","16","152282","0.0-16.0","732.5999999046326","<div class='center'><img src='run_exp/static/images/tutorial/blue.png' height='500'></p></div>","49","","","","","","","","","","","","","","","","","","","","","","",""
"","html-keyboard-response","17","153783","0.0-17.0","null","<div class='center'><p><img src='run_exp/static/images/tutorial/blue_no_win.png' height='500'></p></div>","null","","","","","","","","","","","","","","","","","","","","","","",""
"","html-keyboard-response","18","154418","0.0-18.0","635","<div class='center'><img src='run_exp/static/images/tutorial/blue.png' height='500'></p></div>","49","","","","","","","","","","","","","","","","","","","","","","",""
"","html-keyboard-response","19","155920","0.0-19.0","null","<div class='center'><p><img src='run_exp/static/images/tutorial/blue_win.png' height='500'></p></div>","null","","","","","","","","","","","","","","","","","","","","","","",""
"","html-keyboard-response","20","157195","0.0-20.0","1273.3999996185303","<div class='center'><img src='run_exp/static/images/tutorial/blue.png' height='500'></p></div>","49","","","","","","","","","","","","","","","","","","","","","","",""
"","html-keyboard-response","21","158700","0.0-21.0","null","<div class='center'><p><img src='run_exp/static/images/tutorial/blue_win.png' height='500'></p></div>","null","","","","","","","","","","","","","","","","","","","","","","",""
"","html-keyboard-response","22","160139","0.0-22.0","1437.9000000953674","<div class='center'><img src='run_exp/static/images/tutorial/blue.png' height='500'></p></div>","49","","","","","","","","","","","","","","","","","","","","","","",""
"","html-keyboard-response","23","161644","0.0-23.0","null","<div class='center'><p><img src='run_exp/static/images/tutorial/blue_win.png' height='500'></p></div>","null","","","","","","","","","","","","","","","","","","","","","","",""
"","html-keyboard-response","24","162227","0.0-24.0","581.7999997138977","<div class='center'><img src='run_exp/static/images/tutorial/blue.png' height='500'></p></div>","49","","","","","","","","","","","","","","","","","","","","","","",""
"","html-keyboard-response","25","163733","0.0-25.0","null","<div class='center'><p><img src='run_exp/static/images/tutorial/blue_no_win.png' height='500'></p></div>","null","","","","","","","","","","","","","","","","","","","","","","",""
"","html-keyboard-response","26","165927","0.0-26.0","2192.699999809265","<div class='center'><img src='run_exp/static/images/tutorial/blue.png' height='500'></p></div>","49","","","","","","","","","","","","","","","","","","","","","","",""
"","html-keyboard-response","27","167431","0.0-27.0","null","<div class='center'><p><img src='run_exp/static/images/tutorial/blue_win.png' height='500'></p></div>","null","","","","","","","","","","","","","","","","","","","","","","",""
"","html-keyboard-response","28","169474","0.0-28.0","2041.8999996185303","<div class='center'><img src='run_exp/static/images/tutorial/blue.png' height='500'></p></div>","49","","","","","","","","","","","","","","","","","","","","","","",""
"","html-keyboard-response","29","170978","0.0-29.0","null","<div class='center'><p><img src='run_exp/static/images/tutorial/blue_win.png' height='500'></p></div>","null","","","","","","","","","","","","","","","","","","","","","","",""
"","instruc6","30","177610","0.0-30.0","null","run_exp/static/audio/clip_6_blue_beard_outcome.m4a","null","","","","","<div class='center'><p> See, he succeeded in robbing the ships most of the time but not every time. </p></div>","","","","","","","","","","","","","","","","","",""
"","html-keyboard-response","31","178835","0.0-31.0","1224.1000003814697","<div class='center'><p> See, he succeeded in robbing the ships most of the time but not every time. </p><p><b>[Press the space bar to continue]</b></p></div>","32","","","","","","","","","","","","","","","","","","","","","","",""
"","audio-keyboard-response","32","197768","0.0-32.0","18931.10000038147","run_exp/static/audio/clip_7_pick_pirate.m4a","49","","","","","","","","","","","","","","","","","","","","","","",""
"","audio-keyboard-response","33","202236","0.0-33.0-0.0","4466.599999904633","run_exp/static/audio/clip_8_chosen_pirate_win.m4a","32","","","","","","","","","","","","","","","","","","","","","","",""
"","audio-keyboard-response","34","203492","0.0-33.0-1.0","1253.6000003814697","run_exp/static/audio/clip_9_pick_a_pirate_again.m4a","49","","","","","","","","","","","","","","","","","","","","","","",""
"","audio-keyboard-response","35","208055","0.0-34.0-0.0","4562.5","run_exp/static/audio/clip_10_chosen_pirate_loss.m4a","32","","","","","","","","","","","","","","","","","","","","","","",""
"","instruc9","36","215205","0.0-35.0-0.0","null","run_exp/static/audio/clip_11_time_out.m4a","null","","","","","<div class='center'><p>If you don’t make your choice fast enough, you’ll have to wait a few seconds before you can make another one. </p><p><img src='run_exp/static/images/miscellaneous/hurry_up.png' height='500'></p></div>","","","","","","","","","","","","","","","","","",""
"","html-keyboard-response","37","216011","0.0-35.0-1.0","805.1999998092651","<div class='center'><p>If you don’t make your choice fast enough, you’ll have to wait a few seconds before you can make another one. </p><p><img src='run_exp/static/images/miscellaneous/hurry_up.png' height='500'></p><p><b>[Press the space bar to continue]</b></p></div>","32","","","","","","","","","","","","","","","","","","","","","","",""
"","instruc10","38","264641","0.0-35.0-2.0","null","run_exp/static/audio/clip_12_probe.m4a","null","","","","","<div class='center'><p>Once you've choose a pirate, you’ll be shown the ship they are robbing.</p><p>You will never rob the same ship twice. After all, ships that have already been robbed won’t have gold on them. </p><p>Ships can be told apart from one another by the image on them. See, this one has a travel mug on it. </p><p> You’ll have to remember which island you saw each ship on.You will win more bonus money if you remember correctly! To help you remember, you can imagine a story. For example, here, you could imagine a mug full of water in the desert. Or, as another example, if on the forest island, your pirate robbed a ship with an apple on it, you could imagine an apple falling from a tree in the forest. </p><p><img src='run_exp/static/images/tutorial/example_probe.png' height='500'></p></div>","","","","","","","","","","","","","","","","","",""
"","html-keyboard-response","39","268558","0.0-35.0-3.0","3915.5","<div class='center'><p>Once you've choose a pirate, you’ll be shown the ship they are robbing.</p><p>You will never rob the same ship twice. After all, ships that have already been robbed won’t have gold on them. </p><p>Ships can be told apart from one another by the image on them. See, this one has a travel mug on it. </p><p> You’ll have to remember which island you saw each ship on.You will win more bonus money if you remember correctly! To help you remember, you can imagine a story. For example, here, you could imagine a mug full of water in the desert. Or, as another example, if on the forest island, your pirate robbed a ship with an apple on it, you could imagine an apple falling from a tree in the forest. </p><p><img src='run_exp/static/images/tutorial/example_probe.png' height='500'></p><p><b>[Press the space bar to continue]</b></p></div>","32","","","","","","","","","","","","","","","","","","","","","","",""
"","instruc11","40","289441","0.0-35.0-4.0","null","run_exp/static/audio/clip_13_changepoint.m4a","null","","","","","<div class='center'><p>How successful a pirate is at robbing ships will depend on the island you’re on.</p><p> A pirate may have visited this island many times before and gained a lot of practice robbing ships there.</p><p>So, they’re more likely to be successful than a pirate who has never visited the island before.</p></div>","","","","","","","","","","","","","","","","","",""
"","html-keyboard-response","41","292423","0.0-35.0-5.0","2981.5","<div class='center'><p>How successful a pirate is at robbing ships will depend on the island you’re on.</p><p> A pirate may have visited this island many times before and gained a lot of practice robbing ships there.</p><p>So, they’re more likely to be successful than a pirate who has never visited the island before.</p><p><b>[Press the space bar to continue]</b></p></div>","32","","","","","","","","","","","","","","","","","","","","","","",""
"","instruc12","42","320441","0.0-35.0-6.0","null","run_exp/static/audio/clip_14_drift.m4a","null","","","","","<div class='center'><p>How successful a pirate is at robbing ships can also change over the time spent on the island. </p><p> Ships may hear from islanders about the pirates coming and will improve their protections against the attack. This may make it harder to rob them.</p><p> Ships may also become lazy and weaken the strength of their protections. This may make it easier to rob them.</p><br><p>Things are always changing on the high seas! So, try your best to pay attention!</p><p><img src='run_exp/static/images/tutorial/contingency.png' height='500'></p></div>","","","","","","","","","","","","","","","","","",""
"","html-keyboard-response","43","321347","0.0-35.0-7.0","905.0999999046326","<div class='center'><p>How successful a pirate is at robbing ships can also change over the time spent on the island. </p><p> Ships may hear from islanders about the pirates coming and will improve their protections against the attack. This may make it harder to rob them.</p><p> Ships may also become lazy and weaken the strength of their protections. This may make it easier to rob them.</p><br><p>Things are always changing on the high seas! So, try your best to pay attention!</p><p><img src='run_exp/static/images/tutorial/contingency.png' height='500'></p><p><b>[Press the space bar to continue]</b></p></div>","32","","","","","","","","","","","","","","","","","","","","","","",""
"","instruc13","44","365999","0.0-35.0-8.0","null","run_exp/static/audio/clip_15_summary.m4a","null","","","","","<div class='center'><p>Let's go over the instructions quickly again. You have two important things to do: </p><b><p> 1. Pick the pirate who is the best at robbing ships on the current island. This way you'll collect more gold coins!</p></b><b><p> 2. Remember on which island a ship was robbed.</p> </b><p>The amount of bonus money you can win depends on both.</p><p><br><p>Let’s try a practice game. The game will start by showing you the pirates. First, pick a pirate using the <b> 1, 2, 3 </b> keys on your keyboard. When you are shown a ship, try to remember which island you’re on by making up a story.</p><p>This is just a practice game, so you’re not playing for money. </p><p> Good luck!</p></div>","","","","","","","","","","","","","","","","","",""
"","html-keyboard-response","45","366796","0.0-35.0-9.0","795.7999997138977","<div class='center'><p>Let's go over the instructions quickly again. You have two important things to do: </p><b><p> 1. Pick the pirate who is the best at robbing ships on the current island. This way you'll collect more gold coins!</p></b><b><p> 2. Remember on which island a ship was robbed.</p> </b><p>The amount of bonus money you can win depends on both.</p><p><br><p>Let’s try a practice game. The game will start by showing you the pirates. First, pick a pirate using the <b> 1, 2, 3 </b> keys on your keyboard. When you are shown a ship, try to remember which island you’re on by making up a story.</p><p>This is just a practice game, so you’re not playing for money. </p><p> Good luck!</p><p><b>[Press the space bar to continue]</b></p></div>","32","","","","","","","","","","","","","","","","","","","","","","",""
"","do_welcome","46","368305","0.0-35.0-10.0","null","","","","","","","","null","","","","","","","","","","","","","","","","",""
"","do_trial","47","374428","0.0-35.0-11.0","1614.5999999046326","","","","","","","","49","1,0,0","","","","","","","","","","","","","","","",""
"","html-keyboard-response","48","375434","0.0-36.0-0.0","null","<p></p>","null","","","","","","","","","","","","","","","","","","","","","","",""
"","do_trial","49","381450","0.0-36.0-1.0","1511.1999998092651","","","","","","","","49","1,1,0","","","","","","","","","","","","","","","",""
"","html-keyboard-response","50","382452","0.0-37.0-0.0","null","<p></p>","null","","","","","","","","","","","","","","","","","","","","","","",""
"","do_trial","51","388462","0.0-37.0-1.0","1498.5999999046326","","","","","","","","50","1,0,1","","","","","","","","","","","","","","","",""
"","html-keyboard-response","52","389465","0.0-38.0-0.0","null","<p></p>","null","","","","","","","","","","","","","","","","","","","","","","",""
"","do_trial","53","394724","0.0-38.0-1.0","753.6000003814697","","","","","","","","50","0,1,0","","","","","","","","","","","","","","","",""
"","html-keyboard-response","54","395729","0.0-39.0-0.0","null","<p></p>","null","","","","","","","","","","","","","","","","","","","","","","",""
"","do_trial","55","401740","0.0-39.0-1.0","null","","","","","","","","null","1,0,0","","","","","","","","","","","","","","","",""
"","html-keyboard-response","56","402743","0.0-40.0-0.0","null","<p></p>","null","","","","","","","","","","","","","","","","","","","","","","",""
"","do_trial","57","407786","0.0-40.0-1.0","531.9000000953674","","","","","","","","51","1,0,0","","","","","","","","","","","","","","","",""
"","do_bye","58","409292","0.0-41.0-0.0","null","","","","","","","","null","","","","","","","","","","","","","","","","",""
"","do_travel","59","415299","0.0-41.0-1.0","null","","","","","","","","null","","","","","","","","","","","","","","","","",""
"","do_welcome","60","416807","0.0-41.0-2.0","null","","","","","","","","null","","","","","","","","","","","","","","","","",""
"","do_trial","61","422773","0.0-41.0-3.0","1459.6999998092651","","","","","","","","51","1,0,0","","","","","","","","","","","","","","","",""
"","html-keyboard-response","62","423776","0.0-42.0-0.0","null","<p></p>","null","","","","","","","","","","","","","","","","","","","","","","",""
"","do_trial","63","429781","0.0-42.0-1.0","1497.2999997138977","","","","","","","","49","1,0,1","","","","","","","","","","","","","","","",""
"","html-keyboard-response","64","430786","0.0-43.0-0.0","null","<p></p>","null","","","","","","","","","","","","","","","","","","","","","","",""
"","do_trial","65","435942","0.0-43.0-1.0","644.5","","","","","","","","50","1,1,0","","","","","","","","","","","","","","","",""
"","html-keyboard-response","66","436946","0.0-44.0-0.0","null","<p></p>","null","","","","","","","","","","","","","","","","","","","","","","",""
"","do_trial","67","442172","0.0-44.0-1.0","717.0999999046326","","","","","","","","51","0,0,1","","","","","","","","","","","","","","","",""
"","html-keyboard-response","68","443176","0.0-45.0-0.0","null","<p></p>","null","","","","","","","","","","","","","","","","","","","","","","",""
"","do_trial","69","448352","0.0-45.0-1.0","665.2000002861023","","","","","","","","49","1,0,1","","","","","","","","","","","","","","","",""
"","html-keyboard-response","70","455618","0.0-46.0-0.0","7262.5","<div class='center'><p><img src='run_exp/static/images/tutorial/prac_best_pirate.png'  height='500'></p></div>","50","","","","","","","","","","","","","","","","","","","","","","",""
"","html-keyboard-response","71","458010","0.0-47.0-0.0","2390.5","<div class='center'><p>That's incorrect! Red beard was the best.</p><p><b>[Press the space bar to continue]</b></p></div>","32","","","","","","","","","","","","","","","","","","","","","","",""
"","html-keyboard-response","72","463776","0.0-47.0-1.0","5764","<div class='center'><p><img src='run_exp/static/images/tutorial/prac_source.png'  height='500'></p></div>","50","","","","","","","","","","","","","","","","","","","","","","",""
"","html-keyboard-response","73","465520","0.0-48.0-0.0","1742.9000000953674","<div class='center'><p>That's correct! You saw this ship on the cavern island.</p><p><b>[Press the space bar to continue]</b></p></div>","32","","","","","","","","","","","","","","","","","","","","","","",""
"","quiz_beginning","74","478954","0.0-48.0-1.0","null","run_exp/static/audio/clip_16_quiz_intro.m4a","null","","","","","<div class='center'><p>Good job on the practice game! Now, you will be asked some true or false questions to make sure you really understand the rules of the game.</p><p> Press <b>'1'</b> on the keyboard for true and press <b>'2'</b> for false.</p></div>","","","","","","","","","","","","","","","","","",""
"","audio-keyboard-response","75","484233","0.0-48.0-2.0","5278.200000286102","run_exp/static/audio/clip_17_q1.m4a","50","","","","","","","","","","","","","","","","","","","","","","",""
"","correct","76","487221","0.0-49.0-0.0","null","run_exp/static/audio/clip_18_correct.m4a","null","","","","","<div class='center'><p>That's correct!</p></div>","","","","","","","","","","","","","","","","","",""
"","html-keyboard-response","77","488402","0.0-49.0-1.0","1180.7000002861023","<div class='center'><p>That's correct!</p><p><b>[Press the space bar to continue]</b></p></div>","32","","","","","","","","","","","","","","","","","","","","","","",""
"","audio-keyboard-response","78","493515","0.0-49.0-2.0","5112","run_exp/static/audio/clip_20_q2.m4a","50","","","","","","","","","","","","","","","","","","","","","","",""
"","correct","79","496486","0.0-50.0-0.0","null","run_exp/static/audio/clip_18_correct.m4a","null","","","","","<div class='center'><p>That's correct!</p></div>","","","","","","","","","","","","","","","","","",""
"","html-keyboard-response","80","497412","0.0-50.0-1.0","926.1999998092651","<div class='center'><p>That's correct!</p><p><b>[Press the space bar to continue]</b></p></div>","32","","","","","","","","","","","","","","","","","","","","","","",""
"","audio-keyboard-response","81","500908","0.0-50.0-2.0","3494.199999809265","run_exp/static/audio/clip_22_q3.m4a","50","","","","","","","","","","","","","","","","","","","","","","",""
"","correct","82","503870","0.0-51.0-0.0","null","run_exp/static/audio/clip_18_correct.m4a","null","","","","","<div class='center'><p>That's correct!</p></div>","","","","","","","","","","","","","","","","","",""
"","html-keyboard-response","83","504897","0.0-51.0-1.0","1026.4000000953674","<div class='center'><p>That's correct!</p><p><b>[Press the space bar to continue]</b></p></div>","32","","","","","","","","","","","","","","","","","","","","","","",""
"","audio-keyboard-response","84","509352","0.0-51.0-2.0","4454","run_exp/static/audio/clip_24_q4.m4a","49","","","","","","","","","","","","","","","","","","","","","","",""
"","correct","85","512369","0.0-52.0-0.0","null","run_exp/static/audio/clip_18_correct.m4a","null","","","","","<div class='center'><p>That's correct!</p></div>","","","","","","","","","","","","","","","","","",""
"","html-keyboard-response","86","513522","0.0-52.0-1.0","1152.0999999046326","<div class='center'><p>That's correct!</p><p><b>[Press the space bar to continue]</b></p></div>","32","","","","","","","","","","","","","","","","","","","","","","",""
"","q_all_corr","87","520520","0.0-53.0-0.0","null","run_exp/static/audio/clip_27_quiz_all_correct.m4a","null","","","","","<div class='center'><p>Good job! You’re now ready to move on to the real game!</p></div>","","","","","","","","","","","","","","","","","",""
"","html-keyboard-response","88","520993","0.0-53.0-1.0","471.7999997138977","<div class='center'><p>Good job! You’re now ready to move on to the real game!</p><p><b>[Press the space bar to continue]</b></p></div>","32","","","","","","","","","","","","","","","","","","","","","","",""
"","do_welcome","89","522501","0.0-54.0-0.0","null","","","","","","","","null","","","","","","","","","","","","","","","","",""
"","do_trial","90","528049","0.0-55.0-0.0","1000.4000000953674","","","","","","","","49","1,1,0","0","city","0","probe-48","0.6","0.3","0.1","1","","","","","","","",""
"","html-keyboard-response","91","529050","0.0-55.0-1.0","null","<p></p>","null","","","","","","","","","","","","","","","","","","","","","","",""
"","do_trial","92","534704","0.0-56.0-0.0","1109.5","","","","","","","","49","1,1,0","0","city","1","probe-157","0.5103884074177363","0.4414056472893702","0.2436352001164942","1","","","","","","","",""
"","html-keyboard-response","93","535708","0.0-56.0-1.0","null","<p></p>","null","","","","","","","","","","","","","","","","","","","","","","",""
"","do_trial","94","541062","0.0-57.0-0.0","809.6999998092651","","","","","","","","49","0,0,0","0","city","2","probe-126","0.5238059723510567","0.3689682864195554","0.1550504356208761","0","","","","","","","",""
"","html-keyboard-response","95","542069","0.0-57.0-1.0","null","<p></p>","null","","","","","","","","","","","","","","","","","","","","","","",""
"","do_trial","96","547655","0.0-58.0-0.0","1042.1999998092651","","","","","","","","50","0,0,0","0","city","3","probe-86","0.6249503732130074","0.25185911717714216","0.14360096567694325","0","","","","","","","",""
"","html-keyboard-response","97","548658","0.0-58.0-1.0","null","<p></p>","null","","","","","","","","","","","","","","","","","","","","","","",""
"","do_trial","98","553827","0.0-59.0-0.0","627.2000002861023","","","","","","","","50","0,0,0","0","city","4","probe-166","0.6725955240284224","0.2739432178959467","0.11507907311440839","0","","","","","","","",""
"","html-keyboard-response","99","554831","0.0-59.0-1.0","null","<p></p>","null","","","","","","","","","","","","","","","","","","","","","","",""
"","do_trial","100","561147","0.0-60.0-0.0","1770.4000000953674","","","","","","","","51","1,0,0","0","city","5","probe-08","0.8254540840037387","0.43896685941485125","0.1790419640711018","0","","","","","","","",""
"","html-keyboard-response","101","562151","0.0-60.0-1.0","null","<p></p>","null","","","","","","","","","","","","","","","","","","","","","","",""
"","do_trial","102","567570","0.0-61.0-0.0","872.3000001907349","","","","","","","","51","0,1,0","0","city","6","probe-221","0.6066978664394362","0.4929711679718885","0.1386404408071592","0","","","","","","","",""
"","html-keyboard-response","103","568574","0.0-61.0-1.0","null","<p></p>","null","","","","","","","","","","","","","","","","","","","","","","",""
"","do_trial","104","573926","0.0-62.0-0.0","809.3999996185303","","","","","","","","49","0,1,0","0","city","7","probe-218","0.6691354185570767","0.4104468073742826","0.12222305932499777","0","","","","","","","",""
"","html-keyboard-response","105","574930","0.0-62.0-1.0","null","<p></p>","null","","","","","","","","","","","","","","","","","","","","","","",""
"","do_trial","106","580359","0.0-63.0-0.0","884","","","","","","","","51","1,0,0","0","city","8","probe-90","0.7392294794777707","0.21518684843215893","0.061017801009129756","0","","","","","","","",""
"","html-keyboard-response","107","581364","0.0-63.0-1.0","null","<p></p>","null","","","","","","","","","","","","","","","","","","","","","","",""
"","do_trial","108","586822","0.0-64.0-0.0","911.4000000953674","","","","","","","","50","1,0,0","0","city","9","probe-45","0.69480555855876","0.19482276900490159","0.13980456193659954","0","","","","","","","",""
"","html-keyboard-response","109","587826","0.0-64.0-1.0","null","<p></p>","null","","","","","","","","","","","","","","","","","","","","","","",""
"","do_trial","110","593049","0.0-65.0-0.0","676.8000001907349","","","","","","","","49","1,0,0","0","city","10","probe-158","0.7296524998248464","0.3079786939519736","0.1533997014188759","1","","","","","","","",""
"","html-keyboard-response","111","594054","0.0-65.0-1.0","null","<p></p>","null","","","","","","","","","","","","","","","","","","","","","","",""
"","do_trial","112","599158","0.0-66.0-0.0","562.5999999046326","","","","","","","","50","1,1,0","0","city","11","probe-230","0.7163740507982369","0.45312361666474466","0.19766162959680778","1","","","","","","","",""
"","html-keyboard-response","113","600161","0.0-66.0-1.0","null","<p></p>","null","","","","","","","","","","","","","","","","","","","","","","",""
"","do_trial","114","605291","0.0-67.0-0.0","588.5","","","","","","","","51","1,1,0","0","city","12","probe-212","0.7035562664266783","0.3404426635643776","0.1342963046733353","0","","","","","","","",""
"","html-keyboard-response","115","606295","0.0-67.0-1.0","null","<p></p>","null","","","","","","","","","","","","","","","","","","","","","","",""
"","do_trial","116","611395","0.0-68.0-0.0","554","","","","","","","","49","1,0,0","0","city","13","probe-29","0.8247251942696369","0.2338292729209575","0.1012406030437998","1","","","","","","","",""
"","html-keyboard-response","117","612399","0.0-68.0-1.0","null","<p></p>","null","","","","","","","","","","","","","","","","","","","","","","",""
"","do_trial","118","617418","0.0-69.0-0.0","472.40000009536743","","","","","","","","49","1,0,0","0","city","14","probe-172","0.6923006556689488","0.24263229616497797","0.1226649738575713","1","","","","","","","",""
"","html-keyboard-response","119","618422","0.0-69.0-1.0","null","<p></p>","null","","","","","","","","","","","","","","","","","","","","","","",""
"","do_trial","120","623528","0.0-70.0-0.0","565","","","","","","","","49","0,0,0","0","city","15","probe-213","0.7137691430115691","0.14450082290140637","0.1631882978351063","0","","","","","","","",""
"","html-keyboard-response","121","624532","0.0-70.0-1.0","null","<p></p>","null","","","","","","","","","","","","","","","","","","","","","","",""
"","do_trial","122","629615","0.0-71.0-0.0","536.4000000953674","","","","","","","","49","1,1,0","0","city","16","probe-120","0.6295754046258781","0.3207406673336215","0.08614740188157922","1","","","","","","","",""
"","html-keyboard-response","123","630619","0.0-71.0-1.0","null","<p></p>","null","","","","","","","","","","","","","","","","","","","","","","",""
"","do_trial","124","635821","0.0-72.0-0.0","656.7000002861023","","","","","","","","49","1,1,0","0","city","17","probe-228","0.4713691406420559","0.24144804696558833","0.1320234913649613","1","","","","","","","",""
"","html-keyboard-response","125","636825","0.0-72.0-1.0","null","<p></p>","null","","","","","","","","","","","","","","","","","","","","","","",""
"","do_trial","126","641982","0.0-73.0-0.0","615.3999996185303","","","","","","","","49","0,0,0","0","city","18","probe-02","0.5436703997648334","0.4696611376869892","0.177754091640869","0","","","","","","","",""
"","html-keyboard-response","127","642986","0.0-73.0-1.0","null","<p></p>","null","","","","","","","","","","","","","","","","","","","","","","",""
"","do_trial","128","648050","0.0-74.0-0.0","522.3000001907349","","","","","","","","49","0,0,0","0","city","19","probe-11","0.5440505317492607","0.4123955806616939","0.16074774952510779","0","","","","","","","",""
"","html-keyboard-response","129","649055","0.0-74.0-1.0","null","<p></p>","null","","","","","","","","","","","","","","","","","","","","","","",""
"","do_trial","130","654177","0.0-75.0-0.0","580.8000001907349","","","","","","","","49","0,0,0","0","city","20","probe-129","0.5489428239831077","0.3557179070431718","0.15681008258033166","0","","","","","","","",""
"","html-keyboard-response","131","655181","0.0-75.0-1.0","null","<p></p>","null","","","","","","","","","","","","","","","","","","","","","","",""
"","do_trial","132","660268","0.0-76.0-0.0","541.4000000953674","","","","","","","","49","1,0,0","0","city","21","probe-82","0.6859810727781023","0.20273971979642175","0.14779651100813723","1","","","","","","","",""
"","html-keyboard-response","133","661271","0.0-76.0-1.0","null","<p></p>","null","","","","","","","","","","","","","","","","","","","","","","",""
"","do_trial","134","666368","0.0-77.0-0.0","548.4000000953674","","","","","","","","49","1,0,1","0","city","22","probe-52","0.5839034494751524","0.19096747453332275","0.05611802503766093","1","","","","","","","",""
"","html-keyboard-response","135","667372","0.0-77.0-1.0","null","<p></p>","null","","","","","","","","","","","","","","","","","","","","","","",""
"","do_trial","136","673152","0.0-78.0-0.0","1234","","","","","","","","51","1,0,0","0","city","23","probe-19","0.4587107547203457","0.28996314948469765","0.06587654404999638","0","","","","","","","",""
"","html-keyboard-response","137","674155","0.0-78.0-1.0","null","<p></p>","null","","","","","","","","","","","","","","","","","","","","","","",""
"","do_trial","138","679247","0.0-79.0-0.0","545.5","","","","","","","","50","0,1,0","0","city","24","probe-128","0.3967862372219355","0.2694860049061276","0.11856294480555207","1","","","","","","","",""
"","html-keyboard-response","139","680251","0.0-79.0-1.0","null","<p></p>","null","","","","","","","","","","","","","","","","","","","","","","",""
"","do_trial","140","685248","0.0-80.0-0.0","454.1000003814697","","","","","","","","50","1,0,0","0","city","25","probe-17","0.47080285890781254","0.2004060504600531","0.08661095448489281","0","","","","","","","",""
"","html-keyboard-response","141","686251","0.0-80.0-1.0","null","<p></p>","null","","","","","","","","","","","","","","","","","","","","","","",""
"","do_trial","142","691254","0.0-81.0-0.0","456.5","","","","","","","","50","0,0,0","0","city","26","probe-119","0.4943610340101047","0.22494803064294963","0.06592566626956951","0","","","","","","","",""
"","html-keyboard-response","143","692258","0.0-81.0-1.0","null","<p></p>","null","","","","","","","","","","","","","","","","","","","","","","",""
"","do_trial","144","697187","0.0-82.0-0.0","383.69999980926514","","","","","","","","50","0,0,0","0","city","27","probe-150","0.5260776475259248","0.25224533505640706","0.15168534621445343","0","","","","","","","",""
"","html-keyboard-response","145","698191","0.0-82.0-1.0","null","<p></p>","null","","","","","","","","","","","","","","","","","","","","","","",""
"","do_trial","146","703632","0.0-83.0-0.0","895.1999998092651","","","","","","","","49","1,0,0","0","city","28","probe-77","0.48529338010325723","0.3859460956150819","0.1656163034369354","1","","","","","","","",""
"","html-keyboard-response","147","704638","0.0-83.0-1.0","null","<p></p>","null","","","","","","","","","","","","","","","","","","","","","","",""
"","do_trial","148","709953","0.0-84.0-0.0","769","","","","","","","","49","0,0,0","0","city","29","probe-192","0.5381095540885883","0.24881223986856743","0.06871036301470948","0","","","","","","","",""
"","html-keyboard-response","149","710957","0.0-84.0-1.0","null","<p></p>","null","","","","","","","","","","","","","","","","","","","","","","",""
"","do_bye","150","712464","0.0-85.0-0.0","null","","","","","","","","null","","","","","","","","","","","","","","","","",""
"","do_travel","151","718472","0.0-86.0-0.0","null","","","","","","","","null","","","","","","","","","","","","","","","","",""
"","do_welcome","152","719981","0.0-86.0-1.0","null","","","","","","","","null","","","","","","","","","","","","","","","","",""
"","do_trial","153","725900","0.0-87.0-0.0","1373.5999999046326","","","","","","","","49","1,0,0","1","forest","30","probe-25","1","0.31327579134901173","0.1283928569323058","1","","","","","","","",""
"","html-keyboard-response","154","726903","0.0-87.0-1.0","null","<p></p>","null","","","","","","","","","","","","","","","","","","","","","","",""
"","do_trial","155","731934","0.0-88.0-0.0","488.09999990463257","","","","","","","","49","1,1,0","1","forest","31","probe-51","1","0.4151481259293499","0.19892687552771926","1","","","","","","","",""
"","html-keyboard-response","156","732938","0.0-88.0-1.0","null","<p></p>","null","","","","","","","","","","","","","","","","","","","","","","",""
"","do_trial","157","738280","0.0-89.0-0.0","797","","","","","","","","49","1,1,0","1","forest","32","probe-102","1","0.3618943768452775","0.18232535403705108","1","","","","","","","",""
"","html-keyboard-response","158","739284","0.0-89.0-1.0","null","<p></p>","null","","","","","","","","","","","","","","","","","","","","","","",""
"","do_trial","159","744788","0.0-90.0-0.0","962.2999997138977","","","","","","","","49","1,1,0","1","forest","33","probe-123","0.9409273525229501","0.32384162249269743","0.14752060869041714","1","","","","","","","",""
"","html-keyboard-response","160","745792","0.0-90.0-1.0","null","<p></p>","null","","","","","","","","","","","","","","","","","","","","","","",""
"","do_trial","161","751163","0.0-91.0-0.0","824.1000003814697","","","","","","","","49","1,1,0","1","forest","34","probe-145","0.8511820937233335","0.27847362951049637","0.1430734542331678","1","","","","","","","",""
"","html-keyboard-response","162","752169","0.0-91.0-1.0","null","<p></p>","null","","","","","","","","","","","","","","","","","","","","","","",""
"","do_trial","163","757572","0.0-92.0-0.0","856.8999996185303","","","","","","","","50","1,0,0","1","forest","35","probe-156","0.7826146575488561","0.2213059555681373","0.11726967350581942","0","","","","","","","",""
"","html-keyboard-response","164","758576","0.0-92.0-1.0","null","<p></p>","null","","","","","","","","","","","","","","","","","","","","","","",""
"","do_trial","165","764288","0.0-93.0-0.0","1169.9000000953674","","","","","","","","50","1,0,0","1","forest","36","probe-185","0.6856543542988469","0.38254925938598294","0.07176071307941576","0","","","","","","","",""
"","html-keyboard-response","166","765294","0.0-93.0-1.0","null","<p></p>","null","","","","","","","","","","","","","","","","","","","","","","",""
"","do_trial","167","770542","0.0-94.0-0.0","703.4000000953674","","","","","","","","50","1,0,0","1","forest","37","probe-89","0.6818353968000693","0.16924826138785765","0.05212215723260957","0","","","","","","","",""
"","html-keyboard-response","168","771546","0.0-94.0-1.0","null","<p></p>","null","","","","","","","","","","","","","","","","","","","","","","",""
"","do_trial","169","776519","0.0-95.0-0.0","426.7999997138977","","","","","","","","50","1,0,0","1","forest","38","probe-173","0.7868731275311845","0.3432708055922739","0.07972685844059668","0","","","","","","","",""
"","html-keyboard-response","170","777523","0.0-95.0-1.0","null","<p></p>","null","","","","","","","","","","","","","","","","","","","","","","",""
"","do_trial","171","782875","0.0-96.0-0.0","807.7999997138977","","","","","","","","50","1,0,0","1","forest","39","probe-226","0.6392319622615493","0.2765864079779499","0.06815121256345184","0","","","","","","","",""
"","html-keyboard-response","172","783879","0.0-96.0-1.0","null","<p></p>","null","","","","","","","","","","","","","","","","","","","","","","",""
"","do_trial","173","788928","0.0-97.0-0.0","504.09999990463257","","","","","","","","50","0,0,1","1","forest","40","probe-134","0.6458239755692595","0.2760489166427866","0.173470523118249","0","","","","","","","",""
"","html-keyboard-response","174","789931","0.0-97.0-1.0","null","<p></p>","null","","","","","","","","","","","","","","","","","","","","","","",""
"","do_trial","175","794974","0.0-98.0-0.0","496.8999996185303","","","","","","","","51","0,0,1","1","forest","41","probe-108","0.7649481557980212","0.2901273396344216","0.18769057930964667","1","","","","","","","",""
"","html-keyboard-response","176","795978","0.0-98.0-1.0","null","<p></p>","null","","","","","","","","","","","","","","","","","","","","","","",""
"","do_trial","177","801169","0.0-99.0-0.0","649.0999999046326","","","","","","","","51","1,0,0","1","forest","42","probe-153","0.646992595893041","0.34427857125564265","0.3631533449360885","0","","","","","","","",""
"","html-keyboard-response","178","802172","0.0-99.0-1.0","null","<p></p>","null","","","","","","","","","","","","","","","","","","","","","","",""
"","do_trial","179","807427","0.0-100.0-0.0","709.7000002861023","","","","","","","","51","0,0,1","1","forest","43","probe-138","0.4752031341870176","0.2797803258478972","0.48813451631183796","1","","","","","","","",""
"","html-keyboard-response","180","808432","0.0-100.0-1.0","null","<p></p>","null","","","","","","","","","","","","","","","","","","","","","","",""
"","do_trial","181","813703","0.0-101.0-0.0","728.9000000953674","","","","","","","","51","0,0,1","1","forest","44","probe-189","0.5428994795953841","0.2257171413199111","0.5148025186112519","1","","","","","","","",""
"","html-keyboard-response","182","814705","0.0-101.0-1.0","null","<p></p>","null","","","","","","","","","","","","","","","","","","","","","","",""
"","do_trial","183","819727","0.0-102.0-0.0","477.09999990463257","","","","","","","","51","0,0,0","1","forest","45","probe-01","0.4392821342168831","0.05836080685838816","0.608357937542467","0","","","","","","","",""
"","html-keyboard-response","184","820731","0.0-102.0-1.0","null","<p></p>","null","","","","","","","","","","","","","","","","","","","","","","",""
"","do_trial","185","826032","0.0-103.0-0.0","752.9000000953674","","","","","","","","49","0,1,1","1","forest","46","probe-22","0.3904713695837341","0.22720115837783653","0.6635177495053938","0","","","","","","","",""
"","html-keyboard-response","186","827035","0.0-103.0-1.0","null","<p></p>","null","","","","","","","","","","","","","","","","","","","","","","",""
"","do_trial","187","831990","0.0-104.0-0.0","408.40000009536743","","","","","","","","49","0,0,0","1","forest","47","probe-135","0.29257190891508195","0.1506644364757343","0.645966226870141","0","","","","","","","",""
"","html-keyboard-response","188","832994","0.0-104.0-1.0","null","<p></p>","null","","","","","","","","","","","","","","","","","","","","","","",""
"","do_trial","189","837896","0.0-105.0-0.0","358.2999997138977","","","","","","","","49","0,0,1","1","forest","48","probe-13","0.2811368962963557","0.14092910133718792","0.6206200136566536","0","","","","","","","",""
"","html-keyboard-response","190","838901","0.0-105.0-1.0","null","<p></p>","null","","","","","","","","","","","","","","","","","","","","","","",""
"","do_trial","191","843893","0.0-106.0-0.0","446.1000003814697","","","","","","","","51","1,1,1","1","forest","49","probe-37","0.4376099202325449","0.245579466290153","0.5426732463356314","1","","","","","","","",""
"","html-keyboard-response","192","844897","0.0-106.0-1.0","null","<p></p>","null","","","","","","","","","","","","","","","","","","","","","","",""
"","do_trial","193","849985","0.0-107.0-0.0","538.5999999046326","","","","","","","","51","1,0,1","1","forest","50","probe-69","0.4623913780050525","0.10561948564245156","0.5969034785693769","1","","","","","","","",""
"","html-keyboard-response","194","850986","0.0-107.0-1.0","null","<p></p>","null","","","","","","","","","","","","","","","","","","","","","","",""
"","do_trial","195","856217","0.0-108.0-0.0","682.6999998092651","","","","","","","","51","1,0,1","1","forest","51","probe-80","0.38652301536829603","0.10443717189874507","0.6316104663646194","1","","","","","","","",""
"","html-keyboard-response","196","857220","0.0-108.0-1.0","null","<p></p>","null","","","","","","","","","","","","","","","","","","","","","","",""
"","do_trial","197","864519","0.0-109.0-0.0","2751.699999809265","","","","","","","","51","1,0,1","1","forest","52","probe-151","0.4372810263512393","0.2301403193009683","0.6909664264294807","1","","","","","","","",""
"","html-keyboard-response","198","865523","0.0-109.0-1.0","null","<p></p>","null","","","","","","","","","","","","","","","","","","","","","","",""
"","do_trial","199","870484","0.0-110.0-0.0","414.1000003814697","","","","","","","","51","0,0,0","1","forest","53","probe-100","0.3944821470698427","0.1455786151220463","0.7627407693906247","0","","","","","","","",""
"","html-keyboard-response","200","871488","0.0-110.0-1.0","null","<p></p>","null","","","","","","","","","","","","","","","","","","","","","","",""
"","do_trial","201","876729","0.0-111.0-0.0","693.7000002861023","","","","","","","","49","0,1,1","1","forest","54","probe-174","0.19055935223695172","0.1346803946309427","0.6360597758772489","0","","","","","","","",""
"","html-keyboard-response","202","877733","0.0-111.0-1.0","null","<p></p>","null","","","","","","","","","","","","","","","","","","","","","","",""
"","do_trial","203","882776","0.0-112.0-0.0","495.90000009536743","","","","","","","","49","0,0,1","1","forest","55","probe-65","0.35478310371707333","0.06854807256807431","0.6344368480141521","0","","","","","","","",""
"","html-keyboard-response","204","883780","0.0-112.0-1.0","null","<p></p>","null","","","","","","","","","","","","","","","","","","","","","","",""
"","do_trial","205","888909","0.0-113.0-0.0","582.4000000953674","","","","","","","","49","1,0,0","1","forest","56","probe-76","0.2010270720912518","0.14243275751650208","0.7000404214136629","1","","","","","","","",""
"","html-keyboard-response","206","889913","0.0-113.0-1.0","null","<p></p>","null","","","","","","","","","","","","","","","","","","","","","","",""
"","do_trial","207","895064","0.0-114.0-0.0","604.9000000953674","","","","","","","","49","1,1,1","1","forest","57","probe-16","0.23684987757870846","0.13608602465532335","0.6642927274889223","1","","","","","","","",""
"","html-keyboard-response","208","896068","0.0-114.0-1.0","null","<p></p>","null","","","","","","","","","","","","","","","","","","","","","","",""
"","do_trial","209","901162","0.0-115.0-0.0","552.3000001907349","","","","","","","","50","0,0,1","1","forest","58","probe-167","0.38319398326899035","0.1789671519844406","0.6211225814909891","0","","","","","","","",""
"","html-keyboard-response","210","902166","0.0-115.0-1.0","null","<p></p>","null","","","","","","","","","","","","","","","","","","","","","","",""
"","do_trial","211","907211","0.0-116.0-0.0","498.09999990463257","","","","","","","","50","0,0,1","1","forest","59","probe-200","0.3855182616098509","0.09035126259391049","0.494573110467435","0","","","","","","","",""
"","html-keyboard-response","212","908215","0.0-116.0-1.0","null","<p></p>","null","","","","","","","","","","","","","","","","","","","","","","",""
"","do_trial","213","913223","0.0-117.0-0.0","461.09999990463257","","","","","","","","51","0,0,0","1","forest","60","probe-18","0.30043527732899666","0.11796702264344192","0.5376555658586887","0","","","","","","","",""
"","html-keyboard-response","214","914227","0.0-117.0-1.0","null","<p></p>","null","","","","","","","","","","","","","","","","","","","","","","",""
"","do_trial","215","919348","0.0-118.0-0.0","577.3000001907349","","","","","","","","51","0,0,1","1","forest","61","probe-94","0.3714404603421172","0.2602942523502765","0.4735289763280177","1","","","","","","","",""
"","html-keyboard-response","216","920351","0.0-118.0-1.0","null","<p></p>","null","","","","","","","","","","","","","","","","","","","","","","",""
"","do_trial","217","925530","0.0-119.0-0.0","634.8000001907349","","","","","","","","51","1,0,1","1","forest","62","probe-148","0.3707860683961415","0.27639591615637343","0.48944772770589356","1","","","","","","","",""
"","html-keyboard-response","218","926534","0.0-119.0-1.0","null","<p></p>","null","","","","","","","","","","","","","","","","","","","","","","",""
"","do_trial","219","931864","0.0-120.0-0.0","786.9000000953674","","","","","","","","51","0,0,1","1","forest","63","probe-152","0.1274212823624667","0.19846435698180095","0.3554650353023056","1","","","","","","","",""
"","html-keyboard-response","220","932868","0.0-120.0-1.0","null","<p></p>","null","","","","","","","","","","","","","","","","","","","","","","",""
"","do_trial","221","938010","0.0-121.0-0.0","599.8000001907349","","","","","","","","51","0,0,0","1","forest","64","probe-73","0.13676401852840506","0.23916384497401125","0.4528278769402819","0","","","","","","","",""
"","html-keyboard-response","222","939016","0.0-121.0-1.0","null","<p></p>","null","","","","","","","","","","","","","","","","","","","","","","",""
"","do_trial","223","944216","0.0-122.0-0.0","658.5","","","","","","","","49","1,0,0","1","forest","65","probe-93","0.3493384538996203","0.2730352226118849","0.39617925340223586","1","","","","","","","",""
"","html-keyboard-response","224","945220","0.0-122.0-1.0","null","<p></p>","null","","","","","","","","","","","","","","","","","","","","","","",""
"","do_trial","225","950888","0.0-123.0-0.0","1122.3000001907349","","","","","","","","51","1,0,0","1","forest","66","probe-199","0.5497167317001327","0.1332019268222817","0.4786738089271552","0","","","","","","","",""
"","html-keyboard-response","226","951892","0.0-123.0-1.0","null","<p></p>","null","","","","","","","","","","","","","","","","","","","","","","",""
"","do_trial","227","957006","0.0-124.0-0.0","568.3000001907349","","","","","","","","50","0,0,0","1","forest","67","probe-188","0.48419337244974603","0.1372144118073566","0.519623191102358","0","","","","","","","",""
"","html-keyboard-response","228","958011","0.0-124.0-1.0","null","<p></p>","null","","","","","","","","","","","","","","","","","","","","","","",""
"","do_trial","229","963137","0.0-125.0-0.0","581.4000000953674","","","","","","","","50","0,0,0","1","forest","68","probe-49","0.529483950449677","0.1587534438601209","0.5875994158406977","0","","","","","","","",""
"","html-keyboard-response","230","964141","0.0-125.0-1.0","null","<p></p>","null","","","","","","","","","","","","","","","","","","","","","","",""
"","do_trial","231","969531","0.0-126.0-0.0","844.5999999046326","","","","","","","","49","1,0,1","1","forest","69","probe-83","0.4039453170287626","0.21262486995527394","0.7070552473907138","1","","","","","","","",""
"","html-keyboard-response","232","970532","0.0-126.0-1.0","null","<p></p>","null","","","","","","","","","","","","","","","","","","","","","","",""
"","do_bye","233","972041","0.0-127.0-0.0","null","","","","","","","","null","","","","","","","","","","","","","","","","",""
"","do_travel","234","978046","0.0-128.0-0.0","null","","","","","","","","null","","","","","","","","","","","","","","","","",""
"","do_welcome","235","979555","0.0-128.0-1.0","null","","","","","","","","null","","","","","","","","","","","","","","","","",""
"","do_trial","236","985133","0.0-129.0-0.0","1032.2000002861023","","","","","","","","49","0,0,1","2","highway","70","probe-229","0.3550433178459657","0.08560112068535045","1","0","","","","","","","",""
"","html-keyboard-response","237","986137","0.0-129.0-1.0","null","<p></p>","null","","","","","","","","","","","","","","","","","","","","","","",""
"","do_trial","238","991844","0.0-130.0-0.0","1165.1999998092651","","","","","","","","51","0,1,1","2","highway","71","probe-60","0.44524231378247725","0.08331298117108975","1","1","","","","","","","",""
"","html-keyboard-response","239","992848","0.0-130.0-1.0","null","<p></p>","null","","","","","","","","","","","","","","","","","","","","","","",""
"","do_trial","240","998302","0.0-131.0-0.0","908.5","","","","","","","","51","0,1,0","2","highway","72","probe-85","0.4414538853343298","0.18028503836169776","0.7609408531449501","0","","","","","","","",""
"","html-keyboard-response","241","999305","0.0-131.0-1.0","null","<p></p>","null","","","","","","","","","","","","","","","","","","","","","","",""
"","do_trial","242","1004462","0.0-132.0-0.0","610.9000000953674","","","","","","","","49","0,0,0","2","highway","73","probe-162","0.4655767331970118","0.13747481953047108","0.6662480789436575","0","","","","","","","",""
"","html-keyboard-response","243","1005466","0.0-132.0-1.0","null","<p></p>","null","","","","","","","","","","","","","","","","","","","","","","",""
"","do_trial","244","1010555","0.0-133.0-0.0","543.2000002861023","","","","","","","","50","0,1,0","2","highway","74","probe-61","0.4711234573279747","0.20539205154037177","0.5582371906949452","1","","","","","","","",""
"","html-keyboard-response","245","1011559","0.0-133.0-1.0","null","<p></p>","null","","","","","","","","","","","","","","","","","","","","","","",""
"","do_trial","246","1016875","0.0-134.0-0.0","771.7999997138977","","","","","","","","50","1,1,0","2","highway","75","probe-115","0.44862799922776075","0.13649819813301714","0.6318145906416665","1","","","","","","","",""
"","html-keyboard-response","247","1017878","0.0-134.0-1.0","null","<p></p>","null","","","","","","","","","","","","","","","","","","","","","","",""
"","do_trial","248","1023043","0.0-135.0-0.0","622.7999997138977","","","","","","","","50","0,1,1","2","highway","76","probe-81","0.3679169050594103","0.08254592512789513","0.7075172846660059","1","","","","","","","",""
"","html-keyboard-response","249","1024047","0.0-135.0-1.0","null","<p></p>","null","","","","","","","","","","","","","","","","","","","","","","",""
"","do_trial","250","1029488","0.0-136.0-0.0","895.0999999046326","","","","","","","","49","0,0,0","2","highway","77","probe-26","0.33011196586347763","0.05891275424431723","0.701918547020203","0","","","","","","","",""
"","html-keyboard-response","251","1030492","0.0-136.0-1.0","null","<p></p>","null","","","","","","","","","","","","","","","","","","","","","","",""
"","do_trial","252","1036097","0.0-137.0-0.0","1061","","","","","","","","49","0,0,0","2","highway","78","probe-97","0.1889335190461344","0.08242201644584021","0.634544489006222","0","","","","","","","",""
"","html-keyboard-response","253","1037103","0.0-137.0-1.0","null","<p></p>","null","","","","","","","","","","","","","","","","","","","","","","",""
"","do_trial","254","1042605","0.0-138.0-0.0","958.2000002861023","","","","","","","","51","1,0,1","2","highway","79","probe-147","0.18776504115291193","0.05878491438785483","0.5927344476798995","1","","","","","","","",""
"","html-keyboard-response","255","1043608","0.0-138.0-1.0","null","<p></p>","null","","","","","","","","","","","","","","","","","","","","","","",""
"","do_trial","256","1049138","0.0-139.0-0.0","987.9000000953674","","","","","","","","51","0,0,0","2","highway","80","probe-38","0.10073734671078118","0.13996327245122722","0.6010647252162006","0","","","","","","","",""
"","html-keyboard-response","257","1050144","0.0-139.0-1.0","null","<p></p>","null","","","","","","","","","","","","","","","","","","","","","","",""
"","do_trial","258","1055431","0.0-140.0-0.0","740.8999996185303","","","","","","","","51","0,0,0","2","highway","81","probe-46","0.20114164171112855","0.14830655439325952","0.5275161348681312","0","","","","","","","",""
"","html-keyboard-response","259","1056434","0.0-140.0-1.0","null","<p></p>","null","","","","","","","","","","","","","","","","","","","","","","",""
"","do_trial","260","1061339","0.0-141.0-0.0","361","","","","","","","","51","0,1,0","2","highway","82","probe-39","0.25870892219427294","0.3144861134497734","0.2903507649712122","0","","","","","","","",""
"","html-keyboard-response","261","1062343","0.0-141.0-1.0","null","<p></p>","null","","","","","","","","","","","","","","","","","","","","","","",""
"","do_trial","262","1067611","0.0-142.0-0.0","722.5999999046326","","","","","","","","50","1,0,0","2","highway","83","probe-04","0.20966824053899033","0.2590205351679557","0.3013896641988719","0","","","","","","","",""
"","html-keyboard-response","263","1068615","0.0-142.0-1.0","null","<p></p>","null","","","","","","","","","","","","","","","","","","","","","","",""
"","do_trial","264","1073798","0.0-143.0-0.0","637.5","","","","","","","","50","0,0,0","2","highway","84","probe-146","0.3063136966011796","0.3810670919481035","0.24442484518044133","0","","","","","","","",""
"","html-keyboard-response","265","1074802","0.0-143.0-1.0","null","<p></p>","null","","","","","","","","","","","","","","","","","","","","","","",""
"","do_trial","266","1080061","0.0-144.0-0.0","712.8999996185303","","","","","","","","50","0,0,0","2","highway","85","probe-34","0.33695340216653674","0.4572765878294603","0.18866365005109667","0","","","","","","","",""
"","html-keyboard-response","267","1081064","0.0-144.0-1.0","null","<p></p>","null","","","","","","","","","","","","","","","","","","","","","","",""
"","do_trial","268","1086825","0.0-145.0-0.0","1214.6999998092651","","","","","","","","50","1,1,0","2","highway","86","probe-176","0.2628494741741952","0.5801032831498077","0.1228957293361986","1","","","","","","","",""
"","html-keyboard-response","269","1087829","0.0-145.0-1.0","null","<p></p>","null","","","","","","","","","","","","","","","","","","","","","","",""
"","do_trial","270","1092984","0.0-146.0-0.0","609.4000000953674","","","","","","","","49","1,1,0","2","highway","87","probe-198","0.2574179907471942","0.7240906130401021","0.14527510078722852","1","","","","","","","",""
"","html-keyboard-response","271","1093988","0.0-146.0-1.0","null","<p></p>","null","","","","","","","","","","","","","","","","","","","","","","",""
"","do_trial","272","1098996","0.0-147.0-0.0","463.40000009536743","","","","","","","","49","0,0,0","2","highway","88","probe-43","0.23358451728503707","0.7627459937031985","0.20840786582616097","0","","","","","","","",""
"","html-keyboard-response","273","1100000","0.0-147.0-1.0","null","<p></p>","null","","","","","","","","","","","","","","","","","","","","","","",""
"","do_trial","274","1105097","0.0-148.0-0.0","550.3999996185303","","","","","","","","49","0,1,1","2","highway","89","probe-67","0.3072007947716605","0.8088309213796727","0.1647740925237488","0","","","","","","","",""
"","html-keyboard-response","275","1106100","0.0-148.0-1.0","null","<p></p>","null","","","","","","","","","","","","","","","","","","","","","","",""
"","do_trial","276","1111322","0.0-149.0-0.0","675.2999997138977","","","","","","","","50","0,1,0","2","highway","90","probe-187","0.24534040146559222","0.7306386433066762","0.13091830931551804","1","","","","","","","",""
"","html-keyboard-response","277","1112326","0.0-149.0-1.0","null","<p></p>","null","","","","","","","","","","","","","","","","","","","","","","",""
"","do_trial","278","1117366","0.0-150.0-0.0","496.80000019073486","","","","","","","","50","0,0,0","2","highway","91","probe-111","0.29027410387348435","0.5603806731565113","0.05767211706370766","0","","","","","","","",""
"","html-keyboard-response","279","1118370","0.0-150.0-1.0","null","<p></p>","null","","","","","","","","","","","","","","","","","","","","","","",""
"","do_trial","280","1123531","0.0-151.0-0.0","618.5999999046326","","","","","","","","51","0,1,0","2","highway","92","probe-109","0.37810111169746263","0.5366049653815697","0.20520201174832983","0","","","","","","","",""
"","html-keyboard-response","281","1124535","0.0-151.0-1.0","null","<p></p>","null","","","","","","","","","","","","","","","","","","","","","","",""
"","do_trial","282","1129843","0.0-152.0-0.0","761.9000000953674","","","","","","","","51","1,1,0","2","highway","93","probe-207","0.38157463825701354","0.5518773372952333","0.20257986522131366","0","","","","","","","",""
"","html-keyboard-response","283","1130847","0.0-152.0-1.0","null","<p></p>","null","","","","","","","","","","","","","","","","","","","","","","",""
"","do_trial","284","1135956","0.0-153.0-0.0","564.0999999046326","","","","","","","","50","1,0,1","2","highway","94","probe-113","0.41008370067256855","0.5489289343693797","0.16482585166843294","0","","","","","","","",""
"","html-keyboard-response","285","1136960","0.0-153.0-1.0","null","<p></p>","null","","","","","","","","","","","","","","","","","","","","","","",""
"","do_trial","286","1142047","0.0-154.0-0.0","543.2999997138977","","","","","","","","50","0,0,0","2","highway","95","probe-21","0.3503752675749883","0.6377916946714716","0.10858381961590313","0","","","","","","","",""
"","html-keyboard-response","287","1143051","0.0-154.0-1.0","null","<p></p>","null","","","","","","","","","","","","","","","","","","","","","","",""
"","do_trial","288","1148082","0.0-155.0-0.0","484.59999990463257","","","","","","","","50","1,1,0","2","highway","96","probe-136","0.48143005487952395","0.6667575445664343","0.1158812187980383","1","","","","","","","",""
"","html-keyboard-response","289","1149085","0.0-155.0-1.0","null","<p></p>","null","","","","","","","","","","","","","","","","","","","","","","",""
"","do_trial","290","1154042","0.0-156.0-0.0","413.69999980926514","","","","","","","","50","0,0,0","2","highway","97","probe-96","0.37264294515212826","0.5892515439206731","0.11701923690178985","0","","","","","","","",""
"","html-keyboard-response","291","1155046","0.0-156.0-1.0","null","<p></p>","null","","","","","","","","","","","","","","","","","","","","","","",""
"","do_trial","292","1160107","0.0-157.0-0.0","519.8000001907349","","","","","","","","50","0,1,0","2","highway","98","probe-208","0.3662660281632412","0.6583225897589422","0.18209857480230685","1","","","","","","","",""
"","html-keyboard-response","293","1161110","0.0-157.0-1.0","null","<p></p>","null","","","","","","","","","","","","","","","","","","","","","","",""
"","do_trial","294","1166020","0.0-158.0-0.0","363.5","","","","","","","","50","0,0,0","2","highway","99","probe-117","0.3082135614462756","0.5828006227708454","0.18740507920127164","0","","","","","","","",""
"","html-keyboard-response","295","1167024","0.0-158.0-1.0","null","<p></p>","null","","","","","","","","","","","","","","","","","","","","","","",""
"","do_trial","296","1171965","0.0-159.0-0.0","395","","","","","","","","49","1,0,0","2","highway","100","probe-20","0.37289279234596295","0.5069641022374052","0.10135380216550526","1","","","","","","","",""
"","html-keyboard-response","297","1172966","0.0-159.0-1.0","null","<p></p>","null","","","","","","","","","","","","","","","","","","","","","","",""
"","do_trial","298","1178083","0.0-160.0-0.0","574.5999999046326","","","","","","","","49","1,0,0","2","highway","101","probe-63","0.30805495075019307","0.42164443143080604","0.17077705385003747","1","","","","","","","",""
"","html-keyboard-response","299","1179088","0.0-160.0-1.0","null","<p></p>","null","","","","","","","","","","","","","","","","","","","","","","",""
"","do_trial","300","1184300","0.0-161.0-0.0","666.4000000953674","","","","","","","","49","0,0,0","2","highway","102","probe-194","0.07001950840956102","0.47673186222406116","0.18041120147399567","0","","","","","","","",""
"","html-keyboard-response","301","1185304","0.0-161.0-1.0","null","<p></p>","null","","","","","","","","","","","","","","","","","","","","","","",""
"","do_trial","302","1190277","0.0-162.0-0.0","426.09999990463257","","","","","","","","49","0,0,1","2","highway","103","probe-186","0.2289679442189863","0.4508436152914402","0.1707989203684336","0","","","","","","","",""
"","html-keyboard-response","303","1191281","0.0-162.0-1.0","null","<p></p>","null","","","","","","","","","","","","","","","","","","","","","","",""
"","do_trial","304","1196356","0.0-163.0-0.0","529.2999997138977","","","","","","","","50","1,0,0","2","highway","104","probe-54","0.28394718773486566","0.4599268278701946","0.08352424210927219","0","","","","","","","",""
"","html-keyboard-response","305","1197359","0.0-163.0-1.0","null","<p></p>","null","","","","","","","","","","","","","","","","","","","","","","",""
"","do_trial","306","1202520","0.0-164.0-0.0","620.5999999046326","","","","","","","","50","0,0,0","2","highway","105","probe-201","0.20130241574764043","0.6437041601420525","0.08622799527067831","0","","","","","","","",""
"","html-keyboard-response","307","1203524","0.0-164.0-1.0","null","<p></p>","null","","","","","","","","","","","","","","","","","","","","","","",""
"","do_trial","308","1208642","0.0-165.0-0.0","575.4000000953674","","","","","","","","51","0,1,0","2","highway","106","probe-110","0.06526189754786746","0.6157114351145205","0.0740784444023586","0","","","","","","","",""
"","html-keyboard-response","309","1209646","0.0-165.0-1.0","null","<p></p>","null","","","","","","","","","","","","","","","","","","","","","","",""
"","do_trial","310","1215026","0.0-166.0-0.0","836.4000000953674","","","","","","","","51","0,0,0","2","highway","107","probe-143","0.103143159562809","0.417150191608955","0.08671382654712821","0","","","","","","","",""
"","html-keyboard-response","311","1216030","0.0-166.0-1.0","null","<p></p>","null","","","","","","","","","","","","","","","","","","","","","","",""
"","do_trial","312","1221029","0.0-167.0-0.0","453.59999990463257","","","","","","","","49","0,1,0","2","highway","108","probe-30","0.11036151342256634","0.578176689838108","0.22029165528135175","0","","","","","","","",""
"","html-keyboard-response","313","1222035","0.0-167.0-1.0","null","<p></p>","null","","","","","","","","","","","","","","","","","","","","","","",""
"","do_trial","314","1228086","0.0-168.0-0.0","null","","","","","","","","null","1,1,0","2","highway","109","probe-137","0.2114209763290105","0.5152945145152741","0.2611265993447697","","","","","","","","",""
"","html-keyboard-response","315","1229090","0.0-168.0-1.0","null","<p></p>","null","","","","","","","","","","","","","","","","","","","","","","",""
"","do_bye","316","1230598","0.0-169.0-0.0","null","","","","","","","","null","","","","","","","","","","","","","","","","",""
"","do_travel","317","1236605","0.0-170.0-0.0","null","","","","","","","","null","","","","","","","","","","","","","","","","",""
"","do_welcome","318","1238113","0.0-170.0-1.0","null","","","","","","","","null","","","","","","","","","","","","","","","","",""
"","do_trial","319","1243463","0.0-171.0-0.0","809.6999998092651","","","","","","","","49","0,1,0","3","mountain","110","probe-32","0.114965651323232","1","0.1559241872279572","0","","","","","","","",""
"","html-keyboard-response","320","1244470","0.0-171.0-1.0","null","<p></p>","null","","","","","","","","","","","","","","","","","","","","","","",""
"","do_trial","321","1249556","0.0-172.0-0.0","545.3999996185303","","","","","","","","49","0,1,0","3","mountain","111","probe-193","0.159893224160066","1","0.1660224056156017","0","","","","","","","",""
"","html-keyboard-response","322","1250562","0.0-172.0-1.0","null","<p></p>","null","","","","","","","","","","","","","","","","","","","","","","",""
"","do_trial","323","1255536","0.0-173.0-0.0","427.6000003814697","","","","","","","","50","0,0,0","3","mountain","112","probe-154","0.24602012255094344","0.7698396661681861","0.0644500892438727","0","","","","","","","",""
"","html-keyboard-response","324","1256540","0.0-173.0-1.0","null","<p></p>","null","","","","","","","","","","","","","","","","","","","","","","",""
"","do_trial","325","1261817","0.0-174.0-0.0","731.1000003814697","","","","","","","","50","0,0,0","3","mountain","113","probe-116","0.29786435257079613","0.6664514872197118","0.07214746948606504","0","","","","","","","",""
"","html-keyboard-response","326","1262821","0.0-174.0-1.0","null","<p></p>","null","","","","","","","","","","","","","","","","","","","","","","",""
"","do_trial","327","1267851","0.0-175.0-0.0","487.7000002861023","","","","","","","","50","0,0,0","3","mountain","114","probe-197","0.2721505395133446","0.7230272068567755","0.06180845759126595","0","","","","","","","",""
"","html-keyboard-response","328","1268854","0.0-175.0-1.0","null","<p></p>","null","","","","","","","","","","","","","","","","","","","","","","",""
"","do_trial","329","1273882","0.0-176.0-0.0","480.80000019073486","","","","","","","","51","0,1,0","3","mountain","115","probe-160","0.3380418536470215","0.7174999916239087","0.17526240889639055","0","","","","","","","",""
"","html-keyboard-response","330","1274886","0.0-176.0-1.0","null","<p></p>","null","","","","","","","","","","","","","","","","","","","","","","",""
"","do_trial","331","1280204","0.0-177.0-0.0","771.9000000953674","","","","","","","","51","1,1,0","3","mountain","116","probe-31","0.3539829140975404","0.7525757359533465","0.21509677744337868","0","","","","","","","",""
"","html-keyboard-response","332","1281207","0.0-177.0-1.0","null","<p></p>","null","","","","","","","","","","","","","","","","","","","","","","",""
"","do_trial","333","1286458","0.0-178.0-0.0","705.5999999046326","","","","","","","","51","1,1,0","3","mountain","117","probe-87","0.4654698081029976","0.684302306913045","0.07937365081945409","0","","","","","","","",""
"","html-keyboard-response","334","1287461","0.0-178.0-1.0","null","<p></p>","null","","","","","","","","","","","","","","","","","","","","","","",""
"","do_trial","335","1292523","0.0-179.0-0.0","516.4000000953674","","","","","","","","49","1,1,0","3","mountain","118","probe-168","0.4316043608294882","0.6208890430333163","0.34112870723993316","1","","","","","","","",""
"","html-keyboard-response","336","1293526","0.0-179.0-1.0","null","<p></p>","null","","","","","","","","","","","","","","","","","","","","","","",""
"","do_trial","337","1298524","0.0-180.0-0.0","450.7999997138977","","","","","","","","49","0,1,1","3","mountain","119","probe-222","0.32856558605848785","0.6066456181872529","0.22069399641804605","0","","","","","","","",""
"","html-keyboard-response","338","1299528","0.0-180.0-1.0","null","<p></p>","null","","","","","","","","","","","","","","","","","","","","","","",""
"","do_trial","339","1304307","0.0-181.0-0.0","234.2000002861023","","","","","","","","49","0,0,0","3","mountain","120","probe-64","0.22834213865569944","0.7979973225276237","0.2253632439714956","0","","","","","","","",""
"","html-keyboard-response","340","1305311","0.0-181.0-1.0","null","<p></p>","null","","","","","","","","","","","","","","","","","","","","","","",""
"","do_trial","341","1310371","0.0-182.0-0.0","515","","","","","","","","49","1,1,1","3","mountain","121","probe-107","0.3204019066883926","0.6597212757434447","0.2659232212288737","1","","","","","","","",""
"","html-keyboard-response","342","1311375","0.0-182.0-1.0","null","<p></p>","null","","","","","","","","","","","","","","","","","","","","","","",""
"","do_trial","343","1316377","0.0-183.0-0.0","460.1000003814697","","","","","","","","49","0,0,0","3","mountain","122","probe-71","0.21776183438230162","0.47007611118870657","0.3621061010691365","0","","","","","","","",""
"","html-keyboard-response","344","1317381","0.0-183.0-1.0","null","<p></p>","null","","","","","","","","","","","","","","","","","","","","","","",""
"","do_trial","345","1322579","0.0-184.0-0.0","653.5999999046326","","","","","","","","49","1,1,1","3","mountain","123","probe-175","0.14403040953154378","0.5763138433605631","0.4930204033845154","1","","","","","","","",""
"","html-keyboard-response","346","1323583","0.0-184.0-1.0","null","<p></p>","null","","","","","","","","","","","","","","","","","","","","","","",""
"","do_trial","347","1328637","0.0-185.0-0.0","507.7000002861023","","","","","","","","49","0,0,0","3","mountain","124","probe-215","0.13194463074514365","0.35118584587785806","0.4851912953687094","0","","","","","","","",""
"","html-keyboard-response","348","1329641","0.0-185.0-1.0","null","<p></p>","null","","","","","","","","","","","","","","","","","","","","","","",""
"","do_trial","349","1334692","0.0-186.0-0.0","504.7000002861023","","","","","","","","49","0,0,1","3","mountain","125","probe-58","0.07225872307997619","0.3411068252105077","0.6147309903382799","0","","","","","","","",""
"","html-keyboard-response","350","1335696","0.0-186.0-1.0","null","<p></p>","null","","","","","","","","","","","","","","","","","","","","","","",""
"","do_trial","351","1340614","0.0-187.0-0.0","371","","","","","","","","49","1,0,1","3","mountain","126","probe-55","0.09319362247899493","0.3980995252457133","0.6781396228627505","1","","","","","","","",""
"","html-keyboard-response","352","1341618","0.0-187.0-1.0","null","<p></p>","null","","","","","","","","","","","","","","","","","","","","","","",""
"","do_trial","353","1346755","0.0-188.0-0.0","593.0999999046326","","","","","","","","49","0,1,1","3","mountain","127","probe-59","0.0751860229776616","0.3555061751628677","0.5933824907674426","0","","","","","","","",""
"","html-keyboard-response","354","1347762","0.0-188.0-1.0","null","<p></p>","null","","","","","","","","","","","","","","","","","","","","","","",""
"","do_trial","355","1352723","0.0-189.0-0.0","419.69999980926514","","","","","","","","49","0,0,0","3","mountain","128","probe-203","0.07983519082169584","0.27702323268784823","0.4764244440083059","0","","","","","","","",""
"","html-keyboard-response","356","1353729","0.0-189.0-1.0","null","<p></p>","null","","","","","","","","","","","","","","","","","","","","","","",""
"","do_trial","357","1358739","0.0-190.0-0.0","464.19999980926514","","","","","","","","50","0,0,1","3","mountain","129","probe-74","0.075451267060322","0.18347969444694465","0.57540388810287","0","","","","","","","",""
"","html-keyboard-response","358","1359742","0.0-190.0-1.0","null","<p></p>","null","","","","","","","","","","","","","","","","","","","","","","",""
"","do_trial","359","1365014","0.0-191.0-0.0","725.6999998092651","","","","","","","","50","1,0,1","3","mountain","130","probe-62","0.15123778400354718","0.21527105027570773","0.6067892112242175","0","","","","","","","",""
"","html-keyboard-response","360","1366018","0.0-191.0-1.0","null","<p></p>","null","","","","","","","","","","","","","","","","","","","","","","",""
"","do_trial","361","1372709","0.0-192.0-0.0","2148.0999999046326","","","","","","","","50","0,0,0","3","mountain","131","probe-104","0.20476071720116817","0.37202994158065944","0.5276530348165211","0","","","","","","","",""
"","html-keyboard-response","362","1373713","0.0-192.0-1.0","null","<p></p>","null","","","","","","","","","","","","","","","","","","","","","","",""
"","do_trial","363","1378626","0.0-193.0-0.0","369","","","","","","","","50","0,0,0","3","mountain","132","probe-178","0.12105180892901096","0.18097358308605913","0.5455925524253974","0","","","","","","","",""
"","html-keyboard-response","364","1379629","0.0-193.0-1.0","null","<p></p>","null","","","","","","","","","","","","","","","","","","","","","","",""
"","do_trial","365","1385253","0.0-194.0-0.0","1076.8000001907349","","","","","","","","51","0,1,0","3","mountain","133","probe-161","0.07135808923555778","0.3328665418912143","0.6576136061865349","0","","","","","","","",""
"","html-keyboard-response","366","1386256","0.0-194.0-1.0","null","<p></p>","null","","","","","","","","","","","","","","","","","","","","","","",""
"","do_trial","367","1391307","0.0-195.0-0.0","504.7000002861023","","","","","","","","51","0,0,0","3","mountain","134","probe-14","0.11446904564945051","0.4185580817209795","0.6345057700439432","0","","","","","","","",""
"","html-keyboard-response","368","1392311","0.0-195.0-1.0","null","<p></p>","null","","","","","","","","","","","","","","","","","","","","","","",""
"","do_trial","369","1397849","0.0-196.0-0.0","991.8000001907349","","","","","","","","51","1,0,0","3","mountain","135","probe-141","0.123885666179131","0.5050370597505489","0.6100307807218236","0","","","","","","","",""
"","html-keyboard-response","370","1398853","0.0-196.0-1.0","null","<p></p>","null","","","","","","","","","","","","","","","","","","","","","","",""
"","do_trial","371","1403970","0.0-197.0-0.0","569.9000000953674","","","","","","","","49","0,0,0","3","mountain","136","probe-75","0.0895693210301296","0.4614831591017481","0.519724900439895","0","","","","","","","",""
"","html-keyboard-response","372","1404977","0.0-197.0-1.0","null","<p></p>","null","","","","","","","","","","","","","","","","","","","","","","",""
"","do_trial","373","1409982","0.0-198.0-0.0","462","","","","","","","","49","0,0,0","3","mountain","137","probe-132","0.1094926696063841","0.4312800074253132","0.48708378315027134","0","","","","","","","",""
"","html-keyboard-response","374","1410986","0.0-198.0-1.0","null","<p></p>","null","","","","","","","","","","","","","","","","","","","","","","",""
"","do_trial","375","1415919","0.0-199.0-0.0","390.59999990463257","","","","","","","","49","0,1,0","3","mountain","138","probe-122","0.12309138514113524","0.42775187800657505","0.6676582086190243","0","","","","","","","",""
"","html-keyboard-response","376","1416923","0.0-199.0-1.0","null","<p></p>","null","","","","","","","","","","","","","","","","","","","","","","",""
"","do_trial","377","1421834","0.0-200.0-0.0","367.30000019073486","","","","","","","","50","0,0,1","3","mountain","139","probe-44","0.0888164507515205","0.29792404411467993","0.6248591521804999","0","","","","","","","",""
"","html-keyboard-response","378","1422838","0.0-200.0-1.0","null","<p></p>","null","","","","","","","","","","","","","","","","","","","","","","",""
"","do_trial","379","1427775","0.0-201.0-0.0","393.2999997138977","","","","","","","","50","0,0,1","3","mountain","140","probe-57","0.05923627298215243","0.2537851578938229","0.7097327330304647","0","","","","","","","",""
"","html-keyboard-response","380","1428779","0.0-201.0-1.0","null","<p></p>","null","","","","","","","","","","","","","","","","","","","","","","",""
"","do_trial","381","1433733","0.0-202.0-0.0","407","","","","","","","","51","0,1,1","3","mountain","141","probe-210","0.08649074107317321","0.29879556373026495","0.6923566222531229","1","","","","","","","",""
"","html-keyboard-response","382","1434737","0.0-202.0-1.0","null","<p></p>","null","","","","","","","","","","","","","","","","","","","","","","",""
"","do_trial","383","1439970","0.0-203.0-0.0","688.8000001907349","","","","","","","","51","0,0,1","3","mountain","142","probe-50","0.20005582857261275","0.3241628604162601","0.6953491588777749","1","","","","","","","",""
"","html-keyboard-response","384","1440973","0.0-203.0-1.0","null","<p></p>","null","","","","","","","","","","","","","","","","","","","","","","",""
"","do_trial","385","1445877","0.0-204.0-0.0","361.7999997138977","","","","","","","","51","0,1,0","3","mountain","143","probe-78","0.09861342280354127","0.35860396159854835","0.7416165244653865","0","","","","","","","",""
"","html-keyboard-response","386","1446881","0.0-204.0-1.0","null","<p></p>","null","","","","","","","","","","","","","","","","","","","","","","",""
"","do_trial","387","1451755","0.0-205.0-0.0","327.80000019073486","","","","","","","","51","0,0,0","3","mountain","144","probe-79","0.15750954281226645","0.23114157424095733","0.5676089413311542","0","","","","","","","",""
"","html-keyboard-response","388","1452760","0.0-205.0-1.0","null","<p></p>","null","","","","","","","","","","","","","","","","","","","","","","",""
"","do_trial","389","1457956","0.0-206.0-0.0","651.7000002861023","","","","","","","","51","0,0,1","3","mountain","145","probe-204","0.13864547894680793","0.25352242681084763","0.5628942342994953","1","","","","","","","",""
"","html-keyboard-response","390","1458960","0.0-206.0-1.0","null","<p></p>","null","","","","","","","","","","","","","","","","","","","","","","",""
"","do_trial","391","1463918","0.0-207.0-0.0","415.69999980926514","","","","","","","","51","0,0,1","3","mountain","146","probe-155","0.1107131626354071","0.16195283832586613","0.4846365876134842","1","","","","","","","",""
"","html-keyboard-response","392","1464922","0.0-207.0-1.0","null","<p></p>","null","","","","","","","","","","","","","","","","","","","","","","",""
"","do_trial","393","1469811","0.0-208.0-0.0","344.69999980926514","","","","","","","","51","0,0,1","3","mountain","147","probe-170","0.14863611155270456","0.19528966906977566","0.4055258994557899","1","","","","","","","",""
"","html-keyboard-response","394","1470813","0.0-208.0-1.0","null","<p></p>","null","","","","","","","","","","","","","","","","","","","","","","",""
"","do_trial","395","1475672","0.0-209.0-0.0","315.59999990463257","","","","","","","","51","0,0,0","3","mountain","148","probe-191","0.09722392314265298","0.19649211521950455","0.4356184476987992","0","","","","","","","",""
"","html-keyboard-response","396","1476676","0.0-209.0-1.0","null","<p></p>","null","","","","","","","","","","","","","","","","","","","","","","",""
"","do_trial","397","1481720","0.0-210.0-0.0","496.8999996185303","","","","","","","","51","0,0,0","3","mountain","149","probe-227","0.14049074457386643","0.2996573001245725","0.5452578513072294","0","","","","","","","",""
"","html-keyboard-response","398","1482723","0.0-210.0-1.0","null","<p></p>","null","","","","","","","","","","","","","","","","","","","","","","",""
"","do_bye","399","1484228","0.0-211.0-0.0","null","","","","","","","","null","","","","","","","","","","","","","","","","",""
"","do_travel","400","1490235","0.0-212.0-0.0","null","","","","","","","","null","","","","","","","","","","","","","","","","",""
"","do_welcome","401","1491745","0.0-212.0-1.0","null","","","","","","","","null","","","","","","","","","","","","","","","","",""
"","do_trial","402","1497248","0.0-213.0-0.0","956.5","","","","","","","","49","0,0,1","4","coast","150","probe-131","0.12147785170144214","0.2669955080090442","1","0","","","","","","","",""
"","html-keyboard-response","403","1498252","0.0-213.0-1.0","null","<p></p>","null","","","","","","","","","","","","","","","","","","","","","","",""
"","do_trial","404","1503220","0.0-214.0-0.0","425.7000002861023","","","","","","","","49","0,1,1","4","coast","151","probe-114","0.12171651590035053","0.21433914147245542","1","0","","","","","","","",""
"","html-keyboard-response","405","1504222","0.0-214.0-1.0","null","<p></p>","null","","","","","","","","","","","","","","","","","","","","","","",""
"","do_trial","406","1508946","0.0-215.0-0.0","177.59999990463257","","","","","","","","49","0,0,1","4","coast","152","probe-88","0.15892960602731224","0.0913557613796176","0.8855105752948014","0","","","","","","","",""
"","html-keyboard-response","407","1509950","0.0-215.0-1.0","null","<p></p>","null","","","","","","","","","","","","","","","","","","","","","","",""
"","do_trial","408","1514926","0.0-216.0-0.0","433.40000009536743","","","","","","","","49","0,0,1","4","coast","153","probe-92","0.1396528788321266","0.17984197464493673","0.8103184242705745","0","","","","","","","",""
"","html-keyboard-response","409","1515930","0.0-216.0-1.0","null","<p></p>","null","","","","","","","","","","","","","","","","","","","","","","",""
"","do_trial","410","1520822","0.0-217.0-0.0","345.59999990463257","","","","","","","","50","0,1,1","4","coast","154","probe-214","0.1729072406299747","0.23734848388808044","0.8260624373545988","1","","","","","","","",""
"","html-keyboard-response","411","1521828","0.0-217.0-1.0","null","<p></p>","null","","","","","","","","","","","","","","","","","","","","","","",""
"","do_trial","412","1526618","0.0-218.0-0.0","246.30000019073486","","","","","","","","50","1,0,1","4","coast","155","probe-216","0.32666538727086775","0.141283081267528","0.8622462876237272","0","","","","","","","",""
"","html-keyboard-response","413","1527622","0.0-218.0-1.0","null","<p></p>","null","","","","","","","","","","","","","","","","","","","","","","",""
"","do_trial","414","1535033","0.0-219.0-0.0","2864.2000002861023","","","","","","","","50","1,0,1","4","coast","156","probe-127","0.25813462424283196","0.12907530575794265","0.7517734520860474","0","","","","","","","",""
"","html-keyboard-response","415","1536037","0.0-219.0-1.0","null","<p></p>","null","","","","","","","","","","","","","","","","","","","","","","",""
"","do_trial","416","1541254","0.0-220.0-0.0","671","","","","","","","","50","1,0,0","4","coast","157","probe-91","0.17557210458945405","0.09133264180502451","0.7312918610978033","0","","","","","","","",""
"","html-keyboard-response","417","1542259","0.0-220.0-1.0","null","<p></p>","null","","","","","","","","","","","","","","","","","","","","","","",""
"","do_trial","418","1547138","0.0-221.0-0.0","337.19999980926514","","","","","","","","51","0,1,1","4","coast","158","probe-184","0.07041180408412484","0.1943859689662893","0.8566970416442132","1","","","","","","","",""
"","html-keyboard-response","419","1548140","0.0-221.0-1.0","null","<p></p>","null","","","","","","","","","","","","","","","","","","","","","","",""
"","do_trial","420","1554517","0.0-222.0-0.0","1835.9000000953674","","","","","","","","51","0,0,0","4","coast","159","probe-27","0.0798637033328037","0.26544609368694494","0.7905778856155257","0","","","","","","","",""
"","html-keyboard-response","421","1555520","0.0-222.0-1.0","null","<p></p>","null","","","","","","","","","","","","","","","","","","","","","","",""
"","do_trial","422","1560369","0.0-223.0-0.0","306.30000019073486","","","","","","","","51","0,1,0","4","coast","160","probe-72","0.09937164286499404","0.26341007868486166","0.7910109802448954","0","","","","","","","",""
"","html-keyboard-response","423","1561373","0.0-223.0-1.0","null","<p></p>","null","","","","","","","","","","","","","","","","","","","","","","",""
"","do_trial","424","1566323","0.0-224.0-0.0","402.1000003814697","","","","","","","","51","0,0,1","4","coast","161","probe-224","0.0877242386205833","0.3917125003292747","0.7319906698257558","1","","","","","","","",""
"","html-keyboard-response","425","1567327","0.0-224.0-1.0","null","<p></p>","null","","","","","","","","","","","","","","","","","","","","","","",""
"","do_trial","426","1572610","0.0-225.0-0.0","737.8000001907349","","","","","","","","51","0,1,1","4","coast","162","probe-112","0.18360535857599736","0.5109223573746963","0.4763405297140031","1","","","","","","","",""
"","html-keyboard-response","427","1573614","0.0-225.0-1.0","null","<p></p>","null","","","","","","","","","","","","","","","","","","","","","","",""
"","do_trial","428","1579136","0.0-226.0-0.0","978.6000003814697","","","","","","","","51","0,0,1","4","coast","163","probe-103","0.12988254632986215","0.5716252449742735","0.5977348326324475","1","","","","","","","",""
"","html-keyboard-response","429","1580140","0.0-226.0-1.0","null","<p></p>","null","","","","","","","","","","","","","","","","","","","","","","",""
"","do_trial","430","1586262","0.0-227.0-0.0","null","","","","","","","","null","0,1,1","4","coast","164","probe-220","0.08754067090412869","0.5487154645164999","0.34998550139379175","","","","","","","","",""
"","html-keyboard-response","431","1587266","0.0-227.0-1.0","null","<p></p>","null","","","","","","","","","","","","","","","","","","","","","","",""
"","do_trial","432","1593204","0.0-228.0-0.0","1395.1999998092651","","","","","","","","51","0,1,0","4","coast","165","probe-41","0.18678085793235183","0.4718771152947012","0.38709208295481423","0","","","","","","","",""
"","html-keyboard-response","433","1594208","0.0-228.0-1.0","null","<p></p>","null","","","","","","","","","","","","","","","","","","","","","","",""
"","do_trial","434","1599730","0.0-229.0-0.0","977.4000000953674","","","","","","","","51","1,1,1","4","coast","166","probe-105","0.14010005118699198","0.5611366334177681","0.4024072498189116","1","","","","","","","",""
"","html-keyboard-response","435","1600735","0.0-229.0-1.0","null","<p></p>","null","","","","","","","","","","","","","","","","","","","","","","",""
"","do_trial","436","1606554","0.0-230.0-0.0","1273.9000000953674","","","","","","","","51","0,0,1","4","coast","167","probe-68","0.2181538356140634","0.5290551378398716","0.42162148983529224","1","","","","","","","",""
"","html-keyboard-response","437","1607556","0.0-230.0-1.0","null","<p></p>","null","","","","","","","","","","","","","","","","","","","","","","",""
"","do_trial","438","1612422","0.0-231.0-0.0","320.09999990463257","","","","","","","","51","0,0,0","4","coast","168","probe-139","0.2340635323128441","0.5994467150040839","0.3264487435776771","0","","","","","","","",""
"","html-keyboard-response","439","1613425","0.0-231.0-1.0","null","<p></p>","null","","","","","","","","","","","","","","","","","","","","","","",""
"","do_trial","440","1618714","0.0-232.0-0.0","747.7999997138977","","","","","","","","49","1,1,0","4","coast","169","probe-142","0.24299073858659312","0.6657674487328634","0.4275271534359388","1","","","","","","","",""
"","html-keyboard-response","441","1619720","0.0-232.0-1.0","null","<p></p>","null","","","","","","","","","","","","","","","","","","","","","","",""
"","do_trial","442","1624669","0.0-233.0-0.0","402.40000009536743","","","","","","","","49","0,0,0","4","coast","170","probe-84","0.16523602520317185","0.6440227700225387","0.42806394264943526","0","","","","","","","",""
"","html-keyboard-response","443","1625673","0.0-233.0-1.0","null","<p></p>","null","","","","","","","","","","","","","","","","","","","","","","",""
"","do_trial","444","1630834","0.0-234.0-0.0","618.3999996185303","","","","","","","","49","0,0,0","4","coast","171","probe-03","0.17759830172576","0.567178563470315","0.35549226907337117","0","","","","","","","",""
"","html-keyboard-response","445","1631838","0.0-234.0-1.0","null","<p></p>","null","","","","","","","","","","","","","","","","","","","","","","",""
"","do_trial","446","1637172","0.0-235.0-0.0","786","","","","","","","","49","0,1,0","4","coast","172","probe-47","0.12828552478839858","0.6056554926718258","0.2977290850416791","0","","","","","","","",""
"","html-keyboard-response","447","1638176","0.0-235.0-1.0","null","<p></p>","null","","","","","","","","","","","","","","","","","","","","","","",""
"","do_trial","448","1643222","0.0-236.0-0.0","499","","","","","","","","50","0,1,0","4","coast","173","probe-12","0.18034808099798658","0.5215040764579412","0.34119481819948305","1","","","","","","","",""
"","html-keyboard-response","449","1644226","0.0-236.0-1.0","null","<p></p>","null","","","","","","","","","","","","","","","","","","","","","","",""
"","do_trial","450","1649330","0.0-237.0-0.0","561.1000003814697","","","","","","","","50","0,1,0","4","coast","174","probe-130","0.14768225320973075","0.5907019447799849","0.297508782239406","1","","","","","","","",""
"","html-keyboard-response","451","1650336","0.0-237.0-1.0","null","<p></p>","null","","","","","","","","","","","","","","","","","","","","","","",""
"","do_trial","452","1655526","0.0-238.0-0.0","646.6999998092651","","","","","","","","50","0,1,0","4","coast","175","probe-66","0.10651786579996929","0.7096787696127902","0.20048812290684973","1","","","","","","","",""
"","html-keyboard-response","453","1656532","0.0-238.0-1.0","null","<p></p>","null","","","","","","","","","","","","","","","","","","","","","","",""
"","do_trial","454","1661443","0.0-239.0-0.0","367.90000009536743","","","","","","","","50","0,0,0","4","coast","176","probe-159","0.13664777177276338","0.5075970860645526","0.20140579970270017","0","","","","","","","",""
"","html-keyboard-response","455","1662448","0.0-239.0-1.0","null","<p></p>","null","","","","","","","","","","","","","","","","","","","","","","",""
"","do_trial","456","1668169","0.0-240.0-0.0","1179.6000003814697","","","","","","","","50","0,0,0","4","coast","177","probe-28","0.22795306591584755","0.45771614811540645","0.3210311137032247","0","","","","","","","",""
"","html-keyboard-response","457","1669173","0.0-240.0-1.0","null","<p></p>","null","","","","","","","","","","","","","","","","","","","","","","",""
"","do_trial","458","1674167","0.0-241.0-0.0","447.30000019073486","","","","","","","","50","1,1,1","4","coast","178","probe-219","0.08936278983563498","0.4559390667099632","0.21509742403118792","1","","","","","","","",""
"","html-keyboard-response","459","1675170","0.0-241.0-1.0","null","<p></p>","null","","","","","","","","","","","","","","","","","","","","","","",""
"","do_trial","460","1680000","0.0-242.0-0.0","285.40000009536743","","","","","","","","50","0,1,1","4","coast","179","probe-121","0.06690907176601735","0.529763724728081","0.23990273672492288","1","","","","","","","",""
"","html-keyboard-response","461","1681003","0.0-242.0-1.0","null","<p></p>","null","","","","","","","","","","","","","","","","","","","","","","",""
"","do_trial","462","1685930","0.0-243.0-0.0","384.59999990463257","","","","","","","","50","1,0,0","4","coast","180","probe-33","0.12608520511844723","0.49375717668236735","0.29528126219369566","0","","","","","","","",""
"","html-keyboard-response","463","1686937","0.0-243.0-1.0","null","<p></p>","null","","","","","","","","","","","","","","","","","","","","","","",""
"","do_trial","464","1692892","0.0-244.0-0.0","1408.3999996185303","","","","","","","","50","0,1,0","4","coast","181","probe-165","0.19681945307171728","0.5660622658884452","0.3940849596385459","1","","","","","","","",""
"","html-keyboard-response","465","1693896","0.0-244.0-1.0","null","<p></p>","null","","","","","","","","","","","","","","","","","","","","","","",""
"","do_trial","466","1698856","0.0-245.0-0.0","415.2999997138977","","","","","","","","50","0,1,0","4","coast","182","probe-106","0.05498083047722563","0.5245783476335837","0.4324890659071627","1","","","","","","","",""
"","html-keyboard-response","467","1699862","0.0-245.0-1.0","null","<p></p>","null","","","","","","","","","","","","","","","","","","","","","","",""
"","do_trial","468","1704898","0.0-246.0-0.0","492.69999980926514","","","","","","","","50","0,1,0","4","coast","183","probe-180","0.09216522397508829","0.5882599854058415","0.42549188112095104","1","","","","","","","",""
"","html-keyboard-response","469","1705902","0.0-246.0-1.0","null","<p></p>","null","","","","","","","","","","","","","","","","","","","","","","",""
"","do_trial","470","1710920","0.0-247.0-0.0","471.2999997138977","","","","","","","","50","0,1,0","4","coast","184","probe-10","0.08397209573490542","0.5513080227396727","0.32148391278547594","1","","","","","","","",""
"","html-keyboard-response","471","1711925","0.0-247.0-1.0","null","<p></p>","null","","","","","","","","","","","","","","","","","","","","","","",""
"","do_trial","472","1716830","0.0-248.0-0.0","361.59999990463257","","","","","","","","50","0,0,0","4","coast","185","probe-202","0.146000150731438","0.5337443758088147","0.23122725367440175","0","","","","","","","",""
"","html-keyboard-response","473","1717837","0.0-248.0-1.0","null","<p></p>","null","","","","","","","","","","","","","","","","","","","","","","",""
"","do_trial","474","1722890","0.0-249.0-0.0","506.19999980926514","","","","","","","","50","0,0,0","4","coast","186","probe-195","0.05372195499768031","0.63205854896728","0.23500963743710274","0","","","","","","","",""
"","html-keyboard-response","475","1723895","0.0-249.0-1.0","null","<p></p>","null","","","","","","","","","","","","","","","","","","","","","","",""
"","do_trial","476","1728951","0.0-250.0-0.0","509.80000019073486","","","","","","","","50","0,1,1","4","coast","187","probe-183","0.12668282909527057","0.5416390481368805","0.24472948267911196","1","","","","","","","",""
"","html-keyboard-response","477","1729955","0.0-250.0-1.0","null","<p></p>","null","","","","","","","","","","","","","","","","","","","","","","",""
