success,trial_type,trial_index,time_elapsed,internal_node_id,interactions,blur_events,focus_events,fullscreenenter_events,fullscreenexit_events,rt,stimulus,key_press,subject_id,participant_id,age,gender,prompt,response,choice_outcomes,context_n,context_img_id,trial_n,probe_img_id,pR_red,pR_white,pR_black,outcome,contextArray_ind,validImageProbes,invalidImageProbes,pRew_Red,pRew_White,pRew_Black,availableForMemProbe,choice_blocks
TRUE,fullscreen,0,2650,0.0-0.0,"""event"",""trial"",""time""
""fullscreenenter"",""0"",""1663""
","
","
","""event"",""trial"",""time""
""fullscreenenter"",""0"",""1663""
","
",,,,,,,,,,,,,,,,,,,,,,,,,,
,pavlovia,1,2652,0.0-1.0,"""event"",""trial"",""time""
""fullscreenenter"",""0"",""1663""
","
","
","""event"",""trial"",""time""
""fullscreenenter"",""0"",""1663""
","
",,,,,,,,,,,,,,,,,,,,,,,,,,
,instruc1,2,47740,0.0-2.0,"""event"",""trial"",""time""
""fullscreenenter"",""0"",""1663""
","
","
","""event"",""trial"",""time""
""fullscreenenter"",""0"",""1663""
","
",null,run_exp/static/audio/clip_1_welcome.m4a,null,285,611,15,Male,"<div class='center'><p>Welcome! This is the first part of the study. It will last ~30 minutes. In part 1 and part 2 of the study, you are the head captain of a pirate ship traveling around the world to different islands. You will play a few different games throughout these two parts. Here is an overview of them:</p><br><p>Part 1 (today)</p><p>1. Instructions, practice game, and quiz</p><p>2. Pick a pirate game on 6 different islands</p><br><p>Part 2 (tomorrow)</p><p>3. Pick a pirate game and memory game</p><p>4. Where did you see this ship? </p></div>",,,,,,,,,,,,,,,,,,
,html-keyboard-response,3,50979,0.0-3.0,"""event"",""trial"",""time""
""fullscreenenter"",""0"",""1663""
","
","
","""event"",""trial"",""time""
""fullscreenenter"",""0"",""1663""
","
",3237.4,"<div class='center'><p>Welcome! This is the first part of the study. It will last ~30 minutes. In part 1 and part 2 of the study, you are the head captain of a pirate ship traveling around the world to different islands. You will play a few different games throughout these two parts. Here is an overview of them:</p><br><p>Part 1 (today)</p><p>1. Instructions, practice game, and quiz</p><p>2. Pick a pirate game on 6 different islands</p><br><p>Part 2 (tomorrow)</p><p>3. Pick a pirate game and memory game</p><p>4. Where did you see this ship? </p><p><b>[Press the space bar to continue]</b></p></div>",32,,,,,,,,,,,,,,,,,,,,,,,
,instruc2,4,56280,0.0-4.0,"""event"",""trial"",""time""
""fullscreenenter"",""0"",""1663""
","
","
","""event"",""trial"",""time""
""fullscreenenter"",""0"",""1663""
","
",null,run_exp/static/audio/clip_2_different_places.m4a,null,,,,,"<div class='center'><p>Today, you’ll visit these 6 islands on your journey. You'll be able to see these islands from your ship.</p><p><img src='run_exp/static/images/contexts/all_contexts.png' height='500'></p></div>",,,,,,,,,,,,,,,,,,
,html-keyboard-response,5,60987,0.0-5.0,"""event"",""trial"",""time""
""fullscreenenter"",""0"",""1663""
","
","
","""event"",""trial"",""time""
""fullscreenenter"",""0"",""1663""
","
",4705.5,"<div class='center'><p>Today, you’ll visit these 6 islands on your journey. You'll be able to see these islands from your ship.</p><p><img src='run_exp/static/images/contexts/all_contexts.png' height='500'></p><p><b>[Press the space bar to continue]</b></p></div>",32,,,,,,,,,,,,,,,,,,,,,,,
,instruc3,6,70680,0.0-6.0,"""event"",""trial"",""time""
""fullscreenenter"",""0"",""1663""
","
","
","""event"",""trial"",""time""
""fullscreenenter"",""0"",""1663""
","
",null,run_exp/static/audio/clip_3_goal_of_game_1.m4a,null,,,,,"<div class='center'><p> The pirates on your ship will rob other ships as they leave the island.</p> These ships have just sold their goods to the islanders, so they will be filled with lots and lots of gold.</p><p><img src='run_exp/static/images/tutorial/ship_center.png' height='400'></p></div>",,,,,,,,,,,,,,,,,,
,html-keyboard-response,7,73739,0.0-7.0,"""event"",""trial"",""time""
""fullscreenenter"",""0"",""1663""
","
","
","""event"",""trial"",""time""
""fullscreenenter"",""0"",""1663""
","
",3058,"<div class='center'><p> The pirates on your ship will rob other ships as they leave the island.</p> These ships have just sold their goods to the islanders, so they will be filled with lots and lots of gold.</p><p><img src='run_exp/static/images/tutorial/ship_center.png' height='400'></p><p><b>[Press the space bar to continue]</b></p></div>",32,,,,,,,,,,,,,,,,,,,,,,,
,instruc4,8,101721,0.0-8.0,"""event"",""trial"",""time""
""fullscreenenter"",""0"",""1663""
","
","
","""event"",""trial"",""time""
""fullscreenenter"",""0"",""1663""
","
",null,run_exp/static/audio/clip_4_goal_of_game_2.m4a,null,,,,,"<div class='center'><p>As the head captain, you do not have to rob any ships yourself. Another pirate will be doing the robbing for you. First, you will choose a pirate to rob the next ship.</p><p><img src='run_exp/static/images/tutorial/pirates_all_crop.png' height='200'></p><p>Then, you'll see if the pirate successfully robbed the ship of their gold. If they were successful, then you'll get a stack of gold coins like this:</p><p><img src='run_exp/static/images/tutorial/reward.png' height='150'></p><p> If they were <b>not</b> successful, then you'll get no gold coins, and you'll see a big red x like this: </p><p><img src='run_exp/static/images/tutorial/reward_no.png' height='150'></p><p> How much bonus money you make is based on how many gold coins you collect.</p><div>",,,,,,,,,,,,,,,,,,
,html-keyboard-response,9,104763,0.0-9.0,"""event"",""trial"",""time""
""fullscreenenter"",""0"",""1663""
","
","
","""event"",""trial"",""time""
""fullscreenenter"",""0"",""1663""
","
",3041.5,"<div class='center'><p>As the head captain, you do not have to rob any ships yourself. Another pirate will be doing the robbing for you. First, you will choose a pirate to rob the next ship.</p><p><img src='run_exp/static/images/tutorial/pirates_all_crop.png' height='200'></p><p>Then, you'll see if the pirate successfully robbed the ship of their gold. If they were successful, then you'll get a stack of gold coins like this:</p><p><img src='run_exp/static/images/tutorial/reward.png' height='150'></p><p> If they were <b>not</b> successful, then you'll get no gold coins, and you'll see a big red x like this: </p><p><img src='run_exp/static/images/tutorial/reward_no.png' height='150'></p><p> How much bonus money you make is based on how many gold coins you collect.</p<p><b>[Press the space bar to continue]</b></p></div>",32,,,,,,,,,,,,,,,,,,,,,,,
,instruc5,10,127723,0.0-10.0,"""event"",""trial"",""time""
""fullscreenenter"",""0"",""1663""
","
","
","""event"",""trial"",""time""
""fullscreenenter"",""0"",""1663""
","
",22959.6,run_exp/static/audio/clip_5_probabilistic.m4a,49,,,,,"<div class='center'><p>Even the most skilled pirate can not rob EVERY ship.</p><p> Some ships will have very strong protections against pirate attacks.</p><p> Blue beard, here, is very, very good at robbing ships, but he won't be successful every time he tries to rob one.</p><p> You can press the <b>‘1’</b> key on the keyboard to choose him.</p><p> Try choosing him 10 times to see how often he succeeds at robbing a ship. </p><p><img src='run_exp/static/images/tutorial/blue.png' height='500'></p></div>",,,,,,,,,,,,,,,,,,
,html-keyboard-response,11,129224,0.0-11.0,"""event"",""trial"",""time""
""fullscreenenter"",""0"",""1663""
","
","
","""event"",""trial"",""time""
""fullscreenenter"",""0"",""1663""
","
",null,<div class='center'><p><img src='run_exp/static/images/tutorial/blue_win.png' height='500'></p></div>,null,,,,,,,,,,,,,,,,,,,,,,,
,html-keyboard-response,12,130267,0.0-12.0,"""event"",""trial"",""time""
""fullscreenenter"",""0"",""1663""
","
","
","""event"",""trial"",""time""
""fullscreenenter"",""0"",""1663""
","
",1042.4,<div class='center'><img src='run_exp/static/images/tutorial/blue.png' height='500'></p></div>,49,,,,,,,,,,,,,,,,,,,,,,,
,html-keyboard-response,13,131769,0.0-13.0,"""event"",""trial"",""time""
""fullscreenenter"",""0"",""1663""
","
","
","""event"",""trial"",""time""
""fullscreenenter"",""0"",""1663""
","
",null,<div class='center'><p><img src='run_exp/static/images/tutorial/blue_win.png' height='500'></p></div>,null,,,,,,,,,,,,,,,,,,,,,,,
,html-keyboard-response,14,131940,0.0-14.0,"""event"",""trial"",""time""
""fullscreenenter"",""0"",""1663""
","
","
","""event"",""trial"",""time""
""fullscreenenter"",""0"",""1663""
","
",170.2,<div class='center'><img src='run_exp/static/images/tutorial/blue.png' height='500'></p></div>,49,,,,,,,,,,,,,,,,,,,,,,,
,html-keyboard-response,15,133441,0.0-15.0,"""event"",""trial"",""time""
""fullscreenenter"",""0"",""1663""
","
","
","""event"",""trial"",""time""
""fullscreenenter"",""0"",""1663""
","
",null,<div class='center'><p><img src='run_exp/static/images/tutorial/blue_win.png' height='500'></p></div>,null,,,,,,,,,,,,,,,,,,,,,,,
,html-keyboard-response,16,133748,0.0-16.0,"""event"",""trial"",""time""
""fullscreenenter"",""0"",""1663""
","
","
","""event"",""trial"",""time""
""fullscreenenter"",""0"",""1663""
","
",306.4,<div class='center'><img src='run_exp/static/images/tutorial/blue.png' height='500'></p></div>,49,,,,,,,,,,,,,,,,,,,,,,,
,html-keyboard-response,17,135249,0.0-17.0,"""event"",""trial"",""time""
""fullscreenenter"",""0"",""1663""
","
","
","""event"",""trial"",""time""
""fullscreenenter"",""0"",""1663""
","
",null,<div class='center'><p><img src='run_exp/static/images/tutorial/blue_no_win.png' height='500'></p></div>,null,,,,,,,,,,,,,,,,,,,,,,,
,html-keyboard-response,18,135932,0.0-18.0,"""event"",""trial"",""time""
""fullscreenenter"",""0"",""1663""
","
","
","""event"",""trial"",""time""
""fullscreenenter"",""0"",""1663""
","
",682.3,<div class='center'><img src='run_exp/static/images/tutorial/blue.png' height='500'></p></div>,49,,,,,,,,,,,,,,,,,,,,,,,
,html-keyboard-response,19,137444,0.0-19.0,"""event"",""trial"",""time""
""fullscreenenter"",""0"",""1663""
","
","
","""event"",""trial"",""time""
""fullscreenenter"",""0"",""1663""
","
",null,<div class='center'><p><img src='run_exp/static/images/tutorial/blue_win.png' height='500'></p></div>,null,,,,,,,,,,,,,,,,,,,,,,,
,html-keyboard-response,20,139756,0.0-20.0,"""event"",""trial"",""time""
""fullscreenenter"",""0"",""1663""
","
","
","""event"",""trial"",""time""
""fullscreenenter"",""0"",""1663""
","
",2311.4,<div class='center'><img src='run_exp/static/images/tutorial/blue.png' height='500'></p></div>,49,,,,,,,,,,,,,,,,,,,,,,,
,html-keyboard-response,21,141257,0.0-21.0,"""event"",""trial"",""time""
""fullscreenenter"",""0"",""1663""
","
","
","""event"",""trial"",""time""
""fullscreenenter"",""0"",""1663""
","
",null,<div class='center'><p><img src='run_exp/static/images/tutorial/blue_win.png' height='500'></p></div>,null,,,,,,,,,,,,,,,,,,,,,,,
,html-keyboard-response,22,141572,0.0-22.0,"""event"",""trial"",""time""
""fullscreenenter"",""0"",""1663""
","
","
","""event"",""trial"",""time""
""fullscreenenter"",""0"",""1663""
","
",314.7,<div class='center'><img src='run_exp/static/images/tutorial/blue.png' height='500'></p></div>,49,,,,,,,,,,,,,,,,,,,,,,,
,html-keyboard-response,23,143073,0.0-23.0,"""event"",""trial"",""time""
""fullscreenenter"",""0"",""1663""
","
","
","""event"",""trial"",""time""
""fullscreenenter"",""0"",""1663""
","
",null,<div class='center'><p><img src='run_exp/static/images/tutorial/blue_win.png' height='500'></p></div>,null,,,,,,,,,,,,,,,,,,,,,,,
,html-keyboard-response,24,149364,0.0-24.0,"""event"",""trial"",""time""
""fullscreenenter"",""0"",""1663""
","
","
","""event"",""trial"",""time""
""fullscreenenter"",""0"",""1663""
","
",6290.6,<div class='center'><img src='run_exp/static/images/tutorial/blue.png' height='500'></p></div>,49,,,,,,,,,,,,,,,,,,,,,,,
,html-keyboard-response,25,150878,0.0-25.0,"""event"",""trial"",""time""
""fullscreenenter"",""0"",""1663""
","
","
","""event"",""trial"",""time""
""fullscreenenter"",""0"",""1663""
","
",null,<div class='center'><p><img src='run_exp/static/images/tutorial/blue_no_win.png' height='500'></p></div>,null,,,,,,,,,,,,,,,,,,,,,,,
,html-keyboard-response,26,151260,0.0-26.0,"""event"",""trial"",""time""
""fullscreenenter"",""0"",""1663""
","
","
","""event"",""trial"",""time""
""fullscreenenter"",""0"",""1663""
","
",381.4,<div class='center'><img src='run_exp/static/images/tutorial/blue.png' height='500'></p></div>,49,,,,,,,,,,,,,,,,,,,,,,,
,html-keyboard-response,27,152773,0.0-27.0,"""event"",""trial"",""time""
""fullscreenenter"",""0"",""1663""
","
","
","""event"",""trial"",""time""
""fullscreenenter"",""0"",""1663""
","
",null,<div class='center'><p><img src='run_exp/static/images/tutorial/blue_win.png' height='500'></p></div>,null,,,,,,,,,,,,,,,,,,,,,,,
,html-keyboard-response,28,153636,0.0-28.0,"""event"",""trial"",""time""
""fullscreenenter"",""0"",""1663""
","
","
","""event"",""trial"",""time""
""fullscreenenter"",""0"",""1663""
","
",863.1,<div class='center'><img src='run_exp/static/images/tutorial/blue.png' height='500'></p></div>,49,,,,,,,,,,,,,,,,,,,,,,,
,html-keyboard-response,29,155149,0.0-29.0,"""event"",""trial"",""time""
""fullscreenenter"",""0"",""1663""
","
","
","""event"",""trial"",""time""
""fullscreenenter"",""0"",""1663""
","
",null,<div class='center'><p><img src='run_exp/static/images/tutorial/blue_win.png' height='500'></p></div>,null,,,,,,,,,,,,,,,,,,,,,,,
,instruc6,30,160542,0.0-30.0,"""event"",""trial"",""time""
""fullscreenenter"",""0"",""1663""
","
","
","""event"",""trial"",""time""
""fullscreenenter"",""0"",""1663""
","
",null,run_exp/static/audio/clip_6_blue_beard_outcome.m4a,null,,,,,"<div class='center'><p> See, he succeeded in robbing the ships most of the time but not every time. </p></div>",,,,,,,,,,,,,,,,,,
,html-keyboard-response,31,161508,0.0-31.0,"""event"",""trial"",""time""
""fullscreenenter"",""0"",""1663""
","
","
","""event"",""trial"",""time""
""fullscreenenter"",""0"",""1663""
","
",965.8,"<div class='center'><p> See, he succeeded in robbing the ships most of the time but not every time. </p><p><b>[Press the space bar to continue]</b></p></div>",32,,,,,,,,,,,,,,,,,,,,,,,
,audio-keyboard-response,32,177757,0.0-32.0,"""event"",""trial"",""time""
""fullscreenenter"",""0"",""1663""
","
","
","""event"",""trial"",""time""
""fullscreenenter"",""0"",""1663""
","
",16247.6,run_exp/static/audio/clip_7_pick_pirate.m4a,51,,,,,,,,,,,,,,,,,,,,,,,
,audio-keyboard-response,33,188541,0.0-33.0-0.0,"""event"",""trial"",""time""
""fullscreenenter"",""0"",""1663""
","
","
","""event"",""trial"",""time""
""fullscreenenter"",""0"",""1663""
","
",10783,run_exp/static/audio/clip_8_chosen_pirate_win.m4a,32,,,,,,,,,,,,,,,,,,,,,,,
,audio-keyboard-response,34,191588,0.0-33.0-1.0,"""event"",""trial"",""time""
""fullscreenenter"",""0"",""1663""
","
","
","""event"",""trial"",""time""
""fullscreenenter"",""0"",""1663""
","
",3047.2,run_exp/static/audio/clip_9_pick_a_pirate_again.m4a,49,,,,,,,,,,,,,,,,,,,,,,,
,audio-keyboard-response,35,193628,0.0-34.0-0.0,"""event"",""trial"",""time""
""fullscreenenter"",""0"",""1663""
","
","
","""event"",""trial"",""time""
""fullscreenenter"",""0"",""1663""
","
",2039,run_exp/static/audio/clip_10_chosen_pirate_loss.m4a,32,,,,,,,,,,,,,,,,,,,,,,,
,instruc9,36,199122,0.0-35.0-0.0,"""event"",""trial"",""time""
""fullscreenenter"",""0"",""1663""
","
","
","""event"",""trial"",""time""
""fullscreenenter"",""0"",""1663""
","
",null,run_exp/static/audio/clip_11_time_out.m4a,null,,,,,"<div class='center'><p>If you don’t make your choice fast enough, you’ll have to wait a few seconds before you can make another one. </p><p><img src='run_exp/static/images/miscellaneous/hurry_up.png' height='500'></p></div>",,,,,,,,,,,,,,,,,,
,html-keyboard-response,37,200245,0.0-35.0-1.0,"""event"",""trial"",""time""
""fullscreenenter"",""0"",""1663""
","
","
","""event"",""trial"",""time""
""fullscreenenter"",""0"",""1663""
","
",1121.9,"<div class='center'><p>If you don’t make your choice fast enough, you’ll have to wait a few seconds before you can make another one. </p><p><img src='run_exp/static/images/miscellaneous/hurry_up.png' height='500'></p><p><b>[Press the space bar to continue]</b></p></div>",32,,,,,,,,,,,,,,,,,,,,,,,
,instruc10,38,239323,0.0-35.0-2.0,"""event"",""trial"",""time""
""fullscreenenter"",""0"",""1663""
","
","
","""event"",""trial"",""time""
""fullscreenenter"",""0"",""1663""
","
",null,run_exp/static/audio/clip_12_probe.m4a,null,,,,,"<div class='center'><p>Once you've chosen a pirate, you’ll be shown the ship they are robbing. You will never rob the same ship twice. Ships can be told apart from one another by the image on them. These are the goods that they sell. See, this ship has a travel mug on it. </p><p> You’ll have to remember which island you saw each ship on. You will win more gold coins and hence more bonus money if you remember correctly! To help you remember, you can imagine a story. For example, here, you could imagine a mug full of water in the desert. Or, as another example, if on the forest island, your pirate robbed a ship with an apple on it, you could imagine an apple falling from a tree in the forest. </p><p><img src='run_exp/static/images/tutorial/example_probe.png' height='500'></p></div>",,,,,,,,,,,,,,,,,,
,html-keyboard-response,39,240805,0.0-35.0-3.0,"""event"",""trial"",""time""
""fullscreenenter"",""0"",""1663""
","
","
","""event"",""trial"",""time""
""fullscreenenter"",""0"",""1663""
","
",1481.7,"<div class='center'><p>Once you've chosen a pirate, you’ll be shown the ship they are robbing. You will never rob the same ship twice. Ships can be told apart from one another by the image on them. These are the goods that they sell. See, this ship has a travel mug on it. </p><p> You’ll have to remember which island you saw each ship on. You will win more gold coins and hence more bonus money if you remember correctly! To help you remember, you can imagine a story. For example, here, you could imagine a mug full of water in the desert. Or, as another example, if on the forest island, your pirate robbed a ship with an apple on it, you could imagine an apple falling from a tree in the forest. </p><p><img src='run_exp/static/images/tutorial/example_probe.png' height='500'></p><p><b>[Press the space bar to continue]</b></p></div>",32,,,,,,,,,,,,,,,,,,,,,,,
,instruc11,40,257204,0.0-35.0-4.0,"""event"",""trial"",""time""
""fullscreenenter"",""0"",""1663""
","
","
","""event"",""trial"",""time""
""fullscreenenter"",""0"",""1663""
","
",null,run_exp/static/audio/clip_13_changepoint.m4a,null,,,,,"<div class='center'><p>How successful a pirate is at robbing ships will depend on the island you’re on.</p><p> A pirate may have visited this island many times before and gained a lot of practice robbing ships there.</p><p>So, they’re more likely to be successful than a pirate who has never visited the island before.</p></div>",,,,,,,,,,,,,,,,,,
,html-keyboard-response,41,266782,0.0-35.0-5.0,"""event"",""trial"",""time""
""fullscreenenter"",""0"",""1663""
","
","
","""event"",""trial"",""time""
""fullscreenenter"",""0"",""1663""
","
",9578,"<div class='center'><p>How successful a pirate is at robbing ships will depend on the island you’re on.</p><p> A pirate may have visited this island many times before and gained a lot of practice robbing ships there.</p><p>So, they’re more likely to be successful than a pirate who has never visited the island before.</p><p><b>[Press the space bar to continue]</b></p></div>",32,,,,,,,,,,,,,,,,,,,,,,,
,instruc12,42,307865,0.0-35.0-6.0,"""event"",""trial"",""time""
""fullscreenenter"",""0"",""1663""
","
","
","""event"",""trial"",""time""
""fullscreenenter"",""0"",""1663""
","
",null,run_exp/static/audio/clip_14_drift.m4a,null,,,,,"<div class='center'><p>How successful a pirate is at robbing ships can also change over the time spent on the island. </p><p> Ships may hear from islanders about the pirates coming and will improve their protections against the attack. This may make it harder to rob them.</p><p> Ships may also become lazy and weaken the strength of their protections. This may make it easier to rob them.</p><br><p>Things are always changing on the high seas! So, try your best to pay attention!</p><p><img src='run_exp/static/images/tutorial/contingency.png' height='500'></p></div>",,,,,,,,,,,,,,,,,,
,html-keyboard-response,43,321487,0.0-35.0-7.0,"""event"",""trial"",""time""
""fullscreenenter"",""0"",""1663""
","
","
","""event"",""trial"",""time""
""fullscreenenter"",""0"",""1663""
","
",13621.9,"<div class='center'><p>How successful a pirate is at robbing ships can also change over the time spent on the island. </p><p> Ships may hear from islanders about the pirates coming and will improve their protections against the attack. This may make it harder to rob them.</p><p> Ships may also become lazy and weaken the strength of their protections. This may make it easier to rob them.</p><br><p>Things are always changing on the high seas! So, try your best to pay attention!</p><p><img src='run_exp/static/images/tutorial/contingency.png' height='500'></p><p><b>[Press the space bar to continue]</b></p></div>",32,,,,,,,,,,,,,,,,,,,,,,,
,instruc13,44,356656,0.0-35.0-8.0,"""event"",""trial"",""time""
""fullscreenenter"",""0"",""1663""
","
","
","""event"",""trial"",""time""
""fullscreenenter"",""0"",""1663""
","
",null,run_exp/static/audio/clip_15_summary.m4a,null,,,,,"<div class='center'><p>Let's go over the instructions quickly again. You have two important things to do: </p><b><p> 1. Pick the pirate who is the best at robbing ships on the current island. </p></b><b><p> 2. Remember on which island a ship was robbed.</p> </b><p>The amount of bonus money you can win depends on both.</p><p><br><p>Let’s try a practice game. The game will start by showing you the pirates. First, pick a pirate using the <b> 1, 2, 3 </b> keys on your keyboard. When you are shown a ship, try to remember which island you’re on by making up a story.</p><p>This is just a practice game, so you’re not playing for money. </p><p> Good luck! This game will be very difficult but try your best!</p></div>",,,,,,,,,,,,,,,,,,
,html-keyboard-response,45,361736,0.0-35.0-9.0,"""event"",""trial"",""time""
""fullscreenenter"",""0"",""1663""
","
","
","""event"",""trial"",""time""
""fullscreenenter"",""0"",""1663""
","
",5079.8,"<div class='center'><p>Let's go over the instructions quickly again. You have two important things to do: </p><b><p> 1. Pick the pirate who is the best at robbing ships on the current island. </p></b><b><p> 2. Remember on which island a ship was robbed.</p> </b><p>The amount of bonus money you can win depends on both.</p><p><br><p>Let’s try a practice game. The game will start by showing you the pirates. First, pick a pirate using the <b> 1, 2, 3 </b> keys on your keyboard. When you are shown a ship, try to remember which island you’re on by making up a story.</p><p>This is just a practice game, so you’re not playing for money. </p><p> Good luck! This game will be very difficult but try your best!</p><p><b>[Press the space bar to continue]</b></p></div>",32,,,,,,,,,,,,,,,,,,,,,,,
,do_welcome,46,365751,0.0-35.0-10.0,"""event"",""trial"",""time""
""fullscreenenter"",""0"",""1663""
","
","
","""event"",""trial"",""time""
""fullscreenenter"",""0"",""1663""
","
",null,,,,,,,,null,,,,,,,,,,,,,,,,,
,do_trial,47,371543,0.0-35.0-11.0,"""event"",""trial"",""time""
""fullscreenenter"",""0"",""1663""
","
","
","""event"",""trial"",""time""
""fullscreenenter"",""0"",""1663""
","
",1277.8,,,,,,,,51,"1,0,0",,,,,,,,,,,,,,,,
,html-keyboard-response,48,372556,0.0-36.0-0.0,"""event"",""trial"",""time""
""fullscreenenter"",""0"",""1663""
","
","
","""event"",""trial"",""time""
""fullscreenenter"",""0"",""1663""
","
",null,<p></p>,null,,,,,,,,,,,,,,,,,,,,,,,
,do_trial,49,378968,0.0-36.0-1.0,"""event"",""trial"",""time""
""fullscreenenter"",""0"",""1663""
","
","
","""event"",""trial"",""time""
""fullscreenenter"",""0"",""1663""
","
",1897.4,,,,,,,,50,"1,1,0",,,,,,,,,,,,,,,,
,html-keyboard-response,50,379979,0.0-37.0-0.0,"""event"",""trial"",""time""
""fullscreenenter"",""0"",""1663""
","
","
","""event"",""trial"",""time""
""fullscreenenter"",""0"",""1663""
","
",null,<p></p>,null,,,,,,,,,,,,,,,,,,,,,,,
,do_trial,51,384872,0.0-37.0-1.0,"""event"",""trial"",""time""
""fullscreenenter"",""0"",""1663""
","
","
","""event"",""trial"",""time""
""fullscreenenter"",""0"",""1663""
","
",386.9,,,,,,,,49,"1,0,1",,,,,,,,,,,,,,,,
,html-keyboard-response,52,385876,0.0-38.0-0.0,"""event"",""trial"",""time""
""fullscreenenter"",""0"",""1663""
","
","
","""event"",""trial"",""time""
""fullscreenenter"",""0"",""1663""
","
",null,<p></p>,null,,,,,,,,,,,,,,,,,,,,,,,
,do_trial,53,391170,0.0-38.0-1.0,"""event"",""trial"",""time""
""fullscreenenter"",""0"",""1663""
","
","
","""event"",""trial"",""time""
""fullscreenenter"",""0"",""1663""
","
",785.5,,,,,,,,51,"0,1,0",,,,,,,,,,,,,,,,
,html-keyboard-response,54,392181,0.0-39.0-0.0,"""event"",""trial"",""time""
""fullscreenenter"",""0"",""1663""
","
","
","""event"",""trial"",""time""
""fullscreenenter"",""0"",""1663""
","
",null,<p></p>,null,,,,,,,,,,,,,,,,,,,,,,,
,do_trial,55,399703,0.0-39.0-1.0,"""event"",""trial"",""time""
""fullscreenenter"",""0"",""1663""
","
","
","""event"",""trial"",""time""
""fullscreenenter"",""0"",""1663""
","
",3007.7,,,,,,,,50,"1,0,0",,,,,,,,,,,,,,,,
,do_bye,56,401207,0.0-40.0-0.0,"""event"",""trial"",""time""
""fullscreenenter"",""0"",""1663""
","
","
","""event"",""trial"",""time""
""fullscreenenter"",""0"",""1663""
","
",null,,,,,,,,null,,,,,,,,,,,,,,,,,
,do_travel,57,410224,0.0-40.0-1.0,"""event"",""trial"",""time""
""fullscreenenter"",""0"",""1663""
","
","
","""event"",""trial"",""time""
""fullscreenenter"",""0"",""1663""
","
",null,,,,,,,,null,,,,,,,,,,,,,,,,,
,do_welcome,58,414235,0.0-40.0-2.0,"""event"",""trial"",""time""
""fullscreenenter"",""0"",""1663""
","
","
","""event"",""trial"",""time""
""fullscreenenter"",""0"",""1663""
","
",null,,,,,,,,null,,,,,,,,,,,,,,,,,
,do_trial,59,419538,0.0-40.0-3.0,"""event"",""trial"",""time""
""fullscreenenter"",""0"",""1663""
","
","
","""event"",""trial"",""time""
""fullscreenenter"",""0"",""1663""
","
",795.1,,,,,,,,50,"1,0,0",,,,,,,,,,,,,,,,
,html-keyboard-response,60,420553,0.0-41.0-0.0,"""event"",""trial"",""time""
""fullscreenenter"",""0"",""1663""
","
","
","""event"",""trial"",""time""
""fullscreenenter"",""0"",""1663""
","
",null,<p></p>,null,,,,,,,,,,,,,,,,,,,,,,,
,do_trial,61,425354,0.0-41.0-1.0,"""event"",""trial"",""time""
""fullscreenenter"",""0"",""1663""
","
","
","""event"",""trial"",""time""
""fullscreenenter"",""0"",""1663""
","
",284.6,,,,,,,,49,"1,0,1",,,,,,,,,,,,,,,,
,html-keyboard-response,62,426366,0.0-42.0-0.0,"""event"",""trial"",""time""
""fullscreenenter"",""0"",""1663""
","
","
","""event"",""trial"",""time""
""fullscreenenter"",""0"",""1663""
","
",null,<p></p>,null,,,,,,,,,,,,,,,,,,,,,,,
,do_trial,63,431873,0.0-42.0-1.0,"""event"",""trial"",""time""
""fullscreenenter"",""0"",""1663""
","
","
","""event"",""trial"",""time""
""fullscreenenter"",""0"",""1663""
","
",999.6,,,,,,,,51,"1,1,0",,,,,,,,,,,,,,,,
,html-keyboard-response,64,432878,0.0-43.0-0.0,"""event"",""trial"",""time""
""fullscreenenter"",""0"",""1663""
","
","
","""event"",""trial"",""time""
""fullscreenenter"",""0"",""1663""
","
",null,<p></p>,null,,,,,,,,,,,,,,,,,,,,,,,
,do_trial,65,438267,0.0-43.0-1.0,"""event"",""trial"",""time""
""fullscreenenter"",""0"",""1663""
","
","
","""event"",""trial"",""time""
""fullscreenenter"",""0"",""1663""
","
",879.9,,,,,,,,50,"0,0,1",,,,,,,,,,,,,,,,
,html-keyboard-response,66,439269,0.0-44.0-0.0,"""event"",""trial"",""time""
""fullscreenenter"",""0"",""1663""
","
","
","""event"",""trial"",""time""
""fullscreenenter"",""0"",""1663""
","
",null,<p></p>,null,,,,,,,,,,,,,,,,,,,,,,,
,do_trial,67,444117,0.0-44.0-1.0,"""event"",""trial"",""time""
""fullscreenenter"",""0"",""1663""
","
","
","""event"",""trial"",""time""
""fullscreenenter"",""0"",""1663""
","
",336.8,,,,,,,,49,"1,0,1",,,,,,,,,,,,,,,,
,html-keyboard-response,68,447666,0.0-45.0-0.0,"""event"",""trial"",""time""
""fullscreenenter"",""0"",""1663""
","
","
","""event"",""trial"",""time""
""fullscreenenter"",""0"",""1663""
","
",3547.9,<div class='center'><p><img src='run_exp/static/images/tutorial/prac_best_pirate.png'  height='500'></p></div>,49,,,,,,,,,,,,,,,,,,,,,,,
,html-keyboard-response,69,448994,0.0-46.0-0.0,"""event"",""trial"",""time""
""fullscreenenter"",""0"",""1663""
","
","
","""event"",""trial"",""time""
""fullscreenenter"",""0"",""1663""
","
",1327.2,<div class='center'><p>That's correct! Red beard was the best.</p><p><b>[Press the space bar to continue]</b></p></div>,32,,,,,,,,,,,,,,,,,,,,,,,
,html-keyboard-response,70,452130,0.0-46.0-1.0,"""event"",""trial"",""time""
""fullscreenenter"",""0"",""1663""
","
","
","""event"",""trial"",""time""
""fullscreenenter"",""0"",""1663""
","
",3135.4,<div class='center'><p><img src='run_exp/static/images/tutorial/prac_source.png'  height='500'></p></div>,50,,,,,,,,,,,,,,,,,,,,,,,
,html-keyboard-response,71,453066,0.0-47.0-0.0,"""event"",""trial"",""time""
""fullscreenenter"",""0"",""1663""
","
","
","""event"",""trial"",""time""
""fullscreenenter"",""0"",""1663""
","
",935.6,<div class='center'><p>That's correct! You saw this ship on the cavern island.</p><p><b>[Press the space bar to continue]</b></p></div>,32,,,,,,,,,,,,,,,,,,,,,,,
,quiz_beginning,72,464248,0.0-47.0-1.0,"""event"",""trial"",""time""
""fullscreenenter"",""0"",""1663""
","
","
","""event"",""trial"",""time""
""fullscreenenter"",""0"",""1663""
","
",null,run_exp/static/audio/clip_16_quiz_intro.m4a,null,,,,,"<div class='center'><p>Good job on the practice game! Now, you will be asked some true or false questions to make sure you really understand the rules of the game.</p><p> Press <b>'1'</b> on the keyboard for true and press <b>'2'</b> for false.</p></div>",,,,,,,,,,,,,,,,,,
,audio-keyboard-response,73,479954,0.0-47.0-2.0,"""event"",""trial"",""time""
""fullscreenenter"",""0"",""1663""
","
","
","""event"",""trial"",""time""
""fullscreenenter"",""0"",""1663""
","
",15705.8,run_exp/static/audio/clip_17_q1.m4a,49,,,,,,,,,,,,,,,,,,,,,,,
,correct,74,482328,0.0-48.0-0.0,"""event"",""trial"",""time""
""fullscreenenter"",""0"",""1663""
","
","
","""event"",""trial"",""time""
""fullscreenenter"",""0"",""1663""
","
",null,run_exp/static/audio/clip_18_correct.m4a,null,,,,,<div class='center'><p>That's correct!</p></div>,,,,,,,,,,,,,,,,,,
,html-keyboard-response,75,483114,0.0-48.0-1.0,"""event"",""trial"",""time""
""fullscreenenter"",""0"",""1663""
","
","
","""event"",""trial"",""time""
""fullscreenenter"",""0"",""1663""
","
",785.8,<div class='center'><p>That's correct!</p><p><b>[Press the space bar to continue]</b></p></div>,32,,,,,,,,,,,,,,,,,,,,,,,
,audio-keyboard-response,76,488195,0.0-48.0-2.0,"""event"",""trial"",""time""
""fullscreenenter"",""0"",""1663""
","
","
","""event"",""trial"",""time""
""fullscreenenter"",""0"",""1663""
","
",5079.7,run_exp/static/audio/clip_20_q2.m4a,50,,,,,,,,,,,,,,,,,,,,,,,
,correct,77,490588,0.0-49.0-0.0,"""event"",""trial"",""time""
""fullscreenenter"",""0"",""1663""
","
","
","""event"",""trial"",""time""
""fullscreenenter"",""0"",""1663""
","
",null,run_exp/static/audio/clip_18_correct.m4a,null,,,,,<div class='center'><p>That's correct!</p></div>,,,,,,,,,,,,,,,,,,
,html-keyboard-response,78,490971,0.0-49.0-1.0,"""event"",""trial"",""time""
""fullscreenenter"",""0"",""1663""
","
","
","""event"",""trial"",""time""
""fullscreenenter"",""0"",""1663""
","
",382,<div class='center'><p>That's correct!</p><p><b>[Press the space bar to continue]</b></p></div>,32,,,,,,,,,,,,,,,,,,,,,,,
,audio-keyboard-response,79,494187,0.0-49.0-2.0,"""event"",""trial"",""time""
""fullscreenenter"",""0"",""1663""
","
","
","""event"",""trial"",""time""
""fullscreenenter"",""0"",""1663""
","
",3215.5,run_exp/static/audio/clip_22_q3.m4a,50,,,,,,,,,,,,,,,,,,,,,,,
,correct,80,496568,0.0-50.0-0.0,"""event"",""trial"",""time""
""fullscreenenter"",""0"",""1663""
","
","
","""event"",""trial"",""time""
""fullscreenenter"",""0"",""1663""
","
",null,run_exp/static/audio/clip_18_correct.m4a,null,,,,,<div class='center'><p>That's correct!</p></div>,,,,,,,,,,,,,,,,,,
,html-keyboard-response,81,496883,0.0-50.0-1.0,"""event"",""trial"",""time""
""fullscreenenter"",""0"",""1663""
","
","
","""event"",""trial"",""time""
""fullscreenenter"",""0"",""1663""
","
",313.9,<div class='center'><p>That's correct!</p><p><b>[Press the space bar to continue]</b></p></div>,32,,,,,,,,,,,,,,,,,,,,,,,
,audio-keyboard-response,82,498963,0.0-50.0-2.0,"""event"",""trial"",""time""
""fullscreenenter"",""0"",""1663""
","
","
","""event"",""trial"",""time""
""fullscreenenter"",""0"",""1663""
","
",2079.4,run_exp/static/audio/clip_24_q4.m4a,49,,,,,,,,,,,,,,,,,,,,,,,
,correct,83,501389,0.0-51.0-0.0,"""event"",""trial"",""time""
""fullscreenenter"",""0"",""1663""
","
","
","""event"",""trial"",""time""
""fullscreenenter"",""0"",""1663""
","
",null,run_exp/static/audio/clip_18_correct.m4a,null,,,,,<div class='center'><p>That's correct!</p></div>,,,,,,,,,,,,,,,,,,
,html-keyboard-response,84,501811,0.0-51.0-1.0,"""event"",""trial"",""time""
""fullscreenenter"",""0"",""1663""
","
","
","""event"",""trial"",""time""
""fullscreenenter"",""0"",""1663""
","
",421.7,<div class='center'><p>That's correct!</p><p><b>[Press the space bar to continue]</b></p></div>,32,,,,,,,,,,,,,,,,,,,,,,,
,q_all_corr,85,510288,0.0-52.0-0.0,"""event"",""trial"",""time""
""fullscreenenter"",""0"",""1663""
","
","
","""event"",""trial"",""time""
""fullscreenenter"",""0"",""1663""
","
",null,run_exp/static/audio/clip_27_quiz_all_correct.m4a,null,,,,,<div class='center'><p>Good job! You’re now ready to move on to the real game! Remember this game will be difficult but don't get discouraged and try your best!</p></div>,,,,,,,,,,,,,,,,,,
,html-keyboard-response,86,514043,0.0-52.0-1.0,"""event"",""trial"",""time""
""fullscreenenter"",""0"",""1663""
","
","
","""event"",""trial"",""time""
""fullscreenenter"",""0"",""1663""
","
",3754,<div class='center'><p>Good job! You’re now ready to move on to the real game! Remember this game will be difficult but don't get discouraged and try your best!</p><p><b>[Press the space bar to continue]</b></p></div>,32,,,,,,,,,,,,,,,,,,,,,,,
,do_welcome,87,518050,0.0-53.0-0.0,"""event"",""trial"",""time""
""fullscreenenter"",""0"",""1663""
","
","
","""event"",""trial"",""time""
""fullscreenenter"",""0"",""1663""
","
",null,,,,,,,,null,,,,,,,,,,,,,,,,,
,do_trial,88,523562,0.0-54.0-0.0,"""event"",""trial"",""time""
""fullscreenenter"",""0"",""1663""
","
","
","""event"",""trial"",""time""
""fullscreenenter"",""0"",""1663""
","
",972.6,,,,,,,,50,"1,0,0",0,highway,0,probe-189,0.6,0.3,0.1,0,,,,,,,,
,html-keyboard-response,89,524564,0.0-54.0-1.0,"""event"",""trial"",""time""
""fullscreenenter"",""0"",""1663""
","
","
","""event"",""trial"",""time""
""fullscreenenter"",""0"",""1663""
","
",null,<p></p>,null,,,,,,,,,,,,,,,,,,,,,,,
,do_trial,90,529408,0.0-55.0-0.0,"""event"",""trial"",""time""
""fullscreenenter"",""0"",""1663""
","
","
","""event"",""trial"",""time""
""fullscreenenter"",""0"",""1663""
","
",300.4,,,,,,,,51,"1,0,0",0,highway,1,probe-155,0.554949389,0.327073814,0.087945523,0,,,,,,,,
,html-keyboard-response,91,530419,0.0-55.0-1.0,"""event"",""trial"",""time""
""fullscreenenter"",""0"",""1663""
","
","
","""event"",""trial"",""time""
""fullscreenenter"",""0"",""1663""
","
",null,<p></p>,null,,,,,,,,,,,,,,,,,,,,,,,
,do_trial,92,535317,0.0-56.0-0.0,"""event"",""trial"",""time""
""fullscreenenter"",""0"",""1663""
","
","
","""event"",""trial"",""time""
""fullscreenenter"",""0"",""1663""
","
",358.3,,,,,,,,49,"0,1,0",0,highway,2,probe-08,0.630273021,0.319228178,0.174686127,0,,,,,,,,
,html-keyboard-response,93,536322,0.0-56.0-1.0,"""event"",""trial"",""time""
""fullscreenenter"",""0"",""1663""
","
","
","""event"",""trial"",""time""
""fullscreenenter"",""0"",""1663""
","
",null,<p></p>,null,,,,,,,,,,,,,,,,,,,,,,,
,do_trial,94,541173,0.0-57.0-0.0,"""event"",""trial"",""time""
""fullscreenenter"",""0"",""1663""
","
","
","""event"",""trial"",""time""
""fullscreenenter"",""0"",""1663""
","
",311.1,,,,,,,,50,"0,1,0",0,highway,3,probe-224,0.50439349,0.361261624,0.142765947,1,,,,,,,,
,html-keyboard-response,95,542174,0.0-57.0-1.0,"""event"",""trial"",""time""
""fullscreenenter"",""0"",""1663""
","
","
","""event"",""trial"",""time""
""fullscreenenter"",""0"",""1663""
","
",null,<p></p>,null,,,,,,,,,,,,,,,,,,,,,,,
,do_trial,96,547330,0.0-58.0-0.0,"""event"",""trial"",""time""
""fullscreenenter"",""0"",""1663""
","
","
","""event"",""trial"",""time""
""fullscreenenter"",""0"",""1663""
","
",619.1,,,,,,,,51,"1,0,1",0,highway,4,probe-103,0.518122724,0.303391902,0.093867703,1,,,,,,,,
,html-keyboard-response,97,548344,0.0-58.0-1.0,"""event"",""trial"",""time""
""fullscreenenter"",""0"",""1663""
","
","
","""event"",""trial"",""time""
""fullscreenenter"",""0"",""1663""
","
",null,<p></p>,null,,,,,,,,,,,,,,,,,,,,,,,
,do_trial,98,553796,0.0-59.0-0.0,"""event"",""trial"",""time""
""fullscreenenter"",""0"",""1663""
","
","
","""event"",""trial"",""time""
""fullscreenenter"",""0"",""1663""
","
",905.2,,,,,,,,49,"0,1,0",0,highway,5,probe-67,0.613255913,0.384033862,0.121015364,0,,,,,,,,
,html-keyboard-response,99,554806,0.0-59.0-1.0,"""event"",""trial"",""time""
""fullscreenenter"",""0"",""1663""
","
","
","""event"",""trial"",""time""
""fullscreenenter"",""0"",""1663""
","
",null,<p></p>,null,,,,,,,,,,,,,,,,,,,,,,,
,do_trial,100,559752,0.0-60.0-0.0,"""event"",""trial"",""time""
""fullscreenenter"",""0"",""1663""
","
","
","""event"",""trial"",""time""
""fullscreenenter"",""0"",""1663""
","
",411.8,,,,,,,,50,"1,0,0",0,highway,6,probe-164,0.582383056,0.294691359,0.054673827,0,,,,,,,,
,html-keyboard-response,101,560764,0.0-60.0-1.0,"""event"",""trial"",""time""
""fullscreenenter"",""0"",""1663""
","
","
","""event"",""trial"",""time""
""fullscreenenter"",""0"",""1663""
","
",null,<p></p>,null,,,,,,,,,,,,,,,,,,,,,,,
,do_trial,102,565663,0.0-61.0-0.0,"""event"",""trial"",""time""
""fullscreenenter"",""0"",""1663""
","
","
","""event"",""trial"",""time""
""fullscreenenter"",""0"",""1663""
","
",350.4,,,,,,,,51,"1,0,0",0,highway,7,probe-61,0.703388177,0.316749341,0.172131066,0,,,,,,,,
,html-keyboard-response,103,566665,0.0-61.0-1.0,"""event"",""trial"",""time""
""fullscreenenter"",""0"",""1663""
","
","
","""event"",""trial"",""time""
""fullscreenenter"",""0"",""1663""
","
",null,<p></p>,null,,,,,,,,,,,,,,,,,,,,,,,
,do_trial,104,571765,0.0-62.0-0.0,"""event"",""trial"",""time""
""fullscreenenter"",""0"",""1663""
","
","
","""event"",""trial"",""time""
""fullscreenenter"",""0"",""1663""
","
",561.1,,,,,,,,49,"1,0,0",0,highway,8,probe-118,0.666563806,0.243772295,0.283518134,1,,,,,,,,
,html-keyboard-response,105,572775,0.0-62.0-1.0,"""event"",""trial"",""time""
""fullscreenenter"",""0"",""1663""
","
","
","""event"",""trial"",""time""
""fullscreenenter"",""0"",""1663""
","
",null,<p></p>,null,,,,,,,,,,,,,,,,,,,,,,,
,do_trial,106,579549,0.0-63.0-0.0,"""event"",""trial"",""time""
""fullscreenenter"",""0"",""1663""
","
","
","""event"",""trial"",""time""
""fullscreenenter"",""0"",""1663""
","
",2227.1,,,,,,,,50,"0,0,0",0,highway,9,probe-153,0.674518505,0.2219775,0.238922398,0,,,,,,,,
,html-keyboard-response,107,580564,0.0-63.0-1.0,"""event"",""trial"",""time""
""fullscreenenter"",""0"",""1663""
","
","
","""event"",""trial"",""time""
""fullscreenenter"",""0"",""1663""
","
",null,<p></p>,null,,,,,,,,,,,,,,,,,,,,,,,
,do_trial,108,585472,0.0-64.0-0.0,"""event"",""trial"",""time""
""fullscreenenter"",""0"",""1663""
","
","
","""event"",""trial"",""time""
""fullscreenenter"",""0"",""1663""
","
",366.3,,,,,,,,51,"1,1,0",0,highway,10,probe-27,0.65182853,0.30515287,0.266746218,0,,,,,,,,
,html-keyboard-response,109,586480,0.0-64.0-1.0,"""event"",""trial"",""time""
""fullscreenenter"",""0"",""1663""
","
","
","""event"",""trial"",""time""
""fullscreenenter"",""0"",""1663""
","
",null,<p></p>,null,,,,,,,,,,,,,,,,,,,,,,,
,do_trial,110,591289,0.0-65.0-0.0,"""event"",""trial"",""time""
""fullscreenenter"",""0"",""1663""
","
","
","""event"",""trial"",""time""
""fullscreenenter"",""0"",""1663""
","
",266.7,,,,,,,,49,"1,1,0",0,highway,11,probe-168,0.624661734,0.412026733,0.277629432,1,,,,,,,,
,html-keyboard-response,111,592296,0.0-65.0-1.0,"""event"",""trial"",""time""
""fullscreenenter"",""0"",""1663""
","
","
","""event"",""trial"",""time""
""fullscreenenter"",""0"",""1663""
","
",null,<p></p>,null,,,,,,,,,,,,,,,,,,,,,,,
,do_trial,112,598794,0.0-66.0-0.0,"""event"",""trial"",""time""
""fullscreenenter"",""0"",""1663""
","
","
","""event"",""trial"",""time""
""fullscreenenter"",""0"",""1663""
","
",1963.1,,,,,,,,51,"1,0,0",0,highway,12,probe-14,0.738088917,0.384308516,0.229304463,0,,,,,,,,
,html-keyboard-response,113,599797,0.0-66.0-1.0,"""event"",""trial"",""time""
""fullscreenenter"",""0"",""1663""
","
","
","""event"",""trial"",""time""
""fullscreenenter"",""0"",""1663""
","
",null,<p></p>,null,,,,,,,,,,,,,,,,,,,,,,,
,do_trial,114,604697,0.0-67.0-0.0,"""event"",""trial"",""time""
""fullscreenenter"",""0"",""1663""
","
","
","""event"",""trial"",""time""
""fullscreenenter"",""0"",""1663""
","
",350,,,,,,,,50,"1,0,1",0,highway,13,probe-178,0.689662801,0.350333082,0.124580831,0,,,,,,,,
,html-keyboard-response,115,605699,0.0-67.0-1.0,"""event"",""trial"",""time""
""fullscreenenter"",""0"",""1663""
","
","
","""event"",""trial"",""time""
""fullscreenenter"",""0"",""1663""
","
",null,<p></p>,null,,,,,,,,,,,,,,,,,,,,,,,
,do_trial,116,611749,0.0-68.0-0.0,"""event"",""trial"",""time""
""fullscreenenter"",""0"",""1663""
","
","
","""event"",""trial"",""time""
""fullscreenenter"",""0"",""1663""
","
",null,,,,,,,,null,"0,0,0",0,highway,14,probe-52,0.704225176,0.277117008,0.060991226,,,,,,,,,
,html-keyboard-response,117,612759,0.0-68.0-1.0,"""event"",""trial"",""time""
""fullscreenenter"",""0"",""1663""
","
","
","""event"",""trial"",""time""
""fullscreenenter"",""0"",""1663""
","
",null,<p></p>,null,,,,,,,,,,,,,,,,,,,,,,,
,do_trial,118,619089,0.0-69.0-0.0,"""event"",""trial"",""time""
""fullscreenenter"",""0"",""1663""
","
","
","""event"",""trial"",""time""
""fullscreenenter"",""0"",""1663""
","
",1780.1,,,,,,,,50,"1,0,0",0,highway,15,probe-19,0.676880099,0.122381804,0.14813569,0,,,,,,,,
,html-keyboard-response,119,620102,0.0-69.0-1.0,"""event"",""trial"",""time""
""fullscreenenter"",""0"",""1663""
","
","
","""event"",""trial"",""time""
""fullscreenenter"",""0"",""1663""
","
",null,<p></p>,null,,,,,,,,,,,,,,,,,,,,,,,
,do_trial,120,625056,0.0-70.0-0.0,"""event"",""trial"",""time""
""fullscreenenter"",""0"",""1663""
","
","
","""event"",""trial"",""time""
""fullscreenenter"",""0"",""1663""
","
",405.4,,,,,,,,51,"0,0,0",0,highway,16,probe-69,0.686892276,0.123795966,0.216994839,0,,,,,,,,
,html-keyboard-response,121,626058,0.0-70.0-1.0,"""event"",""trial"",""time""
""fullscreenenter"",""0"",""1663""
","
","
","""event"",""trial"",""time""
""fullscreenenter"",""0"",""1663""
","
",null,<p></p>,null,,,,,,,,,,,,,,,,,,,,,,,
,do_trial,122,630881,0.0-71.0-0.0,"""event"",""trial"",""time""
""fullscreenenter"",""0"",""1663""
","
","
","""event"",""trial"",""time""
""fullscreenenter"",""0"",""1663""
","
",281.7,,,,,,,,49,"0,0,0",0,highway,17,probe-182,0.713552283,0.213967757,0.139748984,0,,,,,,,,
,html-keyboard-response,123,631882,0.0-71.0-1.0,"""event"",""trial"",""time""
""fullscreenenter"",""0"",""1663""
","
","
","""event"",""trial"",""time""
""fullscreenenter"",""0"",""1663""
","
",null,<p></p>,null,,,,,,,,,,,,,,,,,,,,,,,
,do_trial,124,636648,0.0-72.0-0.0,"""event"",""trial"",""time""
""fullscreenenter"",""0"",""1663""
","
","
","""event"",""trial"",""time""
""fullscreenenter"",""0"",""1663""
","
",217.3,,,,,,,,50,"0,0,0",0,highway,18,probe-165,0.529314289,0.23989552,0.146866795,0,,,,,,,,
,html-keyboard-response,125,637655,0.0-72.0-1.0,"""event"",""trial"",""time""
""fullscreenenter"",""0"",""1663""
","
","
","""event"",""trial"",""time""
""fullscreenenter"",""0"",""1663""
","
",null,<p></p>,null,,,,,,,,,,,,,,,,,,,,,,,
,do_trial,126,642228,0.0-73.0-0.0,"""event"",""trial"",""time""
""fullscreenenter"",""0"",""1663""
","
","
","""event"",""trial"",""time""
""fullscreenenter"",""0"",""1663""
","
",28.5,,,,,,,,51,"1,0,0",0,highway,19,probe-96,0.554186404,0.096357223,0.072199368,0,,,,,,,,
,html-keyboard-response,127,643231,0.0-73.0-1.0,"""event"",""trial"",""time""
""fullscreenenter"",""0"",""1663""
","
","
","""event"",""trial"",""time""
""fullscreenenter"",""0"",""1663""
","
",null,<p></p>,null,,,,,,,,,,,,,,,,,,,,,,,
,do_trial,128,647766,0.0-74.0-0.0,"""event"",""trial"",""time""
""fullscreenenter"",""0"",""1663""
","
","
","""event"",""trial"",""time""
""fullscreenenter"",""0"",""1663""
","
",0.100000024,,,,,,,,50,"1,1,1",0,highway,20,probe-123,0.55910721,0.255724209,0.063196811,1,,,,,,,,
,html-keyboard-response,129,648772,0.0-74.0-1.0,"""event"",""trial"",""time""
""fullscreenenter"",""0"",""1663""
","
","
","""event"",""trial"",""time""
""fullscreenenter"",""0"",""1663""
","
",null,<p></p>,null,,,,,,,,,,,,,,,,,,,,,,,
,do_trial,130,653774,0.0-75.0-0.0,"""event"",""trial"",""time""
""fullscreenenter"",""0"",""1663""
","
","
","""event"",""trial"",""time""
""fullscreenenter"",""0"",""1663""
","
",464.2,,,,,,,,49,"0,0,0",0,highway,21,probe-73,0.566664932,0.322326976,0.055306442,0,,,,,,,,
,html-keyboard-response,131,654784,0.0-75.0-1.0,"""event"",""trial"",""time""
""fullscreenenter"",""0"",""1663""
","
","
","""event"",""trial"",""time""
""fullscreenenter"",""0"",""1663""
","
",null,<p></p>,null,,,,,,,,,,,,,,,,,,,,,,,
,do_trial,132,660301,0.0-76.0-0.0,"""event"",""trial"",""time""
""fullscreenenter"",""0"",""1663""
","
","
","""event"",""trial"",""time""
""fullscreenenter"",""0"",""1663""
","
",979.6,,,,,,,,51,"1,0,0",0,highway,22,probe-26,0.718821161,0.337520458,0.150322895,0,,,,,,,,
,html-keyboard-response,133,661304,0.0-76.0-1.0,"""event"",""trial"",""time""
""fullscreenenter"",""0"",""1663""
","
","
","""event"",""trial"",""time""
""fullscreenenter"",""0"",""1663""
","
",null,<p></p>,null,,,,,,,,,,,,,,,,,,,,,,,
,do_trial,134,666220,0.0-77.0-0.0,"""event"",""trial"",""time""
""fullscreenenter"",""0"",""1663""
","
","
","""event"",""trial"",""time""
""fullscreenenter"",""0"",""1663""
","
",380.1,,,,,,,,49,"1,1,0",0,highway,23,probe-230,0.572672998,0.24709376,0.143457982,1,,,,,,,,
,html-keyboard-response,135,667226,0.0-77.0-1.0,"""event"",""trial"",""time""
""fullscreenenter"",""0"",""1663""
","
","
","""event"",""trial"",""time""
""fullscreenenter"",""0"",""1663""
","
",null,<p></p>,null,,,,,,,,,,,,,,,,,,,,,,,
,do_trial,136,672282,0.0-78.0-0.0,"""event"",""trial"",""time""
""fullscreenenter"",""0"",""1663""
","
","
","""event"",""trial"",""time""
""fullscreenenter"",""0"",""1663""
","
",514.7,,,,,,,,50,"1,0,0",0,highway,24,probe-100,0.573921181,0.262715681,0.214687463,0,,,,,,,,
,html-keyboard-response,137,673288,0.0-78.0-1.0,"""event"",""trial"",""time""
""fullscreenenter"",""0"",""1663""
","
","
","""event"",""trial"",""time""
""fullscreenenter"",""0"",""1663""
","
",null,<p></p>,null,,,,,,,,,,,,,,,,,,,,,,,
,do_trial,138,677982,0.0-79.0-0.0,"""event"",""trial"",""time""
""fullscreenenter"",""0"",""1663""
","
","
","""event"",""trial"",""time""
""fullscreenenter"",""0"",""1663""
","
",148.5,,,,,,,,51,"1,0,0",0,highway,25,probe-177,0.602925005,0.168237973,0.193131729,0,,,,,,,,
,html-keyboard-response,139,678994,0.0-79.0-1.0,"""event"",""trial"",""time""
""fullscreenenter"",""0"",""1663""
","
","
","""event"",""trial"",""time""
""fullscreenenter"",""0"",""1663""
","
",null,<p></p>,null,,,,,,,,,,,,,,,,,,,,,,,
,do_trial,140,683795,0.0-80.0-0.0,"""event"",""trial"",""time""
""fullscreenenter"",""0"",""1663""
","
","
","""event"",""trial"",""time""
""fullscreenenter"",""0"",""1663""
","
",266.4,,,,,,,,49,"1,0,1",0,highway,26,probe-112,0.568161575,0.275186238,0.159785482,1,,,,,,,,
,html-keyboard-response,141,684802,0.0-80.0-1.0,"""event"",""trial"",""time""
""fullscreenenter"",""0"",""1663""
","
","
","""event"",""trial"",""time""
""fullscreenenter"",""0"",""1663""
","
",null,<p></p>,null,,,,,,,,,,,,,,,,,,,,,,,
,do_trial,142,690139,0.0-81.0-0.0,"""event"",""trial"",""time""
""fullscreenenter"",""0"",""1663""
","
","
","""event"",""trial"",""time""
""fullscreenenter"",""0"",""1663""
","
",794.1,,,,,,,,49,"1,0,1",0,highway,27,probe-193,0.592197904,0.27388861,0.059506166,1,,,,,,,,
,html-keyboard-response,143,691154,0.0-81.0-1.0,"""event"",""trial"",""time""
""fullscreenenter"",""0"",""1663""
","
","
","""event"",""trial"",""time""
""fullscreenenter"",""0"",""1663""
","
",null,<p></p>,null,,,,,,,,,,,,,,,,,,,,,,,
,do_trial,144,696542,0.0-82.0-0.0,"""event"",""trial"",""time""
""fullscreenenter"",""0"",""1663""
","
","
","""event"",""trial"",""time""
""fullscreenenter"",""0"",""1663""
","
",850.4,,,,,,,,51,"1,0,1",0,highway,28,probe-208,0.516794398,0.288098694,0.068157279,1,,,,,,,,
,html-keyboard-response,145,697558,0.0-82.0-1.0,"""event"",""trial"",""time""
""fullscreenenter"",""0"",""1663""
","
","
","""event"",""trial"",""time""
""fullscreenenter"",""0"",""1663""
","
",null,<p></p>,null,,,,,,,,,,,,,,,,,,,,,,,
,do_trial,146,702671,0.0-83.0-0.0,"""event"",""trial"",""time""
""fullscreenenter"",""0"",""1663""
","
","
","""event"",""trial"",""time""
""fullscreenenter"",""0"",""1663""
","
",574.3,,,,,,,,50,"0,0,0",0,highway,29,probe-117,0.55335018,0.316798937,0.105679351,0,,,,,,,,
,html-keyboard-response,147,703676,0.0-83.0-1.0,"""event"",""trial"",""time""
""fullscreenenter"",""0"",""1663""
","
","
","""event"",""trial"",""time""
""fullscreenenter"",""0"",""1663""
","
",null,<p></p>,null,,,,,,,,,,,,,,,,,,,,,,,
,do_bye,148,705188,0.0-84.0-0.0,"""event"",""trial"",""time""
""fullscreenenter"",""0"",""1663""
","
","
","""event"",""trial"",""time""
""fullscreenenter"",""0"",""1663""
","
",null,,,,,,,,null,,,,,,,,,,,,,,,,,
,break,149,707654,0.0-84.0-1.0,"""event"",""trial"",""time""
""fullscreenenter"",""0"",""1663""
","
","
","""event"",""trial"",""time""
""fullscreenenter"",""0"",""1663""
","
",2465.7,"<div class='center'><p>Time to take a quick break! You have 2 minutes to rest, but you can move on sooner if you'd like.</p><p> Press the <b>space bar</b> to continue.</p></div>",32,,,,,,,,,,,,,,,,,,,,,,,
,do_travel,150,716667,0.0-85.0-0.0,"""event"",""trial"",""time""
""fullscreenenter"",""0"",""1663""
","
","
","""event"",""trial"",""time""
""fullscreenenter"",""0"",""1663""
","
",null,,,,,,,,null,,,,,,,,,,,,,,,,,
,do_welcome,151,720681,0.0-85.0-1.0,"""event"",""trial"",""time""
""fullscreenenter"",""0"",""1663""
","
","
","""event"",""trial"",""time""
""fullscreenenter"",""0"",""1663""
","
",null,,,,,,,,null,,,,,,,,,,,,,,,,,
,do_trial,152,725677,0.0-86.0-0.0,"""event"",""trial"",""time""
""fullscreenenter"",""0"",""1663""
","
","
","""event"",""trial"",""time""
""fullscreenenter"",""0"",""1663""
","
",450.8,,,,,,,,51,"1,0,1",1,coast,30,probe-148,1,0.264896244,0.229427181,1,,,,,,,,
,html-keyboard-response,153,726685,0.0-86.0-1.0,"""event"",""trial"",""time""
""fullscreenenter"",""0"",""1663""
","
","
","""event"",""trial"",""time""
""fullscreenenter"",""0"",""1663""
","
",null,<p></p>,null,,,,,,,,,,,,,,,,,,,,,,,
,do_trial,154,732737,0.0-87.0-0.0,"""event"",""trial"",""time""
""fullscreenenter"",""0"",""1663""
","
","
","""event"",""trial"",""time""
""fullscreenenter"",""0"",""1663""
","
",null,,,,,,,,null,"1,0,0",1,coast,31,probe-108,1,0.270382669,0.185494348,,,,,,,,,
,html-keyboard-response,155,733745,0.0-87.0-1.0,"""event"",""trial"",""time""
""fullscreenenter"",""0"",""1663""
","
","
","""event"",""trial"",""time""
""fullscreenenter"",""0"",""1663""
","
",null,<p></p>,null,,,,,,,,,,,,,,,,,,,,,,,
,do_trial,156,739718,0.0-88.0-0.0,"""event"",""trial"",""time""
""fullscreenenter"",""0"",""1663""
","
","
","""event"",""trial"",""time""
""fullscreenenter"",""0"",""1663""
","
",1428.2,,,,,,,,51,"1,0,0",1,coast,32,probe-33,1,0.278322636,0.211923474,0,,,,,,,,
,html-keyboard-response,157,740721,0.0-88.0-1.0,"""event"",""trial"",""time""
""fullscreenenter"",""0"",""1663""
","
","
","""event"",""trial"",""time""
""fullscreenenter"",""0"",""1663""
","
",null,<p></p>,null,,,,,,,,,,,,,,,,,,,,,,,
,do_trial,158,745465,0.0-89.0-0.0,"""event"",""trial"",""time""
""fullscreenenter"",""0"",""1663""
","
","
","""event"",""trial"",""time""
""fullscreenenter"",""0"",""1663""
","
",203.3,,,,,,,,50,"1,1,1",1,coast,33,probe-146,0.737700369,0.180127019,0.136819157,1,,,,,,,,
,html-keyboard-response,159,746466,0.0-89.0-1.0,"""event"",""trial"",""time""
""fullscreenenter"",""0"",""1663""
","
","
","""event"",""trial"",""time""
""fullscreenenter"",""0"",""1663""
","
",null,<p></p>,null,,,,,,,,,,,,,,,,,,,,,,,
,do_trial,160,752289,0.0-90.0-0.0,"""event"",""trial"",""time""
""fullscreenenter"",""0"",""1663""
","
","
","""event"",""trial"",""time""
""fullscreenenter"",""0"",""1663""
","
",1275.2,,,,,,,,49,"1,0,0",1,coast,34,probe-198,0.738420323,0.093373237,0.211374674,1,,,,,,,,
,html-keyboard-response,161,753295,0.0-90.0-1.0,"""event"",""trial"",""time""
""fullscreenenter"",""0"",""1663""
","
","
","""event"",""trial"",""time""
""fullscreenenter"",""0"",""1663""
","
",null,<p></p>,null,,,,,,,,,,,,,,,,,,,,,,,
,do_trial,162,758317,0.0-91.0-0.0,"""event"",""trial"",""time""
""fullscreenenter"",""0"",""1663""
","
","
","""event"",""trial"",""time""
""fullscreenenter"",""0"",""1663""
","
",477.9,,,,,,,,50,"1,0,0",1,coast,35,probe-195,0.724555792,0.197700827,0.148694713,0,,,,,,,,
,html-keyboard-response,163,759327,0.0-91.0-1.0,"""event"",""trial"",""time""
""fullscreenenter"",""0"",""1663""
","
","
","""event"",""trial"",""time""
""fullscreenenter"",""0"",""1663""
","
",null,<p></p>,null,,,,,,,,,,,,,,,,,,,,,,,
,do_trial,164,763995,0.0-92.0-0.0,"""event"",""trial"",""time""
""fullscreenenter"",""0"",""1663""
","
","
","""event"",""trial"",""time""
""fullscreenenter"",""0"",""1663""
","
",126.5,,,,,,,,49,"1,0,0",1,coast,36,probe-94,0.673823009,0.480718219,0.104603139,1,,,,,,,,
,html-keyboard-response,165,765012,0.0-92.0-1.0,"""event"",""trial"",""time""
""fullscreenenter"",""0"",""1663""
","
","
","""event"",""trial"",""time""
""fullscreenenter"",""0"",""1663""
","
",null,<p></p>,null,,,,,,,,,,,,,,,,,,,,,,,
,do_trial,166,770105,0.0-93.0-0.0,"""event"",""trial"",""time""
""fullscreenenter"",""0"",""1663""
","
","
","""event"",""trial"",""time""
""fullscreenenter"",""0"",""1663""
","
",546.7,,,,,,,,51,"1,0,0",1,coast,37,probe-81,0.623436337,0.298211544,0.139548135,0,,,,,,,,
,html-keyboard-response,167,771116,0.0-93.0-1.0,"""event"",""trial"",""time""
""fullscreenenter"",""0"",""1663""
","
","
","""event"",""trial"",""time""
""fullscreenenter"",""0"",""1663""
","
",null,<p></p>,null,,,,,,,,,,,,,,,,,,,,,,,
,do_trial,168,776263,0.0-94.0-0.0,"""event"",""trial"",""time""
""fullscreenenter"",""0"",""1663""
","
","
","""event"",""trial"",""time""
""fullscreenenter"",""0"",""1663""
","
",602.6,,,,,,,,49,"1,0,0",1,coast,38,probe-200,0.521641131,0.271523037,0.066117062,1,,,,,,,,
,html-keyboard-response,169,777264,0.0-94.0-1.0,"""event"",""trial"",""time""
""fullscreenenter"",""0"",""1663""
","
","
","""event"",""trial"",""time""
""fullscreenenter"",""0"",""1663""
","
",null,<p></p>,null,,,,,,,,,,,,,,,,,,,,,,,
,do_trial,170,783729,0.0-95.0-0.0,"""event"",""trial"",""time""
""fullscreenenter"",""0"",""1663""
","
","
","""event"",""trial"",""time""
""fullscreenenter"",""0"",""1663""
","
",1918,,,,,,,,50,"0,0,0",1,coast,39,probe-63,0.515378026,0.318291143,0.157535752,0,,,,,,,,
,html-keyboard-response,171,784734,0.0-95.0-1.0,"""event"",""trial"",""time""
""fullscreenenter"",""0"",""1663""
","
","
","""event"",""trial"",""time""
""fullscreenenter"",""0"",""1663""
","
",null,<p></p>,null,,,,,,,,,,,,,,,,,,,,,,,
,do_trial,172,789488,0.0-96.0-0.0,"""event"",""trial"",""time""
""fullscreenenter"",""0"",""1663""
","
","
","""event"",""trial"",""time""
""fullscreenenter"",""0"",""1663""
","
",208,,,,,,,,49,"0,1,0",1,coast,40,probe-214,0.501211736,0.381173687,0.183878989,0,,,,,,,,
,html-keyboard-response,173,790490,0.0-96.0-1.0,"""event"",""trial"",""time""
""fullscreenenter"",""0"",""1663""
","
","
","""event"",""trial"",""time""
""fullscreenenter"",""0"",""1663""
","
",null,<p></p>,null,,,,,,,,,,,,,,,,,,,,,,,
,do_trial,174,795043,0.0-97.0-0.0,"""event"",""trial"",""time""
""fullscreenenter"",""0"",""1663""
","
","
","""event"",""trial"",""time""
""fullscreenenter"",""0"",""1663""
","
",11.5,,,,,,,,49,"0,1,0",1,coast,41,probe-76,0.33042261,0.39749635,0.095550286,0,,,,,,,,
,html-keyboard-response,175,796048,0.0-97.0-1.0,"""event"",""trial"",""time""
""fullscreenenter"",""0"",""1663""
","
","
","""event"",""trial"",""time""
""fullscreenenter"",""0"",""1663""
","
",null,<p></p>,null,,,,,,,,,,,,,,,,,,,,,,,
,do_trial,176,800659,0.0-98.0-0.0,"""event"",""trial"",""time""
""fullscreenenter"",""0"",""1663""
","
","
","""event"",""trial"",""time""
""fullscreenenter"",""0"",""1663""
","
",60.69999999,,,,,,,,49,"0,1,0",1,coast,42,probe-48,0.400834215,0.565291431,0.100045486,0,,,,,,,,
,html-keyboard-response,177,801661,0.0-98.0-1.0,"""event"",""trial"",""time""
""fullscreenenter"",""0"",""1663""
","
","
","""event"",""trial"",""time""
""fullscreenenter"",""0"",""1663""
","
",null,<p></p>,null,,,,,,,,,,,,,,,,,,,,,,,
,do_trial,178,806303,0.0-99.0-0.0,"""event"",""trial"",""time""
""fullscreenenter"",""0"",""1663""
","
","
","""event"",""trial"",""time""
""fullscreenenter"",""0"",""1663""
","
",97.29999995,,,,,,,,51,"1,1,0",1,coast,43,probe-130,0.345953257,0.655676039,0.060576345,0,,,,,,,,
,html-keyboard-response,179,807306,0.0-99.0-1.0,"""event"",""trial"",""time""
""fullscreenenter"",""0"",""1663""
","
","
","""event"",""trial"",""time""
""fullscreenenter"",""0"",""1663""
","
",null,<p></p>,null,,,,,,,,,,,,,,,,,,,,,,,
,do_trial,180,812200,0.0-100.0-0.0,"""event"",""trial"",""time""
""fullscreenenter"",""0"",""1663""
","
","
","""event"",""trial"",""time""
""fullscreenenter"",""0"",""1663""
","
",348.7,,,,,,,,49,"1,1,0",1,coast,44,probe-44,0.397182508,0.550061417,0.159044279,1,,,,,,,,
,html-keyboard-response,181,813206,0.0-100.0-1.0,"""event"",""trial"",""time""
""fullscreenenter"",""0"",""1663""
","
","
","""event"",""trial"",""time""
""fullscreenenter"",""0"",""1663""
","
",null,<p></p>,null,,,,,,,,,,,,,,,,,,,,,,,
,do_trial,182,818679,0.0-101.0-0.0,"""event"",""trial"",""time""
""fullscreenenter"",""0"",""1663""
","
","
","""event"",""trial"",""time""
""fullscreenenter"",""0"",""1663""
","
",937.3,,,,,,,,50,"0,1,0",1,coast,45,probe-145,0.400997283,0.644976728,0.198364968,1,,,,,,,,
,html-keyboard-response,183,819688,0.0-101.0-1.0,"""event"",""trial"",""time""
""fullscreenenter"",""0"",""1663""
","
","
","""event"",""trial"",""time""
""fullscreenenter"",""0"",""1663""
","
",null,<p></p>,null,,,,,,,,,,,,,,,,,,,,,,,
,do_trial,184,825077,0.0-102.0-0.0,"""event"",""trial"",""time""
""fullscreenenter"",""0"",""1663""
","
","
","""event"",""trial"",""time""
""fullscreenenter"",""0"",""1663""
","
",847.7,,,,,,,,49,"1,0,0",1,coast,46,probe-196,0.431826103,0.613964698,0.067153204,1,,,,,,,,
,html-keyboard-response,185,826086,0.0-102.0-1.0,"""event"",""trial"",""time""
""fullscreenenter"",""0"",""1663""
","
","
","""event"",""trial"",""time""
""fullscreenenter"",""0"",""1663""
","
",null,<p></p>,null,,,,,,,,,,,,,,,,,,,,,,,
,do_trial,186,831256,0.0-103.0-0.0,"""event"",""trial"",""time""
""fullscreenenter"",""0"",""1663""
","
","
","""event"",""trial"",""time""
""fullscreenenter"",""0"",""1663""
","
",624.5,,,,,,,,50,"0,1,0",1,coast,47,probe-09,0.376912684,0.739800271,0.066468583,1,,,,,,,,
,html-keyboard-response,187,832261,0.0-103.0-1.0,"""event"",""trial"",""time""
""fullscreenenter"",""0"",""1663""
","
","
","""event"",""trial"",""time""
""fullscreenenter"",""0"",""1663""
","
",null,<p></p>,null,,,,,,,,,,,,,,,,,,,,,,,
,do_trial,188,837546,0.0-104.0-0.0,"""event"",""trial"",""time""
""fullscreenenter"",""0"",""1663""
","
","
","""event"",""trial"",""time""
""fullscreenenter"",""0"",""1663""
","
",738.3,,,,,,,,49,"0,0,0",1,coast,48,probe-107,0.302457764,0.658066362,0.092441982,0,,,,,,,,
,html-keyboard-response,189,838553,0.0-104.0-1.0,"""event"",""trial"",""time""
""fullscreenenter"",""0"",""1663""
","
","
","""event"",""trial"",""time""
""fullscreenenter"",""0"",""1663""
","
",null,<p></p>,null,,,,,,,,,,,,,,,,,,,,,,,
,do_trial,190,843165,0.0-105.0-0.0,"""event"",""trial"",""time""
""fullscreenenter"",""0"",""1663""
","
","
","""event"",""trial"",""time""
""fullscreenenter"",""0"",""1663""
","
",70.40000004,,,,,,,,50,"0,1,0",1,coast,49,probe-174,0.23177546,0.714765821,0.184253092,1,,,,,,,,
,html-keyboard-response,191,844173,0.0-105.0-1.0,"""event"",""trial"",""time""
""fullscreenenter"",""0"",""1663""
","
","
","""event"",""trial"",""time""
""fullscreenenter"",""0"",""1663""
","
",null,<p></p>,null,,,,,,,,,,,,,,,,,,,,,,,
,do_trial,192,850229,0.0-106.0-0.0,"""event"",""trial"",""time""
""fullscreenenter"",""0"",""1663""
","
","
","""event"",""trial"",""time""
""fullscreenenter"",""0"",""1663""
","
",null,,,,,,,,null,"0,1,0",1,coast,50,probe-99,0.199636837,0.723625432,0.097567452,,,,,,,,,
,html-keyboard-response,193,851238,0.0-106.0-1.0,"""event"",""trial"",""time""
""fullscreenenter"",""0"",""1663""
","
","
","""event"",""trial"",""time""
""fullscreenenter"",""0"",""1663""
","
",null,<p></p>,null,,,,,,,,,,,,,,,,,,,,,,,
,do_trial,194,856264,0.0-107.0-0.0,"""event"",""trial"",""time""
""fullscreenenter"",""0"",""1663""
","
","
","""event"",""trial"",""time""
""fullscreenenter"",""0"",""1663""
","
",481.1,,,,,,,,50,"1,1,0",1,coast,51,probe-30,0.337229056,0.616858146,0.185934916,1,,,,,,,,
,html-keyboard-response,195,857268,0.0-107.0-1.0,"""event"",""trial"",""time""
""fullscreenenter"",""0"",""1663""
","
","
","""event"",""trial"",""time""
""fullscreenenter"",""0"",""1663""
","
",null,<p></p>,null,,,,,,,,,,,,,,,,,,,,,,,
,do_trial,196,863312,0.0-108.0-0.0,"""event"",""trial"",""time""
""fullscreenenter"",""0"",""1663""
","
","
","""event"",""trial"",""time""
""fullscreenenter"",""0"",""1663""
","
",null,,,,,,,,null,"0,1,1",1,coast,52,probe-139,0.382961089,0.653384658,0.117899543,,,,,,,,,
,html-keyboard-response,197,864320,0.0-108.0-1.0,"""event"",""trial"",""time""
""fullscreenenter"",""0"",""1663""
","
","
","""event"",""trial"",""time""
""fullscreenenter"",""0"",""1663""
","
",null,<p></p>,null,,,,,,,,,,,,,,,,,,,,,,,
,do_trial,198,869213,0.0-109.0-0.0,"""event"",""trial"",""time""
""fullscreenenter"",""0"",""1663""
","
","
","""event"",""trial"",""time""
""fullscreenenter"",""0"",""1663""
","
",344.2,,,,,,,,49,"1,1,0",1,coast,53,probe-40,0.364544124,0.609796979,0.101834507,1,,,,,,,,
,html-keyboard-response,199,870219,0.0-109.0-1.0,"""event"",""trial"",""time""
""fullscreenenter"",""0"",""1663""
","
","
","""event"",""trial"",""time""
""fullscreenenter"",""0"",""1663""
","
",null,<p></p>,null,,,,,,,,,,,,,,,,,,,,,,,
,do_trial,200,875110,0.0-110.0-0.0,"""event"",""trial"",""time""
""fullscreenenter"",""0"",""1663""
","
","
","""event"",""trial"",""time""
""fullscreenenter"",""0"",""1663""
","
",357.2,,,,,,,,51,"0,1,0",1,coast,54,probe-114,0.306600806,0.647703201,0.114103006,0,,,,,,,,
,html-keyboard-response,201,876124,0.0-110.0-1.0,"""event"",""trial"",""time""
""fullscreenenter"",""0"",""1663""
","
","
","""event"",""trial"",""time""
""fullscreenenter"",""0"",""1663""
","
",null,<p></p>,null,,,,,,,,,,,,,,,,,,,,,,,
,do_trial,202,880995,0.0-111.0-0.0,"""event"",""trial"",""time""
""fullscreenenter"",""0"",""1663""
","
","
","""event"",""trial"",""time""
""fullscreenenter"",""0"",""1663""
","
",323.8,,,,,,,,50,"1,0,0",1,coast,55,probe-66,0.231573483,0.664201454,0.157039565,0,,,,,,,,
,html-keyboard-response,203,882007,0.0-111.0-1.0,"""event"",""trial"",""time""
""fullscreenenter"",""0"",""1663""
","
","
","""event"",""trial"",""time""
""fullscreenenter"",""0"",""1663""
","
",null,<p></p>,null,,,,,,,,,,,,,,,,,,,,,,,
,do_trial,204,888069,0.0-112.0-0.0,"""event"",""trial"",""time""
""fullscreenenter"",""0"",""1663""
","
","
","""event"",""trial"",""time""
""fullscreenenter"",""0"",""1663""
","
",null,,,,,,,,null,"0,1,0",1,coast,56,probe-05,0.218731044,0.747828615,0.133645761,,,,,,,,,
,html-keyboard-response,205,889080,0.0-112.0-1.0,"""event"",""trial"",""time""
""fullscreenenter"",""0"",""1663""
","
","
","""event"",""trial"",""time""
""fullscreenenter"",""0"",""1663""
","
",null,<p></p>,null,,,,,,,,,,,,,,,,,,,,,,,
,do_trial,206,893624,0.0-113.0-0.0,"""event"",""trial"",""time""
""fullscreenenter"",""0"",""1663""
","
","
","""event"",""trial"",""time""
""fullscreenenter"",""0"",""1663""
","
",0,,,,,,,,50,"0,1,0",1,coast,57,probe-144,0.199453884,0.67220814,0.076613674,1,,,,,,,,
,html-keyboard-response,207,894629,0.0-113.0-1.0,"""event"",""trial"",""time""
""fullscreenenter"",""0"",""1663""
","
","
","""event"",""trial"",""time""
""fullscreenenter"",""0"",""1663""
","
",null,<p></p>,null,,,,,,,,,,,,,,,,,,,,,,,
,do_trial,208,899480,0.0-114.0-0.0,"""event"",""trial"",""time""
""fullscreenenter"",""0"",""1663""
","
","
","""event"",""trial"",""time""
""fullscreenenter"",""0"",""1663""
","
",306.9,,,,,,,,49,"1,1,0",1,coast,58,probe-158,0.186881126,0.61644325,0.263474368,1,,,,,,,,
,html-keyboard-response,209,900495,0.0-114.0-1.0,"""event"",""trial"",""time""
""fullscreenenter"",""0"",""1663""
","
","
","""event"",""trial"",""time""
""fullscreenenter"",""0"",""1663""
","
",null,<p></p>,null,,,,,,,,,,,,,,,,,,,,,,,
,do_trial,210,906801,0.0-115.0-0.0,"""event"",""trial"",""time""
""fullscreenenter"",""0"",""1663""
","
","
","""event"",""trial"",""time""
""fullscreenenter"",""0"",""1663""
","
",1760.8,,,,,,,,50,"0,1,0",1,coast,59,probe-87,0.111882465,0.702979758,0.341536782,1,,,,,,,,
,html-keyboard-response,211,907815,0.0-115.0-1.0,"""event"",""trial"",""time""
""fullscreenenter"",""0"",""1663""
","
","
","""event"",""trial"",""time""
""fullscreenenter"",""0"",""1663""
","
",null,<p></p>,null,,,,,,,,,,,,,,,,,,,,,,,
,do_trial,212,912696,0.0-116.0-0.0,"""event"",""trial"",""time""
""fullscreenenter"",""0"",""1663""
","
","
","""event"",""trial"",""time""
""fullscreenenter"",""0"",""1663""
","
",345.9,,,,,,,,51,"0,0,1",1,coast,60,probe-28,0.05178109,0.7250744,0.073416124,1,,,,,,,,
,html-keyboard-response,213,913708,0.0-116.0-1.0,"""event"",""trial"",""time""
""fullscreenenter"",""0"",""1663""
","
","
","""event"",""trial"",""time""
""fullscreenenter"",""0"",""1663""
","
",null,<p></p>,null,,,,,,,,,,,,,,,,,,,,,,,
,do_trial,214,918337,0.0-117.0-0.0,"""event"",""trial"",""time""
""fullscreenenter"",""0"",""1663""
","
","
","""event"",""trial"",""time""
""fullscreenenter"",""0"",""1663""
","
",92.5,,,,,,,,49,"0,1,0",1,coast,61,probe-39,0.148564337,0.579376935,0.125364605,0,,,,,,,,
,html-keyboard-response,215,919338,0.0-117.0-1.0,"""event"",""trial"",""time""
""fullscreenenter"",""0"",""1663""
","
","
","""event"",""trial"",""time""
""fullscreenenter"",""0"",""1663""
","
",null,<p></p>,null,,,,,,,,,,,,,,,,,,,,,,,
,do_trial,216,925152,0.0-118.0-0.0,"""event"",""trial"",""time""
""fullscreenenter"",""0"",""1663""
","
","
","""event"",""trial"",""time""
""fullscreenenter"",""0"",""1663""
","
",1269.8,,,,,,,,50,"0,0,0",1,coast,62,probe-80,0.303445339,0.623358582,0.283836687,0,,,,,,,,
,html-keyboard-response,217,926164,0.0-118.0-1.0,"""event"",""trial"",""time""
""fullscreenenter"",""0"",""1663""
","
","
","""event"",""trial"",""time""
""fullscreenenter"",""0"",""1663""
","
",null,<p></p>,null,,,,,,,,,,,,,,,,,,,,,,,
,do_trial,218,932117,0.0-119.0-0.0,"""event"",""trial"",""time""
""fullscreenenter"",""0"",""1663""
","
","
","""event"",""trial"",""time""
""fullscreenenter"",""0"",""1663""
","
",1405,,,,,,,,50,"0,1,0",1,coast,63,probe-116,0.291194635,0.576828511,0.212481343,1,,,,,,,,
,html-keyboard-response,219,933133,0.0-119.0-1.0,"""event"",""trial"",""time""
""fullscreenenter"",""0"",""1663""
","
","
","""event"",""trial"",""time""
""fullscreenenter"",""0"",""1663""
","
",null,<p></p>,null,,,,,,,,,,,,,,,,,,,,,,,
,do_trial,220,939176,0.0-120.0-0.0,"""event"",""trial"",""time""
""fullscreenenter"",""0"",""1663""
","
","
","""event"",""trial"",""time""
""fullscreenenter"",""0"",""1663""
","
",null,,,,,,,,null,"0,0,0",1,coast,64,probe-215,0.256263631,0.56949092,0.165776584,,,,,,,,,
,html-keyboard-response,221,940179,0.0-120.0-1.0,"""event"",""trial"",""time""
""fullscreenenter"",""0"",""1663""
","
","
","""event"",""trial"",""time""
""fullscreenenter"",""0"",""1663""
","
",null,<p></p>,null,,,,,,,,,,,,,,,,,,,,,,,
,do_trial,222,944784,0.0-121.0-0.0,"""event"",""trial"",""time""
""fullscreenenter"",""0"",""1663""
","
","
","""event"",""trial"",""time""
""fullscreenenter"",""0"",""1663""
","
",69.5,,,,,,,,49,"1,1,0",1,coast,65,probe-163,0.210414529,0.609803997,0.123928625,1,,,,,,,,
,html-keyboard-response,223,945794,0.0-121.0-1.0,"""event"",""trial"",""time""
""fullscreenenter"",""0"",""1663""
","
","
","""event"",""trial"",""time""
""fullscreenenter"",""0"",""1663""
","
",null,<p></p>,null,,,,,,,,,,,,,,,,,,,,,,,
,do_trial,224,950329,0.0-122.0-0.0,"""event"",""trial"",""time""
""fullscreenenter"",""0"",""1663""
","
","
","""event"",""trial"",""time""
""fullscreenenter"",""0"",""1663""
","
",0,,,,,,,,50,"0,0,0",1,coast,66,probe-129,0.246094968,0.519949144,0.076796092,0,,,,,,,,
,html-keyboard-response,225,951331,0.0-122.0-1.0,"""event"",""trial"",""time""
""fullscreenenter"",""0"",""1663""
","
","
","""event"",""trial"",""time""
""fullscreenenter"",""0"",""1663""
","
",null,<p></p>,null,,,,,,,,,,,,,,,,,,,,,,,
,do_trial,226,957839,0.0-123.0-0.0,"""event"",""trial"",""time""
""fullscreenenter"",""0"",""1663""
","
","
","""event"",""trial"",""time""
""fullscreenenter"",""0"",""1663""
","
",1965.9,,,,,,,,50,"1,1,0",1,coast,67,probe-31,0.332632186,0.584887536,0.108313829,1,,,,,,,,
,html-keyboard-response,227,958850,0.0-123.0-1.0,"""event"",""trial"",""time""
""fullscreenenter"",""0"",""1663""
","
","
","""event"",""trial"",""time""
""fullscreenenter"",""0"",""1663""
","
",null,<p></p>,null,,,,,,,,,,,,,,,,,,,,,,,
,do_trial,228,963736,0.0-124.0-0.0,"""event"",""trial"",""time""
""fullscreenenter"",""0"",""1663""
","
","
","""event"",""trial"",""time""
""fullscreenenter"",""0"",""1663""
","
",351.1,,,,,,,,49,"1,1,0",1,coast,68,probe-55,0.404777262,0.629351811,0.080321784,1,,,,,,,,
,html-keyboard-response,229,964745,0.0-124.0-1.0,"""event"",""trial"",""time""
""fullscreenenter"",""0"",""1663""
","
","
","""event"",""trial"",""time""
""fullscreenenter"",""0"",""1663""
","
",null,<p></p>,null,,,,,,,,,,,,,,,,,,,,,,,
,do_trial,230,969558,0.0-125.0-0.0,"""event"",""trial"",""time""
""fullscreenenter"",""0"",""1663""
","
","
","""event"",""trial"",""time""
""fullscreenenter"",""0"",""1663""
","
",271.8,,,,,,,,51,"0,1,0",1,coast,69,probe-95,0.266057945,0.504155464,0.090481894,0,,,,,,,,
,html-keyboard-response,231,970567,0.0-125.0-1.0,"""event"",""trial"",""time""
""fullscreenenter"",""0"",""1663""
","
","
","""event"",""trial"",""time""
""fullscreenenter"",""0"",""1663""
","
",null,<p></p>,null,,,,,,,,,,,,,,,,,,,,,,,
,do_bye,232,972082,0.0-126.0-0.0,"""event"",""trial"",""time""
""fullscreenenter"",""0"",""1663""
","
","
","""event"",""trial"",""time""
""fullscreenenter"",""0"",""1663""
","
",null,,,,,,,,null,,,,,,,,,,,,,,,,,
,break,233,973147,0.0-126.0-1.0,"""event"",""trial"",""time""
""fullscreenenter"",""0"",""1663""
","
","
","""event"",""trial"",""time""
""fullscreenenter"",""0"",""1663""
","
",1064.4,"<div class='center'><p>Time to take a quick break! You have 2 minutes to rest, but you can move on sooner if you'd like.</p><p> Press the <b>space bar</b> to continue.</p></div>",32,,,,,,,,,,,,,,,,,,,,,,,
,do_travel,234,982158,0.0-127.0-0.0,"""event"",""trial"",""time""
""fullscreenenter"",""0"",""1663""
","
","
","""event"",""trial"",""time""
""fullscreenenter"",""0"",""1663""
","
",null,,,,,,,,null,,,,,,,,,,,,,,,,,
,do_welcome,235,986169,0.0-127.0-1.0,"""event"",""trial"",""time""
""fullscreenenter"",""0"",""1663""
","
","
","""event"",""trial"",""time""
""fullscreenenter"",""0"",""1663""
","
",null,,,,,,,,null,,,,,,,,,,,,,,,,,
,do_trial,236,991495,0.0-128.0-0.0,"""event"",""trial"",""time""
""fullscreenenter"",""0"",""1663""
","
","
","""event"",""trial"",""time""
""fullscreenenter"",""0"",""1663""
","
",784.4,,,,,,,,50,"0,1,0",2,countryside,70,probe-105,0.373138505,1,0.056746795,1,,,,,,,,
,html-keyboard-response,237,992507,0.0-128.0-1.0,"""event"",""trial"",""time""
""fullscreenenter"",""0"",""1663""
","
","
","""event"",""trial"",""time""
""fullscreenenter"",""0"",""1663""
","
",null,<p></p>,null,,,,,,,,,,,,,,,,,,,,,,,
,do_trial,238,997500,0.0-129.0-0.0,"""event"",""trial"",""time""
""fullscreenenter"",""0"",""1663""
","
","
","""event"",""trial"",""time""
""fullscreenenter"",""0"",""1663""
","
",454.8,,,,,,,,49,"0,1,0",2,countryside,71,probe-209,0.4025138,1,0.207210789,0,,,,,,,,
,html-keyboard-response,239,998504,0.0-129.0-1.0,"""event"",""trial"",""time""
""fullscreenenter"",""0"",""1663""
","
","
","""event"",""trial"",""time""
""fullscreenenter"",""0"",""1663""
","
",null,<p></p>,null,,,,,,,,,,,,,,,,,,,,,,,
,do_trial,240,1003227,0.0-130.0-0.0,"""event"",""trial"",""time""
""fullscreenenter"",""0"",""1663""
","
","
","""event"",""trial"",""time""
""fullscreenenter"",""0"",""1663""
","
",186.3,,,,,,,,50,"1,0,0",2,countryside,72,probe-29,0.297274145,0.919019717,0.174648026,0,,,,,,,,
,html-keyboard-response,241,1004235,0.0-130.0-1.0,"""event"",""trial"",""time""
""fullscreenenter"",""0"",""1663""
","
","
","""event"",""trial"",""time""
""fullscreenenter"",""0"",""1663""
","
",null,<p></p>,null,,,,,,,,,,,,,,,,,,,,,,,
,do_trial,242,1009859,0.0-131.0-0.0,"""event"",""trial"",""time""
""fullscreenenter"",""0"",""1663""
","
","
","""event"",""trial"",""time""
""fullscreenenter"",""0"",""1663""
","
",1087,,,,,,,,50,"1,0,0",2,countryside,73,probe-86,0.309193718,0.920856481,0.094680286,0,,,,,,,,
,html-keyboard-response,243,1010862,0.0-131.0-1.0,"""event"",""trial"",""time""
""fullscreenenter"",""0"",""1663""
","
","
","""event"",""trial"",""time""
""fullscreenenter"",""0"",""1663""
","
",null,<p></p>,null,,,,,,,,,,,,,,,,,,,,,,,
,do_trial,244,1015519,0.0-132.0-0.0,"""event"",""trial"",""time""
""fullscreenenter"",""0"",""1663""
","
","
","""event"",""trial"",""time""
""fullscreenenter"",""0"",""1663""
","
",116.7,,,,,,,,49,"0,1,0",2,countryside,74,probe-222,0.280680894,0.89601718,0.161694577,0,,,,,,,,
,html-keyboard-response,245,1016527,0.0-132.0-1.0,"""event"",""trial"",""time""
""fullscreenenter"",""0"",""1663""
","
","
","""event"",""trial"",""time""
""fullscreenenter"",""0"",""1663""
","
",null,<p></p>,null,,,,,,,,,,,,,,,,,,,,,,,
,do_trial,246,1021511,0.0-133.0-0.0,"""event"",""trial"",""time""
""fullscreenenter"",""0"",""1663""
","
","
","""event"",""trial"",""time""
""fullscreenenter"",""0"",""1663""
","
",443.2,,,,,,,,50,"1,1,0",2,countryside,75,probe-149,0.421881839,0.710559926,0.141306804,1,,,,,,,,
,html-keyboard-response,247,1022514,0.0-133.0-1.0,"""event"",""trial"",""time""
""fullscreenenter"",""0"",""1663""
","
","
","""event"",""trial"",""time""
""fullscreenenter"",""0"",""1663""
","
",null,<p></p>,null,,,,,,,,,,,,,,,,,,,,,,,
,do_trial,248,1028565,0.0-134.0-0.0,"""event"",""trial"",""time""
""fullscreenenter"",""0"",""1663""
","
","
","""event"",""trial"",""time""
""fullscreenenter"",""0"",""1663""
","
",null,,,,,,,,null,"1,0,0",2,countryside,76,probe-113,0.33769276,0.735652855,0.252535729,,,,,,,,,
,html-keyboard-response,249,1029572,0.0-134.0-1.0,"""event"",""trial"",""time""
""fullscreenenter"",""0"",""1663""
","
","
","""event"",""trial"",""time""
""fullscreenenter"",""0"",""1663""
","
",null,<p></p>,null,,,,,,,,,,,,,,,,,,,,,,,
,do_trial,250,1034320,0.0-135.0-0.0,"""event"",""trial"",""time""
""fullscreenenter"",""0"",""1663""
","
","
","""event"",""trial"",""time""
""fullscreenenter"",""0"",""1663""
","
",207.5,,,,,,,,49,"0,0,0",2,countryside,77,probe-110,0.387153452,0.815516573,0.159006554,0,,,,,,,,
,html-keyboard-response,251,1035328,0.0-135.0-1.0,"""event"",""trial"",""time""
""fullscreenenter"",""0"",""1663""
","
","
","""event"",""trial"",""time""
""fullscreenenter"",""0"",""1663""
","
",null,<p></p>,null,,,,,,,,,,,,,,,,,,,,,,,
,do_trial,252,1042150,0.0-136.0-0.0,"""event"",""trial"",""time""
""fullscreenenter"",""0"",""1663""
","
","
","""event"",""trial"",""time""
""fullscreenenter"",""0"",""1663""
","
",2282.4,,,,,,,,50,"0,0,0",2,countryside,78,probe-38,0.251566172,0.617878416,0.129642171,0,,,,,,,,
,html-keyboard-response,253,1043152,0.0-136.0-1.0,"""event"",""trial"",""time""
""fullscreenenter"",""0"",""1663""
","
","
","""event"",""trial"",""time""
""fullscreenenter"",""0"",""1663""
","
",null,<p></p>,null,,,,,,,,,,,,,,,,,,,,,,,
,do_trial,254,1049191,0.0-137.0-0.0,"""event"",""trial"",""time""
""fullscreenenter"",""0"",""1663""
","
","
","""event"",""trial"",""time""
""fullscreenenter"",""0"",""1663""
","
",null,,,,,,,,null,"0,1,0",2,countryside,79,probe-192,0.240604395,0.563353451,0.199942092,,,,,,,,,
,html-keyboard-response,255,1050204,0.0-137.0-1.0,"""event"",""trial"",""time""
""fullscreenenter"",""0"",""1663""
","
","
","""event"",""trial"",""time""
""fullscreenenter"",""0"",""1663""
","
",null,<p></p>,null,,,,,,,,,,,,,,,,,,,,,,,
,do_trial,256,1055790,0.0-138.0-0.0,"""event"",""trial"",""time""
""fullscreenenter"",""0"",""1663""
","
","
","""event"",""trial"",""time""
""fullscreenenter"",""0"",""1663""
","
",1039.3,,,,,,,,49,"0,0,0",2,countryside,80,probe-225,0.309841434,0.521321196,0.138487922,0,,,,,,,,
,html-keyboard-response,257,1056796,0.0-138.0-1.0,"""event"",""trial"",""time""
""fullscreenenter"",""0"",""1663""
","
","
","""event"",""trial"",""time""
""fullscreenenter"",""0"",""1663""
","
",null,<p></p>,null,,,,,,,,,,,,,,,,,,,,,,,
,do_trial,258,1061341,0.0-139.0-0.0,"""event"",""trial"",""time""
""fullscreenenter"",""0"",""1663""
","
","
","""event"",""trial"",""time""
""fullscreenenter"",""0"",""1663""
","
",0.199999988,,,,,,,,51,"0,1,0",2,countryside,81,probe-42,0.298529111,0.57747915,0.202511428,0,,,,,,,,
,html-keyboard-response,259,1062345,0.0-139.0-1.0,"""event"",""trial"",""time""
""fullscreenenter"",""0"",""1663""
","
","
","""event"",""trial"",""time""
""fullscreenenter"",""0"",""1663""
","
",null,<p></p>,null,,,,,,,,,,,,,,,,,,,,,,,
,do_trial,260,1068112,0.0-140.0-0.0,"""event"",""trial"",""time""
""fullscreenenter"",""0"",""1663""
","
","
","""event"",""trial"",""time""
""fullscreenenter"",""0"",""1663""
","
",1218.6,,,,,,,,50,"0,1,1",2,countryside,82,probe-220,0.160021892,0.59183635,0.497254194,1,,,,,,,,
,html-keyboard-response,261,1069117,0.0-140.0-1.0,"""event"",""trial"",""time""
""fullscreenenter"",""0"",""1663""
","
","
","""event"",""trial"",""time""
""fullscreenenter"",""0"",""1663""
","
",null,<p></p>,null,,,,,,,,,,,,,,,,,,,,,,,
,do_trial,262,1074548,0.0-141.0-0.0,"""event"",""trial"",""time""
""fullscreenenter"",""0"",""1663""
","
","
","""event"",""trial"",""time""
""fullscreenenter"",""0"",""1663""
","
",887,,,,,,,,50,"0,0,1",2,countryside,83,probe-133,0.232533132,0.521090534,0.513317157,0,,,,,,,,
,html-keyboard-response,263,1075552,0.0-141.0-1.0,"""event"",""trial"",""time""
""fullscreenenter"",""0"",""1663""
","
","
","""event"",""trial"",""time""
""fullscreenenter"",""0"",""1663""
","
",null,<p></p>,null,,,,,,,,,,,,,,,,,,,,,,,
,do_trial,264,1080320,0.0-142.0-0.0,"""event"",""trial"",""time""
""fullscreenenter"",""0"",""1663""
","
","
","""event"",""trial"",""time""
""fullscreenenter"",""0"",""1663""
","
",227.3,,,,,,,,49,"0,0,0",2,countryside,84,probe-59,0.153496147,0.461731652,0.581896231,0,,,,,,,,
,html-keyboard-response,265,1081323,0.0-142.0-1.0,"""event"",""trial"",""time""
""fullscreenenter"",""0"",""1663""
","
","
","""event"",""trial"",""time""
""fullscreenenter"",""0"",""1663""
","
",null,<p></p>,null,,,,,,,,,,,,,,,,,,,,,,,
,do_trial,266,1086185,0.0-143.0-0.0,"""event"",""trial"",""time""
""fullscreenenter"",""0"",""1663""
","
","
","""event"",""trial"",""time""
""fullscreenenter"",""0"",""1663""
","
",321,,,,,,,,50,"0,0,0",2,countryside,85,probe-183,0.063393257,0.455261503,0.60497823,0,,,,,,,,
,html-keyboard-response,267,1087190,0.0-143.0-1.0,"""event"",""trial"",""time""
""fullscreenenter"",""0"",""1663""
","
","
","""event"",""trial"",""time""
""fullscreenenter"",""0"",""1663""
","
",null,<p></p>,null,,,,,,,,,,,,,,,,,,,,,,,
,do_trial,268,1093191,0.0-144.0-0.0,"""event"",""trial"",""time""
""fullscreenenter"",""0"",""1663""
","
","
","""event"",""trial"",""time""
""fullscreenenter"",""0"",""1663""
","
",1453.6,,,,,,,,50,"0,0,0",2,countryside,86,probe-137,0.170656265,0.325704402,0.52805548,0,,,,,,,,
,html-keyboard-response,269,1094200,0.0-144.0-1.0,"""event"",""trial"",""time""
""fullscreenenter"",""0"",""1663""
","
","
","""event"",""trial"",""time""
""fullscreenenter"",""0"",""1663""
","
",null,<p></p>,null,,,,,,,,,,,,,,,,,,,,,,,
,do_trial,270,1100246,0.0-145.0-0.0,"""event"",""trial"",""time""
""fullscreenenter"",""0"",""1663""
","
","
","""event"",""trial"",""time""
""fullscreenenter"",""0"",""1663""
","
",null,,,,,,,,null,"0,0,1",2,countryside,87,probe-72,0.095321895,0.370345864,0.615948488,,,,,,,,,
,html-keyboard-response,271,1101251,0.0-145.0-1.0,"""event"",""trial"",""time""
""fullscreenenter"",""0"",""1663""
","
","
","""event"",""trial"",""time""
""fullscreenenter"",""0"",""1663""
","
",null,<p></p>,null,,,,,,,,,,,,,,,,,,,,,,,
,do_trial,272,1106417,0.0-146.0-0.0,"""event"",""trial"",""time""
""fullscreenenter"",""0"",""1663""
","
","
","""event"",""trial"",""time""
""fullscreenenter"",""0"",""1663""
","
",624.5,,,,,,,,50,"1,1,1",2,countryside,88,probe-136,0.258129718,0.316213296,0.651181139,1,,,,,,,,
,html-keyboard-response,273,1107426,0.0-146.0-1.0,"""event"",""trial"",""time""
""fullscreenenter"",""0"",""1663""
","
","
","""event"",""trial"",""time""
""fullscreenenter"",""0"",""1663""
","
",null,<p></p>,null,,,,,,,,,,,,,,,,,,,,,,,
,do_trial,274,1113142,0.0-147.0-0.0,"""event"",""trial"",""time""
""fullscreenenter"",""0"",""1663""
","
","
","""event"",""trial"",""time""
""fullscreenenter"",""0"",""1663""
","
",1177.9,,,,,,,,50,"0,0,0",2,countryside,89,probe-194,0.237334999,0.335709952,0.612511441,0,,,,,,,,
,html-keyboard-response,275,1114155,0.0-147.0-1.0,"""event"",""trial"",""time""
""fullscreenenter"",""0"",""1663""
","
","
","""event"",""trial"",""time""
""fullscreenenter"",""0"",""1663""
","
",null,<p></p>,null,,,,,,,,,,,,,,,,,,,,,,,
,do_trial,276,1120403,0.0-148.0-0.0,"""event"",""trial"",""time""
""fullscreenenter"",""0"",""1663""
","
","
","""event"",""trial"",""time""
""fullscreenenter"",""0"",""1663""
","
",1712.4,,,,,,,,50,"0,0,1",2,countryside,90,probe-132,0.181193165,0.28817371,0.648611883,0,,,,,,,,
,html-keyboard-response,277,1121416,0.0-148.0-1.0,"""event"",""trial"",""time""
""fullscreenenter"",""0"",""1663""
","
","
","""event"",""trial"",""time""
""fullscreenenter"",""0"",""1663""
","
",null,<p></p>,null,,,,,,,,,,,,,,,,,,,,,,,
,do_trial,278,1125996,0.0-149.0-0.0,"""event"",""trial"",""time""
""fullscreenenter"",""0"",""1663""
","
","
","""event"",""trial"",""time""
""fullscreenenter"",""0"",""1663""
","
",44.5,,,,,,,,51,"0,0,1",2,countryside,91,probe-228,0.240378201,0.312827547,0.727026233,1,,,,,,,,
,html-keyboard-response,279,1127002,0.0-149.0-1.0,"""event"",""trial"",""time""
""fullscreenenter"",""0"",""1663""
","
","
","""event"",""trial"",""time""
""fullscreenenter"",""0"",""1663""
","
",null,<p></p>,null,,,,,,,,,,,,,,,,,,,,,,,
,do_trial,280,1133062,0.0-150.0-0.0,"""event"",""trial"",""time""
""fullscreenenter"",""0"",""1663""
","
","
","""event"",""trial"",""time""
""fullscreenenter"",""0"",""1663""
","
",null,,,,,,,,null,"1,0,1",2,countryside,92,probe-77,0.234788859,0.25205671,0.580177573,,,,,,,,,
,html-keyboard-response,281,1134075,0.0-150.0-1.0,"""event"",""trial"",""time""
""fullscreenenter"",""0"",""1663""
","
","
","""event"",""trial"",""time""
""fullscreenenter"",""0"",""1663""
","
",null,<p></p>,null,,,,,,,,,,,,,,,,,,,,,,,
,do_trial,282,1140124,0.0-151.0-0.0,"""event"",""trial"",""time""
""fullscreenenter"",""0"",""1663""
","
","
","""event"",""trial"",""time""
""fullscreenenter"",""0"",""1663""
","
",null,,,,,,,,null,"0,0,1",2,countryside,93,probe-170,0.080558515,0.378246866,0.549942856,,,,,,,,,
,html-keyboard-response,283,1141131,0.0-151.0-1.0,"""event"",""trial"",""time""
""fullscreenenter"",""0"",""1663""
","
","
","""event"",""trial"",""time""
""fullscreenenter"",""0"",""1663""
","
",null,<p></p>,null,,,,,,,,,,,,,,,,,,,,,,,
,do_trial,284,1145863,0.0-152.0-0.0,"""event"",""trial"",""time""
""fullscreenenter"",""0"",""1663""
","
","
","""event"",""trial"",""time""
""fullscreenenter"",""0"",""1663""
","
",185.5,,,,,,,,50,"0,0,1",2,countryside,94,probe-115,0.145006761,0.324483871,0.554617246,0,,,,,,,,
,html-keyboard-response,285,1146878,0.0-152.0-1.0,"""event"",""trial"",""time""
""fullscreenenter"",""0"",""1663""
","
","
","""event"",""trial"",""time""
""fullscreenenter"",""0"",""1663""
","
",null,<p></p>,null,,,,,,,,,,,,,,,,,,,,,,,
,do_trial,286,1151909,0.0-153.0-0.0,"""event"",""trial"",""time""
""fullscreenenter"",""0"",""1663""
","
","
","""event"",""trial"",""time""
""fullscreenenter"",""0"",""1663""
","
",487.3,,,,,,,,50,"0,0,1",2,countryside,95,probe-206,0.148783778,0.228610387,0.621499629,0,,,,,,,,
,html-keyboard-response,287,1152917,0.0-153.0-1.0,"""event"",""trial"",""time""
""fullscreenenter"",""0"",""1663""
","
","
","""event"",""trial"",""time""
""fullscreenenter"",""0"",""1663""
","
",null,<p></p>,null,,,,,,,,,,,,,,,,,,,,,,,
,do_trial,288,1158109,0.0-154.0-0.0,"""event"",""trial"",""time""
""fullscreenenter"",""0"",""1663""
","
","
","""event"",""trial"",""time""
""fullscreenenter"",""0"",""1663""
","
",655.2,,,,,,,,49,"0,0,1",2,countryside,96,probe-211,0.094088305,0.175791228,0.643196336,0,,,,,,,,
,html-keyboard-response,289,1159122,0.0-154.0-1.0,"""event"",""trial"",""time""
""fullscreenenter"",""0"",""1663""
","
","
","""event"",""trial"",""time""
""fullscreenenter"",""0"",""1663""
","
",null,<p></p>,null,,,,,,,,,,,,,,,,,,,,,,,
,do_trial,290,1164032,0.0-155.0-0.0,"""event"",""trial"",""time""
""fullscreenenter"",""0"",""1663""
","
","
","""event"",""trial"",""time""
""fullscreenenter"",""0"",""1663""
","
",371.1,,,,,,,,51,"0,0,0",2,countryside,97,probe-162,0.233433054,0.257539783,0.69754073,0,,,,,,,,
,html-keyboard-response,291,1165034,0.0-155.0-1.0,"""event"",""trial"",""time""
""fullscreenenter"",""0"",""1663""
","
","
","""event"",""trial"",""time""
""fullscreenenter"",""0"",""1663""
","
",null,<p></p>,null,,,,,,,,,,,,,,,,,,,,,,,
,do_trial,292,1169676,0.0-156.0-0.0,"""event"",""trial"",""time""
""fullscreenenter"",""0"",""1663""
","
","
","""event"",""trial"",""time""
""fullscreenenter"",""0"",""1663""
","
",99.39999998,,,,,,,,51,"1,0,0",2,countryside,98,probe-143,0.224664941,0.175878439,0.584575573,0,,,,,,,,
,html-keyboard-response,293,1170680,0.0-156.0-1.0,"""event"",""trial"",""time""
""fullscreenenter"",""0"",""1663""
","
","
","""event"",""trial"",""time""
""fullscreenenter"",""0"",""1663""
","
",null,<p></p>,null,,,,,,,,,,,,,,,,,,,,,,,
,do_trial,294,1175467,0.0-157.0-0.0,"""event"",""trial"",""time""
""fullscreenenter"",""0"",""1663""
","
","
","""event"",""trial"",""time""
""fullscreenenter"",""0"",""1663""
","
",245.3,,,,,,,,50,"0,0,1",2,countryside,99,probe-20,0.333377677,0.396763244,0.5745435,0,,,,,,,,
,html-keyboard-response,295,1176469,0.0-157.0-1.0,"""event"",""trial"",""time""
""fullscreenenter"",""0"",""1663""
","
","
","""event"",""trial"",""time""
""fullscreenenter"",""0"",""1663""
","
",null,<p></p>,null,,,,,,,,,,,,,,,,,,,,,,,
,do_trial,296,1182590,0.0-158.0-0.0,"""event"",""trial"",""time""
""fullscreenenter"",""0"",""1663""
","
","
","""event"",""trial"",""time""
""fullscreenenter"",""0"",""1663""
","
",1583.9,,,,,,,,49,"1,1,1",2,countryside,100,probe-24,0.179670315,0.459096574,0.54394347,1,,,,,,,,
,html-keyboard-response,297,1183591,0.0-158.0-1.0,"""event"",""trial"",""time""
""fullscreenenter"",""0"",""1663""
","
","
","""event"",""trial"",""time""
""fullscreenenter"",""0"",""1663""
","
",null,<p></p>,null,,,,,,,,,,,,,,,,,,,,,,,
,do_trial,298,1188209,0.0-159.0-0.0,"""event"",""trial"",""time""
""fullscreenenter"",""0"",""1663""
","
","
","""event"",""trial"",""time""
""fullscreenenter"",""0"",""1663""
","
",69.80000001,,,,,,,,51,"0,1,1",2,countryside,101,probe-176,0.229368492,0.502077047,0.616941281,1,,,,,,,,
,html-keyboard-response,299,1189217,0.0-159.0-1.0,"""event"",""trial"",""time""
""fullscreenenter"",""0"",""1663""
","
","
","""event"",""trial"",""time""
""fullscreenenter"",""0"",""1663""
","
",null,<p></p>,null,,,,,,,,,,,,,,,,,,,,,,,
,do_trial,300,1193931,0.0-160.0-0.0,"""event"",""trial"",""time""
""fullscreenenter"",""0"",""1663""
","
","
","""event"",""trial"",""time""
""fullscreenenter"",""0"",""1663""
","
",172.7,,,,,,,,49,"1,0,0",2,countryside,102,probe-91,0.18395594,0.412202575,0.544523902,1,,,,,,,,
,html-keyboard-response,301,1194933,0.0-160.0-1.0,"""event"",""trial"",""time""
""fullscreenenter"",""0"",""1663""
","
","
","""event"",""trial"",""time""
""fullscreenenter"",""0"",""1663""
","
",null,<p></p>,null,,,,,,,,,,,,,,,,,,,,,,,
,do_trial,302,1199886,0.0-161.0-0.0,"""event"",""trial"",""time""
""fullscreenenter"",""0"",""1663""
","
","
","""event"",""trial"",""time""
""fullscreenenter"",""0"",""1663""
","
",416.4,,,,,,,,50,"0,1,1",2,countryside,103,probe-85,0.081153326,0.481705399,0.600919674,1,,,,,,,,
,html-keyboard-response,303,1200895,0.0-161.0-1.0,"""event"",""trial"",""time""
""fullscreenenter"",""0"",""1663""
","
","
","""event"",""trial"",""time""
""fullscreenenter"",""0"",""1663""
","
",null,<p></p>,null,,,,,,,,,,,,,,,,,,,,,,,
,do_trial,304,1205455,0.0-162.0-0.0,"""event"",""trial"",""time""
""fullscreenenter"",""0"",""1663""
","
","
","""event"",""trial"",""time""
""fullscreenenter"",""0"",""1663""
","
",14.19999999,,,,,,,,50,"0,0,1",2,countryside,104,probe-92,0.135685444,0.41004582,0.704643922,0,,,,,,,,
,html-keyboard-response,305,1206462,0.0-162.0-1.0,"""event"",""trial"",""time""
""fullscreenenter"",""0"",""1663""
","
","
","""event"",""trial"",""time""
""fullscreenenter"",""0"",""1663""
","
",null,<p></p>,null,,,,,,,,,,,,,,,,,,,,,,,
,do_trial,306,1211167,0.0-163.0-0.0,"""event"",""trial"",""time""
""fullscreenenter"",""0"",""1663""
","
","
","""event"",""trial"",""time""
""fullscreenenter"",""0"",""1663""
","
",159.4,,,,,,,,50,"1,0,1",2,countryside,105,probe-25,0.165008676,0.321646875,0.611476793,0,,,,,,,,
,html-keyboard-response,307,1212173,0.0-163.0-1.0,"""event"",""trial"",""time""
""fullscreenenter"",""0"",""1663""
","
","
","""event"",""trial"",""time""
""fullscreenenter"",""0"",""1663""
","
",null,<p></p>,null,,,,,,,,,,,,,,,,,,,,,,,
,do_trial,308,1218216,0.0-164.0-0.0,"""event"",""trial"",""time""
""fullscreenenter"",""0"",""1663""
","
","
","""event"",""trial"",""time""
""fullscreenenter"",""0"",""1663""
","
",null,,,,,,,,null,"0,1,0",2,countryside,106,probe-160,0.173013391,0.379067972,0.536815284,,,,,,,,,
,html-keyboard-response,309,1219229,0.0-164.0-1.0,"""event"",""trial"",""time""
""fullscreenenter"",""0"",""1663""
","
","
","""event"",""trial"",""time""
""fullscreenenter"",""0"",""1663""
","
",null,<p></p>,null,,,,,,,,,,,,,,,,,,,,,,,
,do_trial,310,1223895,0.0-165.0-0.0,"""event"",""trial"",""time""
""fullscreenenter"",""0"",""1663""
","
","
","""event"",""trial"",""time""
""fullscreenenter"",""0"",""1663""
","
",129.2,,,,,,,,51,"0,0,1",2,countryside,107,probe-93,0.123174723,0.356372194,0.510482892,1,,,,,,,,
,html-keyboard-response,311,1224905,0.0-165.0-1.0,"""event"",""trial"",""time""
""fullscreenenter"",""0"",""1663""
","
","
","""event"",""trial"",""time""
""fullscreenenter"",""0"",""1663""
","
",null,<p></p>,null,,,,,,,,,,,,,,,,,,,,,,,
,do_trial,312,1229565,0.0-166.0-0.0,"""event"",""trial"",""time""
""fullscreenenter"",""0"",""1663""
","
","
","""event"",""trial"",""time""
""fullscreenenter"",""0"",""1663""
","
",117.2,,,,,,,,49,"0,0,0",2,countryside,108,probe-64,0.059426712,0.296626055,0.539643984,0,,,,,,,,
,html-keyboard-response,313,1230568,0.0-166.0-1.0,"""event"",""trial"",""time""
""fullscreenenter"",""0"",""1663""
","
","
","""event"",""trial"",""time""
""fullscreenenter"",""0"",""1663""
","
",null,<p></p>,null,,,,,,,,,,,,,,,,,,,,,,,
,do_trial,314,1236101,0.0-167.0-0.0,"""event"",""trial"",""time""
""fullscreenenter"",""0"",""1663""
","
","
","""event"",""trial"",""time""
""fullscreenenter"",""0"",""1663""
","
",989.8,,,,,,,,51,"0,0,0",2,countryside,109,probe-131,0.053569262,0.438339685,0.547287242,0,,,,,,,,
,html-keyboard-response,315,1237109,0.0-167.0-1.0,"""event"",""trial"",""time""
""fullscreenenter"",""0"",""1663""
","
","
","""event"",""trial"",""time""
""fullscreenenter"",""0"",""1663""
","
",null,<p></p>,null,,,,,,,,,,,,,,,,,,,,,,,
,do_bye,316,1238625,0.0-168.0-0.0,"""event"",""trial"",""time""
""fullscreenenter"",""0"",""1663""
","
","
","""event"",""trial"",""time""
""fullscreenenter"",""0"",""1663""
","
",null,,,,,,,,null,,,,,,,,,,,,,,,,,
,break,317,1239512,0.0-168.0-1.0,"""event"",""trial"",""time""
""fullscreenenter"",""0"",""1663""
","
","
","""event"",""trial"",""time""
""fullscreenenter"",""0"",""1663""
","
",886.3,"<div class='center'><p>Time to take a quick break! You have 2 minutes to rest, but you can move on sooner if you'd like.</p><p> Press the <b>space bar</b> to continue.</p></div>",32,,,,,,,,,,,,,,,,,,,,,,,
,do_travel,318,1248517,0.0-169.0-0.0,"""event"",""trial"",""time""
""fullscreenenter"",""0"",""1663""
","
","
","""event"",""trial"",""time""
""fullscreenenter"",""0"",""1663""
","
",null,,,,,,,,null,,,,,,,,,,,,,,,,,
,do_welcome,319,1252523,0.0-169.0-1.0,"""event"",""trial"",""time""
""fullscreenenter"",""0"",""1663""
","
","
","""event"",""trial"",""time""
""fullscreenenter"",""0"",""1663""
","
",null,,,,,,,,null,,,,,,,,,,,,,,,,,
,do_trial,320,1257812,0.0-170.0-0.0,"""event"",""trial"",""time""
""fullscreenenter"",""0"",""1663""
","
","
","""event"",""trial"",""time""
""fullscreenenter"",""0"",""1663""
","
",747.7,,,,,,,,50,"0,0,1",3,mountain,110,probe-102,0.11086695,0.392162096,1,0,,,,,,,,
,html-keyboard-response,321,1258816,0.0-170.0-1.0,"""event"",""trial"",""time""
""fullscreenenter"",""0"",""1663""
""fullscreenexit"",""322"",""1261459""
","
","
","""event"",""trial"",""time""
""fullscreenenter"",""0"",""1663""
","""event"",""trial"",""time""
""fullscreenexit"",""322"",""1261459""
",null,<p></p>,null,,,,,,,,,,,,,,,,,,,,,,,
,do_trial,322,1263441,0.0-171.0-0.0,"""event"",""trial"",""time""
""fullscreenenter"",""0"",""1663""
""fullscreenexit"",""322"",""1261459""
","
","
","""event"",""trial"",""time""
""fullscreenenter"",""0"",""1663""
","""event"",""trial"",""time""
""fullscreenexit"",""322"",""1261459""
",78.60000002,,,,,,,,50,"0,1,1",3,mountain,111,probe-22,0.198470488,0.394697559,1,1,,,,,,,,
,html-keyboard-response,323,1264443,0.0-171.0-1.0,"""event"",""trial"",""time""
""fullscreenenter"",""0"",""1663""
""fullscreenexit"",""322"",""1261459""
""blur"",""324"",""1265512""
","""event"",""trial"",""time""
""blur"",""324"",""1265512""
","
","""event"",""trial"",""time""
""fullscreenenter"",""0"",""1663""
","""event"",""trial"",""time""
""fullscreenexit"",""322"",""1261459""
",null,<p></p>,null,,,,,,,,,,,,,,,,,,,,,,,
,do_trial,324,1270499,0.0-172.0-0.0,"""event"",""trial"",""time""
""fullscreenenter"",""0"",""1663""
""fullscreenexit"",""322"",""1261459""
""blur"",""324"",""1265512""
","""event"",""trial"",""time""
""blur"",""324"",""1265512""
","
","""event"",""trial"",""time""
""fullscreenenter"",""0"",""1663""
","""event"",""trial"",""time""
""fullscreenexit"",""322"",""1261459""
",null,,,,,,,,null,"1,0,1",3,mountain,112,probe-50,0.124474279,0.430239309,0.781578664,,,,,,,,,
,html-keyboard-response,325,1271507,0.0-172.0-1.0,"""event"",""trial"",""time""
""fullscreenenter"",""0"",""1663""
""fullscreenexit"",""322"",""1261459""
""blur"",""324"",""1265512""
","""event"",""trial"",""time""
""blur"",""324"",""1265512""
","
","""event"",""trial"",""time""
""fullscreenenter"",""0"",""1663""
","""event"",""trial"",""time""
""fullscreenexit"",""322"",""1261459""
",null,<p></p>,null,,,,,,,,,,,,,,,,,,,,,,,
,do_trial,326,1277564,0.0-173.0-0.0,"""event"",""trial"",""time""
""fullscreenenter"",""0"",""1663""
""fullscreenexit"",""322"",""1261459""
""blur"",""324"",""1265512""
","""event"",""trial"",""time""
""blur"",""324"",""1265512""
","
","""event"",""trial"",""time""
""fullscreenenter"",""0"",""1663""
","""event"",""trial"",""time""
""fullscreenexit"",""322"",""1261459""
",null,,,,,,,,null,"1,0,1",3,mountain,113,probe-175,0.188427719,0.393125175,0.607203919,,,,,,,,,
,html-keyboard-response,327,1278571,0.0-173.0-1.0,"""event"",""trial"",""time""
""fullscreenenter"",""0"",""1663""
""fullscreenexit"",""322"",""1261459""
""blur"",""324"",""1265512""
","""event"",""trial"",""time""
""blur"",""324"",""1265512""
","
","""event"",""trial"",""time""
""fullscreenenter"",""0"",""1663""
","""event"",""trial"",""time""
""fullscreenexit"",""322"",""1261459""
",null,<p></p>,null,,,,,,,,,,,,,,,,,,,,,,,
,do_trial,328,1284889,0.0-174.0-0.0,"""event"",""trial"",""time""
""fullscreenenter"",""0"",""1663""
""fullscreenexit"",""322"",""1261459""
""blur"",""324"",""1265512""
","""event"",""trial"",""time""
""blur"",""324"",""1265512""
","
","""event"",""trial"",""time""
