"success","trial_type","trial_index","time_elapsed","internal_node_id","rt","stimulus","key_press","subject_id","response","choice_outcomes","context_n","context_img_id","trial_n","probe_img_id","pR_red","pR_white","pR_black","outcome","contextArray_ind","validImageProbes","invalidImageProbes","pRew_Red","pRew_White","pRew_Black","availableForMemProbe","choice_blocks"
"true","fullscreen","0","5481","0.0-0.0","","","","","","","","","","","","","","","","","","","","","",""
"","pavlovia","1","5485","0.0-1.0","","","","","","","","","","","","","","","","","","","","","",""
"","html-keyboard-response","2","32503","0.0-2.0","27017.900000095367","<div class='center'><p>Welcome! This is the first day of the experiment which will last ~30 minutes. In this experiment, you are the head captain of a pirate ship traveling around the world to different places. You will complete several different tasks during this experiment. Here is an overview of these tasks:</p><br><p>Day 1</p><p>1. Tutorial and quiz</p><p>2. Pick a pirate game in 6 different places</p><br><p>Day 2</p><p>3. Pick a pirate game and memory game</p><p>4. Final questions and payment</p><br><p>If you complete the entire experiment, you will receive $15 and a possible bonus payment.</p><p><b>[Press the space bar to begin the tutorial]</b></p></div>","32","60fd6697546be8a6eb141693","","","","","","","","","","","","","","","","","",""
"","html-keyboard-response","3","52883","0.0-3.0","20380.199999809265","<div class='center'><p>You’ll stop at these 6 islands on your journey. You'll be able to see them in the distance from your ship.</p><p><img src='run_exp/static/images/contexts/all_contexts.png' height='500'></p><p><b>[Press the space bar to continue]</b></p></div>","32","","","","","","","","","","","","","","","","","","",""
"","html-keyboard-response","4","69314","0.0-4.0","16431.299999713898","<div class='center'><p> The pirates on your ship will rob other ships as they leave island</p> These ships have just sold their things to the people living on the island, so they will have lots and lots of gold on them.</p><p><img src='run_exp/static/images/tutorial/ship_center.png' height='400'></p><p><b>[Press the space bar to continue]</b></p></div>","32","","","","","","","","","","","","","","","","","","",""
"","html-keyboard-response","5","116142","0.0-5.0","46829.300000190735","<div class='center'><p>As the head captain, you do not have to rob any ships yourself.</p><p>Another pirate will be doing the robbing for you. </p><p><img src='run_exp/static/images/tutorial/pirates_all_crop.png' height='200'></p><p>If they could rob the ship, then you will get a stack of gold coins like this:</p><p><img src='run_exp/static/images/tutorial/reward.png' height='150'></p><p> If they couldn't rob the ship, then you will get no gold coins and you'll see a big red x like this: </p><p><img src='run_exp/static/images/tutorial/reward_no.png' height='150'></p><p> How much bonus money you make is based on how many gold coins you collect.</p><p><b>[Press the space bar to continue]</b></p><div>","32","","","","","","","","","","","","","","","","","","",""
"","html-keyboard-response","6","144486","0.0-6.0","28344.400000095367","<div class='center'><p>Even the most skilled pirate can not rob EVERY ship.</p><p> Some ships will have very strong defenses against pirate attacks.</p><p> For example, blue beard, here, is very, very good at robbing ships.</p><p> You can press the <b>‘1’</b> button on the keyboard to choose him.</p><p> Try choosing him 10 times to see how often he can rob a ship. </p><p><img src='run_exp/static/images/tutorial/blue.png' height='500'></p></div>","49","","","","","","","","","","","","","","","","","","",""
"","html-keyboard-response","7","145990","0.0-7.0","null","<div class='center'><p><img src='run_exp/static/images/tutorial/blue_win.png' height='500'></p></div>","null","","","","","","","","","","","","","","","","","","",""
"","html-keyboard-response","8","148397","0.0-8.0","2406.800000190735","<div class='center'><img src='run_exp/static/images/tutorial/blue.png' height='500'></p></div>","49","","","","","","","","","","","","","","","","","","",""
"","html-keyboard-response","9","149902","0.0-9.0","null","<div class='center'><p><img src='run_exp/static/images/tutorial/blue_win.png' height='500'></p></div>","null","","","","","","","","","","","","","","","","","","",""
"","html-keyboard-response","10","150212","0.0-10.0","309.5","<div class='center'><img src='run_exp/static/images/tutorial/blue.png' height='500'></p></div>","49","","","","","","","","","","","","","","","","","","",""
"","html-keyboard-response","11","151713","0.0-11.0","null","<div class='center'><p><img src='run_exp/static/images/tutorial/blue_win.png' height='500'></p></div>","null","","","","","","","","","","","","","","","","","","",""
"","html-keyboard-response","12","152036","0.0-12.0","321.7999997138977","<div class='center'><img src='run_exp/static/images/tutorial/blue.png' height='500'></p></div>","49","","","","","","","","","","","","","","","","","","",""
"","html-keyboard-response","13","153541","0.0-13.0","null","<div class='center'><p><img src='run_exp/static/images/tutorial/blue_no_win.png' height='500'></p></div>","null","","","","","","","","","","","","","","","","","","",""
"","html-keyboard-response","14","153916","0.0-14.0","374.09999990463257","<div class='center'><img src='run_exp/static/images/tutorial/blue.png' height='500'></p></div>","49","","","","","","","","","","","","","","","","","","",""
"","html-keyboard-response","15","155422","0.0-15.0","null","<div class='center'><p><img src='run_exp/static/images/tutorial/blue_win.png' height='500'></p></div>","null","","","","","","","","","","","","","","","","","","",""
"","html-keyboard-response","16","155789","0.0-16.0","365.80000019073486","<div class='center'><img src='run_exp/static/images/tutorial/blue.png' height='500'></p></div>","49","","","","","","","","","","","","","","","","","","",""
"","html-keyboard-response","17","157291","0.0-17.0","null","<div class='center'><p><img src='run_exp/static/images/tutorial/blue_win.png' height='500'></p></div>","null","","","","","","","","","","","","","","","","","","",""
"","html-keyboard-response","18","157564","0.0-18.0","272","<div class='center'><img src='run_exp/static/images/tutorial/blue.png' height='500'></p></div>","49","","","","","","","","","","","","","","","","","","",""
"","html-keyboard-response","19","159067","0.0-19.0","null","<div class='center'><p><img src='run_exp/static/images/tutorial/blue_win.png' height='500'></p></div>","null","","","","","","","","","","","","","","","","","","",""
"","html-keyboard-response","20","159444","0.0-20.0","376","<div class='center'><img src='run_exp/static/images/tutorial/blue.png' height='500'></p></div>","49","","","","","","","","","","","","","","","","","","",""
"","html-keyboard-response","21","160947","0.0-21.0","null","<div class='center'><p><img src='run_exp/static/images/tutorial/blue_no_win.png' height='500'></p></div>","null","","","","","","","","","","","","","","","","","","",""
"","html-keyboard-response","22","161331","0.0-22.0","383.40000009536743","<div class='center'><img src='run_exp/static/images/tutorial/blue.png' height='500'></p></div>","49","","","","","","","","","","","","","","","","","","",""
"","html-keyboard-response","23","162834","0.0-23.0","null","<div class='center'><p><img src='run_exp/static/images/tutorial/blue_win.png' height='500'></p></div>","null","","","","","","","","","","","","","","","","","","",""
"","html-keyboard-response","24","163532","0.0-24.0","696.1999998092651","<div class='center'><img src='run_exp/static/images/tutorial/blue.png' height='500'></p></div>","49","","","","","","","","","","","","","","","","","","",""
"","html-keyboard-response","25","165035","0.0-25.0","null","<div class='center'><p><img src='run_exp/static/images/tutorial/blue_win.png' height='500'></p></div>","null","","","","","","","","","","","","","","","","","","",""
"","html-keyboard-response","26","169567","0.0-26.0","4531.699999809265","<div class='center'><p> See, he could rob the ships most of the time but not every time. </p><p><b>[Press the space bar to continue]</b></p></div>","32","","","","","","","","","","","","","","","","","","",""
"","html-keyboard-response","27","187329","0.0-27.0","17762.199999809265","<div class='center'><p>You will get to choose which of three pirates you want to rob the next ship. <p>Press the <b>‘1’</b> button on your keyboard to pick the pirate with the red beard.</p><p> Press <b>‘2’</b> to pick the pirate with the white beard.</p><p> Press <b>‘3’</b> to pick the pirate with the black beard.</p><p>Try picking a pirate now!</p><p><img src='run_exp/static/images/tutorial/all_pirates.png' height='500'></p></div>","50","","","","","","","","","","","","","","","","","","",""
"","html-keyboard-response","28","191114","0.0-28.0-0.0","3784","<div class='center'><p>This pirate could rob the ship!</p><p><img src='run_exp/static/images/tutorial/white_win.png' height='500'></p><p><b>[Press the space bar to continue]</b></p></div>","32","","","","","","","","","","","","","","","","","","",""
"","html-keyboard-response","29","195665","0.0-28.0-1.0","4550.400000095367","<div class='center'><p>Now try choosing another</p><p><img src='run_exp/static/images/tutorial/all_pirates.png' height='500'></p></div>","51","","","","","","","","","","","","","","","","","","",""
"","html-keyboard-response","30","197459","0.0-29.0-0.0","1792.5999999046326","<div class='center'><p>This pirate could not rob the ship!</p><p><img src='run_exp/static/images/tutorial/black_no_win.png' height='500'></p><p><b>[Press the space bar to continue]</b></p></div>","32","","","","","","","","","","","","","","","","","","",""
"","html-keyboard-response","31","221714","0.0-30.0-0.0","24256.199999809265","<div class='center'><p>If you don’t make your choice fast enough, you’ll have to wait a few seconds before you can make another one. </p><p>You can’t collect more gold coins. You just have to sit and wait.</p><p><img src='run_exp/static/images/miscellaneous/hurry_up.png' height='500'></p><p><b>[Press the space bar to continue]</b></p></div>","32","","","","","","","","","","","","","","","","","","",""
"","html-keyboard-response","32","270583","0.0-30.0-1.0","48870.09999990463","<div class='center'><p>Once you choose a pirate, you’ll be shown the ship they are robbing.</p><p>You will never rob the same ship twice.</p><p>Ships can be told apart from one another by the image on them.</p><p> Every time you see a ship, you will have to remember on which island you saw it.</p><p> Remembering correctly will help you win more bonus money!</p><p>A helpful strategy is to try to come up with a story of the object on the ship interacting with the current island scene.</p><p> For example, here, you could imagine a mug full of water in the desert. </p><p>For a ship with an apple on it on the forest island, you could imagine an apple falling from a tree in the forest.</p><p><img src='run_exp/static/images/tutorial/example_probe.png' height='500'></p><p><b>[Press the space bar to continue]</b></p></div>","32","","","","","","","","","","","","","","","","","","",""
"","html-keyboard-response","33","293534","0.0-30.0-2.0","22951.699999809265","<div class='center'><p>How good a pirate is at robbing ships will depend on the current island.</p><p> A pirate may have visited the island many times before and gained a lot of practice robbing ships there.</p><p>So, they're more likely to bring back gold coins than a pirate who has never visited this island before. </p><p><b>[Press the space bar to continue]</b></p></div>","32","","","","","","","","","","","","","","","","","","",""
"","html-keyboard-response","34","327652","0.0-30.0-3.0","34118.40000009537","<div class='center'><p>How good a pirate is at robbing ships can also change over the time spent on the island<p> Ships may hear from islanders about the pirates coming and will improve their protection against the attack. This may make it harder to rob them.</p><p> Ships may also become lazy and lower their protection. This may make it easier to rob them.</p><br><p>Things are always changing on the high seas! So, try your best to pay attention!</p><p><img src='run_exp/static/images/tutorial/contingency.png' height='500'></p><p><b>[Press the space bar to continue]</b></p></div>","32","","","","","","","","","","","","","","","","","","",""
"","html-keyboard-response","35","388850","0.0-30.0-4.0","61201","<div class='center'><p>Let's go over the instructions quickly again.You have two important things to do: </p><b><p> 1. Pick the pirate who is the best at robbing ships on the current island.</p></b><b><p> 2. Remember on which island a ship was robbed.</p> </b><p>How much bonus money you make is based on both. </p><br><p>Let’s try a practice game. The game will start by showing you the pirates. First pick a pirate using the <b> 1, 2, 3 </b> buttons on your keyboard. When you are shown a ship, try to remember the island you’re on by making up a story.</p><p> You only have 3 seconds to pick a pirate, so please make a choice quickly! If you are too slow, you’ll have to wait a bit during the time out.</p><p> Don’t feel rushed, but please do try to make a choice every time.</p><p>This is just a practice game, so you’re not playing for money. </p><p> Good luck, remember press <b>'1'</b> to choose red beard, <b>'2'</b> to choose white beard, and <b>'3'</b> to choose black beard</p><p><b>[Press the space bar to begin the practice game]</b></p></div>","32","","","","","","","","","","","","","","","","","","",""
"","do_welcome","36","390356","0.0-30.0-5.0","null","","","","null","","","","","","","","","","","","","","","","",""
"","do_trial","37","396002","0.0-30.0-6.0","1134.5999999046326","","","","49","1,0,0","","","","","","","","","","","","","","","",""
"","html-keyboard-response","38","397008","0.0-31.0-0.0","null","<p></p>","null","","","","","","","","","","","","","","","","","","",""
"","do_trial","39","402685","0.0-31.0-1.0","1171.1999998092651","","","","49","1,1,0","","","","","","","","","","","","","","","",""
"","html-keyboard-response","40","403689","0.0-32.0-0.0","null","<p></p>","null","","","","","","","","","","","","","","","","","","",""
"","do_trial","41","409223","0.0-32.0-1.0","1026.5999999046326","","","","49","1,0,1","","","","","","","","","","","","","","","",""
"","html-keyboard-response","42","410225","0.0-33.0-0.0","null","<p></p>","null","","","","","","","","","","","","","","","","","","",""
"","do_trial","43","415669","0.0-33.0-1.0","936.5999999046326","","","","49","0,1,0","","","","","","","","","","","","","","","",""
"","html-keyboard-response","44","416675","0.0-34.0-0.0","null","<p></p>","null","","","","","","","","","","","","","","","","","","",""
"","do_trial","45","422293","0.0-34.0-1.0","1113","","","","49","1,0,0","","","","","","","","","","","","","","","",""
"","do_bye","46","423802","0.0-35.0-0.0","null","","","","null","","","","","","","","","","","","","","","","",""
"","do_travel","47","429804","0.0-35.0-1.0","null","","","","null","","","","","","","","","","","","","","","","",""
"","do_welcome","48","431314","0.0-35.0-2.0","null","","","","null","","","","","","","","","","","","","","","","",""
"","do_trial","49","436726","0.0-35.0-3.0","905.1999998092651","","","","50","1,0,0","","","","","","","","","","","","","","","",""
"","html-keyboard-response","50","437729","0.0-36.0-0.0","null","<p></p>","null","","","","","","","","","","","","","","","","","","",""
"","do_trial","51","442745","0.0-36.0-1.0","508.09999990463257","","","","51","1,0,1","","","","","","","","","","","","","","","",""
"","html-keyboard-response","52","443747","0.0-37.0-0.0","null","<p></p>","null","","","","","","","","","","","","","","","","","","",""
"","do_trial","53","449221","0.0-37.0-1.0","966.3000001907349","","","","51","1,1,0","","","","","","","","","","","","","","","",""
"","html-keyboard-response","54","450225","0.0-38.0-0.0","null","<p></p>","null","","","","","","","","","","","","","","","","","","",""
"","do_trial","55","455403","0.0-38.0-1.0","671.3000001907349","","","","51","0,0,1","","","","","","","","","","","","","","","",""
"","html-keyboard-response","56","456408","0.0-39.0-0.0","null","<p></p>","null","","","","","","","","","","","","","","","","","","",""
"","do_trial","57","461612","0.0-39.0-1.0","680.9000000953674","","","","51","1,0,1","","","","","","","","","","","","","","","",""
"","html-keyboard-response","58","465975","0.0-40.0-0.0","4362.099999904633","<div class='center'><p><img src='run_exp/static/images/tutorial/prac_best_pirate.png'  height='500'></p></div>","49","","","","","","","","","","","","","","","","","","",""
"","html-keyboard-response","59","468376","0.0-41.0-0.0","2400.300000190735","<div class='center'><p>That's correct! Red beard was the best.</p><p><b>[Press the space bar to continue]</b></p></div>","32","","","","","","","","","","","","","","","","","","",""
"","html-keyboard-response","60","474096","0.0-41.0-1.0","5719.300000190735","<div class='center'><p><img src='run_exp/static/images/tutorial/prac_source.png'  height='500'></p></div>","50","","","","","","","","","","","","","","","","","","",""
"","html-keyboard-response","61","475828","0.0-42.0-0.0","1731.5999999046326","<div class='center'><p>That's correct! You saw this ship on the cavern island.</p><p><b>[Press the space bar to continue]</b></p></div>","32","","","","","","","","","","","","","","","","","","",""
"","html-keyboard-response","62","484501","0.0-42.0-1.0","8672.599999904633","<div class='center'><p>Good job on the practice game! Now, you will be asked you some true or false questions to make sure you really understand the rules of the game.</p><p> Press <b>'1'</b> on the keyboard for true and press <b>'2'</b> for false.</p><p><b>[Press the space bar to begin the quiz]</b></p></div>","32","","","","","","","","","","","","","","","","","","",""
"","html-keyboard-response","63","496148","0.0-42.0-2.0","11647.099999904633","<div class='center'><p>You win bonus money by making choices as fast as possible.</p><p>Press 1 for true and press  2 for false.</p></div>","50","","","","","","","","","","","","","","","","","","",""
"","html-keyboard-response","64","497427","0.0-43.0-0.0","1278","<div class='center'><p>That's correct!</p> <p><b>[press the space bar to continue with the quiz]</b></p></div>","32","","","","","","","","","","","","","","","","","","",""
"","html-keyboard-response","65","502635","0.0-43.0-1.0","5207.400000095367","<div class='center'><p>You press the <b>‘3’</b> button on the keyboard to choose the red bearded pirate. </p><p>Press 1 for true and press  2 for false.</p></div>","50","","","","","","","","","","","","","","","","","","",""
"","html-keyboard-response","66","504515","0.0-44.0-0.0","1879.5","<div class='center'><p>That's correct!</p> <p><b>[press the space bar to continue with the quiz]</b></p></div>","32","","","","","","","","","","","","","","","","","","",""
"","html-keyboard-response","67","512404","0.0-44.0-1.0","7888.200000286102","<div class='center'><p>The pirate who is the best at robbing ships on the first island will be the best on every other island.</p><p>Press 1 for true and press  2 for false.</p></div>","50","","","","","","","","","","","","","","","","","","",""
"","html-keyboard-response","68","513434","0.0-45.0-0.0","1029.3000001907349","<div class='center'><p>That's correct!</p> <p><b>[press the space bar to continue with the quiz]</b></p></div>","32","","","","","","","","","","","","","","","","","","",""
"","html-keyboard-response","69","524347","0.0-45.0-1.0","10913.099999904633","<div class='center'><p>You should remember the island where a pirate robbed a ship.</p><p>Press 1 for true and press  2 for false.</p></div>","49","","","","","","","","","","","","","","","","","","",""
"","html-keyboard-response","70","525962","0.0-46.0-0.0","1607.3000001907349","<div class='center'><p>That's correct!</p> <p><b>[press the space bar to continue with the quiz]</b></p></div>","32","","","","","","","","","","","","","","","","","","",""
"","html-keyboard-response","71","529761","0.0-47.0-0.0","3798.7000002861023","<div class='center'><p>Good job! You’re now ready to move on to the real game!</p> <p><br>[press the space bar to begin!]</br></p></div>","32","","","","","","","","","","","","","","","","","","",""
"","do_welcome","72","531265","0.0-48.0-0.0","null","","","","null","","","","","","","","","","","","","","","","",""
"","do_trial","73","536913","0.0-49.0-0.0","1104.7999997138977","","","","49","0,0,0","0","countryside","0","probe-78","0.6","0.3","0.1","0","","","","","","","",""
"","html-keyboard-response","74","537917","0.0-49.0-1.0","null","<p></p>","null","","","","","","","","","","","","","","","","","","",""
"","do_trial","75","542956","0.0-50.0-0.0","495.5","","","","50","0,0,0","0","countryside","1","probe-215","0.6198529348004488","0.24888614847046925","0.17121051313108307","0","","","","","","","",""
"","html-keyboard-response","76","543959","0.0-50.0-1.0","null","<p></p>","null","","","","","","","","","","","","","","","","","","",""
"","do_trial","77","549213","0.0-51.0-0.0","718.4000000953674","","","","51","1,1,0","0","countryside","2","probe-91","0.62248301664689","0.35882232458469504","0.13977942389725492","0","","","","","","","",""
"","html-keyboard-response","78","550218","0.0-51.0-1.0","null","<p></p>","null","","","","","","","","","","","","","","","","","","",""
"","do_trial","79","555641","0.0-52.0-0.0","882.8000001907349","","","","50","0,0,0","0","countryside","3","probe-108","0.6352782225511442","0.3806328015105421","0.0975513727245795","0","","","","","","","",""
"","html-keyboard-response","80","556653","0.0-52.0-1.0","null","<p></p>","null","","","","","","","","","","","","","","","","","","",""
"","do_trial","81","561728","0.0-53.0-0.0","521.6000003814697","","","","51","1,0,1","0","countryside","4","probe-149","0.6842262907007591","0.20409957660095812","0.06200813290686889","1","","","","","","","",""
"","html-keyboard-response","82","562732","0.0-53.0-1.0","null","<p></p>","null","","","","","","","","","","","","","","","","","","",""
"","do_trial","83","567858","0.0-54.0-0.0","583.5","","","","51","1,0,0","0","countryside","5","probe-222","0.6378220438595019","0.3058694399768144","0.132749748800516","0","","","","","","","",""
"","html-keyboard-response","84","568862","0.0-54.0-1.0","null","<p></p>","null","","","","","","","","","","","","","","","","","","",""
"","do_trial","85","574041","0.0-55.0-0.0","635.9000000953674","","","","51","1,0,0","0","countryside","6","probe-54","0.6258370468558535","0.35894518361531397","0.19967020073961167","0","","","","","","","",""
"","html-keyboard-response","86","575044","0.0-55.0-1.0","null","<p></p>","null","","","","","","","","","","","","","","","","","","",""
"","do_trial","87","580030","0.0-56.0-0.0","446.90000009536743","","","","49","0,0,0","0","countryside","7","probe-100","0.489817606161451","0.2412883425489595","0.23734142427791333","0","","","","","","","",""
"","html-keyboard-response","88","581034","0.0-56.0-1.0","null","<p></p>","null","","","","","","","","","","","","","","","","","","",""
"","do_trial","89","585945","0.0-57.0-0.0","366.80000019073486","","","","49","0,0,1","0","countryside","8","probe-39","0.575055043715358","0.2302825772127586","0.29330639603651276","0","","","","","","","",""
"","html-keyboard-response","90","586950","0.0-57.0-1.0","null","<p></p>","null","","","","","","","","","","","","","","","","","","",""
"","do_trial","91","592215","0.0-58.0-0.0","725.0999999046326","","","","51","1,1,0","0","countryside","9","probe-07","0.5714007336570788","0.3326314656866079","0.263727907295333","0","","","","","","","",""
"","html-keyboard-response","92","593219","0.0-58.0-1.0","null","<p></p>","null","","","","","","","","","","","","","","","","","","",""
"","do_trial","93","598379","0.0-59.0-0.0","620.5","","","","50","0,0,0","0","countryside","10","probe-41","0.6174579578118837","0.21942046747134542","0.3586864497018391","0","","","","","","","",""
"","html-keyboard-response","94","599383","0.0-59.0-1.0","null","<p></p>","null","","","","","","","","","","","","","","","","","","",""
"","do_trial","95","604276","0.0-60.0-0.0","352","","","","50","0,0,0","0","countryside","11","probe-183","0.505688981624334","0.31228836382254654","0.22674538159729296","0","","","","","","","",""
"","html-keyboard-response","96","605280","0.0-60.0-1.0","null","<p></p>","null","","","","","","","","","","","","","","","","","","",""
"","do_trial","97","610157","0.0-61.0-0.0","337.80000019073486","","","","50","0,0,0","0","countryside","12","probe-35","0.4962912239995505","0.25299262616725293","0.20296870648256574","0","","","","","","","",""
"","html-keyboard-response","98","611161","0.0-61.0-1.0","null","<p></p>","null","","","","","","","","","","","","","","","","","","",""
"","do_trial","99","616194","0.0-62.0-0.0","494.1000003814697","","","","51","0,0,1","0","countryside","13","probe-139","0.5111958530901604","0.3056862595769529","0.2820674175175724","1","","","","","","","",""
"","html-keyboard-response","100","617197","0.0-62.0-1.0","null","<p></p>","null","","","","","","","","","","","","","","","","","","",""
"","do_trial","101","622205","0.0-63.0-0.0","466","","","","51","0,0,0","0","countryside","14","probe-153","0.5284734722448172","0.36542314654366037","0.062035570740263744","0","","","","","","","",""
"","html-keyboard-response","102","623207","0.0-63.0-1.0","null","<p></p>","null","","","","","","","","","","","","","","","","","","",""
"","do_trial","103","628186","0.0-64.0-0.0","440.7999997138977","","","","51","1,0,0","0","countryside","15","probe-61","0.5319619902934835","0.2047181621838996","0.06901943628368092","0","","","","","","","",""
"","html-keyboard-response","104","629190","0.0-64.0-1.0","null","<p></p>","null","","","","","","","","","","","","","","","","","","",""
"","do_trial","105","634386","0.0-65.0-0.0","656.5","","","","51","1,1,0","0","countryside","16","probe-209","0.6155062798078988","0.29529423047691616","0.05891079591966789","0","","","","","","","",""
"","html-keyboard-response","106","635390","0.0-65.0-1.0","null","<p></p>","null","","","","","","","","","","","","","","","","","","",""
"","do_trial","107","640266","0.0-66.0-0.0","338.2000002861023","","","","51","0,0,0","0","countryside","17","probe-30","0.6081982033131914","0.3851370656361763","0.11929722515442112","0","","","","","","","",""
"","html-keyboard-response","108","641270","0.0-66.0-1.0","null","<p></p>","null","","","","","","","","","","","","","","","","","","",""
"","do_trial","109","646309","0.0-67.0-0.0","494.8999996185303","","","","51","1,0,0","0","countryside","18","probe-14","0.6422168969457048","0.2168943188720991","0.2115801212823522","0","","","","","","","",""
"","html-keyboard-response","110","647312","0.0-67.0-1.0","null","<p></p>","null","","","","","","","","","","","","","","","","","","",""
"","do_trial","111","652131","0.0-68.0-0.0","277.90000009536743","","","","50","0,0,0","0","countryside","19","probe-55","0.6534472203894557","0.31149712484056197","0.09860681711317396","0","","","","","","","",""
"","html-keyboard-response","112","653134","0.0-68.0-1.0","null","<p></p>","null","","","","","","","","","","","","","","","","","","",""
"","do_trial","113","658076","0.0-69.0-0.0","399.2000002861023","","","","50","0,0,0","0","countryside","20","probe-67","0.6121549063118656","0.34604052197336665","0.17825954140463907","0","","","","","","","",""
"","html-keyboard-response","114","659081","0.0-69.0-1.0","null","<p></p>","null","","","","","","","","","","","","","","","","","","",""
"","do_trial","115","663949","0.0-70.0-0.0","325.40000009536743","","","","50","1,0,0","0","countryside","21","probe-176","0.5139747130430637","0.3166221768691146","0.1181302276519672","0","","","","","","","",""
"","html-keyboard-response","116","664953","0.0-70.0-1.0","null","<p></p>","null","","","","","","","","","","","","","","","","","","",""
"","do_trial","117","669805","0.0-71.0-0.0","314.19999980926514","","","","51","0,0,0","0","countryside","22","probe-164","0.4148792730697795","0.375225805380149","0.14239779452817644","0","","","","","","","",""
"","html-keyboard-response","118","670810","0.0-71.0-1.0","null","<p></p>","null","","","","","","","","","","","","","","","","","","",""
"","do_trial","119","675723","0.0-72.0-0.0","371.3999996185303","","","","49","1,1,0","0","countryside","23","probe-34","0.4154078108734282","0.36875521563771896","0.14339992125219278","1","","","","","","","",""
"","html-keyboard-response","120","676725","0.0-72.0-1.0","null","<p></p>","null","","","","","","","","","","","","","","","","","","",""
"","do_trial","121","681764","0.0-73.0-0.0","495.7999997138977","","","","49","0,1,0","0","countryside","24","probe-212","0.352232933212306","0.3637084292277369","0.0715834050353064","0","","","","","","","",""
"","html-keyboard-response","122","682768","0.0-73.0-1.0","null","<p></p>","null","","","","","","","","","","","","","","","","","","",""
"","do_trial","123","688009","0.0-74.0-0.0","701.7999997138977","","","","49","1,0,1","0","countryside","25","probe-127","0.4314389596420615","0.26055725904552945","0.2178309815806029","1","","","","","","","",""
"","html-keyboard-response","124","689014","0.0-74.0-1.0","null","<p></p>","null","","","","","","","","","","","","","","","","","","",""
"","do_trial","125","693832","0.0-75.0-0.0","277.59999990463257","","","","49","0,0,0","0","countryside","26","probe-135","0.328733859184342","0.22107634551837624","0.20896231454137945","0","","","","","","","",""
"","html-keyboard-response","126","694836","0.0-75.0-1.0","null","<p></p>","null","","","","","","","","","","","","","","","","","","",""
"","do_trial","127","699665","0.0-76.0-0.0","287.2000002861023","","","","49","0,0,0","0","countryside","27","probe-82","0.3441805974848275","0.1547238922304894","0.12275812556556412","0","","","","","","","",""
"","html-keyboard-response","128","700670","0.0-76.0-1.0","null","<p></p>","null","","","","","","","","","","","","","","","","","","",""
"","do_trial","129","705505","0.0-77.0-0.0","296.19999980926514","","","","49","1,0,0","0","countryside","28","probe-197","0.4084305005369871","0.20711648875807523","0.2349613170166699","1","","","","","","","",""
"","html-keyboard-response","130","706509","0.0-77.0-1.0","null","<p></p>","null","","","","","","","","","","","","","","","","","","",""
"","do_trial","131","711560","0.0-78.0-0.0","511.5","","","","49","0,1,0","0","countryside","29","probe-168","0.36185105444794635","0.2829396616347995","0.14342192682711424","0","","","","","","","",""
"","html-keyboard-response","132","712563","0.0-78.0-1.0","null","<p></p>","null","","","","","","","","","","","","","","","","","","",""
"","do_bye","133","714071","0.0-79.0-0.0","null","","","","null","","","","","","","","","","","","","","","","",""
"","do_travel","134","720074","0.0-80.0-0.0","null","","","","null","","","","","","","","","","","","","","","","",""
"","do_welcome","135","721582","0.0-80.0-1.0","null","","","","null","","","","","","","","","","","","","","","","",""
"","do_trial","136","727162","0.0-81.0-0.0","994","","","","49","1,0,0","1","highway","30","probe-226","1","0.2788434798856779","0.1875270925668953","1","","","","","","","",""
"","html-keyboard-response","137","728166","0.0-81.0-1.0","null","<p></p>","null","","","","","","","","","","","","","","","","","","",""
"","do_trial","138","733066","0.0-82.0-0.0","356.19999980926514","","","","49","1,0,0","1","highway","31","probe-65","1","0.3722196558544406","0.12863902103722583","1","","","","","","","",""
"","html-keyboard-response","139","734070","0.0-82.0-1.0","null","<p></p>","null","","","","","","","","","","","","","","","","","","",""
"","do_trial","140","739194","0.0-83.0-0.0","580.6999998092651","","","","49","1,0,0","1","highway","32","probe-59","1","0.2987042366138546","0.15102926961098623","1","","","","","","","",""
"","html-keyboard-response","141","740199","0.0-83.0-1.0","null","<p></p>","null","","","","","","","","","","","","","","","","","","",""
"","do_trial","142","745192","0.0-84.0-0.0","449.8999996185303","","","","49","0,0,0","1","highway","33","probe-192","0.8908338267028663","0.22678054523156094","0.17841322854809666","0","","","","","","","",""
"","html-keyboard-response","143","746196","0.0-84.0-1.0","null","<p></p>","null","","","","","","","","","","","","","","","","","","",""
"","do_trial","144","751165","0.0-85.0-0.0","425.09999990463257","","","","49","0,0,0","1","highway","34","probe-68","0.912906155100303","0.20893791246698828","0.08585116824647561","0","","","","","","","",""
"","html-keyboard-response","145","752169","0.0-85.0-1.0","null","<p></p>","null","","","","","","","","","","","","","","","","","","",""
"","do_trial","146","757091","0.0-86.0-0.0","387.90000009536743","","","","49","1,0,1","1","highway","35","probe-25","0.946121784227467","0.39660529038862263","0.09457810358014496","1","","","","","","","",""
"","html-keyboard-response","147","758095","0.0-86.0-1.0","null","<p></p>","null","","","","","","","","","","","","","","","","","","",""
"","do_trial","148","763001","0.0-87.0-0.0","362.80000019073486","","","","49","1,0,0","1","highway","36","probe-02","0.7457658884827165","0.32832772945741157","0.05655719709160791","1","","","","","","","",""
"","html-keyboard-response","149","764005","0.0-87.0-1.0","null","<p></p>","null","","","","","","","","","","","","","","","","","","",""
"","do_trial","150","768902","0.0-88.0-0.0","355.09999990463257","","","","49","1,0,0","1","highway","37","probe-145","0.6938192067221557","0.3279858064922107","0.18947918630994118","1","","","","","","","",""
"","html-keyboard-response","151","769906","0.0-88.0-1.0","null","<p></p>","null","","","","","","","","","","","","","","","","","","",""
"","do_trial","152","775318","0.0-89.0-0.0","871.0999999046326","","","","49","0,1,0","1","highway","38","probe-87","0.6612960969393886","0.44813641541968025","0.17692971033957822","0","","","","","","","",""
"","html-keyboard-response","153","776323","0.0-89.0-1.0","null","<p></p>","null","","","","","","","","","","","","","","","","","","",""
"","do_trial","154","781285","0.0-90.0-0.0","420.90000009536743","","","","49","1,1,0","1","highway","39","probe-17","0.6791758927448734","0.45250642529257173","0.1158615428722437","1","","","","","","","",""
"","html-keyboard-response","155","782289","0.0-90.0-1.0","null","<p></p>","null","","","","","","","","","","","","","","","","","","",""
"","do_trial","156","787380","0.0-91.0-0.0","551.2000002861023","","","","49","1,1,0","1","highway","40","probe-131","0.6782364796674533","0.49932600871759186","0.12061450059235176","1","","","","","","","",""
"","html-keyboard-response","157","788384","0.0-91.0-1.0","null","<p></p>","null","","","","","","","","","","","","","","","","","","",""
"","do_trial","158","793556","0.0-92.0-0.0","630.7999997138977","","","","49","1,1,1","1","highway","41","probe-74","0.7350777401603582","0.43651450287275984","0.17100118102817674","1","","","","","","","",""
"","html-keyboard-response","159","794561","0.0-92.0-1.0","null","<p></p>","null","","","","","","","","","","","","","","","","","","",""
"","do_trial","160","799442","0.0-93.0-0.0","342.90000009536743","","","","49","0,0,0","1","highway","42","probe-170","0.4972943318359905","0.4457767728909333","0.08442883464884343","0","","","","","","","",""
"","html-keyboard-response","161","800448","0.0-93.0-1.0","null","<p></p>","null","","","","","","","","","","","","","","","","","","",""
"","do_trial","162","805473","0.0-94.0-0.0","486.5","","","","49","0,0,0","1","highway","43","probe-109","0.4918530786793575","0.42367840609265295","0.21913527862761556","0","","","","","","","",""
"","html-keyboard-response","163","806477","0.0-94.0-1.0","null","<p></p>","null","","","","","","","","","","","","","","","","","","",""
"","do_trial","164","811342","0.0-95.0-0.0","323.7999997138977","","","","49","0,0,0","1","highway","44","probe-147","0.47594683279701444","0.5128434312650124","0.14738271386958154","0","","","","","","","",""
"","html-keyboard-response","165","812346","0.0-95.0-1.0","null","<p></p>","null","","","","","","","","","","","","","","","","","","",""
"","do_trial","166","817241","0.0-96.0-0.0","356.1000003814697","","","","50","0,1,0","1","highway","45","probe-160","0.38851574423368535","0.5716761658032475","0.09689223971304517","1","","","","","","","",""
"","html-keyboard-response","167","818244","0.0-96.0-1.0","null","<p></p>","null","","","","","","","","","","","","","","","","","","",""
"","do_trial","168","823131","0.0-97.0-0.0","347.30000019073486","","","","50","1,0,0","1","highway","46","probe-152","0.39034946746773663","0.521095011697359","0.25668802920115896","0","","","","","","","",""
"","html-keyboard-response","169","824135","0.0-97.0-1.0","null","<p></p>","null","","","","","","","","","","","","","","","","","","",""
"","do_trial","170","829229","0.0-98.0-0.0","550.8000001907349","","","","49","1,0,0","1","highway","47","probe-94","0.3702033905002778","0.5020078553536278","0.22461456166308927","1","","","","","","","",""
"","html-keyboard-response","171","830231","0.0-98.0-1.0","null","<p></p>","null","","","","","","","","","","","","","","","","","","",""
"","do_trial","172","835124","0.0-99.0-0.0","350.09999990463257","","","","49","0,0,0","1","highway","48","probe-213","0.40907252742372263","0.45710374414533733","0.26705348886366453","0","","","","","","","",""
"","html-keyboard-response","173","836128","0.0-99.0-1.0","null","<p></p>","null","","","","","","","","","","","","","","","","","","",""
"","do_trial","174","841050","0.0-100.0-0.0","379.80000019073486","","","","51","0,1,0","1","highway","49","probe-09","0.39941647037312583","0.613876855895491","0.1689052445419242","0","","","","","","","",""
"","html-keyboard-response","175","842054","0.0-100.0-1.0","null","<p></p>","null","","","","","","","","","","","","","","","","","","",""
"","do_trial","176","846954","0.0-101.0-0.0","358.80000019073486","","","","50","0,1,0","1","highway","50","probe-47","0.33203684267012284","0.5270982819325459","0.12821678102456327","1","","","","","","","",""
"","html-keyboard-response","177","847958","0.0-101.0-1.0","null","<p></p>","null","","","","","","","","","","","","","","","","","","",""
"","do_trial","178","852956","0.0-102.0-0.0","454.69999980926514","","","","50","0,0,0","1","highway","51","probe-63","0.14373963913595325","0.4418599554278075","0.06668311326845873","0","","","","","","","",""
"","html-keyboard-response","179","853960","0.0-102.0-1.0","null","<p></p>","null","","","","","","","","","","","","","","","","","","",""
"","do_trial","180","858970","0.0-103.0-0.0","469.5","","","","49","0,1,0","1","highway","52","probe-202","0.14281751483984517","0.5078404006871682","0.21628762548118624","0","","","","","","","",""
"","html-keyboard-response","181","859974","0.0-103.0-1.0","null","<p></p>","null","","","","","","","","","","","","","","","","","","",""
"","do_trial","182","864842","0.0-104.0-0.0","325.5","","","","49","1,1,0","1","highway","53","probe-16","0.23021577425345366","0.49850660796079793","0.13471725774435256","1","","","","","","","",""
"","html-keyboard-response","183","865848","0.0-104.0-1.0","null","<p></p>","null","","","","","","","","","","","","","","","","","","",""
"","do_trial","184","870840","0.0-105.0-0.0","452.09999990463257","","","","49","0,1,0","1","highway","54","probe-151","0.25018548784946026","0.5392993854043785","0.16487363496463978","0","","","","","","","",""
"","html-keyboard-response","185","871845","0.0-105.0-1.0","null","<p></p>","null","","","","","","","","","","","","","","","","","","",""
"","do_trial","186","876645","0.0-106.0-0.0","253.39999961853027","","","","49","0,0,0","1","highway","55","probe-81","0.23628892935867515","0.4714279723042904","0.06360396742750252","0","","","","","","","",""
"","html-keyboard-response","187","877649","0.0-106.0-1.0","null","<p></p>","null","","","","","","","","","","","","","","","","","","",""
"","do_trial","188","882514","0.0-107.0-0.0","323.09999990463257","","","","50","1,0,0","1","highway","56","probe-06","0.25465284237946206","0.6475935631744192","0.12257621331530791","0","","","","","","","",""
"","html-keyboard-response","189","883518","0.0-107.0-1.0","null","<p></p>","null","","","","","","","","","","","","","","","","","","",""
"","do_trial","190","888417","0.0-108.0-0.0","357","","","","50","0,1,0","1","highway","57","probe-148","0.35181061956413784","0.5688170176687325","0.07612527212756272","1","","","","","","","",""
"","html-keyboard-response","191","889421","0.0-108.0-1.0","null","<p></p>","null","","","","","","","","","","","","","","","","","","",""
"","do_trial","192","894465","0.0-109.0-0.0","501.40000009536743","","","","50","1,1,0","1","highway","58","probe-12","0.4210262841960375","0.6327390349826079","0.05527553925454619","1","","","","","","","",""
"","html-keyboard-response","193","895469","0.0-109.0-1.0","null","<p></p>","null","","","","","","","","","","","","","","","","","","",""
"","do_trial","194","900374","0.0-110.0-0.0","364.7000002861023","","","","50","0,0,0","1","highway","59","probe-112","0.26763518779521767","0.7185323282666716","0.10021608613979552","0","","","","","","","",""
"","html-keyboard-response","195","901379","0.0-110.0-1.0","null","<p></p>","null","","","","","","","","","","","","","","","","","","",""
"","do_trial","196","906319","0.0-111.0-0.0","400.09999990463257","","","","49","0,0,0","1","highway","60","probe-28","0.3436436148552944","0.6693385851044681","0.10619848462057711","0","","","","","","","",""
"","html-keyboard-response","197","907322","0.0-111.0-1.0","null","<p></p>","null","","","","","","","","","","","","","","","","","","",""
"","do_trial","198","912286","0.0-112.0-0.0","424.59999990463257","","","","49","0,0,0","1","highway","61","probe-154","0.34582138781788674","0.6032996921790725","0.12994326449703214","0","","","","","","","",""
"","html-keyboard-response","199","913289","0.0-112.0-1.0","null","<p></p>","null","","","","","","","","","","","","","","","","","","",""
"","do_trial","200","918561","0.0-113.0-0.0","728.7000002861023","","","","49","0,1,0","1","highway","62","probe-156","0.34285574104748834","0.6415222373289029","0.07629874488030881","0","","","","","","","",""
"","html-keyboard-response","201","919565","0.0-113.0-1.0","null","<p></p>","null","","","","","","","","","","","","","","","","","","",""
"","do_trial","202","924876","0.0-114.0-0.0","772","","","","50","0,1,0","1","highway","63","probe-221","0.3786866549937712","0.6120156812366565","0.11249000231675263","1","","","","","","","",""
"","html-keyboard-response","203","925881","0.0-114.0-1.0","null","<p></p>","null","","","","","","","","","","","","","","","","","","",""
"","do_trial","204","931333","0.0-115.0-0.0","912.4000000953674","","","","50","0,0,0","1","highway","64","probe-10","0.3917739169422141","0.49976511969226667","0.10770678182916676","0","","","","","","","",""
"","html-keyboard-response","205","932335","0.0-115.0-1.0","null","<p></p>","null","","","","","","","","","","","","","","","","","","",""
"","do_trial","206","937142","0.0-116.0-0.0","266.40000009536743","","","","49","1,1,0","1","highway","65","probe-53","0.22835660838841276","0.4260293851545662","0.1337826440593296","1","","","","","","","",""
"","html-keyboard-response","207","938146","0.0-116.0-1.0","null","<p></p>","null","","","","","","","","","","","","","","","","","","",""
"","do_trial","208","943068","0.0-117.0-0.0","383.09999990463257","","","","49","0,1,0","1","highway","66","probe-88","0.11903384754075973","0.4249760054219594","0.17873517813197853","0","","","","","","","",""
"","html-keyboard-response","209","944072","0.0-117.0-1.0","null","<p></p>","null","","","","","","","","","","","","","","","","","","",""
"","do_trial","210","948969","0.0-118.0-0.0","358.09999990463257","","","","50","1,1,0","1","highway","67","probe-188","0.1482558757952861","0.525810748728019","0.11407141726802805","1","","","","","","","",""
"","html-keyboard-response","211","949970","0.0-118.0-1.0","null","<p></p>","null","","","","","","","","","","","","","","","","","","",""
"","do_trial","212","954918","0.0-119.0-0.0","406.2999997138977","","","","50","0,1,0","1","highway","68","probe-178","0.2890443618692183","0.6572416883540089","0.2422531090260775","1","","","","","","","",""
"","html-keyboard-response","213","955921","0.0-119.0-1.0","null","<p></p>","null","","","","","","","","","","","","","","","","","","",""
"","do_trial","214","960778","0.0-120.0-0.0","317.5","","","","49","1,1,0","1","highway","69","probe-92","0.43663051875551967","0.6253542504437651","0.1697740949096124","1","","","","","","","",""
"","html-keyboard-response","215","961782","0.0-120.0-1.0","null","<p></p>","null","","","","","","","","","","","","","","","","","","",""
"","do_bye","216","963291","0.0-121.0-0.0","null","","","","null","","","","","","","","","","","","","","","","",""
"","do_travel","217","969294","0.0-122.0-0.0","null","","","","null","","","","","","","","","","","","","","","","",""
"","do_welcome","218","970802","0.0-122.0-1.0","null","","","","null","","","","","","","","","","","","","","","","",""
"","do_trial","219","976708","0.0-123.0-0.0","1364.1000003814697","","","","49","1,1,0","2","city","70","probe-58","0.3114860517266886","1","0.08502252048352756","1","","","","","","","",""
"","html-keyboard-response","220","977711","0.0-123.0-1.0","null","<p></p>","null","","","","","","","","","","","","","","","","","","",""
"","do_trial","221","982580","0.0-124.0-0.0","326.90000009536743","","","","49","0,1,0","2","city","71","probe-04","0.30716262869589417","1","0.20203319022461114","0","","","","","","","",""
"","html-keyboard-response","222","983585","0.0-124.0-1.0","null","<p></p>","null","","","","","","","","","","","","","","","","","","",""
"","do_trial","223","988484","0.0-125.0-0.0","357.09999990463257","","","","49","0,1,0","2","city","72","probe-180","0.31564723730579686","0.8817278983814455","0.3354559650432093","0","","","","","","","",""
"","html-keyboard-response","224","989488","0.0-125.0-1.0","null","<p></p>","null","","","","","","","","","","","","","","","","","","",""
"","do_trial","225","994475","0.0-126.0-0.0","444.59999990463257","","","","50","0,1,1","2","city","73","probe-102","0.25319029955414313","0.8249253845883164","0.2970542667905393","1","","","","","","","",""
"","html-keyboard-response","226","995478","0.0-126.0-1.0","null","<p></p>","null","","","","","","","","","","","","","","","","","","",""
"","do_trial","227","1000465","0.0-127.0-0.0","445","","","","50","0,0,0","2","city","74","probe-99","0.2854190633616851","0.7393283575122449","0.24815345141449602","0","","","","","","","",""
"","html-keyboard-response","228","1001469","0.0-127.0-1.0","null","<p></p>","null","","","","","","","","","","","","","","","","","","",""
"","do_trial","229","1006432","0.0-128.0-0.0","422.90000009536743","","","","51","0,1,0","2","city","75","probe-199","0.17616341628575427","0.7762801024633181","0.12155957334268841","0","","","","","","","",""
"","html-keyboard-response","230","1007438","0.0-128.0-1.0","null","<p></p>","null","","","","","","","","","","","","","","","","","","",""
"","do_trial","231","1012336","0.0-129.0-0.0","359","","","","49","1,1,0","2","city","76","probe-171","0.22107008011987417","0.752631261130702","0.10234853989034999","1","","","","","","","",""
"","html-keyboard-response","232","1013340","0.0-129.0-1.0","null","<p></p>","null","","","","","","","","","","","","","","","","","","",""
"","do_trial","233","1018552","0.0-130.0-0.0","672.3000001907349","","","","49","0,1,0","2","city","77","probe-79","0.2374715022613991","0.611181218519702","0.0772835267772405","0","","","","","","","",""
"","html-keyboard-response","234","1019557","0.0-130.0-1.0","null","<p></p>","null","","","","","","","","","","","","","","","","","","",""
"","do_trial","235","1024415","0.0-131.0-0.0","320.2000002861023","","","","50","0,1,0","2","city","78","probe-71","0.2463036830809439","0.4927990310335686","0.11745667158556518","1","","","","","","","",""
"","html-keyboard-response","236","1025419","0.0-131.0-1.0","null","<p></p>","null","","","","","","","","","","","","","","","","","","",""
"","do_trial","237","1030327","0.0-132.0-0.0","367.40000009536743","","","","50","0,1,0","2","city","79","probe-185","0.2833032981817145","0.6024302145838614","0.11460324736247221","1","","","","","","","",""
"","html-keyboard-response","238","1031331","0.0-132.0-1.0","null","<p></p>","null","","","","","","","","","","","","","","","","","","",""
"","do_trial","239","1036280","0.0-133.0-0.0","409.2999997138977","","","","50","1,1,0","2","city","80","probe-110","0.3333199175947989","0.7585429559621376","0.060053427081962554","1","","","","","","","",""
"","html-keyboard-response","240","1037286","0.0-133.0-1.0","null","<p></p>","null","","","","","","","","","","","","","","","","","","",""
"","do_trial","241","1042343","0.0-134.0-0.0","516.4000000953674","","","","50","0,1,0","2","city","81","probe-224","0.34191856274969334","0.6544467998127884","0.1766152458152235","1","","","","","","","",""
"","html-keyboard-response","242","1043344","0.0-134.0-1.0","null","<p></p>","null","","","","","","","","","","","","","","","","","","",""
"","do_trial","243","1048337","0.0-135.0-0.0","450","","","","50","0,1,1","2","city","82","probe-83","0.30726382116185563","0.4657120053555754","0.3695966548095636","1","","","","","","","",""
"","html-keyboard-response","244","1049341","0.0-135.0-1.0","null","<p></p>","null","","","","","","","","","","","","","","","","","","",""
"","do_trial","245","1054373","0.0-136.0-0.0","492.90000009536743","","","","50","1,1,0","2","city","83","probe-158","0.23916217891318364","0.33313452490414874","0.5110578658476866","1","","","","","","","",""
"","html-keyboard-response","246","1055377","0.0-136.0-1.0","null","<p></p>","null","","","","","","","","","","","","","","","","","","",""
"","do_trial","247","1060254","0.0-137.0-0.0","337.5","","","","50","0,0,0","2","city","84","probe-144","0.17122979837990637","0.32593198861456346","0.6273542516027331","0","","","","","","","",""
"","html-keyboard-response","248","1061257","0.0-137.0-1.0","null","<p></p>","null","","","","","","","","","","","","","","","","","","",""
"","do_trial","249","1066145","0.0-138.0-0.0","348.3999996185303","","","","49","0,1,0","2","city","85","probe-203","0.05391428163490464","0.3619087354745926","0.4843877741049406","0","","","","","","","",""
"","html-keyboard-response","250","1067149","0.0-138.0-1.0","null","<p></p>","null","","","","","","","","","","","","","","","","","","",""
"","do_trial","251","1072232","0.0-139.0-0.0","541.4000000953674","","","","50","0,1,0","2","city","86","probe-173","0.10170707436456557","0.22587325579199802","0.5547113213537298","1","","","","","","","",""
"","html-keyboard-response","252","1073236","0.0-139.0-1.0","null","<p></p>","null","","","","","","","","","","","","","","","","","","",""
"","do_trial","253","1078236","0.0-140.0-0.0","461.30000019073486","","","","50","0,1,0","2","city","87","probe-211","0.06480889131488865","0.17117762393841793","0.5836895274674326","1","","","","","","","",""
"","html-keyboard-response","254","1079241","0.0-140.0-1.0","null","<p></p>","null","","","","","","","","","","","","","","","","","","",""
"","do_trial","255","1084302","0.0-141.0-0.0","520.5","","","","50","0,0,0","2","city","88","probe-138","0.06493979217515994","0.17782787418927853","0.5969962031671848","0","","","","","","","",""
"","html-keyboard-response","256","1085306","0.0-141.0-1.0","null","<p></p>","null","","","","","","","","","","","","","","","","","","",""
"","do_trial","257","1090252","0.0-142.0-0.0","406","","","","49","0,0,1","2","city","89","probe-230","0.070866445535923","0.18191783288402189","0.7380074432849386","0","","","","","","","",""
"","html-keyboard-response","258","1091256","0.0-142.0-1.0","null","<p></p>","null","","","","","","","","","","","","","","","","","","",""
"","do_trial","259","1096172","0.0-143.0-0.0","376.19999980926514","","","","50","1,1,1","2","city","90","probe-189","0.20637733274793335","0.28757260272898116","0.7243170322466249","1","","","","","","","",""
"","html-keyboard-response","260","1097175","0.0-143.0-1.0","null","<p></p>","null","","","","","","","","","","","","","","","","","","",""
"","do_trial","261","1102071","0.0-144.0-0.0","354.7999997138977","","","","50","0,0,1","2","city","91","probe-191","0.12421133654120425","0.3023322487435763","0.7323810689818382","0","","","","","","","",""
"","html-keyboard-response","262","1103075","0.0-144.0-1.0","null","<p></p>","null","","","","","","","","","","","","","","","","","","",""
"","do_trial","263","1107974","0.0-145.0-0.0","356.69999980926514","","","","51","0,0,0","2","city","92","probe-220","0.07652605617140461","0.34790691476632374","0.5947038044655293","0","","","","","","","",""
"","html-keyboard-response","264","1108978","0.0-145.0-1.0","null","<p></p>","null","","","","","","","","","","","","","","","","","","",""
"","do_trial","265","1113988","0.0-146.0-0.0","469.90000009536743","","","","51","0,1,1","2","city","93","probe-50","0.09314210327792748","0.287523191417923","0.5875961881470336","1","","","","","","","",""
"","html-keyboard-response","266","1114992","0.0-146.0-1.0","null","<p></p>","null","","","","","","","","","","","","","","","","","","",""
"","do_trial","267","1119891","0.0-147.0-0.0","358.59999990463257","","","","51","0,0,1","2","city","94","probe-69","0.06991039949367966","0.28337215753844397","0.6662432165843487","1","","","","","","","",""
"","html-keyboard-response","268","1120895","0.0-147.0-1.0","null","<p></p>","null","","","","","","","","","","","","","","","","","","",""
"","do_trial","269","1125835","0.0-148.0-0.0","398.69999980926514","","","","51","0,0,0","2","city","95","probe-193","0.07991968232322623","0.26975497449290187","0.7380293747766515","0","","","","","","","",""
"","html-keyboard-response","270","1126838","0.0-148.0-1.0","null","<p></p>","null","","","","","","","","","","","","","","","","","","",""
"","do_trial","271","1131733","0.0-149.0-0.0","352.6000003814697","","","","51","0,0,1","2","city","96","probe-49","0.30200783297870926","0.22944582019685256","0.6674102238355744","1","","","","","","","",""
"","html-keyboard-response","272","1132737","0.0-149.0-1.0","null","<p></p>","null","","","","","","","","","","","","","","","","","","",""
"","do_trial","273","1137706","0.0-150.0-0.0","429.2999997138977","","","","51","0,0,1","2","city","97","probe-217","0.1456448392689496","0.3445378806811543","0.7328296822105509","1","","","","","","","",""
"","html-keyboard-response","274","1138710","0.0-150.0-1.0","null","<p></p>","null","","","","","","","","","","","","","","","","","","",""
"","do_trial","275","1143667","0.0-151.0-0.0","417","","","","51","0,0,1","2","city","98","probe-128","0.11074637296233496","0.3243074173693241","0.7065529937609647","1","","","","","","","",""
"","html-keyboard-response","276","1144671","0.0-151.0-1.0","null","<p></p>","null","","","","","","","","","","","","","","","","","","",""
"","do_trial","277","1149953","0.0-152.0-0.0","742.5999999046326","","","","51","0,1,1","2","city","99","probe-159","0.1680348907297119","0.3970371522353649","0.6033476277846217","1","","","","","","","",""
"","html-keyboard-response","278","1150957","0.0-152.0-1.0","null","<p></p>","null","","","","","","","","","","","","","","","","","","",""
"","do_trial","279","1156211","0.0-153.0-0.0","712","","","","51","0,0,1","2","city","100","probe-137","0.08326129224953473","0.383117287400795","0.6200741888471122","1","","","","","","","",""
"","html-keyboard-response","280","1157215","0.0-153.0-1.0","null","<p></p>","null","","","","","","","","","","","","","","","","","","",""
"","do_trial","281","1162155","0.0-154.0-0.0","397.69999980926514","","","","51","0,1,0","2","city","101","probe-181","0.2026489846234245","0.33496409974614133","0.45381101841889854","0","","","","","","","",""
"","html-keyboard-response","282","1163159","0.0-154.0-1.0","null","<p></p>","null","","","","","","","","","","","","","","","","","","",""
"","do_trial","283","1168152","0.0-155.0-0.0","454.09999990463257","","","","51","0,1,0","2","city","102","probe-194","0.07516258163615377","0.33245627172246184","0.49095473851769217","0","","","","","","","",""
"","html-keyboard-response","284","1169156","0.0-155.0-1.0","null","<p></p>","null","","","","","","","","","","","","","","","","","","",""
"","do_trial","285","1173996","0.0-156.0-0.0","296.90000009536743","","","","50","0,0,0","2","city","103","probe-104","0.19387352032046365","0.23145798822721958","0.5266293651397622","0","","","","","","","",""
"","html-keyboard-response","286","1175001","0.0-156.0-1.0","null","<p></p>","null","","","","","","","","","","","","","","","","","","",""
"","do_trial","287","1179946","0.0-157.0-0.0","402.59999990463257","","","","50","0,0,0","2","city","104","probe-98","0.08076782975627196","0.25868440714099084","0.5848852494648086","0","","","","","","","",""
"","html-keyboard-response","288","1180951","0.0-157.0-1.0","null","<p></p>","null","","","","","","","","","","","","","","","","","","",""
"","do_trial","289","1185919","0.0-158.0-0.0","429","","","","50","1,0,1","2","city","105","probe-225","0.10635336344191913","0.16802926981473676","0.5747403487654326","0","","","","","","","",""
"","html-keyboard-response","290","1186924","0.0-158.0-1.0","null","<p></p>","null","","","","","","","","","","","","","","","","","","",""
"","do_trial","291","1191840","0.0-159.0-0.0","375.8999996185303","","","","49","0,0,1","2","city","106","probe-01","0.0948834257685932","0.08500968040264502","0.5757917294904032","0","","","","","","","",""
"","html-keyboard-response","292","1192844","0.0-159.0-1.0","null","<p></p>","null","","","","","","","","","","","","","","","","","","",""
"","do_trial","293","1198730","0.0-160.0-0.0","1343.5","","","","51","1,1,0","2","city","107","probe-119","0.15962737349557413","0.216990805878158","0.6216592003885155","0","","","","","","","",""
"","html-keyboard-response","294","1199735","0.0-160.0-1.0","null","<p></p>","null","","","","","","","","","","","","","","","","","","",""
"","do_trial","295","1205023","0.0-161.0-0.0","749.4000000953674","","","","51","0,0,1","2","city","108","probe-229","0.050035960546354376","0.4839521709599082","0.6792974598097673","1","","","","","","","",""
"","html-keyboard-response","296","1206026","0.0-161.0-1.0","null","<p></p>","null","","","","","","","","","","","","","","","","","","",""
"","do_trial","297","1211100","0.0-162.0-0.0","530.7000002861023","","","","51","0,1,0","2","city","109","probe-13","0.13434643143305702","0.39103617259379364","0.3851138728613276","0","","","","","","","",""
"","html-keyboard-response","298","1212104","0.0-162.0-1.0","null","<p></p>","null","","","","","","","","","","","","","","","","","","",""
"","do_bye","299","1213614","0.0-163.0-0.0","null","","","","null","","","","","","","","","","","","","","","","",""
"","do_travel","300","1219619","0.0-164.0-0.0","null","","","","null","","","","","","","","","","","","","","","","",""
"","do_welcome","301","1221125","0.0-164.0-1.0","null","","","","null","","","","","","","","","","","","","","","","",""
"","do_trial","302","1227023","0.0-165.0-0.0","1358.1999998092651","","","","50","0,0,1","3","forest","110","probe-19","0.07341608703691492","0.3035448439164994","1","0","","","","","","","",""
"","html-keyboard-response","303","1228027","0.0-165.0-1.0","null","<p></p>","null","","","","","","","","","","","","","","","","","","",""
"","do_trial","304","1232914","0.0-166.0-0.0","344.7999997138977","","","","50","0,0,1","3","forest","111","probe-93","0.1228696395904052","0.2543068841785281","1","0","","","","","","","",""
"","html-keyboard-response","305","1233919","0.0-166.0-1.0","null","<p></p>","null","","","","","","","","","","","","","","","","","","",""
"","do_trial","306","1238798","0.0-167.0-0.0","338.59999990463257","","","","51","0,0,1","3","forest","112","probe-118","0.17770788368681195","0.24396324439569356","0.8621214455256988","1","","","","","","","",""
"","html-keyboard-response","307","1239802","0.0-167.0-1.0","null","<p></p>","null","","","","","","","","","","","","","","","","","","",""
"","do_trial","308","1244791","0.0-168.0-0.0","446.7000002861023","","","","51","0,0,1","3","forest","113","probe-107","0.2869260040204504","0.10110443303791207","0.813357828801727","1","","","","","","","",""
"","html-keyboard-response","309","1245794","0.0-168.0-1.0","null","<p></p>","null","","","","","","","","","","","","","","","","","","",""
"","do_trial","310","1251298","0.0-169.0-0.0","964.7000002861023","","","","51","0,0,1","3","forest","114","probe-76","0.23739875859661427","0.15401465976328474","0.7902137250083907","1","","","","","","","",""
"","html-keyboard-response","311","1252302","0.0-169.0-1.0","null","<p></p>","null","","","","","","","","","","","","","","","","","","",""
"","do_trial","312","1257468","0.0-170.0-0.0","626.7000002861023","","","","51","0,0,1","3","forest","115","probe-187","0.1818866958290344","0.11338071981118855","0.7094200383728836","1","","","","","","","",""
"","html-keyboard-response","313","1258472","0.0-170.0-1.0","null","<p></p>","null","","","","","","","","","","","","","","","","","","",""
"","do_trial","314","1263714","0.0-171.0-0.0","703","","","","51","0,0,1","3","forest","116","probe-31","0.17679778367380544","0.21486060025351264","0.7566479057110962","1","","","","","","","",""
"","html-keyboard-response","315","1264718","0.0-171.0-1.0","null","<p></p>","null","","","","","","","","","","","","","","","","","","",""
"","do_trial","316","1270134","0.0-172.0-0.0","873.9000000953674","","","","51","1,1,1","3","forest","117","probe-33","0.29034870825293746","0.25412804088529717","0.7491883540637995","1","","","","","","","",""
"","html-keyboard-response","317","1271138","0.0-172.0-1.0","null","<p></p>","null","","","","","","","","","","","","","","","","","","",""
"","do_trial","318","1276670","0.0-173.0-0.0","989.0999999046326","","","","51","0,0,1","3","forest","118","probe-134","0.16209356842277886","0.31909678863619856","0.6286806244013752","1","","","","","","","",""
"","html-keyboard-response","319","1277674","0.0-173.0-1.0","null","<p></p>","null","","","","","","","","","","","","","","","","","","",""
"","do_trial","320","1282706","0.0-174.0-0.0","493","","","","51","0,0,0","3","forest","119","probe-11","0.13102599997526235","0.35534690506364447","0.7209004294571679","0","","","","","","","",""
"","html-keyboard-response","321","1283711","0.0-174.0-1.0","null","<p></p>","null","","","","","","","","","","","","","","","","","","",""
"","do_trial","322","1288746","0.0-175.0-0.0","496","","","","51","1,0,1","3","forest","120","probe-29","0.13354501244984487","0.3641808186161768","0.794324154100079","1","","","","","","","",""
"","html-keyboard-response","323","1289748","0.0-175.0-1.0","null","<p></p>","null","","","","","","","","","","","","","","","","","","",""
"","do_trial","324","1295105","0.0-176.0-0.0","819.2000002861023","","","","51","0,1,1","3","forest","121","probe-143","0.10089427558473617","0.32677148316015725","0.7380652105264952","1","","","","","","","",""
"","html-keyboard-response","325","1296109","0.0-176.0-1.0","null","<p></p>","null","","","","","","","","","","","","","","","","","","",""
"","do_trial","326","1301331","0.0-177.0-0.0","682.6999998092651","","","","51","0,0,0","3","forest","122","probe-77","0.43426562949460673","0.09724115884372507","0.630203215677115","0","","","","","","","",""
"","html-keyboard-response","327","1302333","0.0-177.0-1.0","null","<p></p>","null","","","","","","","","","","","","","","","","","","",""
"","do_trial","328","1307205","0.0-178.0-0.0","330.2999997138977","","","","51","0,0,1","3","forest","123","probe-05","0.6942968924948322","0.14024974132159876","0.5576910652184117","1","","","","","","","",""
"","html-keyboard-response","329","1308207","0.0-178.0-1.0","null","<p></p>","null","","","","","","","","","","","","","","","","","","",""
"","do_trial","330","1314724","0.0-179.0-0.0","1973.9000000953674","","","","51","0,0,0","3","forest","124","probe-90","0.5311576535451026","0.06145099126762605","0.46601677685616444","0","","","","","","","",""
"","html-keyboard-response","331","1315728","0.0-179.0-1.0","null","<p></p>","null","","","","","","","","","","","","","","","","","","",""
"","do_trial","332","1320409","0.0-180.0-0.0","141.80000019073486","","","","51","0,0,0","3","forest","125","probe-72","0.5462447162217199","0.16040152302666116","0.4238097160052379","0","","","","","","","",""
"","html-keyboard-response","333","1321413","0.0-180.0-1.0","null","<p></p>","null","","","","","","","","","","","","","","","","","","",""
"","do_trial","334","1328856","0.0-181.0-0.0","2903.800000190735","","","","51","1,0,0","3","forest","126","probe-216","0.5227442252737236","0.16267622680553995","0.2671516168167595","0","","","","","","","",""
"","html-keyboard-response","335","1329859","0.0-181.0-1.0","null","<p></p>","null","","","","","","","","","","","","","","","","","","",""
"","do_trial","336","1334820","0.0-182.0-0.0","418.90000009536743","","","","51","1,0,0","3","forest","127","probe-129","0.5913707535647167","0.2412599956435087","0.3159719169368586","0","","","","","","","",""
"","html-keyboard-response","337","1335824","0.0-182.0-1.0","null","<p></p>","null","","","","","","","","","","","","","","","","","","",""
"","do_trial","338","1340675","0.0-183.0-0.0","307.19999980926514","","","","49","1,0,0","3","forest","128","probe-105","0.614089027077983","0.1039812007331877","0.39302448892278335","1","","","","","","","",""
"","html-keyboard-response","339","1341681","0.0-183.0-1.0","null","<p></p>","null","","","","","","","","","","","","","","","","","","",""
"","do_trial","340","1346715","0.0-184.0-0.0","494.5","","","","49","1,0,0","3","forest","129","probe-198","0.4918803952632468","0.15882636310862583","0.4490914788469102","1","","","","","","","",""
"","html-keyboard-response","341","1347719","0.0-184.0-1.0","null","<p></p>","null","","","","","","","","","","","","","","","","","","",""
"","do_trial","342","1352550","0.0-185.0-0.0","291.40000009536743","","","","49","1,0,0","3","forest","130","probe-86","0.5629361157990084","0.386856523860707","0.41124721643518575","1","","","","","","","",""
"","html-keyboard-response","343","1353553","0.0-185.0-1.0","null","<p></p>","null","","","","","","","","","","","","","","","","","","",""
"","do_trial","344","1358378","0.0-186.0-0.0","283.3999996185303","","","","49","0,0,0","3","forest","131","probe-70","0.5452802228380105","0.23630347367647783","0.2840647810910992","0","","","","","","","",""
"","html-keyboard-response","345","1359383","0.0-186.0-1.0","null","<p></p>","null","","","","","","","","","","","","","","","","","","",""
"","do_trial","346","1364721","0.0-187.0-0.0","796.0999999046326","","","","49","1,0,0","3","forest","132","probe-195","0.5507464454241318","0.17688075233193512","0.4406106940135281","1","","","","","","","",""
"","html-keyboard-response","347","1365725","0.0-187.0-1.0","null","<p></p>","null","","","","","","","","","","","","","","","","","","",""
"","do_trial","348","1370654","0.0-188.0-0.0","390","","","","49","0,0,0","3","forest","133","probe-80","0.3836258778518247","0.08206376771059329","0.3183337015107925","0","","","","","","","",""
"","html-keyboard-response","349","1371658","0.0-188.0-1.0","null","<p></p>","null","","","","","","","","","","","","","","","","","","",""
"","do_trial","350","1376696","0.0-189.0-0.0","496.69999980926514","","","","49","1,0,0","3","forest","134","probe-169","0.489430243499088","0.08173855981364023","0.32225831167165675","1","","","","","","","",""
"","html-keyboard-response","351","1377701","0.0-189.0-1.0","null","<p></p>","null","","","","","","","","","","","","","","","","","","",""
"","do_trial","352","1382972","0.0-190.0-0.0","729.7999997138977","","","","49","0,0,0","3","forest","135","probe-179","0.412301356603471","0.15170087590159903","0.27333059149022876","0","","","","","","","",""
"","html-keyboard-response","353","1383976","0.0-190.0-1.0","null","<p></p>","null","","","","","","","","","","","","","","","","","","",""
"","do_trial","354","1389537","0.0-191.0-0.0","1016.4000000953674","","","","49","0,1,0","3","forest","136","probe-136","0.5593837060408478","0.22698544671480594","0.13052566353533485","0","","","","","","","",""
"","html-keyboard-response","355","1390541","0.0-191.0-1.0","null","<p></p>","null","","","","","","","","","","","","","","","","","","",""
"","do_trial","356","1395399","0.0-192.0-0.0","315.80000019073486","","","","51","1,0,0","3","forest","137","probe-46","0.5660049899366723","0.12266196554010066","0.10293568592458423","0","","","","","","","",""
"","html-keyboard-response","357","1396403","0.0-192.0-1.0","null","<p></p>","null","","","","","","","","","","","","","","","","","","",""
"","do_trial","358","1401375","0.0-193.0-0.0","429.30000019073486","","","","50","1,1,0","3","forest","138","probe-162","0.5856777406700784","0.23481988228553236","0.16152473174390916","1","","","","","","","",""
"","html-keyboard-response","359","1402376","0.0-193.0-1.0","null","<p></p>","null","","","","","","","","","","","","","","","","","","",""
"","do_trial","360","1407212","0.0-194.0-0.0","297.40000009536743","","","","50","1,0,0","3","forest","139","probe-27","0.586163820404782","0.14306362015004873","0.19900809047107515","0","","","","","","","",""
"","html-keyboard-response","361","1408216","0.0-194.0-1.0","null","<p></p>","null","","","","","","","","","","","","","","","","","","",""
"","do_trial","362","1413069","0.0-195.0-0.0","311.7999997138977","","","","50","1,0,0","3","forest","140","probe-95","0.7756410177957449","0.120133579503909","0.3181184395573536","0","","","","","","","",""
"","html-keyboard-response","363","1414073","0.0-195.0-1.0","null","<p></p>","null","","","","","","","","","","","","","","","","","","",""
"","do_trial","364","1418996","0.0-196.0-0.0","383.69999980926514","","","","51","1,0,0","3","forest","141","probe-218","0.8286989952362076","0.18248466441079647","0.4566168736825158","0","","","","","","","",""
"","html-keyboard-response","365","1420000","0.0-196.0-1.0","null","<p></p>","null","","","","","","","","","","","","","","","","","","",""
"","do_trial","366","1424766","0.0-197.0-0.0","223.09999990463257","","","","49","1,0,1","3","forest","142","probe-150","0.9377926396193267","0.10184051009836352","0.41269178860284333","1","","","","","","","",""
"","html-keyboard-response","367","1425769","0.0-197.0-1.0","null","<p></p>","null","","","","","","","","","","","","","","","","","","",""
"","do_trial","368","1430843","0.0-198.0-0.0","534.9000000953674","","","","49","1,0,0","3","forest","143","probe-38","0.8447707263768917","0.11711978170340459","0.3454571194244154","1","","","","","","","",""
"","html-keyboard-response","369","1431847","0.0-198.0-1.0","null","<p></p>","null","","","","","","","","","","","","","","","","","","",""
"","do_trial","370","1436677","0.0-199.0-0.0","287.59999990463257","","","","49","1,0,0","3","forest","144","probe-177","0.652091132325599","0.1321982894483255","0.39550206187979897","1","","","","","","","",""
"","html-keyboard-response","371","1437681","0.0-199.0-1.0","null","<p></p>","null","","","","","","","","","","","","","","","","","","",""
"","do_trial","372","1442638","0.0-200.0-0.0","416.5","","","","49","1,0,1","3","forest","145","probe-08","0.7268349761705077","0.11089718585816098","0.38085251563416","1","","","","","","","",""
"","html-keyboard-response","373","1443642","0.0-200.0-1.0","null","<p></p>","null","","","","","","","","","","","","","","","","","","",""
"","do_trial","374","1448617","0.0-201.0-0.0","438.09999990463257","","","","49","1,0,1","3","forest","146","probe-205","0.6479405871799127","0.05503187537863383","0.44369526198673437","1","","","","","","","",""
"","html-keyboard-response","375","1449621","0.0-201.0-1.0","null","<p></p>","null","","","","","","","","","","","","","","","","","","",""
"","do_trial","376","1455059","0.0-202.0-0.0","898.7000002861023","","","","49","1,0,0","3","forest","147","probe-167","0.48182109352425145","0.06902531387680864","0.35335596441193845","1","","","","","","","",""
"","html-keyboard-response","377","1456064","0.0-202.0-1.0","null","<p></p>","null","","","","","","","","","","","","","","","","","","",""
"","do_trial","378","1460981","0.0-203.0-0.0","373.19999980926514","","","","49","1,1,0","3","forest","148","probe-20","0.5103536001466666","0.10087797487168891","0.2003615925336766","1","","","","","","","",""
"","html-keyboard-response","379","1461985","0.0-203.0-1.0","null","<p></p>","null","","","","","","","","","","","","","","","","","","",""
"","do_trial","380","1466885","0.0-204.0-0.0","357.5","","","","49","1,0,1","3","forest","149","probe-163","0.5254540176797018","0.17330077297160273","0.3524973222802914","1","","","","","","","",""
"","html-keyboard-response","381","1467889","0.0-204.0-1.0","null","<p></p>","null","","","","","","","","","","","","","","","","","","",""
"","do_bye","382","1469398","0.0-205.0-0.0","null","","","","null","","","","","","","","","","","","","","","","",""
"","do_travel","383","1475400","0.0-206.0-0.0","null","","","","null","","","","","","","","","","","","","","","","",""
"","do_welcome","384","1476909","0.0-206.0-1.0","null","","","","null","","","","","","","","","","","","","","","","",""
"","do_trial","385","1482301","0.0-207.0-0.0","849.2999997138977","","","","49","1,0,1","4","coast","150","probe-155","1","0.13307228154177744","0.3128139044237974","1","","","","","","","",""
"","html-keyboard-response","386","1483306","0.0-207.0-1.0","null","<p></p>","null","","","","","","","","","","","","","","","","","","",""
"","do_trial","387","1488091","0.0-208.0-0.0","245.2999997138977","","","","49","1,0,1","4","coast","151","probe-64","1","0.06415706016217505","0.3688121860731704","1","","","","","","","",""
"","html-keyboard-response","388","1489095","0.0-208.0-1.0","null","<p></p>","null","","","","","","","","","","","","","","","","","","",""
"","do_trial","389","1494265","0.0-209.0-0.0","632.2000002861023","","","","49","1,0,0","4","coast","152","probe-115","0.8087593923994137","0.15315655270498785","0.34590404633536187","1","","","","","","","",""
"","html-keyboard-response","390","1495269","0.0-209.0-1.0","null","<p></p>","null","","","","","","","","","","","","","","","","","","",""
"","do_trial","391","1500662","0.0-210.0-0.0","854.2000002861023","","","","49","1,0,0","4","coast","153","probe-184","0.857951407813575","0.15570650083233603","0.17440486125061114","1","","","","","","","",""
"","html-keyboard-response","392","1501665","0.0-210.0-1.0","null","<p></p>","null","","","","","","","","","","","","","","","","","","",""
"","do_trial","393","1506567","0.0-211.0-0.0","350.09999990463257","","","","49","1,0,0","4","coast","154","probe-140","0.7420614022148909","0.077421061596049","0.2033357871926032","1","","","","","","","",""
"","html-keyboard-response","394","1507570","0.0-211.0-1.0","null","<p></p>","null","","","","","","","","","","","","","","","","","","",""
"","do_trial","395","1512469","0.0-212.0-0.0","360.40000009536743","","","","49","0,0,0","4","coast","155","probe-57","0.5881652000992454","0.06680212990518107","0.21126227892865967","0","","","","","","","",""
"","html-keyboard-response","396","1513473","0.0-212.0-1.0","null","<p></p>","null","","","","","","","","","","","","","","","","","","",""
"","do_trial","397","1518361","0.0-213.0-0.0","347.19999980926514","","","","49","1,1,0","4","coast","156","probe-52","0.6473755917121039","0.10283622166783161","0.3714354696152921","1","","","","","","","",""
"","html-keyboard-response","398","1519364","0.0-213.0-1.0","null","<p></p>","null","","","","","","","","","","","","","","","","","","",""
"","do_trial","399","1524305","0.0-214.0-0.0","398.7999997138977","","","","49","1,0,0","4","coast","157","probe-214","0.7341461865447816","0.06685177994189445","0.21016274737064267","1","","","","","","","",""
"","html-keyboard-response","400","1525309","0.0-214.0-1.0","null","<p></p>","null","","","","","","","","","","","","","","","","","","",""
"","do_trial","401","1530400","0.0-215.0-0.0","551.6000003814697","","","","49","1,1,0","4","coast","158","probe-113","0.9041437326101469","0.11983611342752026","0.2399657994864113","1","","","","","","","",""
"","html-keyboard-response","402","1531403","0.0-215.0-1.0","null","<p></p>","null","","","","","","","","","","","","","","","","","","",""
"","do_trial","403","1536790","0.0-216.0-0.0","847.5999999046326","","","","49","1,0,1","4","coast","159","probe-208","0.8129578969562838","0.09108782695945479","0.13495340696620328","1","","","","","","","",""
"","html-keyboard-response","404","1537795","0.0-216.0-1.0","null","<p></p>","null","","","","","","","","","","","","","","","","","","",""
"","do_trial","405","1543263","0.0-217.0-0.0","927","","","","49","1,0,0","4","coast","160","probe-201","0.8447541909859189","0.09669667232251268","0.26138216900150274","1","","","","","","","",""
"","html-keyboard-response","406","1544267","0.0-217.0-1.0","null","<p></p>","null","","","","","","","","","","","","","","","","","","",""
"","do_trial","407","1549670","0.0-218.0-0.0","863.5","","","","49","0,0,0","4","coast","161","probe-172","0.6637145265619415","0.10611822047439316","0.2742466546042329","0","","","","","","","",""
"","html-keyboard-response","408","1550675","0.0-218.0-1.0","null","<p></p>","null","","","","","","","","","","","","","","","","","","",""
"","do_trial","409","1555519","0.0-219.0-0.0","302.09999990463257","","","","49","1,1,0","4","coast","162","probe-84","0.6700484443162997","0.3971227757932489","0.3147730679074312","1","","","","","","","",""
"","html-keyboard-response","410","1556522","0.0-219.0-1.0","null","<p></p>","null","","","","","","","","","","","","","","","","","","",""
"","do_trial","411","1561118","0.0-220.0-0.0","19.700000286102295","","","","49","0,0,0","4","coast","163","probe-206","0.4759464638542917","0.3506002274284504","0.34175066621531375","0","","","","","","","",""
"","html-keyboard-response","412","1562119","0.0-220.0-1.0","null","<p></p>","null","","","","","","","","","","","","","","","","","","",""
"","do_trial","413","1567608","0.0-221.0-0.0","946.6999998092651","","","","49","0,0,0","4","coast","164","probe-21","0.3108242309551798","0.4191193664466683","0.13569174450182833","0","","","","","","","",""
"","html-keyboard-response","414","1568612","0.0-221.0-1.0","null","<p></p>","null","","","","","","","","","","","","","","","","","","",""
"","do_trial","415","1573525","0.0-222.0-0.0","373","","","","50","0,0,0","4","coast","165","probe-101","0.269167706819399","0.5406530054828996","0.12289025082375482","0","","","","","","","",""
"","html-keyboard-response","416","1574529","0.0-222.0-1.0","null","<p></p>","null","","","","","","","","","","","","","","","","","","",""
"","do_trial","417","1579351","0.0-223.0-0.0","280","","","","49","1,0,0","4","coast","166","probe-126","0.20950765275724523","0.5776242550401517","0.18947846929062173","1","","","","","","","",""
"","html-keyboard-response","418","1580355","0.0-223.0-1.0","null","<p></p>","null","","","","","","","","","","","","","","","","","","",""
"","do_trial","419","1585283","0.0-224.0-0.0","388","","","","49","0,0,0","4","coast","167","probe-227","0.2667130122027353","0.5626191162453297","0.15591705663929667","0","","","","","","","",""
"","html-keyboard-response","420","1586286","0.0-224.0-1.0","null","<p></p>","null","","","","","","","","","","","","","","","","","","",""
"","do_trial","421","1591285","0.0-225.0-0.0","458.90000009536743","","","","49","0,1,0","4","coast","168","probe-124","0.33735833825923855","0.5806389676774043","0.2280186585632773","0","","","","","","","",""
"","html-keyboard-response","422","1592287","0.0-225.0-1.0","null","<p></p>","null","","","","","","","","","","","","","","","","","","",""
"","do_trial","423","1597293","0.0-226.0-0.0","464.59999990463257","","","","51","0,0,0","4","coast","169","probe-146","0.3359865040602206","0.5712556920616096","0.07864721419457765","0","","","","","","","",""
"","html-keyboard-response","424","1598295","0.0-226.0-1.0","null","<p></p>","null","","","","","","","","","","","","","","","","","","",""
"","do_trial","425","1603266","0.0-227.0-0.0","432.8999996185303","","","","50","0,0,0","4","coast","170","probe-22","0.35155159727910806","0.5802766981820576","0.08212814116027385","0","","","","","","","",""
"","html-keyboard-response","426","1604269","0.0-227.0-1.0","null","<p></p>","null","","","","","","","","","","","","","","","","","","",""
"","do_trial","427","1609309","0.0-228.0-0.0","497.7999997138977","","","","49","0,0,1","4","coast","171","probe-48","0.30602543334469795","0.6156946203281553","0.10488095237677428","0","","","","","","","",""
"","html-keyboard-response","428","1610313","0.0-228.0-1.0","null","<p></p>","null","","","","","","","","","","","","","","","","","","",""
"","do_trial","429","1615230","0.0-229.0-0.0","374.30000019073486","","","","49","0,1,0","4","coast","172","probe-66","0.32839191495448644","0.5735283853439761","0.12328934431700467","0","","","","","","","",""
"","html-keyboard-response","430","1616234","0.0-229.0-1.0","null","<p></p>","null","","","","","","","","","","","","","","","","","","",""
"","do_trial","431","1621243","0.0-230.0-0.0","467.90000009536743","","","","51","0,1,0","4","coast","173","probe-24","0.2855825511705741","0.5730369132495582","0.12675215163178366","0","","","","","","","",""
"","html-keyboard-response","432","1622247","0.0-230.0-1.0","null","<p></p>","null","","","","","","","","","","","","","","","","","","",""
"","do_trial","433","1627419","0.0-231.0-0.0","632.9000000953674","","","","51","0,0,0","4","coast","174","probe-18","0.43691829554127865","0.5483361770079677","0.09631211990686968","0","","","","","","","",""
"","html-keyboard-response","434","1628423","0.0-231.0-1.0","null","<p></p>","null","","","","","","","","","","","","","","","","","","",""
"","do_trial","435","1633392","0.0-232.0-0.0","430.8999996185303","","","","50","0,1,0","4","coast","175","probe-62","0.3014039630258383","0.7222744987763032","0.15579822356945422","1","","","","","","","",""
"","html-keyboard-response","436","1634396","0.0-232.0-1.0","null","<p></p>","null","","","","","","","","","","","","","","","","","","",""
"","do_trial","437","1639458","0.0-233.0-0.0","522.0999999046326","","","","50","1,1,0","4","coast","176","probe-73","0.3894813835211062","0.6429644651618825","0.05483155630138361","1","","","","","","","",""
"","html-keyboard-response","438","1640462","0.0-233.0-1.0","null","<p></p>","null","","","","","","","","","","","","","","","","","","",""
"","do_trial","439","1645384","0.0-234.0-0.0","383.30000019073486","","","","50","1,1,0","4","coast","177","probe-161","0.433601085572739","0.553442232297912","0.05946382726064044","1","","","","","","","",""
"","html-keyboard-response","440","1646389","0.0-234.0-1.0","null","<p></p>","null","","","","","","","","","","","","","","","","","","",""
"","do_trial","441","1651378","0.0-235.0-0.0","447.09999990463257","","","","50","0,1,0","4","coast","178","probe-132","0.4044070319582251","0.5908048802532209","0.11818265636463558","1","","","","","","","",""
"","html-keyboard-response","442","1652380","0.0-235.0-1.0","null","<p></p>","null","","","","","","","","","","","","","","","","","","",""
"","do_trial","443","1657267","0.0-236.0-0.0","344.09999990463257","","","","50","0,1,0","4","coast","179","probe-26","0.404674637246697","0.5676851245896319","0.07353543605382967","1","","","","","","","",""
"","html-keyboard-response","444","1658271","0.0-236.0-1.0","null","<p></p>","null","","","","","","","","","","","","","","","","","","",""
"","do_trial","445","1663507","0.0-237.0-0.0","693.6999998092651","","","","50","0,1,0","4","coast","180","probe-103","0.4524551057203957","0.7889237529459834","0.13339045706463337","1","","","","","","","",""
"","html-keyboard-response","446","1664511","0.0-237.0-1.0","null","<p></p>","null","","","","","","","","","","","","","","","","","","",""
"","do_trial","447","1669463","0.0-238.0-0.0","413.40000009536743","","","","50","1,1,0","4","coast","181","probe-123","0.44633162008816596","0.6621721584190925","0.08953341295403786","1","","","","","","","",""
"","html-keyboard-response","448","1670467","0.0-238.0-1.0","null","<p></p>","null","","","","","","","","","","","","","","","","","","",""
"","do_trial","449","1675297","0.0-239.0-0.0","291","","","","50","0,1,0","4","coast","182","probe-165","0.2986460143043572","0.621157824104184","0.18442942337515583","1","","","","","","","",""
"","html-keyboard-response","450","1676301","0.0-239.0-1.0","null","<p></p>","null","","","","","","","","","","","","","","","","","","",""
"","do_trial","451","1681656","0.0-240.0-0.0","814.3000001907349","","","","50","0,1,0","4","coast","183","probe-23","0.3467653255727612","0.6417554503344575","0.13744442854982672","1","","","","","","","",""
"","html-keyboard-response","452","1682659","0.0-240.0-1.0","null","<p></p>","null","","","","","","","","","","","","","","","","","","",""
"","do_trial","453","1687504","0.0-241.0-0.0","305.59999990463257","","","","50","0,1,0","4","coast","184","probe-89","0.3487376241746674","0.5847489490546552","0.06362338060913561","1","","","","","","","",""
"","html-keyboard-response","454","1688508","0.0-241.0-1.0","null","<p></p>","null","","","","","","","","","","","","","","","","","","",""
"","do_trial","455","1693889","0.0-242.0-0.0","837.5999999046326","","","","50","1,1,0","4","coast","185","probe-141","0.43623875320155836","0.5446173294255346","0.05927571580858233","1","","","","","","","",""
"","html-keyboard-response","456","1694894","0.0-242.0-1.0","null","<p></p>","null","","","","","","","","","","","","","","","","","","",""
"","do_trial","457","1701226","0.0-243.0-0.0","1790.5","","","","50","0,0,0","4","coast","186","probe-228","0.36090501250546836","0.6775566988099524","0.1506041921035423","0","","","","","","","",""
"","html-keyboard-response","458","1702230","0.0-243.0-1.0","null","<p></p>","null","","","","","","","","","","","","","","","","","","",""
"","do_trial","459","1707152","0.0-244.0-0.0","379","","","","50","1,1,0","4","coast","187","probe-182","0.450310088059807","0.6437358911235483","0.1368597156957045","1","","","","","","","",""
"","html-keyboard-response","460","1708157","0.0-244.0-1.0","null","<p></p>","null","","","","","","","","","","","","","","","","","","",""
"","do_trial","461","1713021","0.0-245.0-0.0","325.80000019073486","","","","50","0,0,0","4","coast","188","probe-120","0.4235964219540411","0.6417591264196849","0.15346025846046302","0","","","","","","","",""
"","html-keyboard-response","462","1714025","0.0-245.0-1.0","null","<p></p>","null","","","","","","","","","","","","","","","","","","",""
"","do_trial","463","1718774","0.0-246.0-0.0","206.80000019073486","","","","50","0,1,1","4","coast","189","probe-43","0.34310620180172513","0.5903941198413751","0.2301345553821222","1","","","","","","","",""
"","html-keyboard-response","464","1719778","0.0-246.0-1.0","null","<p></p>","null","","","","","","","","","","","","","","","","","","",""
"","do_bye","465","1721287","0.0-247.0-0.0","null","","","","null","","","","","","","","","","","","","","","","",""
"","do_travel","466","1727289","0.0-248.0-0.0","null","","","","null","","","","","","","","","","","","","","","","",""
"","do_welcome","467","1728799","0.0-248.0-1.0","null","","","","null","","","","","","","","","","","","","","","","",""
"","do_trial","468","1734231","0.0-249.0-0.0","890.0999999046326","","","","49","0,1,0","5","mountain","190","probe-223","0.3565530728818298","1","0.1332394999488505","0","","","","","","","",""
"","html-keyboard-response","469","1735235","0.0-249.0-1.0","null","<p></p>","null","","","","","","","","","","","","","","","","","","",""
"","do_trial","470","1740143","0.0-250.0-0.0","365.7999997138977","","","","50","0,1,1","5","mountain","191","probe-122","0.48489396924628125","1","0.1356082476476116","1","","","","","","","",""
"","html-keyboard-response","471","1741145","0.0-250.0-1.0","null","<p></p>","null","","","","","","","","","","","","","","","","","","",""
"","do_trial","472","1746097","0.0-251.0-0.0","412.5","","","","50","1,0,0","5","mountain","192","probe-142","0.3151954693051529","0.8223444712655882","0.07262948135125664","0","","","","","","","",""
"","html-keyboard-response","473","1747101","0.0-251.0-1.0","null","<p></p>","null","","","","","","","","","","","","","","","","","","",""
"","do_trial","474","1752035","0.0-252.0-0.0","393.69999980926514","","","","50","0,1,1","5","mountain","193","probe-130","0.3261368031967355","0.731037719235342","0.16056146867432858","1","","","","","","","",""
"","html-keyboard-response","475","1753039","0.0-252.0-1.0","null","<p></p>","null","","","","","","","","","","","","","","","","","","",""
"","do_trial","476","1758228","0.0-253.0-0.0","647.6999998092651","","","","50","1,1,0","5","mountain","194","probe-15","0.33684565099272873","0.7037476149594059","0.12326879244457307","1","","","","","","","",""
"","html-keyboard-response","477","1759232","0.0-253.0-1.0","null","<p></p>","null","","","","","","","","","","","","","","","","","","",""
"","do_trial","478","1764242","0.0-254.0-0.0","471.80000019073486","","","","50","0,1,1","5","mountain","195","probe-37","0.3391991746140507","0.7192288681684523","0.09202552449583662","1","","","","","","","",""
"","html-keyboard-response","479","1765246","0.0-254.0-1.0","null","<p></p>","null","","","","","","","","","","","","","","","","","","",""
"","do_trial","480","1770227","0.0-255.0-0.0","443.09999990463257","","","","50","1,1,1","5","mountain","196","probe-03","0.3357534665365132","0.5532654049213597","0.1781274287989164","1","","","","","","","",""
"","html-keyboard-response","481","1771231","0.0-255.0-1.0","null","<p></p>","null","","","","","","","","","","","","","","","","","","",""
"","do_trial","482","1776101","0.0-256.0-0.0","330.80000019073486","","","","50","1,0,0","5","mountain","197","probe-117","0.1604046889454554","0.3650420725496397","0.17069702070510614","0","","","","","","","",""
"","html-keyboard-response","483","1777105","0.0-256.0-1.0","null","<p></p>","null","","","","","","","","","","","","","","","","","","",""
"","do_trial","484","1781981","0.0-257.0-0.0","331.90000009536743","","","","50","0,0,0","5","mountain","198","probe-40","0.2288990330574903","0.34869465189987475","0.057709803831668245","0","","","","","","","",""
"","html-keyboard-response","485","1782985","0.0-257.0-1.0","null","<p></p>","null","","","","","","","","","","","","","","","","","","",""
"","do_trial","486","1787902","0.0-258.0-0.0","374.30000019073486","","","","50","0,0,1","5","mountain","199","probe-210","0.1044033000647689","0.32896542115595845","0.11898103498115674","0","","","","","","","",""
"","html-keyboard-response","487","1788906","0.0-258.0-1.0","null","<p></p>","null","","","","","","","","","","","","","","","","","","",""
"","do_trial","488","1793805","0.0-259.0-0.0","355.40000009536743","","","","51","0,0,0","5","mountain","200","probe-133","0.1365188467886059","0.3611510464398557","0.14755559016433326","0","","","","","","","",""
"","html-keyboard-response","489","1794809","0.0-259.0-1.0","null","<p></p>","null","","","","","","","","","","","","","","","","","","",""
"","do_trial","490","1799691","0.0-260.0-0.0","340.69999980926514","","","","51","0,1,1","5","mountain","201","probe-114","0.21315324509535058","0.27275440882819946","0.20729373437317783","1","","","","","","","",""
"","html-keyboard-response","491","1800695","0.0-260.0-1.0","null","<p></p>","null","","","","","","","","","","","","","","","","","","",""
"","do_trial","492","1805554","0.0-261.0-0.0","317.69999980926514","","","","51","0,0,0","5","mountain","202","probe-204","0.537770201818048","0.20206170443946359","0.17634187225713896","0","","","","","","","",""
"","html-keyboard-response","493","1806566","0.0-261.0-1.0","null","<p></p>","null","","","","","","","","","","","","","","","","","","",""
"","do_trial","494","1811660","0.0-262.0-0.0","521.8000001907349","","","","51","1,0,0","5","mountain","203","probe-200","0.6797142396898105","0.09818542339748597","0.14884165825920176","0","","","","","","","",""
"","html-keyboard-response","495","1812665","0.0-262.0-1.0","null","<p></p>","null","","","","","","","","","","","","","","","","","","",""
"","do_trial","496","1817280","0.0-263.0-0.0","74.60000038146973","","","","50","0,0,0","5","mountain","204","probe-36","0.6877875750211352","0.11058091339860784","0.18029639311484164","0","","","","","","","",""
"","html-keyboard-response","497","1818284","0.0-263.0-1.0","null","<p></p>","null","","","","","","","","","","","","","","","","","","",""
"","do_trial","498","1823258","0.0-264.0-0.0","433.2000002861023","","","","50","1,0,0","5","mountain","205","probe-106","0.5962523319619217","0.10323615585277103","0.3435018416472541","0","","","","","","","",""
"","html-keyboard-response","499","1824263","0.0-264.0-1.0","null","<p></p>","null","","","","","","","","","","","","","","","","","","",""
"","do_trial","500","1829063","0.0-265.0-0.0","260.5","","","","49","1,0,1","5","mountain","206","probe-196","0.6763889779618444","0.0930764328177384","0.4885695026079314","1","","","","","","","",""
"","html-keyboard-response","501","1830067","0.0-265.0-1.0","null","<p></p>","null","","","","","","","","","","","","","","","","","","",""
"","do_trial","502","1834955","0.0-266.0-0.0","345.40000009536743","","","","49","0,0,1","5","mountain","207","probe-125","0.5672150766428594","0.07979612711312001","0.3316541722797413","0","","","","","","","",""
"","html-keyboard-response","503","1835959","0.0-266.0-1.0","null","<p></p>","null","","","","","","","","","","","","","","","","","","",""
"","do_trial","504","1842009","0.0-267.0-0.0","null","","","","null","1,0,0","5","mountain","208","probe-42","0.560027151007486","0.07485217206500684","0.3607769855219463","","","","","","","","",""
"","html-keyboard-response","505","1843012","0.0-267.0-1.0","null","<p></p>","null","","","","","","","","","","","","","","","","","","",""
"","do_trial","506","1847888","0.0-268.0-0.0","337.30000019073486","","","","49","1,0,1","5","mountain","209","probe-44","0.4660668851507091","0.06339362526088195","0.4113771537463321","1","","","","","","","",""
"","html-keyboard-response","507","1848892","0.0-268.0-1.0","null","<p></p>","null","","","","","","","","","","","","","","","","","","",""
"","do_trial","508","1853727","0.0-269.0-0.0","294.19999980926514","","","","49","0,0,0","5","mountain","210","probe-186","0.4611376785910845","0.2291380192399453","0.19176587898078162","0","","","","","","","",""
"","html-keyboard-response","509","1854731","0.0-269.0-1.0","null","<p></p>","null","","","","","","","","","","","","","","","","","","",""
"","do_trial","510","1859561","0.0-270.0-0.0","287.80000019073486","","","","49","0,0,1","5","mountain","211","probe-97","0.6144686911339043","0.2023763181121526","0.20873530014299393","0","","","","","","","",""
"","html-keyboard-response","511","1860565","0.0-270.0-1.0","null","<p></p>","null","","","","","","","","","","","","","","","","","","",""
"","do_trial","512","1865244","0.0-271.0-0.0","139.80000019073486","","","","49","1,0,0","5","mountain","212","probe-96","0.770772225941923","0.1948613085367139","0.23958341033106553","1","","","","","","","",""
"","html-keyboard-response","513","1866248","0.0-271.0-1.0","null","<p></p>","null","","","","","","","","","","","","","","","","","","",""
"","do_trial","514","1870793","0.0-272.0-0.0","0.09999990463256836","","","","49","0,1,1","5","mountain","213","probe-60","0.7707719137765618","0.20299618435387884","0.29126553027583996","0","","","","","","","",""
"","html-keyboard-response","515","1871794","0.0-272.0-1.0","null","<p></p>","null","","","","","","","","","","","","","","","","","","",""
"","do_trial","516","1876342","0.0-273.0-0.0","4.599999904632568","","","","49","1,1,0","5","mountain","214","probe-219","0.7142059800516334","0.19299263366357455","0.29600301223031666","1","","","","","","","",""
"","html-keyboard-response","517","1877347","0.0-273.0-1.0","null","<p></p>","null","","","","","","","","","","","","","","","","","","",""
"","do_trial","518","1881886","0.0-274.0-0.0","0.09999990463256836","","","","49","1,0,0","5","mountain","215","probe-45","0.7379419874052249","0.23916299098032504","0.4475480353722563","1","","","","","","","",""
"","html-keyboard-response","519","1882890","0.0-274.0-1.0","null","<p></p>","null","","","","","","","","","","","","","","","","","","",""
"","do_trial","520","1887679","0.0-275.0-0.0","246.19999980926514","","","","49","1,0,1","5","mountain","216","probe-116","0.5984525363943043","0.1594727020791846","0.42813140163889496","1","","","","","","","",""
"","html-keyboard-response","521","1888681","0.0-275.0-1.0","null","<p></p>","null","","","","","","","","","","","","","","","","","","",""
"","do_trial","522","1893533","0.0-276.0-0.0","313.5","","","","49","0,0,0","5","mountain","217","probe-56","0.5217256280407978","0.21864389605454768","0.21558708566268067","0","","","","","","","",""
"","html-keyboard-response","523","1894537","0.0-276.0-1.0","null","<p></p>","null","","","","","","","","","","","","","","","","","","",""
"","do_trial","524","1899081","0.0-277.0-0.0","0.10000038146972656","","","","49","1,0,0","5","mountain","218","probe-175","0.3824824418526792","0.056181619681035605","0.11686581266592418","1","","","","","","","",""
"","html-keyboard-response","525","1900084","0.0-277.0-1.0","null","<p></p>","null","","","","","","","","","","","","","","","","","","",""
"","do_trial","526","1904669","0.0-278.0-0.0","44.19999980926514","","","","49","0,0,0","5","mountain","219","probe-51","0.4587308138534821","0.1831466079414665","0.23968301260200664","0","","","","","","","",""
"","html-keyboard-response","527","1905673","0.0-278.0-1.0","null","<p></p>","null","","","","","","","","","","","","","","","","","","",""
"","do_trial","528","1910235","0.0-279.0-0.0","23.90000009536743","","","","49","1,0,1","5","mountain","220","probe-166","0.5762919511160947","0.08050682351835949","0.33874403244349305","1","","","","","","","",""
"","html-keyboard-response","529","1911240","0.0-279.0-1.0","null","<p></p>","null","","","","","","","","","","","","","","","","","","",""
