"success","trial_type","trial_index","time_elapsed","internal_node_id","rt","stimulus","key_press","subject_id","response","choice_outcomes","context_n","context_img_id","trial_n","probe_img_id","pR_red","pR_white","pR_black","outcome","contextArray_ind","validImageProbes","invalidImageProbes","pRew_Red","pRew_White","pRew_Black","availableForMemProbe","choice_blocks"
"true","fullscreen","0","93445","0.0-0.0","","","","","","","","","","","","","","","","","","","","","",""
"","pavlovia","1","93453","0.0-1.0","","","","","","","","","","","","","","","","","","","","","",""
"","html-keyboard-response","2","95907","0.0-2.0","2449.8999999910593","<div class='center'><p>Welcome! This is the first day of the experiment which will last ~30 minutes. In this experiment, you are the head captain of a pirate ship traveling around the world to different places. You will complete several different tasks during this experiment. Here is an overview of these tasks:</p><br><p>Day 1</p><p>1. Tutorial and quiz</p><p>2. Pick a pirate game in 6 different places</p><br><p>Day 2</p><p>3. Pick a pirate game and memory game</p><p>4. Final questions and payment</p><br><p>If you complete the entire experiment, you will receive $15 and a possible bonus payment.</p><p><b>[Press the space bar to begin the tutorial]</b></p></div>","32","611c124acdaad98b08583d3a","","","","","","","","","","","","","","","","","",""
"","html-keyboard-response","3","106345","0.0-3.0","10436.20000000298","<div class='center'><p>You’ll stop at these 6 islands on your journey. You'll be able to see them in the distance from your ship.</p><p><img src='run_exp/static/images/contexts/all_contexts.png' height='500'></p><p><b>[Press the space bar to continue]</b></p></div>","32","","","","","","","","","","","","","","","","","","",""
"","html-keyboard-response","4","109516","0.0-4.0","3168.7999999970198","<div class='center'><p> The pirates on your ship will rob other ships as they leave island</p> These ships have just sold their things to the people living on the island, so they will have lots and lots of gold on them.</p><p><img src='run_exp/static/images/tutorial/ship_center.png' height='400'></p><p><b>[Press the space bar to continue]</b></p></div>","32","","","","","","","","","","","","","","","","","","",""
"","html-keyboard-response","5","112924","0.0-5.0","3404.1000000089407","<div class='center'><p>As the head captain, you do not have to rob any ships yourself.</p><p>Another pirate will be doing the robbing for you. </p><p><img src='run_exp/static/images/tutorial/pirates_all_crop.png' height='200'></p><p>If they could rob the ship, then you will get a stack of gold coins like this:</p><p><img src='run_exp/static/images/tutorial/reward.png' height='150'></p><p> If they couldn't rob the ship, then you will get no gold coins and you'll see a big red x like this: </p><p><img src='run_exp/static/images/tutorial/reward_no.png' height='150'></p><p> How much bonus money you make is based on how many gold coins you collect.</p><p><b>[Press the space bar to continue]</b></p><div>","32","","","","","","","","","","","","","","","","","","",""
"","html-keyboard-response","6","117176","0.0-6.0","4249.5","<div class='center'><p>Even the most skilled pirate can not rob EVERY ship.</p><p> Some ships will have very strong defenses against pirate attacks.</p><p> For example, blue beard, here, is very, very good at robbing ships.</p><p> You can press the <b>‘1’</b> button on the keyboard to choose him.</p><p> Try choosing him 10 times to see how often he can rob a ship. </p><p><img src='run_exp/static/images/tutorial/blue.png' height='500'></p></div>","49","","","","","","","","","","","","","","","","","","",""
"","html-keyboard-response","7","118679","0.0-7.0","null","<div class='center'><p><img src='run_exp/static/images/tutorial/blue_win.png' height='500'></p></div>","null","","","","","","","","","","","","","","","","","","",""
"","html-keyboard-response","8","119593","0.0-8.0","911.3999999910593","<div class='center'><img src='run_exp/static/images/tutorial/blue.png' height='500'></p></div>","49","","","","","","","","","","","","","","","","","","",""
"","html-keyboard-response","9","121095","0.0-9.0","null","<div class='center'><p><img src='run_exp/static/images/tutorial/blue_win.png' height='500'></p></div>","null","","","","","","","","","","","","","","","","","","",""
"","html-keyboard-response","10","121472","0.0-10.0","374.29999999701977","<div class='center'><img src='run_exp/static/images/tutorial/blue.png' height='500'></p></div>","49","","","","","","","","","","","","","","","","","","",""
"","html-keyboard-response","11","122974","0.0-11.0","null","<div class='center'><p><img src='run_exp/static/images/tutorial/blue_win.png' height='500'></p></div>","null","","","","","","","","","","","","","","","","","","",""
"","html-keyboard-response","12","124159","0.0-12.0","1182.4000000059605","<div class='center'><img src='run_exp/static/images/tutorial/blue.png' height='500'></p></div>","49","","","","","","","","","","","","","","","","","","",""
"","html-keyboard-response","13","125661","0.0-13.0","null","<div class='center'><p><img src='run_exp/static/images/tutorial/blue_no_win.png' height='500'></p></div>","null","","","","","","","","","","","","","","","","","","",""
"","html-keyboard-response","14","126263","0.0-14.0","599.1999999880791","<div class='center'><img src='run_exp/static/images/tutorial/blue.png' height='500'></p></div>","49","","","","","","","","","","","","","","","","","","",""
"","html-keyboard-response","15","127765","0.0-15.0","null","<div class='center'><p><img src='run_exp/static/images/tutorial/blue_win.png' height='500'></p></div>","null","","","","","","","","","","","","","","","","","","",""
"","html-keyboard-response","16","128965","0.0-16.0","1197","<div class='center'><img src='run_exp/static/images/tutorial/blue.png' height='500'></p></div>","49","","","","","","","","","","","","","","","","","","",""
"","html-keyboard-response","17","130467","0.0-17.0","null","<div class='center'><p><img src='run_exp/static/images/tutorial/blue_win.png' height='500'></p></div>","null","","","","","","","","","","","","","","","","","","",""
"","html-keyboard-response","18","139172","0.0-18.0","8702.59999999404","<div class='center'><img src='run_exp/static/images/tutorial/blue.png' height='500'></p></div>","49","","","","","","","","","","","","","","","","","","",""
"","html-keyboard-response","19","140675","0.0-19.0","null","<div class='center'><p><img src='run_exp/static/images/tutorial/blue_win.png' height='500'></p></div>","null","","","","","","","","","","","","","","","","","","",""
"","html-keyboard-response","20","147054","0.0-20.0","6376.29999999702","<div class='center'><img src='run_exp/static/images/tutorial/blue.png' height='500'></p></div>","49","","","","","","","","","","","","","","","","","","",""
"","html-keyboard-response","21","148556","0.0-21.0","null","<div class='center'><p><img src='run_exp/static/images/tutorial/blue_no_win.png' height='500'></p></div>","null","","","","","","","","","","","","","","","","","","",""
"","html-keyboard-response","22","151925","0.0-22.0","3367","<div class='center'><img src='run_exp/static/images/tutorial/blue.png' height='500'></p></div>","49","","","","","","","","","","","","","","","","","","",""
"","html-keyboard-response","23","153427","0.0-23.0","null","<div class='center'><p><img src='run_exp/static/images/tutorial/blue_win.png' height='500'></p></div>","null","","","","","","","","","","","","","","","","","","",""
"","html-keyboard-response","24","165036","0.0-24.0","11606.300000011921","<div class='center'><img src='run_exp/static/images/tutorial/blue.png' height='500'></p></div>","49","","","","","","","","","","","","","","","","","","",""
"","html-keyboard-response","25","166538","0.0-25.0","null","<div class='center'><p><img src='run_exp/static/images/tutorial/blue_win.png' height='500'></p></div>","null","","","","","","","","","","","","","","","","","","",""
"","html-keyboard-response","26","167549","0.0-26.0","1009.3999999910593","<div class='center'><p> See, he could rob the ships most of the time but not every time. </p><p><b>[Press the space bar to continue]</b></p></div>","32","","","","","","","","","","","","","","","","","","",""
"","html-keyboard-response","27","171566","0.0-27.0","4015.0999999940395","<div class='center'><p>You will get to choose which of three pirates you want to rob the next ship. <p>Press the <b>‘1’</b> button on your keyboard to pick the pirate with the red beard.</p><p> Press <b>‘2’</b> to pick the pirate with the white beard.</p><p> Press <b>‘3’</b> to pick the pirate with the black beard.</p><p>Try picking a pirate now!</p><p><img src='run_exp/static/images/tutorial/all_pirates.png' height='500'></p></div>","49","","","","","","","","","","","","","","","","","","",""
"","html-keyboard-response","28","173534","0.0-28.0-0.0","1964","<div class='center'><p>This pirate could rob the ship!</p><p><img src='run_exp/static/images/tutorial/red_win.png' height='500'></p><p><b>[Press the space bar to continue]</b></p></div>","32","","","","","","","","","","","","","","","","","","",""
"","html-keyboard-response","29","174414","0.0-28.0-1.0","877.9000000059605","<div class='center'><p>Now try choosing another</p><p><img src='run_exp/static/images/tutorial/all_pirates.png' height='500'></p></div>","50","","","","","","","","","","","","","","","","","","",""
"","html-keyboard-response","30","175206","0.0-29.0-0.0","788.3999999910593","<div class='center'><p>This pirate could not rob the ship!</p><p><img src='run_exp/static/images/tutorial/white_no_win.png' height='500'></p><p><b>[Press the space bar to continue]</b></p></div>","32","","","","","","","","","","","","","","","","","","",""
"","html-keyboard-response","31","176814","0.0-30.0-0.0","1605.5999999940395","<div class='center'><p>If you don’t make your choice fast enough, you’ll have to wait a few seconds before you can make another one. </p><p>You can’t collect more gold coins. You just have to sit and wait.</p><p><img src='run_exp/static/images/miscellaneous/hurry_up.png' height='500'></p><p><b>[Press the space bar to continue]</b></p></div>","32","","","","","","","","","","","","","","","","","","",""
"","html-keyboard-response","32","183657","0.0-30.0-1.0","6841.29999999702","<div class='center'><p>Once you choose a pirate, you’ll be shown the ship they are robbing.</p><p>You will never rob the same ship twice.</p><p>Ships can be told apart from one another by the image on them.</p><p> Every time you see a ship, you will have to remember on which island you saw it.</p><p> Remembering correctly will help you win more bonus money!</p><p>A helpful strategy is to try to come up with a story of the object on the ship interacting with the current island scene.</p><p> For example, here, you could imagine a mug full of water in the desert. </p><p>For a ship with an apple on it on the forest island, you could imagine an apple falling from a tree in the forest.</p><p><img src='run_exp/static/images/tutorial/example_probe.png' height='500'></p><p><b>[Press the space bar to continue]</b></p></div>","32","","","","","","","","","","","","","","","","","","",""
"","html-keyboard-response","33","190003","0.0-30.0-2.0","6344.5","<div class='center'><p>How good a pirate is at robbing ships will depend on the current island.</p><p> A pirate may have visited the island many times before and gained a lot of practice robbing ships there.</p><p>So, they're more likely to bring back gold coins than a pirate who has never visited this island before. </p><p><b>[Press the space bar to continue]</b></p></div>","32","","","","","","","","","","","","","","","","","","",""
"","html-keyboard-response","34","194049","0.0-30.0-3.0","4043.2999999970198","<div class='center'><p>How good a pirate is at robbing ships can also change over the time spent on the island<p> Ships may hear from islanders about the pirates coming and will improve their protection against the attack. This may make it harder to rob them.</p><p> Ships may also become lazy and lower their protection. This may make it easier to rob them.</p><br><p>Things are always changing on the high seas! So, try your best to pay attention!</p><p><img src='run_exp/static/images/tutorial/contingency.png' height='500'></p><p><b>[Press the space bar to continue]</b></p></div>","32","","","","","","","","","","","","","","","","","","",""
"","html-keyboard-response","35","214530","0.0-30.0-4.0","20479.70000000298","<div class='center'><p>Let's go over the instructions quickly again.You have two important things to do: </p><b><p> 1. Pick the pirate who is the best at robbing ships on the current island.</p></b><b><p> 2. Remember on which island a ship was robbed.</p> </b><p>How much bonus money you make is based on both. </p><br><p>Let’s try a practice game. The game will start by showing you the pirates. First pick a pirate using the <b> 1, 2, 3 </b> buttons on your keyboard. When you are shown a ship, try to remember the island you’re on by making up a story.</p><p> You only have 3 seconds to pick a pirate, so please make a choice quickly! If you are too slow, you’ll have to wait a bit during the time out.</p><p> Don’t feel rushed, but please do try to make a choice every time.</p><p>This is just a practice game, so you’re not playing for money. </p><p> Good luck, remember press <b>'1'</b> to choose red beard, <b>'2'</b> to choose white beard, and <b>'3'</b> to choose black beard</p><p><b>[Press the space bar to begin the practice game]</b></p></div>","32","","","","","","","","","","","","","","","","","","",""
"","do_welcome","36","216040","0.0-30.0-5.0","null","","","","null","","","","","","","","","","","","","","","","",""
"","do_trial","37","221165","0.0-30.0-6.0","611.3999999910593","","","","49","1,0,0","","","","","","","","","","","","","","","",""
"","html-keyboard-response","38","222167","0.0-31.0-0.0","null","<p></p>","null","","","","","","","","","","","","","","","","","","",""
"","do_trial","39","227668","0.0-31.0-1.0","991.7999999970198","","","","49","1,1,0","","","","","","","","","","","","","","","",""
"","html-keyboard-response","40","228671","0.0-32.0-0.0","null","<p></p>","null","","","","","","","","","","","","","","","","","","",""
"","do_trial","41","233777","0.0-32.0-1.0","594.7999999970198","","","","49","1,0,1","","","","","","","","","","","","","","","",""
"","html-keyboard-response","42","234779","0.0-33.0-0.0","null","<p></p>","null","","","","","","","","","","","","","","","","","","",""
"","do_trial","43","240790","0.0-33.0-1.0","null","","","","null","0,1,0","","","","","","","","","","","","","","","",""
"","html-keyboard-response","44","241792","0.0-34.0-0.0","null","<p></p>","null","","","","","","","","","","","","","","","","","","",""
"","do_trial","45","246701","0.0-34.0-1.0","399.79999999701977","","","","49","0,1,0","","","","","","","","","","","","","","","",""
"","html-keyboard-response","46","247704","0.0-35.0-0.0","null","<p></p>","null","","","","","","","","","","","","","","","","","","",""
"","do_trial","47","253267","0.0-35.0-1.0","1054.0999999940395","","","","49","1,0,0","","","","","","","","","","","","","","","",""
"","do_bye","48","254775","0.0-36.0-0.0","null","","","","null","","","","","","","","","","","","","","","","",""
"","do_travel","49","260778","0.0-36.0-1.0","null","","","","null","","","","","","","","","","","","","","","","",""
"","do_welcome","50","262287","0.0-36.0-2.0","null","","","","null","","","","","","","","","","","","","","","","",""
"","do_trial","51","268413","0.0-36.0-3.0","1616.7999999970198","","","","50","1,0,0","","","","","","","","","","","","","","","",""
"","html-keyboard-response","52","269416","0.0-37.0-0.0","null","<p></p>","null","","","","","","","","","","","","","","","","","","",""
"","do_trial","53","275326","0.0-37.0-1.0","1401.7999999970198","","","","49","1,0,1","","","","","","","","","","","","","","","",""
"","html-keyboard-response","54","276329","0.0-38.0-0.0","null","<p></p>","null","","","","","","","","","","","","","","","","","","",""
"","do_trial","55","281621","0.0-38.0-1.0","781.7999999970198","","","","51","1,1,0","","","","","","","","","","","","","","","",""
"","html-keyboard-response","56","282624","0.0-39.0-0.0","null","<p></p>","null","","","","","","","","","","","","","","","","","","",""
"","do_trial","57","288633","0.0-39.0-1.0","null","","","","null","0,0,1","","","","","","","","","","","","","","","",""
"","html-keyboard-response","58","289636","0.0-40.0-0.0","null","<p></p>","null","","","","","","","","","","","","","","","","","","",""
"","do_trial","59","294567","0.0-40.0-1.0","421.5","","","","49","0,0,1","","","","","","","","","","","","","","","",""
"","html-keyboard-response","60","295569","0.0-41.0-0.0","null","<p></p>","null","","","","","","","","","","","","","","","","","","",""
"","do_trial","61","301275","0.0-41.0-1.0","1195.2000000029802","","","","50","1,0,1","","","","","","","","","","","","","","","",""
"","html-keyboard-response","62","303436","0.0-42.0-0.0","2156.5","<div class='center'><p><img src='run_exp/static/images/tutorial/prac_best_pirate.png'  height='500'></p></div>","49","","","","","","","","","","","","","","","","","","",""
"","html-keyboard-response","63","304874","0.0-43.0-0.0","1436.2999999970198","<div class='center'><p>That's correct! Red beard was the best.</p><p><b>[Press the space bar to continue]</b></p></div>","32","","","","","","","","","","","","","","","","","","",""
"","html-keyboard-response","64","307601","0.0-43.0-1.0","2725","<div class='center'><p><img src='run_exp/static/images/tutorial/prac_source.png'  height='500'></p></div>","50","","","","","","","","","","","","","","","","","","",""
"","html-keyboard-response","65","308538","0.0-44.0-0.0","933.7999999970198","<div class='center'><p>That's correct! You saw this ship on the cavern island.</p><p><b>[Press the space bar to continue]</b></p></div>","32","","","","","","","","","","","","","","","","","","",""
"","html-keyboard-response","66","312864","0.0-44.0-1.0","4325.4000000059605","<div class='center'><p>Good job on the practice game! Now, you will be asked you some true or false questions to make sure you really understand the rules of the game.</p><p> Press <b>'1'</b> on the keyboard for true and press <b>'2'</b> for false.</p><p><b>[Press the space bar to begin the quiz]</b></p></div>","32","","","","","","","","","","","","","","","","","","",""
"","html-keyboard-response","67","316118","0.0-44.0-2.0","3251.4000000059605","<div class='center'><p>You win bonus money by making choices as fast as possible.</p><p>Press 1 for true and press  2 for false.</p></div>","50","","","","","","","","","","","","","","","","","","",""
"","html-keyboard-response","68","316791","0.0-45.0-0.0","670.5","<div class='center'><p>That's correct!</p> <p><b>[press the space bar to continue with the quiz]</b></p></div>","32","","","","","","","","","","","","","","","","","","",""
"","html-keyboard-response","69","318772","0.0-45.0-1.0","1979.2000000029802","<div class='center'><p>You press the <b>‘3’</b> button on the keyboard to choose the red bearded pirate. </p><p>Press 1 for true and press  2 for false.</p></div>","50","","","","","","","","","","","","","","","","","","",""
"","html-keyboard-response","70","319125","0.0-46.0-0.0","346.29999999701977","<div class='center'><p>That's correct!</p> <p><b>[press the space bar to continue with the quiz]</b></p></div>","32","","","","","","","","","","","","","","","","","","",""
"","html-keyboard-response","71","321993","0.0-46.0-1.0","2866.7999999970198","<div class='center'><p>The pirate who is the best at robbing ships on the first island will be the best on every other island.</p><p>Press 1 for true and press  2 for false.</p></div>","50","","","","","","","","","","","","","","","","","","",""
"","html-keyboard-response","72","322417","0.0-47.0-0.0","421.90000000596046","<div class='center'><p>That's correct!</p> <p><b>[press the space bar to continue with the quiz]</b></p></div>","32","","","","","","","","","","","","","","","","","","",""
"","html-keyboard-response","73","324825","0.0-47.0-1.0","2405.4000000059605","<div class='center'><p>You should remember the island where a pirate robbed a ship.</p><p>Press 1 for true and press  2 for false.</p></div>","50","","","","","","","","","","","","","","","","","","",""
"","html-keyboard-response","74","325791","0.0-48.0-0.0","962.7999999970198","<div class='center'><p>That’s incorrect! You should remember the island where a pirate robbed a ship. You can try associating the object on the ship with the island to better remember.</p><p><b>[press the space bar to continue with the quiz]</b></p></div>","32","","","","","","","","","","","","","","","","","","",""
"","html-keyboard-response","75","330113","0.0-49.0-0.0","4320.79999999702","<div class='center'><p>Oops, you missed some questions. Now that you’ve heard the correct answers. Try the quiz again! If you fail the quiz too many times, you won’t be able to do the experiment. </p> <p><br>[press the space bar to repeat the quiz]</br></p></div>","32","","","","","","","","","","","","","","","","","","",""
"","html-keyboard-response","76","332072","0.0-49.0-1.0","1956.2999999970198","<div class='center'><p>You win bonus money by making choices as fast as possible.</p><p>Press 1 for true and press  2 for false.</p></div>","50","","","","","","","","","","","","","","","","","","",""
"","html-keyboard-response","77","332608","0.0-50.0-0.0","534.5999999940395","<div class='center'><p>That's correct!</p> <p><b>[press the space bar to continue with the quiz]</b></p></div>","32","","","","","","","","","","","","","","","","","","",""
"","html-keyboard-response","78","333932","0.0-50.0-1.0","1322.2000000029802","<div class='center'><p>You press the <b>‘3’</b> button on the keyboard to choose the red bearded pirate. </p><p>Press 1 for true and press  2 for false.</p></div>","50","","","","","","","","","","","","","","","","","","",""
"","html-keyboard-response","79","334413","0.0-51.0-0.0","478.79999999701977","<div class='center'><p>That's correct!</p> <p><b>[press the space bar to continue with the quiz]</b></p></div>","32","","","","","","","","","","","","","","","","","","",""
"","html-keyboard-response","80","340367","0.0-51.0-1.0","5951.79999999702","<div class='center'><p>The pirate who is the best at robbing ships on the first island will be the best on every other island.</p><p>Press 1 for true and press  2 for false.</p></div>","50","","","","","","","","","","","","","","","","","","",""
"","html-keyboard-response","81","341578","0.0-52.0-0.0","1209.9000000059605","<div class='center'><p>That's correct!</p> <p><b>[press the space bar to continue with the quiz]</b></p></div>","32","","","","","","","","","","","","","","","","","","",""
"","html-keyboard-response","82","343658","0.0-52.0-1.0","2077.8999999910593","<div class='center'><p>You should remember the island where a pirate robbed a ship.</p><p>Press 1 for true and press  2 for false.</p></div>","49","","","","","","","","","","","","","","","","","","",""
"","html-keyboard-response","83","344125","0.0-53.0-0.0","453.70000000298023","<div class='center'><p>That's correct!</p> <p><b>[press the space bar to continue with the quiz]</b></p></div>","32","","","","","","","","","","","","","","","","","","",""
"","html-keyboard-response","84","345099","0.0-54.0-0.0","972","<div class='center'><p>Good job! You’re now ready to move on to the real game!</p> <p><br>[press the space bar to begin!]</br></p></div>","32","","","","","","","","","","","","","","","","","","",""
"","do_welcome","85","346606","0.0-55.0-0.0","null","","","","null","","","","","","","","","","","","","","","","",""
"","do_trial","86","352301","0.0-56.0-0.0","1126","","","","49","0,0,0","0","forest","0","probe-50","0.6","0.3","0.1","0","","","","","","","",""
"","html-keyboard-response","87","353304","0.0-56.0-1.0","null","<p></p>","null","","","","","","","","","","","","","","","","","","",""
"","do_trial","88","358767","0.0-57.0-0.0","896.8999999910593","","","","49","1,0,0","0","forest","1","probe-186","0.5121681388026875","0.37276783007187264","0.09604720391841749","1","","","","","","","",""
"","html-keyboard-response","89","359770","0.0-57.0-1.0","null","<p></p>","null","","","","","","","","","","","","","","","","","","",""
"","do_trial","90","364863","0.0-58.0-0.0","529.7999999970198","","","","51","1,0,0","0","forest","2","probe-170","0.4705237418803298","0.3574055868578185","0.06464371186606288","0","","","","","","","",""
"","html-keyboard-response","91","365865","0.0-58.0-1.0","null","<p></p>","null","","","","","","","","","","","","","","","","","","",""
"","do_trial","92","370858","0.0-59.0-0.0","428.19999998807907","","","","50","0,0,0","0","forest","3","probe-100","0.510536380779167","0.4019060274003433","0.11235575233020423","0","","","","","","","",""
"","html-keyboard-response","93","371860","0.0-59.0-1.0","null","<p></p>","null","","","","","","","","","","","","","","","","","","",""
"","do_trial","94","376770","0.0-60.0-0.0","343.79999999701977","","","","49","1,1,0","0","forest","4","probe-93","0.6010941791246577","0.5203927506774485","0.06239843517801894","1","","","","","","","",""
"","html-keyboard-response","95","377773","0.0-60.0-1.0","null","<p></p>","null","","","","","","","","","","","","","","","","","","",""
"","do_trial","96","382714","0.0-61.0-0.0","377.40000000596046","","","","49","0,0,0","0","forest","5","probe-95","0.6155773293983264","0.3864035241911379","0.1086833573067533","0","","","","","","","",""
"","html-keyboard-response","97","383716","0.0-61.0-1.0","null","<p></p>","null","","","","","","","","","","","","","","","","","","",""
"","do_trial","98","389243","0.0-62.0-0.0","959.0999999940395","","","","50","0,0,1","0","forest","6","probe-85","0.6503170671200836","0.29208404903701224","0.30912003799627064","0","","","","","","","",""
"","html-keyboard-response","99","390245","0.0-62.0-1.0","null","<p></p>","null","","","","","","","","","","","","","","","","","","",""
"","do_trial","100","395082","0.0-63.0-0.0","273.3999999910593","","","","49","1,1,0","0","forest","7","probe-29","0.6975817971668684","0.31962457995531707","0.2656366528349941","1","","","","","","","",""
"","html-keyboard-response","101","396084","0.0-63.0-1.0","null","<p></p>","null","","","","","","","","","","","","","","","","","","",""
"","do_trial","102","401359","0.0-64.0-0.0","710.2999999970198","","","","51","1,0,0","0","forest","8","probe-190","0.7099728143028802","0.19129348337920796","0.20798464951968376","0","","","","","","","",""
"","html-keyboard-response","103","402362","0.0-64.0-1.0","null","<p></p>","null","","","","","","","","","","","","","","","","","","",""
"","do_trial","104","407300","0.0-65.0-0.0","374.8999999910593","","","","50","1,0,1","0","forest","9","probe-145","0.5688210560852665","0.2341901183207096","0.26065159259989285","0","","","","","","","",""
"","html-keyboard-response","105","408303","0.0-65.0-1.0","null","<p></p>","null","","","","","","","","","","","","","","","","","","",""
"","do_trial","106","413237","0.0-66.0-0.0","369.29999999701977","","","","49","1,0,1","0","forest","10","probe-218","0.7469264141125873","0.24005810697127594","0.3016741988027462","1","","","","","","","",""
"","html-keyboard-response","107","414240","0.0-66.0-1.0","null","<p></p>","null","","","","","","","","","","","","","","","","","","",""
"","do_trial","108","419347","0.0-67.0-0.0","542.7000000029802","","","","49","0,0,0","0","forest","11","probe-65","0.632885436318932","0.2684568346110488","0.1564145521270211","0","","","","","","","",""
"","html-keyboard-response","109","420350","0.0-67.0-1.0","null","<p></p>","null","","","","","","","","","","","","","","","","","","",""
"","do_trial","110","425485","0.0-68.0-0.0","572.5999999940395","","","","49","1,0,0","0","forest","12","probe-182","0.7116855774106855","0.2732801660783257","0.22755702589714338","1","","","","","","","",""
"","html-keyboard-response","111","426488","0.0-68.0-1.0","null","<p></p>","null","","","","","","","","","","","","","","","","","","",""
"","do_trial","112","432477","0.0-69.0-0.0","1424.3999999910593","","","","49","1,0,0","0","forest","13","probe-76","0.6624257287243807","0.26139712850572705","0.291366460330802","1","","","","","","","",""
"","html-keyboard-response","113","433479","0.0-69.0-1.0","null","<p></p>","null","","","","","","","","","","","","","","","","","","",""
"","do_trial","114","438409","0.0-70.0-0.0","363.8999999910593","","","","49","0,1,0","0","forest","14","probe-184","0.6347386754523119","0.2613127370413156","0.15857908199762527","0","","","","","","","",""
"","html-keyboard-response","115","439412","0.0-70.0-1.0","null","<p></p>","null","","","","","","","","","","","","","","","","","","",""
"","do_trial","116","444515","0.0-71.0-0.0","537.2999999970198","","","","49","1,0,0","0","forest","15","probe-44","0.6157690397493971","0.20970237469453523","0.11064723873743418","1","","","","","","","",""
"","html-keyboard-response","117","445517","0.0-71.0-1.0","null","<p></p>","null","","","","","","","","","","","","","","","","","","",""
"","do_trial","118","450764","0.0-72.0-0.0","681","","","","49","1,0,0","0","forest","16","probe-153","0.6177398890828927","0.19863349751410198","0.08698181048048662","1","","","","","","","",""
"","html-keyboard-response","119","451766","0.0-72.0-1.0","null","<p></p>","null","","","","","","","","","","","","","","","","","","",""
"","do_trial","120","457872","0.0-73.0-0.0","1541.2999999970198","","","","49","1,0,0","0","forest","17","probe-04","0.5707694741497322","0.10254591511390135","0.1232985524124227","1","","","","","","","",""
"","html-keyboard-response","121","458874","0.0-73.0-1.0","null","<p></p>","null","","","","","","","","","","","","","","","","","","",""
"","do_trial","122","464081","0.0-74.0-0.0","639.2000000029802","","","","49","1,0,1","0","forest","18","probe-163","0.5815020206781278","0.0575703858715843","0.18478869971732764","1","","","","","","","",""
"","html-keyboard-response","123","465084","0.0-74.0-1.0","null","<p></p>","null","","","","","","","","","","","","","","","","","","",""
"","do_trial","124","470192","0.0-75.0-0.0","545","","","","49","1,0,1","0","forest","19","probe-71","0.5642330952553417","0.20386111360260942","0.2643867834443072","1","","","","","","","",""
"","html-keyboard-response","125","471195","0.0-75.0-1.0","null","<p></p>","null","","","","","","","","","","","","","","","","","","",""
"","do_trial","126","476692","0.0-76.0-0.0","930.8999999910593","","","","49","1,0,0","0","forest","20","probe-107","0.5410232561110376","0.13200256453812043","0.0851222721434224","1","","","","","","","",""
"","html-keyboard-response","127","477694","0.0-76.0-1.0","null","<p></p>","null","","","","","","","","","","","","","","","","","","",""
"","do_trial","128","482717","0.0-77.0-0.0","453.69999998807907","","","","49","0,1,0","0","forest","21","probe-178","0.6561387483286956","0.32999863297656085","0.10150505412223995","0","","","","","","","",""
"","html-keyboard-response","129","483719","0.0-77.0-1.0","null","<p></p>","null","","","","","","","","","","","","","","","","","","",""
"","do_trial","130","488949","0.0-78.0-0.0","663.9000000059605","","","","49","1,1,0","0","forest","22","probe-53","0.6818798406550787","0.3870607810299642","0.12701887505298864","1","","","","","","","",""
"","html-keyboard-response","131","489951","0.0-78.0-1.0","null","<p></p>","null","","","","","","","","","","","","","","","","","","",""
"","do_trial","132","495606","0.0-79.0-0.0","1090.9000000059605","","","","49","1,0,0","0","forest","23","probe-06","0.7583109498666714","0.2792064003018286","0.14135009097942663","1","","","","","","","",""
"","html-keyboard-response","133","496609","0.0-79.0-1.0","null","<p></p>","null","","","","","","","","","","","","","","","","","","",""
"","do_trial","134","502293","0.0-80.0-0.0","1115.7000000029802","","","","49","1,0,0","0","forest","24","probe-106","0.7065658774993621","0.31839646101880703","0.12225544257937712","1","","","","","","","",""
"","html-keyboard-response","135","503295","0.0-80.0-1.0","null","<p></p>","null","","","","","","","","","","","","","","","","","","",""
"","do_trial","136","508851","0.0-81.0-0.0","990.2999999970198","","","","49","1,0,0","0","forest","25","probe-27","0.6057666388679376","0.3662017151398782","0.20962522484850626","1","","","","","","","",""
"","html-keyboard-response","137","509854","0.0-81.0-1.0","null","<p></p>","null","","","","","","","","","","","","","","","","","","",""
"","do_trial","138","514985","0.0-82.0-0.0","567.4000000059605","","","","49","1,0,0","0","forest","26","probe-177","0.6506762741506004","0.30697118108595683","0.24276132954597285","1","","","","","","","",""
"","html-keyboard-response","139","515988","0.0-82.0-1.0","null","<p></p>","null","","","","","","","","","","","","","","","","","","",""
"","do_trial","140","521258","0.0-83.0-0.0","704.3000000119209","","","","49","0,0,0","0","forest","27","probe-10","0.6555605432843348","0.13950790349003012","0.12317905427231289","0","","","","","","","",""
"","html-keyboard-response","141","522261","0.0-83.0-1.0","null","<p></p>","null","","","","","","","","","","","","","","","","","","",""
"","do_trial","142","527362","0.0-84.0-0.0","534.5999999940395","","","","50","1,0,0","0","forest","28","probe-220","0.7042502684448617","0.1698066679171912","0.08617381086522417","0","","","","","","","",""
"","html-keyboard-response","143","528364","0.0-84.0-1.0","null","<p></p>","null","","","","","","","","","","","","","","","","","","",""
"","do_trial","144","533630","0.0-85.0-0.0","698.7000000029802","","","","51","0,0,0","0","forest","29","probe-83","0.6741161010800665","0.22763227248368736","0.07402425098859358","0","","","","","","","",""
"","html-keyboard-response","145","534632","0.0-85.0-1.0","null","<p></p>","null","","","","","","","","","","","","","","","","","","",""
"","do_bye","146","536140","0.0-86.0-0.0","null","","","","null","","","","","","","","","","","","","","","","",""
"","do_travel","147","542142","0.0-87.0-0.0","null","","","","null","","","","","","","","","","","","","","","","",""
"","do_welcome","148","543649","0.0-87.0-1.0","null","","","","null","","","","","","","","","","","","","","","","",""
"","do_trial","149","549796","0.0-88.0-0.0","1582.800000011921","","","","50","1,0,1","1","countryside","30","probe-56","1","0.33926652211928243","0.18879680171911437","0","","","","","","","",""
"","html-keyboard-response","150","550799","0.0-88.0-1.0","null","<p></p>","null","","","","","","","","","","","","","","","","","","",""
"","do_trial","151","557318","0.0-89.0-0.0","1953.300000011921","","","","51","1,0,0","1","countryside","31","probe-91","1","0.4613318169185506","0.16774200616189539","0","","","","","","","",""
"","html-keyboard-response","152","558320","0.0-89.0-1.0","null","<p></p>","null","","","","","","","","","","","","","","","","","","",""
"","do_trial","153","563369","0.0-90.0-0.0","477","","","","51","1,0,0","1","countryside","32","probe-217","1","0.31260704337220835","0.1582459136268305","0","","","","","","","",""
"","html-keyboard-response","154","564372","0.0-90.0-1.0","null","<p></p>","null","","","","","","","","","","","","","","","","","","",""
"","do_trial","155","569762","0.0-91.0-0.0","827","","","","51","1,0,0","1","countryside","33","probe-37","0.9435239687642534","0.40381433105433273","0.16260083558647628","0","","","","","","","",""
"","html-keyboard-response","156","570764","0.0-91.0-1.0","null","<p></p>","null","","","","","","","","","","","","","","","","","","",""
"","do_trial","157","575912","0.0-92.0-0.0","583.7999999970198","","","","51","1,0,0","1","countryside","34","probe-196","0.877550961375562","0.3009217153235547","0.2011017369159763","0","","","","","","","",""
"","html-keyboard-response","158","576914","0.0-92.0-1.0","null","<p></p>","null","","","","","","","","","","","","","","","","","","",""
"","do_trial","159","582010","0.0-93.0-0.0","529.7000000029802","","","","51","1,0,0","1","countryside","35","probe-154","0.8248670154510009","0.25709643586035946","0.18616165228646067","0","","","","","","","",""
"","html-keyboard-response","160","583012","0.0-93.0-1.0","null","<p></p>","null","","","","","","","","","","","","","","","","","","",""
"","do_trial","161","588152","0.0-94.0-0.0","573.2000000029802","","","","50","1,1,0","1","countryside","36","probe-103","0.7886532987755791","0.2391607530086832","0.1598726328337162","1","","","","","","","",""
"","html-keyboard-response","162","589155","0.0-94.0-1.0","null","<p></p>","null","","","","","","","","","","","","","","","","","","",""
"","do_trial","163","594591","0.0-95.0-0.0","871.4000000059605","","","","50","1,0,0","1","countryside","37","probe-205","0.7124572794145634","0.2089991907961722","0.19256447869894175","0","","","","","","","",""
"","html-keyboard-response","164","595594","0.0-95.0-1.0","null","<p></p>","null","","","","","","","","","","","","","","","","","","",""
"","do_trial","165","600495","0.0-96.0-0.0","336","","","","49","1,0,0","1","countryside","38","probe-59","0.6804456525561663","0.2752991233387804","0.19693370026940635","1","","","","","","","",""
"","html-keyboard-response","166","601498","0.0-96.0-1.0","null","<p></p>","null","","","","","","","","","","","","","","","","","","",""
"","do_trial","167","606291","0.0-97.0-0.0","229.19999998807907","","","","49","1,0,0","1","countryside","39","probe-09","0.5423169458020921","0.24712652599357007","0.21017332603800756","1","","","","","","","",""
"","html-keyboard-response","168","607293","0.0-97.0-1.0","null","<p></p>","null","","","","","","","","","","","","","","","","","","",""
"","do_trial","169","613161","0.0-98.0-0.0","1300.5999999940395","","","","50","0,0,0","1","countryside","40","probe-14","0.576945050012739","0.2414308234828089","0.30374996973312746","0","","","","","","","",""
"","html-keyboard-response","170","614163","0.0-98.0-1.0","null","<p></p>","null","","","","","","","","","","","","","","","","","","",""
"","do_trial","171","619224","0.0-99.0-0.0","497.79999999701977","","","","49","0,0,1","1","countryside","41","probe-194","0.4965965945781068","0.3006407422554798","0.26507118705380445","0","","","","","","","",""
"","html-keyboard-response","172","620227","0.0-99.0-1.0","null","<p></p>","null","","","","","","","","","","","","","","","","","","",""
"","do_trial","173","625829","0.0-100.0-0.0","1035.8999999910593","","","","49","0,0,1","1","countryside","42","probe-141","0.39367972555713","0.16596058811338715","0.41379632055762544","0","","","","","","","",""
"","html-keyboard-response","174","626831","0.0-100.0-1.0","null","<p></p>","null","","","","","","","","","","","","","","","","","","",""
"","do_trial","175","633903","0.0-101.0-0.0","2508.9000000059605","","","","49","0,0,0","1","countryside","43","probe-151","0.37829838797332793","0.15116522358581327","0.48996179950773466","0","","","","","","","",""
"","html-keyboard-response","176","634906","0.0-101.0-1.0","null","<p></p>","null","","","","","","","","","","","","","","","","","","",""
"","do_trial","177","640528","0.0-102.0-0.0","1054","","","","51","1,0,1","1","countryside","44","probe-160","0.39088880815693516","0.22213059466879642","0.5811429316379059","1","","","","","","","",""
"","html-keyboard-response","178","641531","0.0-102.0-1.0","null","<p></p>","null","","","","","","","","","","","","","","","","","","",""
"","do_trial","179","647706","0.0-103.0-0.0","1610.2999999970198","","","","49","1,0,0","1","countryside","45","probe-175","0.30590775926537594","0.12255959327428555","0.5653186768024626","1","","","","","","","",""
"","html-keyboard-response","180","648709","0.0-103.0-1.0","null","<p></p>","null","","","","","","","","","","","","","","","","","","",""
"","do_trial","181","656072","0.0-104.0-0.0","2790.0999999940395","","","","51","1,0,1","1","countryside","46","probe-101","0.42031131784397985","0.3014015811066366","0.6957200468706433","1","","","","","","","",""
"","html-keyboard-response","182","657074","0.0-104.0-1.0","null","<p></p>","null","","","","","","","","","","","","","","","","","","",""
"","do_trial","183","662757","0.0-105.0-0.0","1118.7999999970198","","","","49","1,0,1","1","countryside","47","probe-168","0.3703281206188415","0.2302779515329121","0.7147068732119776","1","","","","","","","",""
"","html-keyboard-response","184","663760","0.0-105.0-1.0","null","<p></p>","null","","","","","","","","","","","","","","","","","","",""
"","do_trial","185","669885","0.0-106.0-0.0","1560.1000000089407","","","","50","0,0,0","1","countryside","48","probe-201","0.43951814631704067","0.19378564226776124","0.7176819625020225","0","","","","","","","",""
"","html-keyboard-response","186","670888","0.0-106.0-1.0","null","<p></p>","null","","","","","","","","","","","","","","","","","","",""
"","do_trial","187","675838","0.0-107.0-0.0","384.19999998807907","","","","49","0,0,0","1","countryside","49","probe-158","0.4181121467282938","0.17617622614666156","0.667000479437134","0","","","","","","","",""
"","html-keyboard-response","188","676841","0.0-107.0-1.0","null","<p></p>","null","","","","","","","","","","","","","","","","","","",""
"","do_trial","189","681767","0.0-108.0-0.0","362.1000000089407","","","","49","0,0,0","1","countryside","50","probe-51","0.4302548341403687","0.21612247999016546","0.5594295103327691","0","","","","","","","",""
"","html-keyboard-response","190","682770","0.0-108.0-1.0","null","<p></p>","null","","","","","","","","","","","","","","","","","","",""
"","do_trial","191","687619","0.0-109.0-0.0","283.29999999701977","","","","50","1,0,1","1","countryside","51","probe-46","0.41649574645750187","0.10627679807474419","0.6264666759710936","0","","","","","","","",""
"","html-keyboard-response","192","688621","0.0-109.0-1.0","null","<p></p>","null","","","","","","","","","","","","","","","","","","",""
"","do_trial","193","693507","0.0-110.0-0.0","315.6000000089407","","","","50","0,0,0","1","countryside","52","probe-48","0.3629798121831504","0.24812621719492442","0.4751596533947596","0","","","","","","","",""
"","html-keyboard-response","194","694510","0.0-110.0-1.0","null","<p></p>","null","","","","","","","","","","","","","","","","","","",""
"","do_trial","195","701445","0.0-111.0-0.0","2368.5","","","","51","0,0,1","1","countryside","53","probe-105","0.2910904387452493","0.11412204455589745","0.5763736413664491","1","","","","","","","",""
"","html-keyboard-response","196","702447","0.0-111.0-1.0","null","<p></p>","null","","","","","","","","","","","","","","","","","","",""
"","do_trial","197","708137","0.0-112.0-0.0","1125.300000011921","","","","50","1,0,0","1","countryside","54","probe-32","0.381061353448437","0.08035191380648257","0.5593996260211506","0","","","","","","","",""
"","html-keyboard-response","198","709140","0.0-112.0-1.0","null","<p></p>","null","","","","","","","","","","","","","","","","","","",""
"","do_trial","199","714112","0.0-113.0-0.0","406.80000001192093","","","","49","1,0,1","1","countryside","55","probe-188","0.4693483767879941","0.07555853839638181","0.5632423794428936","1","","","","","","","",""
"","html-keyboard-response","200","715115","0.0-113.0-1.0","null","<p></p>","null","","","","","","","","","","","","","","","","","","",""
"","do_trial","201","720946","0.0-114.0-0.0","1266.2000000029802","","","","49","1,0,0","1","countryside","56","probe-189","0.39395850007915384","0.164634120150721","0.48474329651176634","1","","","","","","","",""
"","html-keyboard-response","202","721948","0.0-114.0-1.0","null","<p></p>","null","","","","","","","","","","","","","","","","","","",""
"","do_trial","203","728011","0.0-115.0-0.0","null","","","","null","1,0,0","1","countryside","57","probe-70","0.3248123206543433","0.095979653104451","0.5814664008718718","","","","","","","","",""
"","html-keyboard-response","204","729015","0.0-115.0-1.0","null","<p></p>","null","","","","","","","","","","","","","","","","","","",""
"","do_trial","205","733947","0.0-116.0-0.0","366.79999999701977","","","","49","0,0,1","1","countryside","58","probe-82","0.27372315118560603","0.07750086608836161","0.5793151639422588","0","","","","","","","",""
"","html-keyboard-response","206","734950","0.0-116.0-1.0","null","<p></p>","null","","","","","","","","","","","","","","","","","","",""
"","do_trial","207","739850","0.0-117.0-0.0","334.59999999403954","","","","50","0,0,0","1","countryside","59","probe-47","0.3068155851559454","0.23296807532941838","0.6394813709581737","0","","","","","","","",""
"","html-keyboard-response","208","740853","0.0-117.0-1.0","null","<p></p>","null","","","","","","","","","","","","","","","","","","",""
"","do_trial","209","746068","0.0-118.0-0.0","648.6999999880791","","","","51","0,0,1","1","countryside","60","probe-226","0.22598336076653047","0.22452799319216682","0.6761016497076738","1","","","","","","","",""
"","html-keyboard-response","210","747071","0.0-118.0-1.0","null","<p></p>","null","","","","","","","","","","","","","","","","","","",""
"","do_trial","211","752304","0.0-119.0-0.0","669.8999999910593","","","","49","0,0,1","1","countryside","61","probe-183","0.30807558715793576","0.10922461526289019","0.7192549203414145","0","","","","","","","",""
"","html-keyboard-response","212","753306","0.0-119.0-1.0","null","<p></p>","null","","","","","","","","","","","","","","","","","","",""
"","do_trial","213","760476","0.0-120.0-0.0","2602.2000000029802","","","","49","0,1,1","1","countryside","62","probe-129","0.2945066835255382","0.1273719245995083","0.7408277732075051","0","","","","","","","",""
"","html-keyboard-response","214","761479","0.0-120.0-1.0","null","<p></p>","null","","","","","","","","","","","","","","","","","","",""
"","do_trial","215","767320","0.0-121.0-0.0","1277","","","","51","0,1,0","1","countryside","63","probe-119","0.23570525241269544","0.12671152922730256","0.658233500305713","0","","","","","","","",""
"","html-keyboard-response","216","768323","0.0-121.0-1.0","null","<p></p>","null","","","","","","","","","","","","","","","","","","",""
"","do_trial","217","774389","0.0-122.0-0.0","null","","","","null","0,0,1","1","countryside","64","probe-88","0.16715114315679885","0.07731573751226774","0.5960019764533118","","","","","","","","",""
"","html-keyboard-response","218","775394","0.0-122.0-1.0","null","<p></p>","null","","","","","","","","","","","","","","","","","","",""
"","do_trial","219","780277","0.0-123.0-0.0","313.59999999403954","","","","49","1,1,0","1","countryside","65","probe-62","0.21409846127124696","0.10093358186500774","0.574970939233497","1","","","","","","","",""
"","html-keyboard-response","220","781280","0.0-123.0-1.0","null","<p></p>","null","","","","","","","","","","","","","","","","","","",""
"","do_trial","221","786224","0.0-124.0-0.0","380.40000000596046","","","","49","0,0,1","1","countryside","66","probe-140","0.2809050963860923","0.05336342383124977","0.6153031452709707","0","","","","","","","",""
"","html-keyboard-response","222","787227","0.0-124.0-1.0","null","<p></p>","null","","","","","","","","","","","","","","","","","","",""
"","do_trial","223","792356","0.0-125.0-0.0","561.5","","","","50","1,1,1","1","countryside","67","probe-38","0.3064369122433343","0.05642294162223162","0.5093672348167259","1","","","","","","","",""
"","html-keyboard-response","224","793360","0.0-125.0-1.0","null","<p></p>","null","","","","","","","","","","","","","","","","","","",""
"","do_trial","225","798539","0.0-126.0-0.0","614.9000000059605","","","","51","0,0,0","1","countryside","68","probe-115","0.37505065001466464","0.11634795944448581","0.4783705587094326","0","","","","","","","",""
"","html-keyboard-response","226","799545","0.0-126.0-1.0","null","<p></p>","null","","","","","","","","","","","","","","","","","","",""
"","do_trial","227","804645","0.0-127.0-0.0","535.0999999940395","","","","50","0,1,0","1","countryside","69","probe-216","0.42792499293185216","0.25146647335000016","0.565773217661638","1","","","","","","","",""
"","html-keyboard-response","228","805651","0.0-127.0-1.0","null","<p></p>","null","","","","","","","","","","","","","","","","","","",""
"","do_bye","229","807157","0.0-128.0-0.0","null","","","","null","","","","","","","","","","","","","","","","",""
"","do_travel","230","813159","0.0-129.0-0.0","null","","","","null","","","","","","","","","","","","","","","","",""
"","do_welcome","231","814667","0.0-129.0-1.0","null","","","","null","","","","","","","","","","","","","","","","",""
"","do_trial","232","820751","0.0-130.0-0.0","1515.9000000059605","","","","49","1,0,1","2","mountain","70","probe-109","0.3146624934995077","0.10989300421691374","1","1","","","","","","","",""
"","html-keyboard-response","233","821754","0.0-130.0-1.0","null","<p></p>","null","","","","","","","","","","","","","","","","","","",""
"","do_trial","234","826904","0.0-131.0-0.0","586.1000000089407","","","","51","1,1,1","2","mountain","71","probe-203","0.31735623418138653","0.20685273228272105","1","1","","","","","","","",""
"","html-keyboard-response","235","827908","0.0-131.0-1.0","null","<p></p>","null","","","","","","","","","","","","","","","","","","",""
"","do_trial","236","833462","0.0-132.0-0.0","986.4000000059605","","","","49","0,0,1","2","mountain","72","probe-223","0.391266771253716","0.1957550695545056","0.9032362484964302","0","","","","","","","",""
"","html-keyboard-response","237","834465","0.0-132.0-1.0","null","<p></p>","null","","","","","","","","","","","","","","","","","","",""
"","do_trial","238","839559","0.0-133.0-0.0","531.4000000059605","","","","49","0,0,0","2","mountain","73","probe-120","0.26971221437544957","0.23956849080238027","0.7225685033929824","0","","","","","","","",""
"","html-keyboard-response","239","840562","0.0-133.0-1.0","null","<p></p>","null","","","","","","","","","","","","","","","","","","",""
"","do_trial","240","845505","0.0-134.0-0.0","378","","","","49","1,0,1","2","mountain","74","probe-197","0.43718659238970065","0.2352121067761819","0.6566493530034707","1","","","","","","","",""
"","html-keyboard-response","241","846509","0.0-134.0-1.0","null","<p></p>","null","","","","","","","","","","","","","","","","","","",""
"","do_trial","242","852411","0.0-135.0-0.0","1334.1000000089407","","","","49","0,0,0","2","mountain","75","probe-162","0.18747311698782645","0.14496457782837843","0.49284666280846445","0","","","","","","","",""
"","html-keyboard-response","243","853414","0.0-135.0-1.0","null","<p></p>","null","","","","","","","","","","","","","","","","","","",""
"","do_trial","244","859185","0.0-136.0-0.0","1202.3999999910593","","","","51","0,0,1","2","mountain","76","probe-86","0.1854951145508165","0.12504757822028872","0.5715698560492896","1","","","","","","","",""
"","html-keyboard-response","245","860189","0.0-136.0-1.0","null","<p></p>","null","","","","","","","","","","","","","","","","","","",""
"","do_trial","246","866164","0.0-137.0-0.0","1409.2999999970198","","","","50","1,0,1","2","mountain","77","probe-229","0.22696588229751413","0.09455029248058366","0.5087902088964336","0","","","","","","","",""
"","html-keyboard-response","247","867167","0.0-137.0-1.0","null","<p></p>","null","","","","","","","","","","","","","","","","","","",""
"","do_trial","248","872322","0.0-138.0-0.0","591.2000000029802","","","","49","0,0,1","2","mountain","78","probe-55","0.2296250238935513","0.1735764439709829","0.6601045384105103","0","","","","","","","",""
"","html-keyboard-response","249","873326","0.0-138.0-1.0","null","<p></p>","null","","","","","","","","","","","","","","","","","","",""
"","do_trial","250","878481","0.0-139.0-0.0","571.5999999940395","","","","49","1,0,1","2","mountain","79","probe-90","0.1068129971433133","0.09267310835365876","0.6618053002028631","1","","","","","","","",""
"","html-keyboard-response","251","879484","0.0-139.0-1.0","null","<p></p>","null","","","","","","","","","","","","","","","","","","",""
"","do_trial","252","884925","0.0-140.0-0.0","873.1000000089407","","","","51","0,0,0","2","mountain","80","probe-224","0.10047426945692106","0.1554624553707262","0.5797357076479319","0","","","","","","","",""
"","html-keyboard-response","253","885929","0.0-140.0-1.0","null","<p></p>","null","","","","","","","","","","","","","","","","","","",""
"","do_trial","254","890979","0.0-141.0-0.0","487.79999999701977","","","","50","0,0,0","2","mountain","81","probe-24","0.06777917349623026","0.30878668618706545","0.4453741520908753","0","","","","","","","",""
"","html-keyboard-response","255","891983","0.0-141.0-1.0","null","<p></p>","null","","","","","","","","","","","","","","","","","","",""
"","do_trial","256","897696","0.0-142.0-0.0","1145.6000000089407","","","","49","0,0,1","2","mountain","82","probe-30","0.08917170559663504","0.31966037627179733","0.5291652156621884","0","","","","","","","",""
"","html-keyboard-response","257","898699","0.0-142.0-1.0","null","<p></p>","null","","","","","","","","","","","","","","","","","","",""
"","do_trial","258","903677","0.0-143.0-0.0","411.09999999403954","","","","49","0,0,0","2","mountain","83","probe-159","0.10808300389539918","0.45000891238830276","0.3907814097351563","0","","","","","","","",""
"","html-keyboard-response","259","904679","0.0-143.0-1.0","null","<p></p>","null","","","","","","","","","","","","","","","","","","",""
"","do_trial","260","910001","0.0-144.0-0.0","758.7999999970198","","","","50","0,0,0","2","mountain","84","probe-111","0.23966860146564237","0.6024884318827028","0.4230116497478661","0","","","","","","","",""
"","html-keyboard-response","261","911004","0.0-144.0-1.0","null","<p></p>","null","","","","","","","","","","","","","","","","","","",""
"","do_trial","262","915849","0.0-145.0-0.0","275.1000000089407","","","","49","0,1,0","2","mountain","85","probe-116","0.19061392110433104","0.47608574360590167","0.3505083733317826","0","","","","","","","",""
"","html-keyboard-response","263","916851","0.0-145.0-1.0","null","<p></p>","null","","","","","","","","","","","","","","","","","","",""
"","do_trial","264","922006","0.0-146.0-0.0","591.2999999970198","","","","51","0,0,1","2","mountain","86","probe-167","0.10455230647493977","0.47390798842591414","0.27145818449313164","1","","","","","","","",""
"","html-keyboard-response","265","923010","0.0-146.0-1.0","null","<p></p>","null","","","","","","","","","","","","","","","","","","",""
"","do_trial","266","927910","0.0-147.0-0.0","336.29999999701977","","","","49","0,0,0","2","mountain","87","probe-149","0.10874988646681548","0.4265858437724326","0.18169560798602163","0","","","","","","","",""
"","html-keyboard-response","267","928914","0.0-147.0-1.0","null","<p></p>","null","","","","","","","","","","","","","","","","","","",""
"","do_trial","268","934181","0.0-148.0-0.0","698.9000000059605","","","","50","0,0,0","2","mountain","88","probe-137","0.13693254360110446","0.4274586126986158","0.18832168877215016","0","","","","","","","",""
"","html-keyboard-response","269","935185","0.0-148.0-1.0","null","<p></p>","null","","","","","","","","","","","","","","","","","","",""
"","do_trial","270","940486","0.0-149.0-0.0","737","","","","51","0,1,0","2","mountain","89","probe-41","0.19022307677725764","0.35649059602237565","0.20903150946398272","0","","","","","","","",""
"","html-keyboard-response","271","941489","0.0-149.0-1.0","null","<p></p>","null","","","","","","","","","","","","","","","","","","",""
"","do_trial","272","946755","0.0-150.0-0.0","701.2000000029802","","","","50","0,0,0","2","mountain","90","probe-165","0.18249180280899374","0.41969165054902496","0.24686672911291233","0","","","","","","","",""
"","html-keyboard-response","273","947758","0.0-150.0-1.0","null","<p></p>","null","","","","","","","","","","","","","","","","","","",""
"","do_trial","274","952806","0.0-151.0-0.0","483.40000000596046","","","","49","0,1,0","2","mountain","91","probe-113","0.10091483497242186","0.498899576309082","0.1269996652462837","0","","","","","","","",""
"","html-keyboard-response","275","953810","0.0-151.0-1.0","null","<p></p>","null","","","","","","","","","","","","","","","","","","",""
"","do_trial","276","958750","0.0-152.0-0.0","374.8999999910593","","","","51","0,0,0","2","mountain","92","probe-25","0.07031090862312754","0.5452529284644684","0.12489834042108665","0","","","","","","","",""
"","html-keyboard-response","277","959754","0.0-152.0-1.0","null","<p></p>","null","","","","","","","","","","","","","","","","","","",""
"","do_trial","278","964749","0.0-153.0-0.0","428.5","","","","49","0,0,1","2","mountain","93","probe-35","0.12829934681406693","0.44291159213832776","0.1720643309355878","0","","","","","","","",""
"","html-keyboard-response","279","965753","0.0-153.0-1.0","null","<p></p>","null","","","","","","","","","","","","","","","","","","",""
"","do_trial","280","971335","0.0-154.0-0.0","1017.6000000089407","","","","51","0,0,0","2","mountain","94","probe-26","0.16268607889259684","0.47081412975041353","0.43195669152072713","0","","","","","","","",""
"","html-keyboard-response","281","972339","0.0-154.0-1.0","null","<p></p>","null","","","","","","","","","","","","","","","","","","",""
"","do_trial","282","977502","0.0-155.0-0.0","597.2999999970198","","","","50","0,0,0","2","mountain","95","probe-138","0.21836090594556237","0.4411305120653202","0.5058065597134421","0","","","","","","","",""
"","html-keyboard-response","283","978506","0.0-155.0-1.0","null","<p></p>","null","","","","","","","","","","","","","","","","","","",""
"","do_trial","284","983466","0.0-156.0-0.0","394.59999999403954","","","","50","0,1,1","2","mountain","96","probe-206","0.14805442359154328","0.5837975998169147","0.46406783746874014","1","","","","","","","",""
"","html-keyboard-response","285","984470","0.0-156.0-1.0","null","<p></p>","null","","","","","","","","","","","","","","","","","","",""
"","do_trial","286","990767","0.0-157.0-0.0","1731.7999999970198","","","","49","0,1,0","2","mountain","97","probe-126","0.1337043993377462","0.4908587633609486","0.3943326402246262","0","","","","","","","",""
"","html-keyboard-response","287","991770","0.0-157.0-1.0","null","<p></p>","null","","","","","","","","","","","","","","","","","","",""
"","do_trial","288","996724","0.0-158.0-0.0","388.90000000596046","","","","49","1,1,1","2","mountain","98","probe-123","0.22029247590027617","0.5254847215826048","0.3679582810737873","1","","","","","","","",""
"","html-keyboard-response","289","997727","0.0-158.0-1.0","null","<p></p>","null","","","","","","","","","","","","","","","","","","",""
"","do_trial","290","1002789","0.0-159.0-0.0","497.79999999701977","","","","50","0,1,0","2","mountain","99","probe-121","0.18390084341520227","0.4824200551876854","0.5114276631898433","1","","","","","","","",""
"","html-keyboard-response","291","1003792","0.0-159.0-1.0","null","<p></p>","null","","","","","","","","","","","","","","","","","","",""
"","do_trial","292","1008915","0.0-160.0-0.0","556.1000000089407","","","","51","1,1,1","2","mountain","100","probe-16","0.20684619165495213","0.41699154718816184","0.406582426194996","1","","","","","","","",""
"","html-keyboard-response","293","1009919","0.0-160.0-1.0","null","<p></p>","null","","","","","","","","","","","","","","","","","","",""
"","do_trial","294","1015247","0.0-161.0-0.0","760.5999999940395","","","","50","0,0,1","2","mountain","101","probe-128","0.06706214586087449","0.36931578478469107","0.2734559652154679","0","","","","","","","",""
"","html-keyboard-response","295","1016250","0.0-161.0-1.0","null","<p></p>","null","","","","","","","","","","","","","","","","","","",""
"","do_trial","296","1021717","0.0-162.0-0.0","902.7000000029802","","","","49","0,0,0","2","mountain","102","probe-130","0.13686187166261374","0.43379542350833583","0.19501742535044486","0","","","","","","","",""
"","html-keyboard-response","297","1022721","0.0-162.0-1.0","null","<p></p>","null","","","","","","","","","","","","","","","","","","",""
"","do_trial","298","1027866","0.0-163.0-0.0","577","","","","49","0,1,1","2","mountain","103","probe-72","0.08399076060259511","0.6440118099008241","0.26143535832816944","0","","","","","","","",""
"","html-keyboard-response","299","1028869","0.0-163.0-1.0","null","<p></p>","null","","","","","","","","","","","","","","","","","","",""
"","do_trial","300","1034159","0.0-164.0-0.0","719.2000000029802","","","","49","1,1,0","2","mountain","104","probe-147","0.13862611586665824","0.6464652068686322","0.22745249271738677","1","","","","","","","",""
"","html-keyboard-response","301","1035161","0.0-164.0-1.0","null","<p></p>","null","","","","","","","","","","","","","","","","","","",""
"","do_trial","302","1040243","0.0-165.0-0.0","513.3999999910593","","","","50","0,1,0","2","mountain","105","probe-08","0.086762687507922","0.520989579343535","0.2192908430919165","1","","","","","","","",""
"","html-keyboard-response","303","1041246","0.0-165.0-1.0","null","<p></p>","null","","","","","","","","","","","","","","","","","","",""
"","do_trial","304","1046327","0.0-166.0-0.0","515.9000000059605","","","","50","0,0,1","2","mountain","106","probe-124","0.11555477598515429","0.41228991767044726","0.19147003193608197","0","","","","","","","",""
"","html-keyboard-response","305","1047329","0.0-166.0-1.0","null","<p></p>","null","","","","","","","","","","","","","","","","","","",""
"","do_trial","306","1052266","0.0-167.0-0.0","371.40000000596046","","","","51","0,0,0","2","mountain","107","probe-02","0.2560647103685138","0.3647093688546291","0.15944465282511006","0","","","","","","","",""
"","html-keyboard-response","307","1053268","0.0-167.0-1.0","null","<p></p>","null","","","","","","","","","","","","","","","","","","",""
"","do_trial","308","1058462","0.0-168.0-0.0","629.1999999880791","","","","49","0,1,0","2","mountain","108","probe-187","0.19530277691942452","0.3823592250853253","0.24239877756026995","0","","","","","","","",""
"","html-keyboard-response","309","1059464","0.0-168.0-1.0","null","<p></p>","null","","","","","","","","","","","","","","","","","","",""
"","do_trial","310","1064664","0.0-169.0-0.0","631.4000000059605","","","","49","1,1,1","2","mountain","109","probe-150","0.18202798186406718","0.6013499585788036","0.31434645804219363","1","","","","","","","",""
"","html-keyboard-response","311","1065666","0.0-169.0-1.0","null","<p></p>","null","","","","","","","","","","","","","","","","","","",""
"","do_bye","312","1067177","0.0-170.0-0.0","null","","","","null","","","","","","","","","","","","","","","","",""
"","do_travel","313","1073180","0.0-171.0-0.0","null","","","","null","","","","","","","","","","","","","","","","",""
"","do_welcome","314","1074688","0.0-171.0-1.0","null","","","","null","","","","","","","","","","","","","","","","",""
"","do_trial","315","1080258","0.0-172.0-0.0","1000.6000000089407","","","","49","0,1,1","3","city","110","probe-110","0.1759241694838462","1","0.3675346608835355","0","","","","","","","",""
"","html-keyboard-response","316","1081260","0.0-172.0-1.0","null","<p></p>","null","","","","","","","","","","","","","","","","","","",""
"","do_trial","317","1086970","0.0-173.0-0.0","1143","","","","50","0,1,1","3","city","111","probe-05","0.10293461090985001","1","0.3816710798561844","1","","","","","","","",""
"","html-keyboard-response","318","1087973","0.0-173.0-1.0","null","<p></p>","null","","","","","","","","","","","","","","","","","","",""
"","do_trial","319","1093435","0.0-174.0-0.0","899","","","","50","0,1,1","3","city","112","probe-49","0.2665846665098022","0.8838995543549516","0.33563741049123735","1","","","","","","","",""
"","html-keyboard-response","320","1094438","0.0-174.0-1.0","null","<p></p>","null","","","","","","","","","","","","","","","","","","",""
"","do_trial","321","1099698","0.0-175.0-0.0","693.8000000119209","","","","51","0,1,0","3","city","113","probe-45","0.14399745394527852","0.837336289743451","0.29782412798661745","0","","","","","","","",""
"","html-keyboard-response","322","1100700","0.0-175.0-1.0","null","<p></p>","null","","","","","","","","","","","","","","","","","","",""
"","do_trial","323","1105786","0.0-176.0-0.0","521.6000000089407","","","","49","0,1,1","3","city","114","probe-64","0.33318083116081093","0.7971101788160262","0.34923167079358364","0","","","","","","","",""
"","html-keyboard-response","324","1106788","0.0-176.0-1.0","null","<p></p>","null","","","","","","","","","","","","","","","","","","",""
"","do_trial","325","1112116","0.0-177.0-0.0","758.6000000089407","","","","50","1,1,1","3","city","115","probe-172","0.3486293452491266","0.689833621064578","0.39467616705559666","1","","","","","","","",""
"","html-keyboard-response","326","1113118","0.0-177.0-1.0","null","<p></p>","null","","","","","","","","","","","","","","","","","","",""
"","do_trial","327","1119542","0.0-178.0-0.0","1855.699999988079","","","","50","0,0,1","3","city","116","probe-108","0.22225421567582435","0.6595538694022033","0.3428300303587971","0","","","","","","","",""
"","html-keyboard-response","328","1120544","0.0-178.0-1.0","null","<p></p>","null","","","","","","","","","","","","","","","","","","",""
"","do_trial","329","1127370","0.0-179.0-0.0","2260.9000000059605","","","","50","0,1,0","3","city","117","probe-87","0.12795759649660896","0.6786799135801072","0.21074329716550247","1","","","","","","","",""
"","html-keyboard-response","330","1128373","0.0-179.0-1.0","null","<p></p>","null","","","","","","","","","","","","","","","","","","",""
"","do_trial","331","1135203","0.0-180.0-0.0","2267.5","","","","50","0,1,1","3","city","118","probe-155","0.12529438391692532","0.5042225424572853","0.2312381160817988","1","","","","","","","",""
"","html-keyboard-response","332","1136206","0.0-180.0-1.0","null","<p></p>","null","","","","","","","","","","","","","","","","","","",""
"","do_trial","333","1141459","0.0-181.0-0.0","686.2999999970198","","","","50","0,0,0","3","city","119","probe-132","0.05280903339122113","0.5073697141969953","0.15305588221676583","0","","","","","","","",""
"","html-keyboard-response","334","1142462","0.0-181.0-1.0","null","<p></p>","null","","","","","","","","","","","","","","","","","","",""
"","do_trial","335","1147627","0.0-182.0-0.0","602.3000000119209","","","","50","0,1,0","3","city","120","probe-135","0.07641797121159793","0.5284032058250371","0.2760628637897546","1","","","","","","","",""
"","html-keyboard-response","336","1148629","0.0-182.0-1.0","null","<p></p>","null","","","","","","","","","","","","","","","","","","",""
"","do_trial","337","1153616","0.0-183.0-0.0","416.5","","","","49","0,1,0","3","city","121","probe-161","0.05200220121864762","0.48750514385484245","0.24485712977256685","0","","","","","","","",""
"","html-keyboard-response","338","1154618","0.0-183.0-1.0","null","<p></p>","null","","","","","","","","","","","","","","","","","","",""
"","do_trial","339","1159938","0.0-184.0-0.0","751","","","","49","0,1,1","3","city","122","probe-195","0.22485705620671126","0.3353938051511886","0.4781172313662481","0","","","","","","","",""
"","html-keyboard-response","340","1160941","0.0-184.0-1.0","null","<p></p>","null","","","","","","","","","","","","","","","","","","",""
"","do_trial","341","1165978","0.0-185.0-0.0","471.5","","","","51","0,0,0","3","city","123","probe-92","0.11379862037787594","0.34813055672374627","0.5247130999358685","0","","","","","","","",""
"","html-keyboard-response","342","1166980","0.0-185.0-1.0","null","<p></p>","null","","","","","","","","","","","","","","","","","","",""
"","do_trial","343","1172047","0.0-186.0-0.0","501.5","","","","50","0,0,1","3","city","124","probe-22","0.15342928020181945","0.3702393858681042","0.4846298590135963","0","","","","","","","",""
"","html-keyboard-response","344","1173053","0.0-186.0-1.0","null","<p></p>","null","","","","","","","","","","","","","","","","","","",""
"","do_trial","345","1178084","0.0-187.0-0.0","469.5","","","","49","0,1,0","3","city","125","probe-68","0.24910928105831545","0.5078535786385213","0.6396584203954214","0","","","","","","","",""
"","html-keyboard-response","346","1179087","0.0-187.0-1.0","null","<p></p>","null","","","","","","","","","","","","","","","","","","",""
"","do_trial","347","1184080","0.0-188.0-0.0","429.70000000298023","","","","51","0,1,1","3","city","126","probe-214","0.2734775056966584","0.3876692657960568","0.5004607376911524","1","","","","","","","",""
"","html-keyboard-response","348","1185083","0.0-188.0-1.0","null","<p></p>","null","","","","","","","","","","","","","","","","","","",""
"","do_trial","349","1190218","0.0-189.0-0.0","571","","","","50","0,1,1","3","city","127","probe-118","0.2056527373296094","0.3092595735074306","0.5480548998079885","1","","","","","","","",""
"","html-keyboard-response","350","1191221","0.0-189.0-1.0","null","<p></p>","null","","","","","","","","","","","","","","","","","","",""
"","do_trial","351","1196160","0.0-190.0-0.0","372.80000001192093","","","","49","0,0,1","3","city","128","probe-171","0.26669276764003763","0.33464595111216516","0.5884363472241717","0","","","","","","","",""
"","html-keyboard-response","352","1197163","0.0-190.0-1.0","null","<p></p>","null","","","","","","","","","","","","","","","","","","",""
"","do_trial","353","1202802","0.0-191.0-0.0","1074.2000000029802","","","","51","0,1,0","3","city","129","probe-81","0.23925158296716525","0.4131061775169448","0.5205731182231721","0","","","","","","","",""
"","html-keyboard-response","354","1203804","0.0-191.0-1.0","null","<p></p>","null","","","","","","","","","","","","","","","","","","",""
"","do_trial","355","1209048","0.0-192.0-0.0","674.9000000059605","","","","49","0,0,1","3","city","130","probe-176","0.22135986512695469","0.40201205652377603","0.647080757725011","0","","","","","","","",""
"","html-keyboard-response","356","1210051","0.0-192.0-1.0","null","<p></p>","null","","","","","","","","","","","","","","","","","","",""
"","do_trial","357","1215172","0.0-193.0-0.0","556.0999999940395","","","","50","0,1,1","3","city","131","probe-204","0.06518610834976554","0.5297939316034882","0.5468793572643902","1","","","","","","","",""
"","html-keyboard-response","358","1216174","0.0-193.0-1.0","null","<p></p>","null","","","","","","","","","","","","","","","","","","",""
"","do_trial","359","1221329","0.0-194.0-0.0","590.7000000029802","","","","51","0,0,1","3","city","132","probe-80","0.08538634774850115","0.5425724347735682","0.579835645987284","1","","","","","","","",""
"","html-keyboard-response","360","1222331","0.0-194.0-1.0","null","<p></p>","null","","","","","","","","","","","","","","","","","","",""
"","do_trial","361","1227570","0.0-195.0-0.0","674.5","","","","49","1,0,0","3","city","133","probe-227","0.207074852532416","0.5102954894116235","0.6349800653649728","1","","","","","","","",""
"","html-keyboard-response","362","1228572","0.0-195.0-1.0","null","<p></p>","null","","","","","","","","","","","","","","","","","","",""
"","do_trial","363","1235298","0.0-196.0-0.0","2161.2000000029802","","","","49","1,1,1","3","city","134","probe-69","0.2943417395095464","0.578440158184807","0.45519431197142135","1","","","","","","","",""
"","html-keyboard-response","364","1236300","0.0-196.0-1.0","null","<p></p>","null","","","","","","","","","","","","","","","","","","",""
"","do_trial","365","1241467","0.0-197.0-0.0","603.1000000089407","","","","49","0,1,0","3","city","135","probe-185","0.2964891558539729","0.5279415922487446","0.43150202526824305","0","","","","","","","",""
"","html-keyboard-response","366","1242469","0.0-197.0-1.0","null","<p></p>","null","","","","","","","","","","","","","","","","","","",""
"","do_trial","367","1247609","0.0-198.0-0.0","575.7000000029802","","","","49","0,1,0","3","city","136","probe-77","0.12164929836335767","0.47040559234647616","0.4654832671644865","0","","","","","","","",""
"","html-keyboard-response","368","1248612","0.0-198.0-1.0","null","<p></p>","null","","","","","","","","","","","","","","","","","","",""
"","do_trial","369","1253946","0.0-199.0-0.0","768.6000000089407","","","","49","0,0,1","3","city","137","probe-174","0.11177068066648337","0.3137691503901997","0.5003088318756583","0","","","","","","","",""
"","html-keyboard-response","370","1254949","0.0-199.0-1.0","null","<p></p>","null","","","","","","","","","","","","","","","","","","",""
"","do_trial","371","1259894","0.0-200.0-0.0","379.8999999910593","","","","51","0,0,0","3","city","138","probe-181","0.19442853543828853","0.3274155269684434","0.4948598185699058","0","","","","","","","",""
"","html-keyboard-response","372","1260896","0.0-200.0-1.0","null","<p></p>","null","","","","","","","","","","","","","","","","","","",""
"","do_trial","373","1266103","0.0-201.0-0.0","640.5999999940395","","","","51","0,0,0","3","city","139","probe-97","0.05512794197462046","0.3576283584635298","0.5689904810112077","0","","","","","","","",""
"","html-keyboard-response","374","1267105","0.0-201.0-1.0","null","<p></p>","null","","","","","","","","","","","","","","","","","","",""
"","do_trial","375","1271947","0.0-202.0-0.0","273.20000000298023","","","","49","0,1,1","3","city","140","probe-230","0.06336671049346829","0.2245759158666966","0.5497845154447274","0","","","","","","","",""
"","html-keyboard-response","376","1272950","0.0-202.0-1.0","null","<p></p>","null","","","","","","","","","","","","","","","","","","",""
"","do_trial","377","1277933","0.0-203.0-0.0","418","","","","50","1,0,1","3","city","141","probe-156","0.0911714793835459","0.29727856363367955","0.5538097891851732","0","","","","","","","",""
"","html-keyboard-response","378","1278936","0.0-203.0-1.0","null","<p></p>","null","","","","","","","","","","","","","","","","","","",""
"","do_trial","379","1283747","0.0-204.0-0.0","243.79999999701977","","","","51","0,0,1","3","city","142","probe-198","0.09953435352888584","0.4303894970692717","0.6280866301218736","1","","","","","","","",""
"","html-keyboard-response","380","1284750","0.0-204.0-1.0","null","<p></p>","null","","","","","","","","","","","","","","","","","","",""
"","do_trial","381","1289913","0.0-205.0-0.0","602.1999999880791","","","","51","0,1,0","3","city","143","probe-202","0.15864551837209412","0.39374060163783625","0.6330617911201994","0","","","","","","","",""
"","html-keyboard-response","382","1290916","0.0-205.0-1.0","null","<p></p>","null","","","","","","","","","","","","","","","","","","",""
"","do_trial","383","1295868","0.0-206.0-0.0","387","","","","51","0,1,0","3","city","144","probe-117","0.09461621234272995","0.45068384425384767","0.5361305601039574","0","","","","","","","",""
"","html-keyboard-response","384","1296871","0.0-206.0-1.0","null","<p></p>","null","","","","","","","","","","","","","","","","","","",""
"","do_trial","385","1301770","0.0-207.0-0.0","333.09999999403954","","","","51","0,0,0","3","city","145","probe-98","0.10166470070873114","0.4371510226624898","0.5169704604514915","0","","","","","","","",""
"","html-keyboard-response","386","1302775","0.0-207.0-1.0","null","<p></p>","null","","","","","","","","","","","","","","","","","","",""
"","do_trial","387","1309138","0.0-208.0-0.0","1799.5","","","","51","0,1,1","3","city","146","probe-193","0.06231603620547912","0.36101841079602204","0.5719884219718019","1","","","","","","","",""
"","html-keyboard-response","388","1310143","0.0-208.0-1.0","null","<p></p>","null","","","","","","","","","","","","","","","","","","",""
"","do_trial","389","1316203","0.0-209.0-0.0","1495.5999999940395","","","","51","1,0,0","3","city","147","probe-60","0.31327695303108566","0.32981752367291106","0.6422143599460223","0","","","","","","","",""
"","html-keyboard-response","390","1317205","0.0-209.0-1.0","null","<p></p>","null","","","","","","","","","","","","","","","","","","",""
"","do_trial","391","1322871","0.0-210.0-0.0","1101.2999999970198","","","","51","1,0,1","3","city","148","probe-34","0.3756076063479807","0.4316280964114107","0.5474133028404579","1","","","","","","","",""
"","html-keyboard-response","392","1323874","0.0-210.0-1.0","null","<p></p>","null","","","","","","","","","","","","","","","","","","",""
"","do_trial","393","1328841","0.0-211.0-0.0","402.5","","","","51","0,1,0","3","city","149","probe-208","0.25078074241019177","0.4439757212620544","0.45867650200943166","0","","","","","","","",""
"","html-keyboard-response","394","1329845","0.0-211.0-1.0","null","<p></p>","null","","","","","","","","","","","","","","","","","","",""
"","do_bye","395","1331352","0.0-212.0-0.0","null","","","","null","","","","","","","","","","","","","","","","",""
"","do_travel","396","1337356","0.0-213.0-0.0","null","","","","null","","","","","","","","","","","","","","","","",""
"","do_welcome","397","1338862","0.0-213.0-1.0","null","","","","null","","","","","","","","","","","","","","","","",""
"","do_trial","398","1345102","0.0-214.0-0.0","1673","","","","50","0,1,1","4","highway","150","probe-99","0.17142917738147984","0.4904634523813084","1","1","","","","","","","",""
"","html-keyboard-response","399","1346105","0.0-214.0-1.0","null","<p></p>","null","","","","","","","","","","","","","","","","","","",""
"","do_trial","400","1351103","0.0-215.0-0.0","433.40000000596046","","","","50","1,0,1","4","highway","151","probe-67","0.25137074414567206","0.4738409395826959","1","0","","","","","","","",""
"","html-keyboard-response","401","1352106","0.0-215.0-1.0","null","<p></p>","null","","","","","","","","","","","","","","","","","","",""
"","do_trial","402","1357030","0.0-216.0-0.0","358.29999999701977","","","","50","0,1,0","4","highway","152","probe-134","0.1788327112029392","0.3641686178002292","0.8981133801788264","1","","","","","","","",""
"","html-keyboard-response","403","1358033","0.0-216.0-1.0","null","<p></p>","null","","","","","","","","","","","","","","","","","","",""
"","do_trial","404","1363277","0.0-217.0-0.0","680","","","","50","0,0,1","4","highway","153","probe-104","0.13954679799385145","0.3750681534942912","0.7628089238156507","0","","","","","","","",""
"","html-keyboard-response","405","1364280","0.0-217.0-1.0","null","<p></p>","null","","","","","","","","","","","","","","","","","","",""
"","do_trial","406","1369629","0.0-218.0-0.0","786.2000000029802","","","","50","1,0,1","4","highway","154","probe-15","0.24660469482636965","0.27169336236610014","0.6897377519664076","0","","","","","","","",""
"","html-keyboard-response","407","1370632","0.0-218.0-1.0","null","<p></p>","null","","","","","","","","","","","","","","","","","","",""
"","do_trial","408","1375939","0.0-219.0-0.0","731.2000000029802","","","","50","0,0,1","4","highway","155","probe-03","0.0740406257849562","0.2548204466908242","0.6562286288762931","0","","","","","","","",""
"","html-keyboard-response","409","1376942","0.0-219.0-1.0","null","<p></p>","null","","","","","","","","","","","","","","","","","","",""
"","do_trial","410","1382888","0.0-220.0-0.0","1381.9000000059605","","","","50","0,0,0","4","highway","156","probe-54","0.05443278441554186","0.3355710599733714","0.486031516812724","0","","","","","","","",""
"","html-keyboard-response","411","1383891","0.0-220.0-1.0","null","<p></p>","null","","","","","","","","","","","","","","","","","","",""
"","do_trial","412","1390490","0.0-221.0-0.0","2032.7999999970198","","","","50","0,0,0","4","highway","157","probe-143","0.2119708233454181","0.29810816038443966","0.4763920578815851","0","","","","","","","",""
"","html-keyboard-response","413","1391494","0.0-221.0-1.0","null","<p></p>","null","","","","","","","","","","","","","","","","","","",""
"","do_trial","414","1397093","0.0-222.0-0.0","1036.5","","","","50","0,0,0","4","highway","158","probe-102","0.17803176863454082","0.2443408359066051","0.35907750141271705","0","","","","","","","",""
"","html-keyboard-response","415","1398097","0.0-222.0-1.0","null","<p></p>","null","","","","","","","","","","","","","","","","","","",""
"","do_trial","416","1402879","0.0-223.0-0.0","216.20000000298023","","","","49","0,0,1","4","highway","159","probe-180","0.192548798721771","0.15766179101222602","0.3552676241546818","0","","","","","","","",""
"","html-keyboard-response","417","1403881","0.0-223.0-1.0","null","<p></p>","null","","","","","","","","","","","","","","","","","","",""
"","do_trial","418","1408688","0.0-224.0-0.0","240.1000000089407","","","","51","0,0,1","4","highway","160","probe-112","0.18718402491800423","0.09767459248420414","0.4229924113021555","1","","","","","","","",""
"","html-keyboard-response","419","1409690","0.0-224.0-1.0","null","<p></p>","null","","","","","","","","","","","","","","","","","","",""
"","do_trial","420","1414574","0.0-225.0-0.0","318","","","","51","0,0,0","4","highway","161","probe-11","0.18297771672567173","0.20439612342740457","0.40947346831881504","0","","","","","","","",""
"","html-keyboard-response","421","1415577","0.0-225.0-1.0","null","<p></p>","null","","","","","","","","","","","","","","","","","","",""
"","do_trial","422","1420477","0.0-226.0-0.0","326.5","","","","51","0,0,1","4","highway","162","probe-148","0.38556409256976887","0.16279894551200758","0.3991925900396811","1","","","","","","","",""
"","html-keyboard-response","423","1421480","0.0-226.0-1.0","null","<p></p>","null","","","","","","","","","","","","","","","","","","",""
"","do_trial","424","1426376","0.0-227.0-0.0","331","","","","51","1,0,0","4","highway","163","probe-61","0.5096123495453749","0.2312199762371617","0.25312018477971926","0","","","","","","","",""
"","html-keyboard-response","425","1427379","0.0-227.0-1.0","null","<p></p>","null","","","","","","","","","","","","","","","","","","",""
"","do_trial","426","1432281","0.0-228.0-0.0","339.20000000298023","","","","51","1,1,1","4","highway","164","probe-89","0.4704838513761829","0.2957012254516302","0.2832588772360959","1","","","","","","","",""
"","html-keyboard-response","427","1433284","0.0-228.0-1.0","null","<p></p>","null","","","","","","","","","","","","","","","","","","",""
"","do_trial","428","1439174","0.0-229.0-0.0","1326","","","","51","0,0,0","4","highway","165","probe-207","0.5379461684801395","0.2591039888044965","0.43610851028775033","0","","","","","","","",""
"","html-keyboard-response","429","1440176","0.0-229.0-1.0","null","<p></p>","null","","","","","","","","","","","","","","","","","","",""
"","do_trial","430","1445972","0.0-230.0-0.0","1230.7999999970198","","","","51","0,1,0","4","highway","166","probe-17","0.44013472890497213","0.2251432119497263","0.4504719648524859","0","","","","","","","",""
"","html-keyboard-response","431","1446974","0.0-230.0-1.0","null","<p></p>","null","","","","","","","","","","","","","","","","","","",""
"","do_trial","432","1453176","0.0-231.0-0.0","1633.2000000029802","","","","50","0,0,0","4","highway","167","probe-18","0.46683142389056825","0.32220895790263504","0.49604348982545277","0","","","","","","","",""
"","html-keyboard-response","433","1454179","0.0-231.0-1.0","null","<p></p>","null","","","","","","","","","","","","","","","","","","",""
"","do_trial","434","1459043","0.0-232.0-0.0","300.8999999910593","","","","49","1,0,0","4","highway","168","probe-94","0.5855171242022816","0.24893454525840064","0.37413042073102915","1","","","","","","","",""
"","html-keyboard-response","435","1460046","0.0-232.0-1.0","null","<p></p>","null","","","","","","","","","","","","","","","","","","",""
"","do_trial","436","1466589","0.0-233.0-0.0","1979.199999988079","","","","51","0,0,1","4","highway","169","probe-146","0.6777813580281532","0.16654879845478143","0.39981096684951156","1","","","","","","","",""
"","html-keyboard-response","437","1467592","0.0-233.0-1.0","null","<p></p>","null","","","","","","","","","","","","","","","","","","",""
"","do_trial","438","1473029","0.0-234.0-0.0","871.7999999970198","","","","50","0,0,1","4","highway","170","probe-23","0.6502411772619487","0.0898278864606934","0.484484569525085","0","","","","","","","",""
"","html-keyboard-response","439","1474032","0.0-234.0-1.0","null","<p></p>","null","","","","","","","","","","","","","","","","","","",""
"","do_trial","440","1479759","0.0-235.0-0.0","1162.2999999970198","","","","49","1,0,0","4","highway","171","probe-152","0.5816036196974873","0.05642000195538481","0.45477692014580234","1","","","","","","","",""
"","html-keyboard-response","441","1480761","0.0-235.0-1.0","null","<p></p>","null","","","","","","","","","","","","","","","","","","",""
"","do_trial","442","1486576","0.0-236.0-0.0","1250.5","","","","49","0,0,0","4","highway","172","probe-12","0.706468029261944","0.11192571718856692","0.33988305719544165","0","","","","","","","",""
"","html-keyboard-response","443","1487580","0.0-236.0-1.0","null","<p></p>","null","","","","","","","","","","","","","","","","","","",""
"","do_trial","444","1493656","0.0-237.0-0.0","1513.0999999940395","","","","49","1,1,1","4","highway","173","probe-191","0.6367308275545145","0.09030469556702707","0.3069484564862833","1","","","","","","","",""
"","html-keyboard-response","445","1494659","0.0-237.0-1.0","null","<p></p>","null","","","","","","","","","","","","","","","","","","",""
"","do_trial","446","1499796","0.0-238.0-0.0","572.2000000029802","","","","49","0,0,0","4","highway","174","probe-58","0.6093105207357004","0.06662333291289255","0.14843462908399443","0","","","","","","","",""
"","html-keyboard-response","447","1500799","0.0-238.0-1.0","null","<p></p>","null","","","","","","","","","","","","","","","","","","",""
"","do_trial","448","1506079","0.0-239.0-0.0","712.5999999940395","","","","49","0,0,0","4","highway","175","probe-192","0.6433330527763159","0.10789870931416497","0.12608678127373912","0","","","","","","","",""
"","html-keyboard-response","449","1507082","0.0-239.0-1.0","null","<p></p>","null","","","","","","","","","","","","","","","","","","",""
"","do_trial","450","1512193","0.0-240.0-0.0","545.2999999970198","","","","50","0,0,0","4","highway","176","probe-169","0.71732050196546","0.19419441829627984","0.16420281695209757","0","","","","","","","",""
"","html-keyboard-response","451","1513196","0.0-240.0-1.0","null","<p></p>","null","","","","","","","","","","","","","","","","","","",""
"","do_trial","452","1519509","0.0-241.0-0.0","1750.2999999970198","","","","50","1,0,1","4","highway","177","probe-79","0.6914786305225537","0.0552353497145849","0.3091489940669346","0","","","","","","","",""
"","html-keyboard-response","453","1520511","0.0-241.0-1.0","null","<p></p>","null","","","","","","","","","","","","","","","","","","",""
"","do_trial","454","1526320","0.0-242.0-0.0","1240.9000000059605","","","","49","1,0,0","4","highway","178","probe-40","0.6919853328164708","0.1633627533725821","0.27125933338813724","1","","","","","","","",""
"","html-keyboard-response","455","1527323","0.0-242.0-1.0","null","<p></p>","null","","","","","","","","","","","","","","","","","","",""
"","do_trial","456","1533020","0.0-243.0-0.0","1133","","","","51","0,0,0","4","highway","179","probe-66","0.7285799806949909","0.229697471037798","0.18241407687863861","0","","","","","","","",""
"","html-keyboard-response","457","1534024","0.0-243.0-1.0","null","<p></p>","null","","","","","","","","","","","","","","","","","","",""
"","do_trial","458","1538935","0.0-244.0-0.0","345.59999999403954","","","","49","0,0,0","4","highway","180","probe-36","0.6367023831513978","0.2905428999552829","0.12431738011670002","0","","","","","","","",""
"","html-keyboard-response","459","1539938","0.0-244.0-1.0","null","<p></p>","null","","","","","","","","","","","","","","","","","","",""
"","do_trial","460","1544888","0.0-245.0-0.0","384","","","","50","1,0,0","4","highway","181","probe-228","0.6632317520352432","0.3254789388978234","0.2723972122442198","0","","","","","","","",""
"","html-keyboard-response","461","1545891","0.0-245.0-1.0","null","<p></p>","null","","","","","","","","","","","","","","","","","","",""
"","do_trial","462","1551039","0.0-246.0-0.0","582.7000000029802","","","","50","1,0,0","4","highway","182","probe-200","0.5764586714535621","0.19534143464684725","0.344961519252031","0","","","","","","","",""
"","html-keyboard-response","463","1552042","0.0-246.0-1.0","null","<p></p>","null","","","","","","","","","","","","","","","","","","",""
"","do_trial","464","1557599","0.0-247.0-0.0","992.5","","","","49","1,0,0","4","highway","183","probe-127","0.5732705120661163","0.2624706350754273","0.4092975868495827","1","","","","","","","",""
"","html-keyboard-response","465","1558603","0.0-247.0-1.0","null","<p></p>","null","","","","","","","","","","","","","","","","","","",""
"","do_trial","466","1563508","0.0-248.0-0.0","341.29999999701977","","","","51","1,0,0","4","highway","184","probe-43","0.6148743337611517","0.27975205121710855","0.29240681438883775","0","","","","","","","",""
"","html-keyboard-response","467","1564511","0.0-248.0-1.0","null","<p></p>","null","","","","","","","","","","","","","","","","","","",""
"","do_trial","468","1569361","0.0-249.0-0.0","284.69999998807907","","","","50","1,0,0","4","highway","185","probe-209","0.525940009070543","0.15310923015864533","0.3506095556179701","0","","","","","","","",""
"","html-keyboard-response","469","1570364","0.0-249.0-1.0","null","<p></p>","null","","","","","","","","","","","","","","","","","","",""
"","do_trial","470","1575273","0.0-250.0-0.0","343","","","","49","1,0,1","4","highway","186","probe-114","0.5744061009660467","0.12421561330355696","0.4314552274846739","1","","","","","","","",""
"","html-keyboard-response","471","1576277","0.0-250.0-1.0","null","<p></p>","null","","","","","","","","","","","","","","","","","","",""
"","do_trial","472","1581146","0.0-251.0-0.0","305.8999999910593","","","","51","0,0,0","4","highway","187","probe-199","0.5849498328158085","0.20550758113326287","0.2940113467609788","0","","","","","","","",""
"","html-keyboard-response","473","1582149","0.0-251.0-1.0","null","<p></p>","null","","","","","","","","","","","","","","","","","","",""
"","do_trial","474","1587269","0.0-252.0-0.0","556.7000000029802","","","","51","0,0,0","4","highway","188","probe-211","0.4987059016296619","0.14666415428627502","0.14204888392475157","0","","","","","","","",""
"","html-keyboard-response","475","1588272","0.0-252.0-1.0","null","<p></p>","null","","","","","","","","","","","","","","","","","","",""
"","do_trial","476","1593253","0.0-253.0-0.0","413.90000000596046","","","","50","1,0,0","4","highway","189","probe-33","0.5625589719656453","0.12634607935389328","0.09265317885512026","0","","","","","","","",""
"","html-keyboard-response","477","1594256","0.0-253.0-1.0","null","<p></p>","null","","","","","","","","","","","","","","","","","","",""
"","do_bye","478","1595764","0.0-254.0-0.0","null","","","","null","","","","","","","","","","","","","","","","",""
"","do_travel","479","1601767","0.0-255.0-0.0","null","","","","null","","","","","","","","","","","","","","","","",""
"","do_welcome","480","1603275","0.0-255.0-1.0","null","","","","null","","","","","","","","","","","","","","","","",""
"","do_trial","481","1609261","0.0-256.0-0.0","1421","","","","49","1,0,0","5","coast","190","probe-21","1","0.09754507738377788","0.10488603729620913","1","","","","","","","",""
"","html-keyboard-response","482","1610265","0.0-256.0-1.0","null","<p></p>","null","","","","","","","","","","","","","","","","","","",""
"","do_trial","483","1615314","0.0-257.0-0.0","483.8999999910593","","","","49","1,0,0","5","coast","191","probe-173","1","0.12472664008040558","0.25111535073960695","1","","","","","","","",""
"","html-keyboard-response","484","1616317","0.0-257.0-1.0","null","<p></p>","null","","","","","","","","","","","","","","","","","","",""
"","do_trial","485","1621553","0.0-258.0-0.0","670.2000000029802","","","","49","1,1,0","5","coast","192","probe-219","0.7533158508338085","0.2796046366071432","0.19644562083292258","1","","","","","","","",""
"","html-keyboard-response","486","1622556","0.0-258.0-1.0","null","<p></p>","null","","","","","","","","","","","","","","","","","","",""
"","do_trial","487","1627852","0.0-259.0-0.0","730.5","","","","49","1,0,0","5","coast","193","probe-78","0.857573583027677","0.26351234522022554","0.20047389378941446","1","","","","","","","",""
"","html-keyboard-response","488","1628854","0.0-259.0-1.0","null","<p></p>","null","","","","","","","","","","","","","","","","","","",""
"","do_trial","489","1634795","0.0-260.0-0.0","1378.0999999940395","","","","49","1,0,0","5","coast","194","probe-136","0.7501696979536672","0.21649118889029148","0.15516033279622563","1","","","","","","","",""
"","html-keyboard-response","490","1635798","0.0-260.0-1.0","null","<p></p>","null","","","","","","","","","","","","","","","","","","",""
"","do_trial","491","1641593","0.0-261.0-0.0","1230.7000000029802","","","","49","0,0,0","5","coast","195","probe-28","0.6220697765890075","0.26242556707715275","0.13419950858411922","0","","","","","","","",""
"","html-keyboard-response","492","1642595","0.0-261.0-1.0","null","<p></p>","null","","","","","","","","","","","","","","","","","","",""
"","do_trial","493","1648909","0.0-262.0-0.0","1748.8999999910593","","","","49","0,0,0","5","coast","196","probe-125","0.6694942747672277","0.09559822935696186","0.13641698173526012","0","","","","","","","",""
"","html-keyboard-response","494","1649912","0.0-262.0-1.0","null","<p></p>","null","","","","","","","","","","","","","","","","","","",""
"","do_trial","495","1655381","0.0-263.0-0.0","904.4000000059605","","","","49","0,0,0","5","coast","197","probe-31","0.6310027093708829","0.07786328043618672","0.15411485375965864","0","","","","","","","",""
"","html-keyboard-response","496","1656384","0.0-263.0-1.0","null","<p></p>","null","","","","","","","","","","","","","","","","","","",""
"","do_trial","497","1663688","0.0-264.0-0.0","2738.5","","","","49","1,0,1","5","coast","198","probe-75","0.6440682314274124","0.05658796998125263","0.18019978698259817","1","","","","","","","",""
"","html-keyboard-response","498","1664691","0.0-264.0-1.0","null","<p></p>","null","","","","","","","","","","","","","","","","","","",""
"","do_trial","499","1671863","0.0-265.0-0.0","2605.6000000089407","","","","49","1,0,0","5","coast","199","probe-01","0.5662592596186176","0.07768470879743813","0.1778918121476964","1","","","","","","","",""
"","html-keyboard-response","500","1672866","0.0-265.0-1.0","null","<p></p>","null","","","","","","","","","","","","","","","","","","",""
"","do_trial","501","1679756","0.0-266.0-0.0","2324.5999999940395","","","","49","1,0,0","5","coast","200","probe-19","0.46419446210535326","0.10281396436934696","0.18161756977392354","1","","","","","","","",""
"","html-keyboard-response","502","1680759","0.0-266.0-1.0","null","<p></p>","null","","","","","","","","","","","","","","","","","","",""
"","do_trial","503","1686990","0.0-267.0-0.0","1668.2000000029802","","","","49","1,0,1","5","coast","201","probe-42","0.48605061345140926","0.09491125422623639","0.1809616319213061","1","","","","","","","",""
"","html-keyboard-response","504","1687993","0.0-267.0-1.0","null","<p></p>","null","","","","","","","","","","","","","","","","","","",""
"","do_trial","505","1693536","0.0-268.0-0.0","977.0999999940395","","","","49","1,0,0","5","coast","202","probe-122","0.4052364855049162","0.28072687388005335","0.21649839140767013","1","","","","","","","",""
"","html-keyboard-response","506","1694539","0.0-268.0-1.0","null","<p></p>","null","","","","","","","","","","","","","","","","","","",""
"","do_trial","507","1700576","0.0-269.0-0.0","1472.4000000059605","","","","49","0,1,0","5","coast","203","probe-222","0.27075306730372306","0.31306950713242193","0.2413974548833275","0","","","","","","","",""
"","html-keyboard-response","508","1701579","0.0-269.0-1.0","null","<p></p>","null","","","","","","","","","","","","","","","","","","",""
"","do_trial","509","1707644","0.0-270.0-0.0","null","","","","null","0,0,0","5","coast","204","probe-142","0.2677159416049277","0.37758364122123794","0.060788689502925326","","","","","","","","",""
"","html-keyboard-response","510","1708646","0.0-270.0-1.0","null","<p></p>","null","","","","","","","","","","","","","","","","","","",""
"","do_trial","511","1713572","0.0-271.0-0.0","357.6000000089407","","","","49","1,0,0","5","coast","205","probe-225","0.40009660046758583","0.3976649055884244","0.07385179651516334","1","","","","","","","",""
"","html-keyboard-response","512","1714577","0.0-271.0-1.0","null","<p></p>","null","","","","","","","","","","","","","","","","","","",""
"","do_trial","513","1721935","0.0-272.0-0.0","2793.0999999940395","","","","49","0,0,0","5","coast","206","probe-20","0.35938704048291586","0.4248065215131016","0.07149671092085917","0","","","","","","","",""
"","html-keyboard-response","514","1722938","0.0-272.0-1.0","null","<p></p>","null","","","","","","","","","","","","","","","","","","",""
"","do_trial","515","1728094","0.0-273.0-0.0","592.5","","","","49","0,0,0","5","coast","207","probe-166","0.3075007381134806","0.5308381212295218","0.16823640757555444","0","","","","","","","",""
"","html-keyboard-response","516","1729096","0.0-273.0-1.0","null","<p></p>","null","","","","","","","","","","","","","","","","","","",""
"","do_trial","517","1734536","0.0-274.0-0.0","873","","","","50","1,0,1","5","coast","208","probe-84","0.39428416548664563","0.35522407238204246","0.2566077427868811","0","","","","","","","",""
"","html-keyboard-response","518","1735539","0.0-274.0-1.0","null","<p></p>","null","","","","","","","","","","","","","","","","","","",""
"","do_trial","519","1741179","0.0-275.0-0.0","1076.0999999940395","","","","49","0,0,0","5","coast","209","probe-52","0.42369900780066017","0.4506586881814009","0.2775406900881424","0","","","","","","","",""
"","html-keyboard-response","520","1742182","0.0-275.0-1.0","null","<p></p>","null","","","","","","","","","","","","","","","","","","",""
"","do_trial","521","1748663","0.0-276.0-0.0","1916.5","","","","49","0,1,1","5","coast","210","probe-131","0.33687265734622623","0.6322979065130183","0.20909077556230396","0","","","","","","","",""
"","html-keyboard-response","522","1749666","0.0-276.0-1.0","null","<p></p>","null","","","","","","","","","","","","","","","","","","",""
"","do_trial","523","1756440","0.0-277.0-0.0","2209","","","","49","0,0,0","5","coast","211","probe-39","0.39315319768110457","0.704062529640141","0.31408831408004967","0","","","","","","","",""
"","html-keyboard-response","524","1757443","0.0-277.0-1.0","null","<p></p>","null","","","","","","","","","","","","","","","","","","",""
