"success","trial_type","trial_index","time_elapsed","internal_node_id","interactions","blur_events","focus_events","fullscreenenter_events","fullscreenexit_events","rt","stimulus","key_press","subject_id","participant_id","age","gender","prompt","response","choice_outcomes","context_n","context_img_id","trial_n","probe_img_id","pR_red","pR_white","pR_black","outcome","contextArray_ind","validImageProbes","invalidImageProbes","pRew_Red","pRew_White","pRew_Black","availableForMemProbe","choice_blocks"
"true","fullscreen","0","8601","0.0-0.0","""event"",""trial"",""time""
""blur"",""0"",""0""
""focus"",""0"",""0""
""fullscreenenter"",""0"",""7688""
","""event"",""trial"",""time""
""blur"",""0"",""0""
","""event"",""trial"",""time""
""focus"",""0"",""0""
","""event"",""trial"",""time""
""fullscreenenter"",""0"",""7688""
","
","","","","","","","","","","","","","","","","","","","","","","","","","",""
"","pavlovia","1","8612","0.0-1.0","""event"",""trial"",""time""
""blur"",""0"",""0""
""focus"",""0"",""0""
""fullscreenenter"",""0"",""7688""
","""event"",""trial"",""time""
""blur"",""0"",""0""
","""event"",""trial"",""time""
""focus"",""0"",""0""
","""event"",""trial"",""time""
""fullscreenenter"",""0"",""7688""
","
","","","","","","","","","","","","","","","","","","","","","","","","","",""
"","instruc1","2","53895","0.0-2.0","""event"",""trial"",""time""
""blur"",""0"",""0""
""focus"",""0"",""0""
""fullscreenenter"",""0"",""7688""
","""event"",""trial"",""time""
""blur"",""0"",""0""
","""event"",""trial"",""time""
""focus"",""0"",""0""
","""event"",""trial"",""time""
""fullscreenenter"",""0"",""7688""
","
","null","run_exp/static/audio/clip_1_welcome.m4a","null","336","179","20","Female","<div class='center'><p>Welcome! This is the first part of the study. It will last ~30 minutes. In part 1 and part 2 of the study, you are the head captain of a pirate ship traveling around the world to different islands. You will play a few different games throughout these two parts. Here is an overview of them:</p><br><p>Part 1 (today)</p><p>1. Instructions, practice game, and quiz</p><p>2. Pick a pirate game on 6 different islands</p><br><p>Part 2 (tomorrow)</p><p>3. Pick a pirate game and memory game</p><p>4. Where did you see this ship? </p></div>","","","","","","","","","","","","","","","","","",""
"","html-keyboard-response","3","55888","0.0-3.0","""event"",""trial"",""time""
""blur"",""0"",""0""
""focus"",""0"",""0""
""fullscreenenter"",""0"",""7688""
","""event"",""trial"",""time""
""blur"",""0"",""0""
","""event"",""trial"",""time""
""focus"",""0"",""0""
","""event"",""trial"",""time""
""fullscreenenter"",""0"",""7688""
","
","1989.1000000089407","<div class='center'><p>Welcome! This is the first part of the study. It will last ~30 minutes. In part 1 and part 2 of the study, you are the head captain of a pirate ship traveling around the world to different islands. You will play a few different games throughout these two parts. Here is an overview of them:</p><br><p>Part 1 (today)</p><p>1. Instructions, practice game, and quiz</p><p>2. Pick a pirate game on 6 different islands</p><br><p>Part 2 (tomorrow)</p><p>3. Pick a pirate game and memory game</p><p>4. Where did you see this ship? </p><p><b>[Press the space bar to continue]</b></p></div>","32","","","","","","","","","","","","","","","","","","","","","","",""
"","instruc2","4","61270","0.0-4.0","""event"",""trial"",""time""
""blur"",""0"",""0""
""focus"",""0"",""0""
""fullscreenenter"",""0"",""7688""
","""event"",""trial"",""time""
""blur"",""0"",""0""
","""event"",""trial"",""time""
""focus"",""0"",""0""
","""event"",""trial"",""time""
""fullscreenenter"",""0"",""7688""
","
","null","run_exp/static/audio/clip_2_different_places.m4a","null","","","","","<div class='center'><p>Today, you’ll visit these 6 islands on your journey. You'll be able to see these islands from your ship.</p><p><img src='run_exp/static/images/contexts/all_contexts.png' height='500'></p></div>","","","","","","","","","","","","","","","","","",""
"","html-keyboard-response","5","69138","0.0-5.0","""event"",""trial"",""time""
""blur"",""0"",""0""
""focus"",""0"",""0""
""fullscreenenter"",""0"",""7688""
","""event"",""trial"",""time""
""blur"",""0"",""0""
","""event"",""trial"",""time""
""focus"",""0"",""0""
","""event"",""trial"",""time""
""fullscreenenter"",""0"",""7688""
","
","7865.79999999702","<div class='center'><p>Today, you’ll visit these 6 islands on your journey. You'll be able to see these islands from your ship.</p><p><img src='run_exp/static/images/contexts/all_contexts.png' height='500'></p><p><b>[Press the space bar to continue]</b></p></div>","32","","","","","","","","","","","","","","","","","","","","","","",""
"","instruc3","6","78902","0.0-6.0","""event"",""trial"",""time""
""blur"",""0"",""0""
""focus"",""0"",""0""
""fullscreenenter"",""0"",""7688""
","""event"",""trial"",""time""
""blur"",""0"",""0""
","""event"",""trial"",""time""
""focus"",""0"",""0""
","""event"",""trial"",""time""
""fullscreenenter"",""0"",""7688""
","
","null","run_exp/static/audio/clip_3_goal_of_game_1.m4a","null","","","","","<div class='center'><p> The pirates on your ship will rob other ships as they leave the island.</p> These ships have just sold their goods to the islanders, so they will be filled with lots and lots of gold.</p><p><img src='run_exp/static/images/tutorial/ship_center.png' height='400'></p></div>","","","","","","","","","","","","","","","","","",""
"","html-keyboard-response","7","79564","0.0-7.0","""event"",""trial"",""time""
""blur"",""0"",""0""
""focus"",""0"",""0""
""fullscreenenter"",""0"",""7688""
","""event"",""trial"",""time""
""blur"",""0"",""0""
","""event"",""trial"",""time""
""focus"",""0"",""0""
","""event"",""trial"",""time""
""fullscreenenter"",""0"",""7688""
","
","660.6000000089407","<div class='center'><p> The pirates on your ship will rob other ships as they leave the island.</p> These ships have just sold their goods to the islanders, so they will be filled with lots and lots of gold.</p><p><img src='run_exp/static/images/tutorial/ship_center.png' height='400'></p><p><b>[Press the space bar to continue]</b></p></div>","32","","","","","","","","","","","","","","","","","","","","","","",""
"","instruc4","8","107639","0.0-8.0","""event"",""trial"",""time""
""blur"",""0"",""0""
""focus"",""0"",""0""
""fullscreenenter"",""0"",""7688""
","""event"",""trial"",""time""
""blur"",""0"",""0""
","""event"",""trial"",""time""
""focus"",""0"",""0""
","""event"",""trial"",""time""
""fullscreenenter"",""0"",""7688""
","
","null","run_exp/static/audio/clip_4_goal_of_game_2.m4a","null","","","","","<div class='center'><p>As the head captain, you do not have to rob any ships yourself. Another pirate will be doing the robbing for you. First, you will choose a pirate to rob the next ship.</p><p><img src='run_exp/static/images/tutorial/pirates_all_crop.png' height='200'></p><p>Then, you'll see if the pirate successfully robbed the ship of their gold. If they were successful, then you'll get a stack of gold coins like this:</p><p><img src='run_exp/static/images/tutorial/reward.png' height='150'></p><p> If they were <b>not</b> successful, then you'll get no gold coins, and you'll see a big red x like this: </p><p><img src='run_exp/static/images/tutorial/reward_no.png' height='150'></p><p> How much bonus money you make is based on how many gold coins you collect.</p><div>","","","","","","","","","","","","","","","","","",""
"","html-keyboard-response","9","109012","0.0-9.0","""event"",""trial"",""time""
""blur"",""0"",""0""
""focus"",""0"",""0""
""fullscreenenter"",""0"",""7688""
","""event"",""trial"",""time""
""blur"",""0"",""0""
","""event"",""trial"",""time""
""focus"",""0"",""0""
","""event"",""trial"",""time""
""fullscreenenter"",""0"",""7688""
","
","1371.7999999970198","<div class='center'><p>As the head captain, you do not have to rob any ships yourself. Another pirate will be doing the robbing for you. First, you will choose a pirate to rob the next ship.</p><p><img src='run_exp/static/images/tutorial/pirates_all_crop.png' height='200'></p><p>Then, you'll see if the pirate successfully robbed the ship of their gold. If they were successful, then you'll get a stack of gold coins like this:</p><p><img src='run_exp/static/images/tutorial/reward.png' height='150'></p><p> If they were <b>not</b> successful, then you'll get no gold coins, and you'll see a big red x like this: </p><p><img src='run_exp/static/images/tutorial/reward_no.png' height='150'></p><p> How much bonus money you make is based on how many gold coins you collect.</p<p><b>[Press the space bar to continue]</b></p></div>","32","","","","","","","","","","","","","","","","","","","","","","",""
"","instruc5","10","133544","0.0-10.0","""event"",""trial"",""time""
""blur"",""0"",""0""
""focus"",""0"",""0""
""fullscreenenter"",""0"",""7688""
","""event"",""trial"",""time""
""blur"",""0"",""0""
","""event"",""trial"",""time""
""focus"",""0"",""0""
","""event"",""trial"",""time""
""fullscreenenter"",""0"",""7688""
","
","24528.89999999106","run_exp/static/audio/clip_5_probabilistic.m4a","49","","","","","<div class='center'><p>Even the most skilled pirate can not rob EVERY ship.</p><p> Some ships will have very strong protections against pirate attacks.</p><p> Blue beard, here, is very, very good at robbing ships, but he won't be successful every time he tries to rob one.</p><p> You can press the <b>‘1’</b> key on the keyboard to choose him.</p><p> Try choosing him 10 times to see how often he succeeds at robbing a ship. </p><p><img src='run_exp/static/images/tutorial/blue.png' height='500'></p></div>","","","","","","","","","","","","","","","","","",""
"","html-keyboard-response","11","135048","0.0-11.0","""event"",""trial"",""time""
""blur"",""0"",""0""
""focus"",""0"",""0""
""fullscreenenter"",""0"",""7688""
","""event"",""trial"",""time""
""blur"",""0"",""0""
","""event"",""trial"",""time""
""focus"",""0"",""0""
","""event"",""trial"",""time""
""fullscreenenter"",""0"",""7688""
","
","null","<div class='center'><p><img src='run_exp/static/images/tutorial/blue_win.png' height='500'></p></div>","null","","","","","","","","","","","","","","","","","","","","","","",""
"","html-keyboard-response","12","135265","0.0-12.0","""event"",""trial"",""time""
""blur"",""0"",""0""
""focus"",""0"",""0""
""fullscreenenter"",""0"",""7688""
","""event"",""trial"",""time""
""blur"",""0"",""0""
","""event"",""trial"",""time""
""focus"",""0"",""0""
","""event"",""trial"",""time""
""fullscreenenter"",""0"",""7688""
","
","215.09999999403954","<div class='center'><img src='run_exp/static/images/tutorial/blue.png' height='500'></p></div>","49","","","","","","","","","","","","","","","","","","","","","","",""
"","html-keyboard-response","13","136767","0.0-13.0","""event"",""trial"",""time""
""blur"",""0"",""0""
""focus"",""0"",""0""
""fullscreenenter"",""0"",""7688""
","""event"",""trial"",""time""
""blur"",""0"",""0""
","""event"",""trial"",""time""
""focus"",""0"",""0""
","""event"",""trial"",""time""
""fullscreenenter"",""0"",""7688""
","
","null","<div class='center'><p><img src='run_exp/static/images/tutorial/blue_win.png' height='500'></p></div>","null","","","","","","","","","","","","","","","","","","","","","","",""
"","html-keyboard-response","14","137873","0.0-14.0","""event"",""trial"",""time""
""blur"",""0"",""0""
""focus"",""0"",""0""
""fullscreenenter"",""0"",""7688""
","""event"",""trial"",""time""
""blur"",""0"",""0""
","""event"",""trial"",""time""
""focus"",""0"",""0""
","""event"",""trial"",""time""
""fullscreenenter"",""0"",""7688""
","
","1105.1000000089407","<div class='center'><img src='run_exp/static/images/tutorial/blue.png' height='500'></p></div>","49","","","","","","","","","","","","","","","","","","","","","","",""
"","html-keyboard-response","15","139376","0.0-15.0","""event"",""trial"",""time""
""blur"",""0"",""0""
""focus"",""0"",""0""
""fullscreenenter"",""0"",""7688""
","""event"",""trial"",""time""
""blur"",""0"",""0""
","""event"",""trial"",""time""
""focus"",""0"",""0""
","""event"",""trial"",""time""
""fullscreenenter"",""0"",""7688""
","
","null","<div class='center'><p><img src='run_exp/static/images/tutorial/blue_win.png' height='500'></p></div>","null","","","","","","","","","","","","","","","","","","","","","","",""
"","html-keyboard-response","16","139735","0.0-16.0","""event"",""trial"",""time""
""blur"",""0"",""0""
""focus"",""0"",""0""
""fullscreenenter"",""0"",""7688""
","""event"",""trial"",""time""
""blur"",""0"",""0""
","""event"",""trial"",""time""
""focus"",""0"",""0""
","""event"",""trial"",""time""
""fullscreenenter"",""0"",""7688""
","
","355.19999998807907","<div class='center'><img src='run_exp/static/images/tutorial/blue.png' height='500'></p></div>","49","","","","","","","","","","","","","","","","","","","","","","",""
"","html-keyboard-response","17","141238","0.0-17.0","""event"",""trial"",""time""
""blur"",""0"",""0""
""focus"",""0"",""0""
""fullscreenenter"",""0"",""7688""
","""event"",""trial"",""time""
""blur"",""0"",""0""
","""event"",""trial"",""time""
""focus"",""0"",""0""
","""event"",""trial"",""time""
""fullscreenenter"",""0"",""7688""
","
","null","<div class='center'><p><img src='run_exp/static/images/tutorial/blue_no_win.png' height='500'></p></div>","null","","","","","","","","","","","","","","","","","","","","","","",""
"","html-keyboard-response","18","141612","0.0-18.0","""event"",""trial"",""time""
""blur"",""0"",""0""
""focus"",""0"",""0""
""fullscreenenter"",""0"",""7688""
","""event"",""trial"",""time""
""blur"",""0"",""0""
","""event"",""trial"",""time""
""focus"",""0"",""0""
","""event"",""trial"",""time""
""fullscreenenter"",""0"",""7688""
","
","372.90000000596046","<div class='center'><img src='run_exp/static/images/tutorial/blue.png' height='500'></p></div>","49","","","","","","","","","","","","","","","","","","","","","","",""
"","html-keyboard-response","19","143116","0.0-19.0","""event"",""trial"",""time""
""blur"",""0"",""0""
""focus"",""0"",""0""
""fullscreenenter"",""0"",""7688""
","""event"",""trial"",""time""
""blur"",""0"",""0""
","""event"",""trial"",""time""
""focus"",""0"",""0""
","""event"",""trial"",""time""
""fullscreenenter"",""0"",""7688""
","
","null","<div class='center'><p><img src='run_exp/static/images/tutorial/blue_win.png' height='500'></p></div>","null","","","","","","","","","","","","","","","","","","","","","","",""
"","html-keyboard-response","20","143465","0.0-20.0","""event"",""trial"",""time""
""blur"",""0"",""0""
""focus"",""0"",""0""
""fullscreenenter"",""0"",""7688""
","""event"",""trial"",""time""
""blur"",""0"",""0""
","""event"",""trial"",""time""
""focus"",""0"",""0""
","""event"",""trial"",""time""
""fullscreenenter"",""0"",""7688""
","
","346.90000000596046","<div class='center'><img src='run_exp/static/images/tutorial/blue.png' height='500'></p></div>","49","","","","","","","","","","","","","","","","","","","","","","",""
"","html-keyboard-response","21","144969","0.0-21.0","""event"",""trial"",""time""
""blur"",""0"",""0""
""focus"",""0"",""0""
""fullscreenenter"",""0"",""7688""
","""event"",""trial"",""time""
""blur"",""0"",""0""
","""event"",""trial"",""time""
""focus"",""0"",""0""
","""event"",""trial"",""time""
""fullscreenenter"",""0"",""7688""
","
","null","<div class='center'><p><img src='run_exp/static/images/tutorial/blue_win.png' height='500'></p></div>","null","","","","","","","","","","","","","","","","","","","","","","",""
"","html-keyboard-response","22","145439","0.0-22.0","""event"",""trial"",""time""
""blur"",""0"",""0""
""focus"",""0"",""0""
""fullscreenenter"",""0"",""7688""
","""event"",""trial"",""time""
""blur"",""0"",""0""
","""event"",""trial"",""time""
""focus"",""0"",""0""
","""event"",""trial"",""time""
""fullscreenenter"",""0"",""7688""
","
","468.69999998807907","<div class='center'><img src='run_exp/static/images/tutorial/blue.png' height='500'></p></div>","49","","","","","","","","","","","","","","","","","","","","","","",""
"","html-keyboard-response","23","146944","0.0-23.0","""event"",""trial"",""time""
""blur"",""0"",""0""
""focus"",""0"",""0""
""fullscreenenter"",""0"",""7688""
","""event"",""trial"",""time""
""blur"",""0"",""0""
","""event"",""trial"",""time""
""focus"",""0"",""0""
","""event"",""trial"",""time""
""fullscreenenter"",""0"",""7688""
","
","null","<div class='center'><p><img src='run_exp/static/images/tutorial/blue_win.png' height='500'></p></div>","null","","","","","","","","","","","","","","","","","","","","","","",""
"","html-keyboard-response","24","147276","0.0-24.0","""event"",""trial"",""time""
""blur"",""0"",""0""
""focus"",""0"",""0""
""fullscreenenter"",""0"",""7688""
","""event"",""trial"",""time""
""blur"",""0"",""0""
","""event"",""trial"",""time""
""focus"",""0"",""0""
","""event"",""trial"",""time""
""fullscreenenter"",""0"",""7688""
","
","331.29999999701977","<div class='center'><img src='run_exp/static/images/tutorial/blue.png' height='500'></p></div>","49","","","","","","","","","","","","","","","","","","","","","","",""
"","html-keyboard-response","25","148781","0.0-25.0","""event"",""trial"",""time""
""blur"",""0"",""0""
""focus"",""0"",""0""
""fullscreenenter"",""0"",""7688""
","""event"",""trial"",""time""
""blur"",""0"",""0""
","""event"",""trial"",""time""
""focus"",""0"",""0""
","""event"",""trial"",""time""
""fullscreenenter"",""0"",""7688""
","
","null","<div class='center'><p><img src='run_exp/static/images/tutorial/blue_no_win.png' height='500'></p></div>","null","","","","","","","","","","","","","","","","","","","","","","",""
"","html-keyboard-response","26","149110","0.0-26.0","""event"",""trial"",""time""
""blur"",""0"",""0""
""focus"",""0"",""0""
""fullscreenenter"",""0"",""7688""
","""event"",""trial"",""time""
""blur"",""0"",""0""
","""event"",""trial"",""time""
""focus"",""0"",""0""
","""event"",""trial"",""time""
""fullscreenenter"",""0"",""7688""
","
","328.70000000298023","<div class='center'><img src='run_exp/static/images/tutorial/blue.png' height='500'></p></div>","49","","","","","","","","","","","","","","","","","","","","","","",""
"","html-keyboard-response","27","150615","0.0-27.0","""event"",""trial"",""time""
""blur"",""0"",""0""
""focus"",""0"",""0""
""fullscreenenter"",""0"",""7688""
","""event"",""trial"",""time""
""blur"",""0"",""0""
","""event"",""trial"",""time""
""focus"",""0"",""0""
","""event"",""trial"",""time""
""fullscreenenter"",""0"",""7688""
","
","null","<div class='center'><p><img src='run_exp/static/images/tutorial/blue_win.png' height='500'></p></div>","null","","","","","","","","","","","","","","","","","","","","","","",""
"","html-keyboard-response","28","150932","0.0-28.0","""event"",""trial"",""time""
""blur"",""0"",""0""
""focus"",""0"",""0""
""fullscreenenter"",""0"",""7688""
","""event"",""trial"",""time""
""blur"",""0"",""0""
","""event"",""trial"",""time""
""focus"",""0"",""0""
","""event"",""trial"",""time""
""fullscreenenter"",""0"",""7688""
","
","316.1000000089407","<div class='center'><img src='run_exp/static/images/tutorial/blue.png' height='500'></p></div>","49","","","","","","","","","","","","","","","","","","","","","","",""
"","html-keyboard-response","29","152435","0.0-29.0","""event"",""trial"",""time""
""blur"",""0"",""0""
""focus"",""0"",""0""
""fullscreenenter"",""0"",""7688""
","""event"",""trial"",""time""
""blur"",""0"",""0""
","""event"",""trial"",""time""
""focus"",""0"",""0""
","""event"",""trial"",""time""
""fullscreenenter"",""0"",""7688""
","
","null","<div class='center'><p><img src='run_exp/static/images/tutorial/blue_win.png' height='500'></p></div>","null","","","","","","","","","","","","","","","","","","","","","","",""
"","instruc6","30","157928","0.0-30.0","""event"",""trial"",""time""
""blur"",""0"",""0""
""focus"",""0"",""0""
""fullscreenenter"",""0"",""7688""
","""event"",""trial"",""time""
""blur"",""0"",""0""
","""event"",""trial"",""time""
""focus"",""0"",""0""
","""event"",""trial"",""time""
""fullscreenenter"",""0"",""7688""
","
","null","run_exp/static/audio/clip_6_blue_beard_outcome.m4a","null","","","","","<div class='center'><p> See, he succeeded in robbing the ships most of the time but not every time. </p></div>","","","","","","","","","","","","","","","","","",""
"","html-keyboard-response","31","158458","0.0-31.0","""event"",""trial"",""time""
""blur"",""0"",""0""
""focus"",""0"",""0""
""fullscreenenter"",""0"",""7688""
","""event"",""trial"",""time""
""blur"",""0"",""0""
","""event"",""trial"",""time""
""focus"",""0"",""0""
","""event"",""trial"",""time""
""fullscreenenter"",""0"",""7688""
","
","528.1999999880791","<div class='center'><p> See, he succeeded in robbing the ships most of the time but not every time. </p><p><b>[Press the space bar to continue]</b></p></div>","32","","","","","","","","","","","","","","","","","","","","","","",""
"","audio-keyboard-response","32","174758","0.0-32.0","""event"",""trial"",""time""
""blur"",""0"",""0""
""focus"",""0"",""0""
""fullscreenenter"",""0"",""7688""
","""event"",""trial"",""time""
""blur"",""0"",""0""
","""event"",""trial"",""time""
""focus"",""0"",""0""
","""event"",""trial"",""time""
""fullscreenenter"",""0"",""7688""
","
","16298.5","run_exp/static/audio/clip_7_pick_pirate.m4a","50","","","","","","","","","","","","","","","","","","","","","","",""
"","audio-keyboard-response","33","178141","0.0-33.0-0.0","""event"",""trial"",""time""
""blur"",""0"",""0""
""focus"",""0"",""0""
""fullscreenenter"",""0"",""7688""
","""event"",""trial"",""time""
""blur"",""0"",""0""
","""event"",""trial"",""time""
""focus"",""0"",""0""
","""event"",""trial"",""time""
""fullscreenenter"",""0"",""7688""
","
","3379","run_exp/static/audio/clip_8_chosen_pirate_win.m4a","32","","","","","","","","","","","","","","","","","","","","","","",""
"","audio-keyboard-response","34","179403","0.0-33.0-1.0","""event"",""trial"",""time""
""blur"",""0"",""0""
""focus"",""0"",""0""
""fullscreenenter"",""0"",""7688""
","""event"",""trial"",""time""
""blur"",""0"",""0""
","""event"",""trial"",""time""
""focus"",""0"",""0""
","""event"",""trial"",""time""
""fullscreenenter"",""0"",""7688""
","
","1260.1000000089407","run_exp/static/audio/clip_9_pick_a_pirate_again.m4a","51","","","","","","","","","","","","","","","","","","","","","","",""
"","audio-keyboard-response","35","180772","0.0-34.0-0.0","""event"",""trial"",""time""
""blur"",""0"",""0""
""focus"",""0"",""0""
""fullscreenenter"",""0"",""7688""
","""event"",""trial"",""time""
""blur"",""0"",""0""
","""event"",""trial"",""time""
""focus"",""0"",""0""
","""event"",""trial"",""time""
""fullscreenenter"",""0"",""7688""
","
","1367.2000000029802","run_exp/static/audio/clip_10_chosen_pirate_loss.m4a","32","","","","","","","","","","","","","","","","","","","","","","",""
"","instruc9","36","186346","0.0-35.0-0.0","""event"",""trial"",""time""
""blur"",""0"",""0""
""focus"",""0"",""0""
""fullscreenenter"",""0"",""7688""
","""event"",""trial"",""time""
""blur"",""0"",""0""
","""event"",""trial"",""time""
""focus"",""0"",""0""
","""event"",""trial"",""time""
""fullscreenenter"",""0"",""7688""
","
","null","run_exp/static/audio/clip_11_time_out.m4a","null","","","","","<div class='center'><p>If you don’t make your choice fast enough, you’ll have to wait a few seconds before you can make another one. </p><p><img src='run_exp/static/images/miscellaneous/hurry_up.png' height='500'></p></div>","","","","","","","","","","","","","","","","","",""
"","html-keyboard-response","37","187247","0.0-35.0-1.0","""event"",""trial"",""time""
""blur"",""0"",""0""
""focus"",""0"",""0""
""fullscreenenter"",""0"",""7688""
","""event"",""trial"",""time""
""blur"",""0"",""0""
","""event"",""trial"",""time""
""focus"",""0"",""0""
","""event"",""trial"",""time""
""fullscreenenter"",""0"",""7688""
","
","900.5","<div class='center'><p>If you don’t make your choice fast enough, you’ll have to wait a few seconds before you can make another one. </p><p><img src='run_exp/static/images/miscellaneous/hurry_up.png' height='500'></p><p><b>[Press the space bar to continue]</b></p></div>","32","","","","","","","","","","","","","","","","","","","","","","",""
"","instruc10","38","226443","0.0-35.0-2.0","""event"",""trial"",""time""
""blur"",""0"",""0""
""focus"",""0"",""0""
""fullscreenenter"",""0"",""7688""
","""event"",""trial"",""time""
""blur"",""0"",""0""
","""event"",""trial"",""time""
""focus"",""0"",""0""
","""event"",""trial"",""time""
""fullscreenenter"",""0"",""7688""
","
","null","run_exp/static/audio/clip_12_probe.m4a","null","","","","","<div class='center'><p>Once you've chosen a pirate, you’ll be shown the ship they are robbing. You will never rob the same ship twice. Ships can be told apart from one another by the image on them. These are the goods that they sell. See, this ship has a travel mug on it. </p><p> You’ll have to remember which island you saw each ship on. You will win more gold coins and hence more bonus money if you remember correctly! To help you remember, you can imagine a story. For example, here, you could imagine a mug full of water in the desert. Or, as another example, if on the forest island, your pirate robbed a ship with an apple on it, you could imagine an apple falling from a tree in the forest. </p><p><img src='run_exp/static/images/tutorial/example_probe.png' height='500'></p></div>","","","","","","","","","","","","","","","","","",""
"","html-keyboard-response","39","265704","0.0-35.0-3.0","""event"",""trial"",""time""
""blur"",""0"",""0""
""focus"",""0"",""0""
""fullscreenenter"",""0"",""7688""
","""event"",""trial"",""time""
""blur"",""0"",""0""
","""event"",""trial"",""time""
""focus"",""0"",""0""
","""event"",""trial"",""time""
""fullscreenenter"",""0"",""7688""
","
","39259.20000000298","<div class='center'><p>Once you've chosen a pirate, you’ll be shown the ship they are robbing. You will never rob the same ship twice. Ships can be told apart from one another by the image on them. These are the goods that they sell. See, this ship has a travel mug on it. </p><p> You’ll have to remember which island you saw each ship on. You will win more gold coins and hence more bonus money if you remember correctly! To help you remember, you can imagine a story. For example, here, you could imagine a mug full of water in the desert. Or, as another example, if on the forest island, your pirate robbed a ship with an apple on it, you could imagine an apple falling from a tree in the forest. </p><p><img src='run_exp/static/images/tutorial/example_probe.png' height='500'></p><p><b>[Press the space bar to continue]</b></p></div>","32","","","","","","","","","","","","","","","","","","","","","","",""
"","instruc11","40","282250","0.0-35.0-4.0","""event"",""trial"",""time""
""blur"",""0"",""0""
""focus"",""0"",""0""
""fullscreenenter"",""0"",""7688""
","""event"",""trial"",""time""
""blur"",""0"",""0""
","""event"",""trial"",""time""
""focus"",""0"",""0""
","""event"",""trial"",""time""
""fullscreenenter"",""0"",""7688""
","
","null","run_exp/static/audio/clip_13_changepoint.m4a","null","","","","","<div class='center'><p>How successful a pirate is at robbing ships will depend on the island you’re on.</p><p> A pirate may have visited this island many times before and gained a lot of practice robbing ships there.</p><p>So, they’re more likely to be successful than a pirate who has never visited the island before.</p></div>","","","","","","","","","","","","","","","","","",""
"","html-keyboard-response","41","288501","0.0-35.0-5.0","""event"",""trial"",""time""
""blur"",""0"",""0""
""focus"",""0"",""0""
""fullscreenenter"",""0"",""7688""
","""event"",""trial"",""time""
""blur"",""0"",""0""
","""event"",""trial"",""time""
""focus"",""0"",""0""
","""event"",""trial"",""time""
""fullscreenenter"",""0"",""7688""
","
","6249","<div class='center'><p>How successful a pirate is at robbing ships will depend on the island you’re on.</p><p> A pirate may have visited this island many times before and gained a lot of practice robbing ships there.</p><p>So, they’re more likely to be successful than a pirate who has never visited the island before.</p><p><b>[Press the space bar to continue]</b></p></div>","32","","","","","","","","","","","","","","","","","","","","","","",""
"","instruc12","42","329675","0.0-35.0-6.0","""event"",""trial"",""time""
""blur"",""0"",""0""
""focus"",""0"",""0""
""fullscreenenter"",""0"",""7688""
","""event"",""trial"",""time""
""blur"",""0"",""0""
","""event"",""trial"",""time""
""focus"",""0"",""0""
","""event"",""trial"",""time""
""fullscreenenter"",""0"",""7688""
","
","null","run_exp/static/audio/clip_14_drift.m4a","null","","","","","<div class='center'><p>How successful a pirate is at robbing ships can also change over the time spent on the island. </p><p> Ships may hear from islanders about the pirates coming and will improve their protections against the attack. This may make it harder to rob them.</p><p> Ships may also become lazy and weaken the strength of their protections. This may make it easier to rob them.</p><br><p>Things are always changing on the high seas! So, try your best to pay attention!</p><p><img src='run_exp/static/images/tutorial/contingency.png' height='500'></p></div>","","","","","","","","","","","","","","","","","",""
"","html-keyboard-response","43","332084","0.0-35.0-7.0","""event"",""trial"",""time""
""blur"",""0"",""0""
""focus"",""0"",""0""
""fullscreenenter"",""0"",""7688""
","""event"",""trial"",""time""
""blur"",""0"",""0""
","""event"",""trial"",""time""
""focus"",""0"",""0""
","""event"",""trial"",""time""
""fullscreenenter"",""0"",""7688""
","
","2407.7000000029802","<div class='center'><p>How successful a pirate is at robbing ships can also change over the time spent on the island. </p><p> Ships may hear from islanders about the pirates coming and will improve their protections against the attack. This may make it harder to rob them.</p><p> Ships may also become lazy and weaken the strength of their protections. This may make it easier to rob them.</p><br><p>Things are always changing on the high seas! So, try your best to pay attention!</p><p><img src='run_exp/static/images/tutorial/contingency.png' height='500'></p><p><b>[Press the space bar to continue]</b></p></div>","32","","","","","","","","","","","","","","","","","","","","","","",""
"","instruc13","44","367372","0.0-35.0-8.0","""event"",""trial"",""time""
""blur"",""0"",""0""
""focus"",""0"",""0""
""fullscreenenter"",""0"",""7688""
","""event"",""trial"",""time""
""blur"",""0"",""0""
","""event"",""trial"",""time""
""focus"",""0"",""0""
","""event"",""trial"",""time""
""fullscreenenter"",""0"",""7688""
","
","null","run_exp/static/audio/clip_15_summary.m4a","null","","","","","<div class='center'><p>Let's go over the instructions quickly again. You have two important things to do: </p><b><p> 1. Pick the pirate who is the best at robbing ships on the current island. </p></b><b><p> 2. Remember on which island a ship was robbed.</p> </b><p>The amount of bonus money you can win depends on both.</p><p><br><p>Let’s try a practice game. The game will start by showing you the pirates. First, pick a pirate using the <b> 1, 2, 3 </b> keys on your keyboard. When you are shown a ship, try to remember which island you’re on by making up a story.</p><p>This is just a practice game, so you’re not playing for money. </p><p> Good luck! This game will be very difficult but try your best!</p></div>","","","","","","","","","","","","","","","","","",""
"","html-keyboard-response","45","369735","0.0-35.0-9.0","""event"",""trial"",""time""
""blur"",""0"",""0""
""focus"",""0"",""0""
""fullscreenenter"",""0"",""7688""
","""event"",""trial"",""time""
""blur"",""0"",""0""
","""event"",""trial"",""time""
""focus"",""0"",""0""
","""event"",""trial"",""time""
""fullscreenenter"",""0"",""7688""
","
","2361.5","<div class='center'><p>Let's go over the instructions quickly again. You have two important things to do: </p><b><p> 1. Pick the pirate who is the best at robbing ships on the current island. </p></b><b><p> 2. Remember on which island a ship was robbed.</p> </b><p>The amount of bonus money you can win depends on both.</p><p><br><p>Let’s try a practice game. The game will start by showing you the pirates. First, pick a pirate using the <b> 1, 2, 3 </b> keys on your keyboard. When you are shown a ship, try to remember which island you’re on by making up a story.</p><p>This is just a practice game, so you’re not playing for money. </p><p> Good luck! This game will be very difficult but try your best!</p><p><b>[Press the space bar to continue]</b></p></div>","32","","","","","","","","","","","","","","","","","","","","","","",""
"","do_welcome","46","373769","0.0-35.0-10.0","""event"",""trial"",""time""
""blur"",""0"",""0""
""focus"",""0"",""0""
""fullscreenenter"",""0"",""7688""
","""event"",""trial"",""time""
""blur"",""0"",""0""
","""event"",""trial"",""time""
""focus"",""0"",""0""
","""event"",""trial"",""time""
""fullscreenenter"",""0"",""7688""
","
","null","","","","","","","","null","","","","","","","","","","","","","","","","",""
"","do_trial","47","380125","0.0-35.0-11.0","""event"",""trial"",""time""
""blur"",""0"",""0""
""focus"",""0"",""0""
""fullscreenenter"",""0"",""7688""
","""event"",""trial"",""time""
""blur"",""0"",""0""
","""event"",""trial"",""time""
""focus"",""0"",""0""
","""event"",""trial"",""time""
""fullscreenenter"",""0"",""7688""
","
","1842.2000000029802","","","","","","","","50","1,0,0","","","","","","","","","","","","","","","",""
"","html-keyboard-response","48","381132","0.0-36.0-0.0","""event"",""trial"",""time""
""blur"",""0"",""0""
""focus"",""0"",""0""
""fullscreenenter"",""0"",""7688""
","""event"",""trial"",""time""
""blur"",""0"",""0""
","""event"",""trial"",""time""
""focus"",""0"",""0""
","""event"",""trial"",""time""
""fullscreenenter"",""0"",""7688""
","
","null","<p></p>","null","","","","","","","","","","","","","","","","","","","","","","",""
"","do_trial","49","387644","0.0-36.0-1.0","""event"",""trial"",""time""
""blur"",""0"",""0""
""focus"",""0"",""0""
""fullscreenenter"",""0"",""7688""
","""event"",""trial"",""time""
""blur"",""0"",""0""
","""event"",""trial"",""time""
""focus"",""0"",""0""
","""event"",""trial"",""time""
""fullscreenenter"",""0"",""7688""
","
","2001.6000000089407","","","","","","","","49","1,1,0","","","","","","","","","","","","","","","",""
"","html-keyboard-response","50","388649","0.0-37.0-0.0","""event"",""trial"",""time""
""blur"",""0"",""0""
""focus"",""0"",""0""
""fullscreenenter"",""0"",""7688""
","""event"",""trial"",""time""
""blur"",""0"",""0""
","""event"",""trial"",""time""
""focus"",""0"",""0""
","""event"",""trial"",""time""
""fullscreenenter"",""0"",""7688""
","
","null","<p></p>","null","","","","","","","","","","","","","","","","","","","","","","",""
"","do_trial","51","394608","0.0-37.0-1.0","""event"",""trial"",""time""
""blur"",""0"",""0""
""focus"",""0"",""0""
""fullscreenenter"",""0"",""7688""
","""event"",""trial"",""time""
""blur"",""0"",""0""
","""event"",""trial"",""time""
""focus"",""0"",""0""
","""event"",""trial"",""time""
""fullscreenenter"",""0"",""7688""
","
","1446.7000000029802","","","","","","","","49","1,0,1","","","","","","","","","","","","","","","",""
"","html-keyboard-response","52","395614","0.0-38.0-0.0","""event"",""trial"",""time""
""blur"",""0"",""0""
""focus"",""0"",""0""
""fullscreenenter"",""0"",""7688""
","""event"",""trial"",""time""
""blur"",""0"",""0""
","""event"",""trial"",""time""
""focus"",""0"",""0""
","""event"",""trial"",""time""
""fullscreenenter"",""0"",""7688""
","
","null","<p></p>","null","","","","","","","","","","","","","","","","","","","","","","",""
"","do_trial","53","401459","0.0-38.0-1.0","""event"",""trial"",""time""
""blur"",""0"",""0""
""focus"",""0"",""0""
""fullscreenenter"",""0"",""7688""
","""event"",""trial"",""time""
""blur"",""0"",""0""
","""event"",""trial"",""time""
""focus"",""0"",""0""
","""event"",""trial"",""time""
""fullscreenenter"",""0"",""7688""
","
","1333.7999999970198","","","","","","","","51","0,1,0","","","","","","","","","","","","","","","",""
"","html-keyboard-response","54","402461","0.0-39.0-0.0","""event"",""trial"",""time""
""blur"",""0"",""0""
""focus"",""0"",""0""
""fullscreenenter"",""0"",""7688""
","""event"",""trial"",""time""
""blur"",""0"",""0""
","""event"",""trial"",""time""
""focus"",""0"",""0""
","""event"",""trial"",""time""
""fullscreenenter"",""0"",""7688""
","
","null","<p></p>","null","","","","","","","","","","","","","","","","","","","","","","",""
"","do_trial","55","408163","0.0-39.0-1.0","""event"",""trial"",""time""
""blur"",""0"",""0""
""focus"",""0"",""0""
""fullscreenenter"",""0"",""7688""
","""event"",""trial"",""time""
""blur"",""0"",""0""
","""event"",""trial"",""time""
""focus"",""0"",""0""
","""event"",""trial"",""time""
""fullscreenenter"",""0"",""7688""
","
","1195.2000000029802","","","","","","","","49","1,0,0","","","","","","","","","","","","","","","",""
"","do_bye","56","409672","0.0-40.0-0.0","""event"",""trial"",""time""
""blur"",""0"",""0""
""focus"",""0"",""0""
""fullscreenenter"",""0"",""7688""
","""event"",""trial"",""time""
""blur"",""0"",""0""
","""event"",""trial"",""time""
""focus"",""0"",""0""
","""event"",""trial"",""time""
""fullscreenenter"",""0"",""7688""
","
","null","","","","","","","","null","","","","","","","","","","","","","","","","",""
"","do_travel","57","418677","0.0-40.0-1.0","""event"",""trial"",""time""
""blur"",""0"",""0""
""focus"",""0"",""0""
""fullscreenenter"",""0"",""7688""
","""event"",""trial"",""time""
""blur"",""0"",""0""
","""event"",""trial"",""time""
""focus"",""0"",""0""
","""event"",""trial"",""time""
""fullscreenenter"",""0"",""7688""
","
","null","","","","","","","","null","","","","","","","","","","","","","","","","",""
"","do_welcome","58","422683","0.0-40.0-2.0","""event"",""trial"",""time""
""blur"",""0"",""0""
""focus"",""0"",""0""
""fullscreenenter"",""0"",""7688""
","""event"",""trial"",""time""
""blur"",""0"",""0""
","""event"",""trial"",""time""
""focus"",""0"",""0""
","""event"",""trial"",""time""
""fullscreenenter"",""0"",""7688""
","
","null","","","","","","","","null","","","","","","","","","","","","","","","","",""
"","do_trial","59","428479","0.0-40.0-3.0","""event"",""trial"",""time""
""blur"",""0"",""0""
""focus"",""0"",""0""
""fullscreenenter"",""0"",""7688""
","""event"",""trial"",""time""
""blur"",""0"",""0""
","""event"",""trial"",""time""
""focus"",""0"",""0""
","""event"",""trial"",""time""
""fullscreenenter"",""0"",""7688""
","
","1285.0999999940395","","","","","","","","51","1,0,0","","","","","","","","","","","","","","","",""
"","html-keyboard-response","60","429482","0.0-41.0-0.0","""event"",""trial"",""time""
""blur"",""0"",""0""
""focus"",""0"",""0""
""fullscreenenter"",""0"",""7688""
","""event"",""trial"",""time""
""blur"",""0"",""0""
","""event"",""trial"",""time""
""focus"",""0"",""0""
","""event"",""trial"",""time""
""fullscreenenter"",""0"",""7688""
","
","null","<p></p>","null","","","","","","","","","","","","","","","","","","","","","","",""
"","do_trial","61","434303","0.0-41.0-1.0","""event"",""trial"",""time""
""blur"",""0"",""0""
""focus"",""0"",""0""
""fullscreenenter"",""0"",""7688""
","""event"",""trial"",""time""
""blur"",""0"",""0""
","""event"",""trial"",""time""
""focus"",""0"",""0""
","""event"",""trial"",""time""
""fullscreenenter"",""0"",""7688""
","
","313.59999999403954","","","","","","","","50","1,0,1","","","","","","","","","","","","","","","",""
"","html-keyboard-response","62","435308","0.0-42.0-0.0","""event"",""trial"",""time""
""blur"",""0"",""0""
""focus"",""0"",""0""
""fullscreenenter"",""0"",""7688""
","""event"",""trial"",""time""
""blur"",""0"",""0""
","""event"",""trial"",""time""
""focus"",""0"",""0""
","""event"",""trial"",""time""
""fullscreenenter"",""0"",""7688""
","
","null","<p></p>","null","","","","","","","","","","","","","","","","","","","","","","",""
"","do_trial","63","440278","0.0-42.0-1.0","""event"",""trial"",""time""
""blur"",""0"",""0""
""focus"",""0"",""0""
""fullscreenenter"",""0"",""7688""
","""event"",""trial"",""time""
""blur"",""0"",""0""
","""event"",""trial"",""time""
""focus"",""0"",""0""
","""event"",""trial"",""time""
""fullscreenenter"",""0"",""7688""
","
","462","","","","","","","","49","1,1,0","","","","","","","","","","","","","","","",""
"","html-keyboard-response","64","441281","0.0-43.0-0.0","""event"",""trial"",""time""
""blur"",""0"",""0""
""focus"",""0"",""0""
""fullscreenenter"",""0"",""7688""
","""event"",""trial"",""time""
""blur"",""0"",""0""
","""event"",""trial"",""time""
""focus"",""0"",""0""
","""event"",""trial"",""time""
""fullscreenenter"",""0"",""7688""
","
","null","<p></p>","null","","","","","","","","","","","","","","","","","","","","","","",""
"","do_trial","65","446332","0.0-43.0-1.0","""event"",""trial"",""time""
""blur"",""0"",""0""
""focus"",""0"",""0""
""fullscreenenter"",""0"",""7688""
","""event"",""trial"",""time""
""blur"",""0"",""0""
","""event"",""trial"",""time""
""focus"",""0"",""0""
","""event"",""trial"",""time""
""fullscreenenter"",""0"",""7688""
","
","615.0999999940395","","","","","","","","49","0,0,1","","","","","","","","","","","","","","","",""
"","html-keyboard-response","66","447335","0.0-44.0-0.0","""event"",""trial"",""time""
""blur"",""0"",""0""
""focus"",""0"",""0""
""fullscreenenter"",""0"",""7688""
","""event"",""trial"",""time""
""blur"",""0"",""0""
","""event"",""trial"",""time""
""focus"",""0"",""0""
","""event"",""trial"",""time""
""fullscreenenter"",""0"",""7688""
","
","null","<p></p>","null","","","","","","","","","","","","","","","","","","","","","","",""
"","do_trial","67","451908","0.0-44.0-1.0","""event"",""trial"",""time""
""blur"",""0"",""0""
""focus"",""0"",""0""
""fullscreenenter"",""0"",""7688""
","""event"",""trial"",""time""
""blur"",""0"",""0""
","""event"",""trial"",""time""
""focus"",""0"",""0""
","""event"",""trial"",""time""
""fullscreenenter"",""0"",""7688""
","
","62.5","","","","","","","","50","1,0,1","","","","","","","","","","","","","","","",""
"","html-keyboard-response","68","452387","0.0-45.0-0.0","""event"",""trial"",""time""
""blur"",""0"",""0""
""focus"",""0"",""0""
""fullscreenenter"",""0"",""7688""
","""event"",""trial"",""time""
""blur"",""0"",""0""
","""event"",""trial"",""time""
""focus"",""0"",""0""
","""event"",""trial"",""time""
""fullscreenenter"",""0"",""7688""
","
","476.79999999701977","<div class='center'><p><img src='run_exp/static/images/tutorial/prac_best_pirate.png'  height='500'></p></div>","49","","","","","","","","","","","","","","","","","","","","","","",""
"","html-keyboard-response","69","453826","0.0-46.0-0.0","""event"",""trial"",""time""
""blur"",""0"",""0""
""focus"",""0"",""0""
""fullscreenenter"",""0"",""7688""
","""event"",""trial"",""time""
""blur"",""0"",""0""
","""event"",""trial"",""time""
""focus"",""0"",""0""
","""event"",""trial"",""time""
""fullscreenenter"",""0"",""7688""
","
","1437.3999999910593","<div class='center'><p>That's correct! Red beard was the best.</p><p><b>[Press the space bar to continue]</b></p></div>","32","","","","","","","","","","","","","","","","","","","","","","",""
"","html-keyboard-response","70","456887","0.0-46.0-1.0","""event"",""trial"",""time""
""blur"",""0"",""0""
""focus"",""0"",""0""
""fullscreenenter"",""0"",""7688""
","""event"",""trial"",""time""
""blur"",""0"",""0""
","""event"",""trial"",""time""
""focus"",""0"",""0""
","""event"",""trial"",""time""
""fullscreenenter"",""0"",""7688""
","
","3060.2000000029802","<div class='center'><p><img src='run_exp/static/images/tutorial/prac_source.png'  height='500'></p></div>","50","","","","","","","","","","","","","","","","","","","","","","",""
"","html-keyboard-response","71","457803","0.0-47.0-0.0","""event"",""trial"",""time""
""blur"",""0"",""0""
""focus"",""0"",""0""
""fullscreenenter"",""0"",""7688""
","""event"",""trial"",""time""
""blur"",""0"",""0""
","""event"",""trial"",""time""
""focus"",""0"",""0""
","""event"",""trial"",""time""
""fullscreenenter"",""0"",""7688""
","
","914.7999999970198","<div class='center'><p>That's correct! You saw this ship on the cavern island.</p><p><b>[Press the space bar to continue]</b></p></div>","32","","","","","","","","","","","","","","","","","","","","","","",""
"","quiz_beginning","72","469032","0.0-47.0-1.0","""event"",""trial"",""time""
""blur"",""0"",""0""
""focus"",""0"",""0""
""fullscreenenter"",""0"",""7688""
","""event"",""trial"",""time""
""blur"",""0"",""0""
","""event"",""trial"",""time""
""focus"",""0"",""0""
","""event"",""trial"",""time""
""fullscreenenter"",""0"",""7688""
","
","null","run_exp/static/audio/clip_16_quiz_intro.m4a","null","","","","","<div class='center'><p>Good job on the practice game! Now, you will be asked some true or false questions to make sure you really understand the rules of the game.</p><p> Press <b>'1'</b> on the keyboard for true and press <b>'2'</b> for false.</p></div>","","","","","","","","","","","","","","","","","",""
"","audio-keyboard-response","73","471735","0.0-47.0-2.0","""event"",""trial"",""time""
""blur"",""0"",""0""
""focus"",""0"",""0""
""fullscreenenter"",""0"",""7688""
","""event"",""trial"",""time""
""blur"",""0"",""0""
","""event"",""trial"",""time""
""focus"",""0"",""0""
","""event"",""trial"",""time""
""fullscreenenter"",""0"",""7688""
","
","2700.7999999970198","run_exp/static/audio/clip_17_q1.m4a","49","","","","","","","","","","","","","","","","","","","","","","",""
"","correct","74","474153","0.0-48.0-0.0","""event"",""trial"",""time""
""blur"",""0"",""0""
""focus"",""0"",""0""
""fullscreenenter"",""0"",""7688""
","""event"",""trial"",""time""
""blur"",""0"",""0""
","""event"",""trial"",""time""
""focus"",""0"",""0""
","""event"",""trial"",""time""
""fullscreenenter"",""0"",""7688""
","
","null","run_exp/static/audio/clip_18_correct.m4a","null","","","","","<div class='center'><p>That's correct!</p></div>","","","","","","","","","","","","","","","","","",""
"","html-keyboard-response","75","474522","0.0-48.0-1.0","""event"",""trial"",""time""
""blur"",""0"",""0""
""focus"",""0"",""0""
""fullscreenenter"",""0"",""7688""
","""event"",""trial"",""time""
""blur"",""0"",""0""
","""event"",""trial"",""time""
""focus"",""0"",""0""
","""event"",""trial"",""time""
""fullscreenenter"",""0"",""7688""
","
","368.09999999403954","<div class='center'><p>That's correct!</p><p><b>[Press the space bar to continue]</b></p></div>","32","","","","","","","","","","","","","","","","","","","","","","",""
"","audio-keyboard-response","76","479783","0.0-48.0-2.0","""event"",""trial"",""time""
""blur"",""0"",""0""
""focus"",""0"",""0""
""fullscreenenter"",""0"",""7688""
","""event"",""trial"",""time""
""blur"",""0"",""0""
","""event"",""trial"",""time""
""focus"",""0"",""0""
","""event"",""trial"",""time""
""fullscreenenter"",""0"",""7688""
","
","5260.20000000298","run_exp/static/audio/clip_20_q2.m4a","50","","","","","","","","","","","","","","","","","","","","","","",""
"","correct","77","482216","0.0-49.0-0.0","""event"",""trial"",""time""
""blur"",""0"",""0""
""focus"",""0"",""0""
""fullscreenenter"",""0"",""7688""
","""event"",""trial"",""time""
""blur"",""0"",""0""
","""event"",""trial"",""time""
""focus"",""0"",""0""
","""event"",""trial"",""time""
""fullscreenenter"",""0"",""7688""
","
","null","run_exp/static/audio/clip_18_correct.m4a","null","","","","","<div class='center'><p>That's correct!</p></div>","","","","","","","","","","","","","","","","","",""
"","html-keyboard-response","78","482515","0.0-49.0-1.0","""event"",""trial"",""time""
""blur"",""0"",""0""
""focus"",""0"",""0""
""fullscreenenter"",""0"",""7688""
","""event"",""trial"",""time""
""blur"",""0"",""0""
","""event"",""trial"",""time""
""focus"",""0"",""0""
","""event"",""trial"",""time""
""fullscreenenter"",""0"",""7688""
","
","297.80000001192093","<div class='center'><p>That's correct!</p><p><b>[Press the space bar to continue]</b></p></div>","32","","","","","","","","","","","","","","","","","","","","","","",""
"","audio-keyboard-response","79","484666","0.0-49.0-2.0","""event"",""trial"",""time""
""blur"",""0"",""0""
""focus"",""0"",""0""
""fullscreenenter"",""0"",""7688""
","""event"",""trial"",""time""
""blur"",""0"",""0""
","""event"",""trial"",""time""
""focus"",""0"",""0""
","""event"",""trial"",""time""
""fullscreenenter"",""0"",""7688""
","
","2149.2999999970198","run_exp/static/audio/clip_22_q3.m4a","50","","","","","","","","","","","","","","","","","","","","","","",""
"","correct","80","487113","0.0-50.0-0.0","""event"",""trial"",""time""
""blur"",""0"",""0""
""focus"",""0"",""0""
""fullscreenenter"",""0"",""7688""
","""event"",""trial"",""time""
""blur"",""0"",""0""
","""event"",""trial"",""time""
""focus"",""0"",""0""
","""event"",""trial"",""time""
""fullscreenenter"",""0"",""7688""
","
","null","run_exp/static/audio/clip_18_correct.m4a","null","","","","","<div class='center'><p>That's correct!</p></div>","","","","","","","","","","","","","","","","","",""
"","html-keyboard-response","81","487441","0.0-50.0-1.0","""event"",""trial"",""time""
""blur"",""0"",""0""
""focus"",""0"",""0""
""fullscreenenter"",""0"",""7688""
","""event"",""trial"",""time""
""blur"",""0"",""0""
","""event"",""trial"",""time""
""focus"",""0"",""0""
","""event"",""trial"",""time""
""fullscreenenter"",""0"",""7688""
","
","327.09999999403954","<div class='center'><p>That's correct!</p><p><b>[Press the space bar to continue]</b></p></div>","32","","","","","","","","","","","","","","","","","","","","","","",""
"","audio-keyboard-response","82","493496","0.0-50.0-2.0","""event"",""trial"",""time""
""blur"",""0"",""0""
""focus"",""0"",""0""
""fullscreenenter"",""0"",""7688""
","""event"",""trial"",""time""
""blur"",""0"",""0""
","""event"",""trial"",""time""
""focus"",""0"",""0""
","""event"",""trial"",""time""
""fullscreenenter"",""0"",""7688""
","
","6054.600000008941","run_exp/static/audio/clip_24_q4.m4a","49","","","","","","","","","","","","","","","","","","","","","","",""
"","correct","83","495977","0.0-51.0-0.0","""event"",""trial"",""time""
""blur"",""0"",""0""
""focus"",""0"",""0""
""fullscreenenter"",""0"",""7688""
","""event"",""trial"",""time""
""blur"",""0"",""0""
","""event"",""trial"",""time""
""focus"",""0"",""0""
","""event"",""trial"",""time""
""fullscreenenter"",""0"",""7688""
","
","null","run_exp/static/audio/clip_18_correct.m4a","null","","","","","<div class='center'><p>That's correct!</p></div>","","","","","","","","","","","","","","","","","",""
"","html-keyboard-response","84","496594","0.0-51.0-1.0","""event"",""trial"",""time""
""blur"",""0"",""0""
""focus"",""0"",""0""
""fullscreenenter"",""0"",""7688""
","""event"",""trial"",""time""
""blur"",""0"",""0""
","""event"",""trial"",""time""
""focus"",""0"",""0""
","""event"",""trial"",""time""
""fullscreenenter"",""0"",""7688""
","
","616","<div class='center'><p>That's correct!</p><p><b>[Press the space bar to continue]</b></p></div>","32","","","","","","","","","","","","","","","","","","","","","","",""
"","q_all_corr","85","505129","0.0-52.0-0.0","""event"",""trial"",""time""
""blur"",""0"",""0""
""focus"",""0"",""0""
""fullscreenenter"",""0"",""7688""
","""event"",""trial"",""time""
""blur"",""0"",""0""
","""event"",""trial"",""time""
""focus"",""0"",""0""
","""event"",""trial"",""time""
""fullscreenenter"",""0"",""7688""
","
","null","run_exp/static/audio/clip_27_quiz_all_correct.m4a","null","","","","","<div class='center'><p>Good job! You’re now ready to move on to the real game! Remember this game will be difficult but don't get discouraged and try your best!</p></div>","","","","","","","","","","","","","","","","","",""
"","html-keyboard-response","86","508918","0.0-52.0-1.0","""event"",""trial"",""time""
""blur"",""0"",""0""
""focus"",""0"",""0""
""fullscreenenter"",""0"",""7688""
","""event"",""trial"",""time""
""blur"",""0"",""0""
","""event"",""trial"",""time""
""focus"",""0"",""0""
","""event"",""trial"",""time""
""fullscreenenter"",""0"",""7688""
","
","3787.7999999970198","<div class='center'><p>Good job! You’re now ready to move on to the real game! Remember this game will be difficult but don't get discouraged and try your best!</p><p><b>[Press the space bar to continue]</b></p></div>","32","","","","","","","","","","","","","","","","","","","","","","",""
"","do_welcome","87","512928","0.0-53.0-0.0","""event"",""trial"",""time""
""blur"",""0"",""0""
""focus"",""0"",""0""
""fullscreenenter"",""0"",""7688""
","""event"",""trial"",""time""
""blur"",""0"",""0""
","""event"",""trial"",""time""
""focus"",""0"",""0""
","""event"",""trial"",""time""
""fullscreenenter"",""0"",""7688""
","
","null","","","","","","","","null","","","","","","","","","","","","","","","","",""
"","do_trial","88","518548","0.0-54.0-0.0","""event"",""trial"",""time""
""blur"",""0"",""0""
""focus"",""0"",""0""
""fullscreenenter"",""0"",""7688""
","""event"",""trial"",""time""
""blur"",""0"",""0""
","""event"",""trial"",""time""
""focus"",""0"",""0""
","""event"",""trial"",""time""
""fullscreenenter"",""0"",""7688""
","
","1058","","","","","","","","50","1,0,0","0","highway","0","probe-11","0.6","0.3","0.1","0","","","","","","","",""
"","html-keyboard-response","89","519552","0.0-54.0-1.0","""event"",""trial"",""time""
""blur"",""0"",""0""
""focus"",""0"",""0""
""fullscreenenter"",""0"",""7688""
","""event"",""trial"",""time""
""blur"",""0"",""0""
","""event"",""trial"",""time""
""focus"",""0"",""0""
","""event"",""trial"",""time""
""fullscreenenter"",""0"",""7688""
","
","null","<p></p>","null","","","","","","","","","","","","","","","","","","","","","","",""
"","do_trial","90","524510","0.0-55.0-0.0","""event"",""trial"",""time""
""blur"",""0"",""0""
""focus"",""0"",""0""
""fullscreenenter"",""0"",""7688""
","""event"",""trial"",""time""
""blur"",""0"",""0""
","""event"",""trial"",""time""
""focus"",""0"",""0""
","""event"",""trial"",""time""
""fullscreenenter"",""0"",""7688""
","
","390.20000000298023","","","","","","","","51","1,0,0","0","highway","1","probe-205","0.46494275738576807","0.29540365258084045","0.0895564138401706","0","","","","","","","",""
"","html-keyboard-response","91","525514","0.0-55.0-1.0","""event"",""trial"",""time""
""blur"",""0"",""0""
""focus"",""0"",""0""
""fullscreenenter"",""0"",""7688""
","""event"",""trial"",""time""
""blur"",""0"",""0""
","""event"",""trial"",""time""
""focus"",""0"",""0""
","""event"",""trial"",""time""
""fullscreenenter"",""0"",""7688""
","
","null","<p></p>","null","","","","","","","","","","","","","","","","","","","","","","",""
"","do_trial","92","530565","0.0-56.0-0.0","""event"",""trial"",""time""
""blur"",""0"",""0""
""focus"",""0"",""0""
""fullscreenenter"",""0"",""7688""
","""event"",""trial"",""time""
""blur"",""0"",""0""
","""event"",""trial"",""time""
""focus"",""0"",""0""
","""event"",""trial"",""time""
""fullscreenenter"",""0"",""7688""
","
","492.79999999701977","","","","","","","","49","1,0,0","0","highway","2","probe-220","0.44377472689754116","0.3061186789476294","0.20848830541333294","1","","","","","","","",""
"","html-keyboard-response","93","531570","0.0-56.0-1.0","""event"",""trial"",""time""
""blur"",""0"",""0""
""focus"",""0"",""0""
""fullscreenenter"",""0"",""7688""
","""event"",""trial"",""time""
""blur"",""0"",""0""
","""event"",""trial"",""time""
""focus"",""0"",""0""
","""event"",""trial"",""time""
""fullscreenenter"",""0"",""7688""
","
","null","<p></p>","null","","","","","","","","","","","","","","","","","","","","","","",""
"","do_trial","94","536786","0.0-57.0-0.0","""event"",""trial"",""time""
""blur"",""0"",""0""
""focus"",""0"",""0""
""fullscreenenter"",""0"",""7688""
","""event"",""trial"",""time""
""blur"",""0"",""0""
","""event"",""trial"",""time""
""focus"",""0"",""0""
","""event"",""trial"",""time""
""fullscreenenter"",""0"",""7688""
","
","654.7999999970198","","","","","","","","49","1,0,0","0","highway","3","probe-222","0.7198803547537495","0.23450714355426613","0.20810260765794547","1","","","","","","","",""
"","html-keyboard-response","95","537791","0.0-57.0-1.0","""event"",""trial"",""time""
""blur"",""0"",""0""
""focus"",""0"",""0""
""fullscreenenter"",""0"",""7688""
","""event"",""trial"",""time""
""blur"",""0"",""0""
","""event"",""trial"",""time""
""focus"",""0"",""0""
","""event"",""trial"",""time""
""fullscreenenter"",""0"",""7688""
","
","null","<p></p>","null","","","","","","","","","","","","","","","","","","","","","","",""
"","do_trial","96","542744","0.0-58.0-0.0","""event"",""trial"",""time""
""blur"",""0"",""0""
""focus"",""0"",""0""
""fullscreenenter"",""0"",""7688""
","""event"",""trial"",""time""
""blur"",""0"",""0""
","""event"",""trial"",""time""
""focus"",""0"",""0""
","""event"",""trial"",""time""
""fullscreenenter"",""0"",""7688""
","
","383.20000000298023","","","","","","","","49","0,1,0","0","highway","4","probe-156","0.5484755622775999","0.31395255558937446","0.10469686208478572","0","","","","","","","",""
"","html-keyboard-response","97","543748","0.0-58.0-1.0","""event"",""trial"",""time""
""blur"",""0"",""0""
""focus"",""0"",""0""
""fullscreenenter"",""0"",""7688""
","""event"",""trial"",""time""
""blur"",""0"",""0""
","""event"",""trial"",""time""
""focus"",""0"",""0""
","""event"",""trial"",""time""
""fullscreenenter"",""0"",""7688""
","
","null","<p></p>","null","","","","","","","","","","","","","","","","","","","","","","",""
"","do_trial","98","548866","0.0-59.0-0.0","""event"",""trial"",""time""
""blur"",""0"",""0""
""focus"",""0"",""0""
""fullscreenenter"",""0"",""7688""
","""event"",""trial"",""time""
""blur"",""0"",""0""
","""event"",""trial"",""time""
""focus"",""0"",""0""
","""event"",""trial"",""time""
""fullscreenenter"",""0"",""7688""
","
","556.7999999970198","","","","","","","","49","1,0,0","0","highway","5","probe-31","0.5067395333774538","0.48358047058512504","0.0744433424702263","1","","","","","","","",""
"","html-keyboard-response","99","549869","0.0-59.0-1.0","""event"",""trial"",""time""
""blur"",""0"",""0""
""focus"",""0"",""0""
""fullscreenenter"",""0"",""7688""
","""event"",""trial"",""time""
""blur"",""0"",""0""
","""event"",""trial"",""time""
""focus"",""0"",""0""
","""event"",""trial"",""time""
""fullscreenenter"",""0"",""7688""
","
","null","<p></p>","null","","","","","","","","","","","","","","","","","","","","","","",""
"","do_trial","100","555162","0.0-60.0-0.0","""event"",""trial"",""time""
""blur"",""0"",""0""
""focus"",""0"",""0""
""fullscreenenter"",""0"",""7688""
","""event"",""trial"",""time""
""blur"",""0"",""0""
","""event"",""trial"",""time""
""focus"",""0"",""0""
","""event"",""trial"",""time""
""fullscreenenter"",""0"",""7688""
","
","732.5","","","","","","","","49","0,0,0","0","highway","6","probe-146","0.615399704911447","0.37681626513404076","0.053736550429692456","0","","","","","","","",""
"","html-keyboard-response","101","556167","0.0-60.0-1.0","""event"",""trial"",""time""
""blur"",""0"",""0""
""focus"",""0"",""0""
""fullscreenenter"",""0"",""7688""
","""event"",""trial"",""time""
""blur"",""0"",""0""
","""event"",""trial"",""time""
""focus"",""0"",""0""
","""event"",""trial"",""time""
""fullscreenenter"",""0"",""7688""
","
","null","<p></p>","null","","","","","","","","","","","","","","","","","","","","","","",""
"","do_trial","102","561563","0.0-61.0-0.0","""event"",""trial"",""time""
""blur"",""0"",""0""
""focus"",""0"",""0""
""fullscreenenter"",""0"",""7688""
","""event"",""trial"",""time""
""blur"",""0"",""0""
","""event"",""trial"",""time""
""focus"",""0"",""0""
","""event"",""trial"",""time""
""fullscreenenter"",""0"",""7688""
","
","835.5999999940395","","","","","","","","49","0,1,0","0","highway","7","probe-180","0.5557287369219271","0.3328954167666041","0.0793951465610415","0","","","","","","","",""
"","html-keyboard-response","103","562565","0.0-61.0-1.0","""event"",""trial"",""time""
""blur"",""0"",""0""
""focus"",""0"",""0""
""fullscreenenter"",""0"",""7688""
","""event"",""trial"",""time""
""blur"",""0"",""0""
","""event"",""trial"",""time""
""focus"",""0"",""0""
","""event"",""trial"",""time""
""fullscreenenter"",""0"",""7688""
","
","null","<p></p>","null","","","","","","","","","","","","","","","","","","","","","","",""
"","do_trial","104","567457","0.0-62.0-0.0","""event"",""trial"",""time""
""blur"",""0"",""0""
""focus"",""0"",""0""
""fullscreenenter"",""0"",""7688""
","""event"",""trial"",""time""
""blur"",""0"",""0""
","""event"",""trial"",""time""
""focus"",""0"",""0""
","""event"",""trial"",""time""
""fullscreenenter"",""0"",""7688""
","
","336.09999999403954","","","","","","","","51","1,0,0","0","highway","8","probe-100","0.5662738138909998","0.3387718888227035","0.12825075806361824","0","","","","","","","",""
"","html-keyboard-response","105","568463","0.0-62.0-1.0","""event"",""trial"",""time""
""blur"",""0"",""0""
""focus"",""0"",""0""
""fullscreenenter"",""0"",""7688""
","""event"",""trial"",""time""
""blur"",""0"",""0""
","""event"",""trial"",""time""
""focus"",""0"",""0""
","""event"",""trial"",""time""
""fullscreenenter"",""0"",""7688""
","
","null","<p></p>","null","","","","","","","","","","","","","","","","","","","","","","",""
"","do_trial","106","573838","0.0-63.0-0.0","""event"",""trial"",""time""
""blur"",""0"",""0""
""focus"",""0"",""0""
""fullscreenenter"",""0"",""7688""
","""event"",""trial"",""time""
""blur"",""0"",""0""
","""event"",""trial"",""time""
""focus"",""0"",""0""
","""event"",""trial"",""time""
""fullscreenenter"",""0"",""7688""
","
","817.7000000029802","","","","","","","","51","0,1,0","0","highway","9","probe-134","0.5561429429929794","0.2314162908495254","0.23657372723098685","0","","","","","","","",""
"","html-keyboard-response","107","574840","0.0-63.0-1.0","""event"",""trial"",""time""
""blur"",""0"",""0""
""focus"",""0"",""0""
""fullscreenenter"",""0"",""7688""
","""event"",""trial"",""time""
""blur"",""0"",""0""
","""event"",""trial"",""time""
""focus"",""0"",""0""
","""event"",""trial"",""time""
""fullscreenenter"",""0"",""7688""
","
","null","<p></p>","null","","","","","","","","","","","","","","","","","","","","","","",""
"","do_trial","108","579933","0.0-64.0-0.0","""event"",""trial"",""time""
""blur"",""0"",""0""
""focus"",""0"",""0""
""fullscreenenter"",""0"",""7688""
","""event"",""trial"",""time""
""blur"",""0"",""0""
","""event"",""trial"",""time""
""focus"",""0"",""0""
","""event"",""trial"",""time""
""fullscreenenter"",""0"",""7688""
","
","532.9000000059605","","","","","","","","50","1,0,0","0","highway","10","probe-163","0.5531280663669107","0.17593941444717173","0.22683529361752147","0","","","","","","","",""
"","html-keyboard-response","109","580936","0.0-64.0-1.0","""event"",""trial"",""time""
""blur"",""0"",""0""
""focus"",""0"",""0""
""fullscreenenter"",""0"",""7688""
","""event"",""trial"",""time""
""blur"",""0"",""0""
","""event"",""trial"",""time""
""focus"",""0"",""0""
","""event"",""trial"",""time""
""fullscreenenter"",""0"",""7688""
","
","null","<p></p>","null","","","","","","","","","","","","","","","","","","","","","","",""
"","do_trial","110","585864","0.0-65.0-0.0","""event"",""trial"",""time""
""blur"",""0"",""0""
""focus"",""0"",""0""
""fullscreenenter"",""0"",""7688""
","""event"",""trial"",""time""
""blur"",""0"",""0""
","""event"",""trial"",""time""
""focus"",""0"",""0""
","""event"",""trial"",""time""
""fullscreenenter"",""0"",""7688""
","
","366.30000001192093","","","","","","","","49","0,0,0","0","highway","11","probe-171","0.539578027483063","0.3080427218692713","0.10754581524428002","0","","","","","","","",""
"","html-keyboard-response","111","586869","0.0-65.0-1.0","""event"",""trial"",""time""
""blur"",""0"",""0""
""focus"",""0"",""0""
""fullscreenenter"",""0"",""7688""
","""event"",""trial"",""time""
""blur"",""0"",""0""
","""event"",""trial"",""time""
""focus"",""0"",""0""
","""event"",""trial"",""time""
""fullscreenenter"",""0"",""7688""
","
","null","<p></p>","null","","","","","","","","","","","","","","","","","","","","","","",""
"","do_trial","112","593638","0.0-66.0-0.0","""event"",""trial"",""time""
""blur"",""0"",""0""
""focus"",""0"",""0""
""fullscreenenter"",""0"",""7688""
","""event"",""trial"",""time""
""blur"",""0"",""0""
","""event"",""trial"",""time""
""focus"",""0"",""0""
","""event"",""trial"",""time""
""fullscreenenter"",""0"",""7688""
","
","2206.5999999940395","","","","","","","","49","1,0,0","0","highway","12","probe-52","0.537366201118024","0.34311365124540244","0.10784437533711941","1","","","","","","","",""
"","html-keyboard-response","113","594639","0.0-66.0-1.0","""event"",""trial"",""time""
""blur"",""0"",""0""
""focus"",""0"",""0""
""fullscreenenter"",""0"",""7688""
","""event"",""trial"",""time""
""blur"",""0"",""0""
","""event"",""trial"",""time""
""focus"",""0"",""0""
","""event"",""trial"",""time""
""fullscreenenter"",""0"",""7688""
","
","null","<p></p>","null","","","","","","","","","","","","","","","","","","","","","","",""
"","do_trial","114","600667","0.0-67.0-0.0","""event"",""trial"",""time""
""blur"",""0"",""0""
""focus"",""0"",""0""
""fullscreenenter"",""0"",""7688""
","""event"",""trial"",""time""
""blur"",""0"",""0""
","""event"",""trial"",""time""
""focus"",""0"",""0""
","""event"",""trial"",""time""
""fullscreenenter"",""0"",""7688""
","
","1466.2000000029802","","","","","","","","49","0,0,0","0","highway","13","probe-209","0.46656431490198","0.3112786317164823","0.2704234043171268","0","","","","","","","",""
"","html-keyboard-response","115","601672","0.0-67.0-1.0","""event"",""trial"",""time""
""blur"",""0"",""0""
""focus"",""0"",""0""
""fullscreenenter"",""0"",""7688""
","""event"",""trial"",""time""
""blur"",""0"",""0""
","""event"",""trial"",""time""
""focus"",""0"",""0""
","""event"",""trial"",""time""
""fullscreenenter"",""0"",""7688""
","
","null","<p></p>","null","","","","","","","","","","","","","","","","","","","","","","",""
"","do_trial","116","607240","0.0-68.0-0.0","""event"",""trial"",""time""
""blur"",""0"",""0""
""focus"",""0"",""0""
""fullscreenenter"",""0"",""7688""
","""event"",""trial"",""time""
""blur"",""0"",""0""
","""event"",""trial"",""time""
""focus"",""0"",""0""
","""event"",""trial"",""time""
""fullscreenenter"",""0"",""7688""
","
","1011.5","","","","","","","","49","0,0,0","0","highway","14","probe-143","0.6168206160667984","0.3695382133866558","0.08382700435280407","0","","","","","","","",""
"","html-keyboard-response","117","608243","0.0-68.0-1.0","""event"",""trial"",""time""
""blur"",""0"",""0""
""focus"",""0"",""0""
""fullscreenenter"",""0"",""7688""
","""event"",""trial"",""time""
""blur"",""0"",""0""
","""event"",""trial"",""time""
""focus"",""0"",""0""
","""event"",""trial"",""time""
""fullscreenenter"",""0"",""7688""
","
","null","<p></p>","null","","","","","","","","","","","","","","","","","","","","","","",""
"","do_trial","118","613185","0.0-69.0-0.0","""event"",""trial"",""time""
""blur"",""0"",""0""
""focus"",""0"",""0""
""fullscreenenter"",""0"",""7688""
","""event"",""trial"",""time""
""blur"",""0"",""0""
","""event"",""trial"",""time""
""focus"",""0"",""0""
","""event"",""trial"",""time""
""fullscreenenter"",""0"",""7688""
","
","374.70000000298023","","","","","","","","49","0,1,0","0","highway","15","probe-50","0.6855529717074638","0.33575186653819117","0.10060710787188532","0","","","","","","","",""
"","html-keyboard-response","119","614190","0.0-69.0-1.0","""event"",""trial"",""time""
""blur"",""0"",""0""
""focus"",""0"",""0""
""fullscreenenter"",""0"",""7688""
","""event"",""trial"",""time""
""blur"",""0"",""0""
","""event"",""trial"",""time""
""focus"",""0"",""0""
","""event"",""trial"",""time""
""fullscreenenter"",""0"",""7688""
","
","null","<p></p>","null","","","","","","","","","","","","","","","","","","","","","","",""
"","do_trial","120","619410","0.0-70.0-0.0","""event"",""trial"",""time""
""blur"",""0"",""0""
""focus"",""0"",""0""
""fullscreenenter"",""0"",""7688""
","""event"",""trial"",""time""
""blur"",""0"",""0""
","""event"",""trial"",""time""
""focus"",""0"",""0""
","""event"",""trial"",""time""
""fullscreenenter"",""0"",""7688""
","
","661.7999999970198","","","","","","","","50","1,0,0","0","highway","16","probe-129","0.5715411667047335","0.499139036884813","0.16285908715457897","0","","","","","","","",""
"","html-keyboard-response","121","620416","0.0-70.0-1.0","""event"",""trial"",""time""
""blur"",""0"",""0""
""focus"",""0"",""0""
""fullscreenenter"",""0"",""7688""
","""event"",""trial"",""time""
""blur"",""0"",""0""
","""event"",""trial"",""time""
""focus"",""0"",""0""
","""event"",""trial"",""time""
""fullscreenenter"",""0"",""7688""
","
","null","<p></p>","null","","","","","","","","","","","","","","","","","","","","","","",""
"","do_trial","122","625375","0.0-71.0-0.0","""event"",""trial"",""time""
""blur"",""0"",""0""
""focus"",""0"",""0""
""fullscreenenter"",""0"",""7688""
","""event"",""trial"",""time""
""blur"",""0"",""0""
","""event"",""trial"",""time""
""focus"",""0"",""0""
","""event"",""trial"",""time""
""fullscreenenter"",""0"",""7688""
","
","397.5","","","","","","","","49","1,1,0","0","highway","17","probe-217","0.6928192239712944","0.40012918869585484","0.08053765184826034","1","","","","","","","",""
"","html-keyboard-response","123","626381","0.0-71.0-1.0","""event"",""trial"",""time""
""blur"",""0"",""0""
""focus"",""0"",""0""
""fullscreenenter"",""0"",""7688""
","""event"",""trial"",""time""
""blur"",""0"",""0""
","""event"",""trial"",""time""
""focus"",""0"",""0""
","""event"",""trial"",""time""
""fullscreenenter"",""0"",""7688""
","
","null","<p></p>","null","","","","","","","","","","","","","","","","","","","","","","",""
"","do_trial","124","631495","0.0-72.0-0.0","""event"",""trial"",""time""
""blur"",""0"",""0""
""focus"",""0"",""0""
""fullscreenenter"",""0"",""7688""
","""event"",""trial"",""time""
""blur"",""0"",""0""
","""event"",""trial"",""time""
""focus"",""0"",""0""
","""event"",""trial"",""time""
""fullscreenenter"",""0"",""7688""
","
","552.7999999970198","","","","","","","","49","1,1,0","0","highway","18","probe-165","0.5356065413608362","0.4278834471747329","0.057224794545777675","1","","","","","","","",""
"","html-keyboard-response","125","632497","0.0-72.0-1.0","""event"",""trial"",""time""
""blur"",""0"",""0""
""focus"",""0"",""0""
""fullscreenenter"",""0"",""7688""
","""event"",""trial"",""time""
""blur"",""0"",""0""
","""event"",""trial"",""time""
""focus"",""0"",""0""
","""event"",""trial"",""time""
""fullscreenenter"",""0"",""7688""
","
","null","<p></p>","null","","","","","","","","","","","","","","","","","","","","","","",""
"","do_trial","126","637563","0.0-73.0-0.0","""event"",""trial"",""time""
""blur"",""0"",""0""
""focus"",""0"",""0""
""fullscreenenter"",""0"",""7688""
","""event"",""trial"",""time""
""blur"",""0"",""0""
","""event"",""trial"",""time""
""focus"",""0"",""0""
","""event"",""trial"",""time""
""fullscreenenter"",""0"",""7688""
","
","497.29999999701977","","","","","","","","49","1,1,0","0","highway","19","probe-176","0.5666895867615077","0.42489440076936114","0.087362042688088","1","","","","","","","",""
"","html-keyboard-response","127","638566","0.0-73.0-1.0","""event"",""trial"",""time""
""blur"",""0"",""0""
""focus"",""0"",""0""
""fullscreenenter"",""0"",""7688""
","""event"",""trial"",""time""
""blur"",""0"",""0""
","""event"",""trial"",""time""
""focus"",""0"",""0""
","""event"",""trial"",""time""
""fullscreenenter"",""0"",""7688""
","
","null","<p></p>","null","","","","","","","","","","","","","","","","","","","","","","",""
"","do_trial","128","644057","0.0-74.0-0.0","""event"",""trial"",""time""
""blur"",""0"",""0""
""focus"",""0"",""0""
""fullscreenenter"",""0"",""7688""
","""event"",""trial"",""time""
""blur"",""0"",""0""
","""event"",""trial"",""time""
""focus"",""0"",""0""
","""event"",""trial"",""time""
""fullscreenenter"",""0"",""7688""
","
","935.2000000029802","","","","","","","","49","0,1,0","0","highway","20","probe-42","0.4071288830262087","0.4020458577596899","0.0913685133420062","0","","","","","","","",""
"","html-keyboard-response","129","645062","0.0-74.0-1.0","""event"",""trial"",""time""
""blur"",""0"",""0""
""focus"",""0"",""0""
""fullscreenenter"",""0"",""7688""
","""event"",""trial"",""time""
""blur"",""0"",""0""
","""event"",""trial"",""time""
""focus"",""0"",""0""
","""event"",""trial"",""time""
""fullscreenenter"",""0"",""7688""
","
","null","<p></p>","null","","","","","","","","","","","","","","","","","","","","","","",""
"","do_trial","130","650058","0.0-75.0-0.0","""event"",""trial"",""time""
""blur"",""0"",""0""
""focus"",""0"",""0""
""fullscreenenter"",""0"",""7688""
","""event"",""trial"",""time""
""blur"",""0"",""0""
","""event"",""trial"",""time""
""focus"",""0"",""0""
","""event"",""trial"",""time""
""fullscreenenter"",""0"",""7688""
","
","435.20000000298023","","","","","","","","49","1,0,0","0","highway","21","probe-214","0.46144930618732793","0.46134703038682007","0.1631183429042808","1","","","","","","","",""
"","html-keyboard-response","131","651060","0.0-75.0-1.0","""event"",""trial"",""time""
""blur"",""0"",""0""
""focus"",""0"",""0""
""fullscreenenter"",""0"",""7688""
","""event"",""trial"",""time""
""blur"",""0"",""0""
","""event"",""trial"",""time""
""focus"",""0"",""0""
","""event"",""trial"",""time""
""fullscreenenter"",""0"",""7688""
","
","null","<p></p>","null","","","","","","","","","","","","","","","","","","","","","","",""
"","do_trial","132","656688","0.0-76.0-0.0","""event"",""trial"",""time""
""blur"",""0"",""0""
""focus"",""0"",""0""
""fullscreenenter"",""0"",""7688""
","""event"",""trial"",""time""
""blur"",""0"",""0""
","""event"",""trial"",""time""
""focus"",""0"",""0""
","""event"",""trial"",""time""
""fullscreenenter"",""0"",""7688""
","
","1061.7000000029802","","","","","","","","49","0,1,1","0","highway","22","probe-47","0.5036550625763653","0.6667238934830725","0.08529114883905678","0","","","","","","","",""
"","html-keyboard-response","133","657711","0.0-76.0-1.0","""event"",""trial"",""time""
""blur"",""0"",""0""
""focus"",""0"",""0""
""fullscreenenter"",""0"",""7688""
","""event"",""trial"",""time""
""blur"",""0"",""0""
","""event"",""trial"",""time""
""focus"",""0"",""0""
","""event"",""trial"",""time""
""fullscreenenter"",""0"",""7688""
","
","null","<p></p>","null","","","","","","","","","","","","","","","","","","","","","","",""
"","do_trial","134","663086","0.0-77.0-0.0","""event"",""trial"",""time""
""blur"",""0"",""0""
""focus"",""0"",""0""
""fullscreenenter"",""0"",""7688""
","""event"",""trial"",""time""
""blur"",""0"",""0""
","""event"",""trial"",""time""
""focus"",""0"",""0""
","""event"",""trial"",""time""
""fullscreenenter"",""0"",""7688""
","
","553.8999999910593","","","","","","","","49","1,1,0","0","highway","23","probe-58","0.5540596480739051","0.6260110296289673","0.07415614870648789","1","","","","","","","",""
"","html-keyboard-response","135","664088","0.0-77.0-1.0","""event"",""trial"",""time""
""blur"",""0"",""0""
""focus"",""0"",""0""
""fullscreenenter"",""0"",""7688""
","""event"",""trial"",""time""
""blur"",""0"",""0""
","""event"",""trial"",""time""
""focus"",""0"",""0""
","""event"",""trial"",""time""
""fullscreenenter"",""0"",""7688""
","
","null","<p></p>","null","","","","","","","","","","","","","","","","","","","","","","",""
"","do_trial","136","669204","0.0-78.0-0.0","""event"",""trial"",""time""
""blur"",""0"",""0""
""focus"",""0"",""0""
""fullscreenenter"",""0"",""7688""
","""event"",""trial"",""time""
""blur"",""0"",""0""
","""event"",""trial"",""time""
""focus"",""0"",""0""
","""event"",""trial"",""time""
""fullscreenenter"",""0"",""7688""
","
","556.7000000029802","","","","","","","","49","1,0,1","0","highway","24","probe-105","0.574857619542082","0.6201052725283843","0.21434280583996335","1","","","","","","","",""
"","html-keyboard-response","137","670211","0.0-78.0-1.0","""event"",""trial"",""time""
""blur"",""0"",""0""
""focus"",""0"",""0""
""fullscreenenter"",""0"",""7688""
","""event"",""trial"",""time""
""blur"",""0"",""0""
","""event"",""trial"",""time""
""focus"",""0"",""0""
","""event"",""trial"",""time""
""fullscreenenter"",""0"",""7688""
","
","null","<p></p>","null","","","","","","","","","","","","","","","","","","","","","","",""
"","do_trial","138","675731","0.0-79.0-0.0","""event"",""trial"",""time""
""blur"",""0"",""0""
""focus"",""0"",""0""
""fullscreenenter"",""0"",""7688""
","""event"",""trial"",""time""
""blur"",""0"",""0""
","""event"",""trial"",""time""
""focus"",""0"",""0""
","""event"",""trial"",""time""
""fullscreenenter"",""0"",""7688""
","
","961.5","","","","","","","","49","0,1,0","0","highway","25","probe-70","0.5978526269252881","0.48768210707744597","0.13437538286530962","0","","","","","","","",""
"","html-keyboard-response","139","676736","0.0-79.0-1.0","""event"",""trial"",""time""
""blur"",""0"",""0""
""focus"",""0"",""0""
""fullscreenenter"",""0"",""7688""
","""event"",""trial"",""time""
""blur"",""0"",""0""
","""event"",""trial"",""time""
""focus"",""0"",""0""
","""event"",""trial"",""time""
""fullscreenenter"",""0"",""7688""
","
","null","<p></p>","null","","","","","","","","","","","","","","","","","","","","","","",""
"","do_trial","140","682799","0.0-80.0-0.0","""event"",""trial"",""time""
""blur"",""0"",""0""
""focus"",""0"",""0""
""fullscreenenter"",""0"",""7688""
","""event"",""trial"",""time""
""blur"",""0"",""0""
","""event"",""trial"",""time""
""focus"",""0"",""0""
","""event"",""trial"",""time""
""fullscreenenter"",""0"",""7688""
","
","null","","","","","","","","null","0,0,0","0","highway","26","probe-141","0.6960021183609291","0.4746440549668901","0.05961261593414932","","","","","","","","",""
"","html-keyboard-response","141","683801","0.0-80.0-1.0","""event"",""trial"",""time""
""blur"",""0"",""0""
""focus"",""0"",""0""
""fullscreenenter"",""0"",""7688""
","""event"",""trial"",""time""
""blur"",""0"",""0""
","""event"",""trial"",""time""
""focus"",""0"",""0""
","""event"",""trial"",""time""
""fullscreenenter"",""0"",""7688""
","
","null","<p></p>","null","","","","","","","","","","","","","","","","","","","","","","",""
"","do_trial","142","688743","0.0-81.0-0.0","""event"",""trial"",""time""
""blur"",""0"",""0""
""focus"",""0"",""0""
""fullscreenenter"",""0"",""7688""
","""event"",""trial"",""time""
""blur"",""0"",""0""
","""event"",""trial"",""time""
""focus"",""0"",""0""
","""event"",""trial"",""time""
""fullscreenenter"",""0"",""7688""
","
","380.40000000596046","","","","","","","","49","0,0,1","0","highway","27","probe-175","0.7988191783487641","0.3997859879130213","0.07753151656568635","0","","","","","","","",""
"","html-keyboard-response","143","689747","0.0-81.0-1.0","""event"",""trial"",""time""
""blur"",""0"",""0""
""focus"",""0"",""0""
""fullscreenenter"",""0"",""7688""
","""event"",""trial"",""time""
""blur"",""0"",""0""
","""event"",""trial"",""time""
""focus"",""0"",""0""
","""event"",""trial"",""time""
""fullscreenenter"",""0"",""7688""
","
","null","<p></p>","null","","","","","","","","","","","","","","","","","","","","","","",""
"","do_trial","144","694976","0.0-82.0-0.0","""event"",""trial"",""time""
""blur"",""0"",""0""
""focus"",""0"",""0""
""fullscreenenter"",""0"",""7688""
","""event"",""trial"",""time""
""blur"",""0"",""0""
","""event"",""trial"",""time""
""focus"",""0"",""0""
","""event"",""trial"",""time""
""fullscreenenter"",""0"",""7688""
","
","665.2999999970198","","","","","","","","49","1,0,0","0","highway","28","probe-44","0.7362183270463872","0.3811736485007611","0.06308098460005715","1","","","","","","","",""
"","html-keyboard-response","145","695980","0.0-82.0-1.0","""event"",""trial"",""time""
""blur"",""0"",""0""
""focus"",""0"",""0""
""fullscreenenter"",""0"",""7688""
","""event"",""trial"",""time""
""blur"",""0"",""0""
","""event"",""trial"",""time""
""focus"",""0"",""0""
","""event"",""trial"",""time""
""fullscreenenter"",""0"",""7688""
","
","null","<p></p>","null","","","","","","","","","","","","","","","","","","","","","","",""
"","do_trial","146","701482","0.0-83.0-0.0","""event"",""trial"",""time""
""blur"",""0"",""0""
""focus"",""0"",""0""
""fullscreenenter"",""0"",""7688""
","""event"",""trial"",""time""
""blur"",""0"",""0""
","""event"",""trial"",""time""
""focus"",""0"",""0""
","""event"",""trial"",""time""
""fullscreenenter"",""0"",""7688""
","
","949.6000000089407","","","","","","","","49","0,0,0","0","highway","29","probe-54","0.7615300834331359","0.34672463258024466","0.13843973383730107","0","","","","","","","",""
"","html-keyboard-response","147","702487","0.0-83.0-1.0","""event"",""trial"",""time""
""blur"",""0"",""0""
""focus"",""0"",""0""
""fullscreenenter"",""0"",""7688""
","""event"",""trial"",""time""
""blur"",""0"",""0""
","""event"",""trial"",""time""
""focus"",""0"",""0""
","""event"",""trial"",""time""
""fullscreenenter"",""0"",""7688""
","
","null","<p></p>","null","","","","","","","","","","","","","","","","","","","","","","",""
"","do_bye","148","703994","0.0-84.0-0.0","""event"",""trial"",""time""
""blur"",""0"",""0""
""focus"",""0"",""0""
""fullscreenenter"",""0"",""7688""
","""event"",""trial"",""time""
""blur"",""0"",""0""
","""event"",""trial"",""time""
""focus"",""0"",""0""
","""event"",""trial"",""time""
""fullscreenenter"",""0"",""7688""
","
","null","","","","","","","","null","","","","","","","","","","","","","","","","",""
"","break","149","706079","0.0-84.0-1.0","""event"",""trial"",""time""
""blur"",""0"",""0""
""focus"",""0"",""0""
""fullscreenenter"",""0"",""7688""
","""event"",""trial"",""time""
""blur"",""0"",""0""
","""event"",""trial"",""time""
""focus"",""0"",""0""
","""event"",""trial"",""time""
""fullscreenenter"",""0"",""7688""
","
","2082.7000000029802","<div class='center'><p>Time to take a quick break! You have 2 minutes to rest, but you can move on sooner if you'd like.</p><p> Press the <b>space bar</b> to continue.</p></div>","32","","","","","","","","","","","","","","","","","","","","","","",""
"","do_travel","150","715087","0.0-85.0-0.0","""event"",""trial"",""time""
""blur"",""0"",""0""
""focus"",""0"",""0""
""fullscreenenter"",""0"",""7688""
","""event"",""trial"",""time""
""blur"",""0"",""0""
","""event"",""trial"",""time""
""focus"",""0"",""0""
","""event"",""trial"",""time""
""fullscreenenter"",""0"",""7688""
","
","null","","","","","","","","null","","","","","","","","","","","","","","","","",""
"","do_welcome","151","719095","0.0-85.0-1.0","""event"",""trial"",""time""
""blur"",""0"",""0""
""focus"",""0"",""0""
""fullscreenenter"",""0"",""7688""
","""event"",""trial"",""time""
""blur"",""0"",""0""
","""event"",""trial"",""time""
""focus"",""0"",""0""
","""event"",""trial"",""time""
""fullscreenenter"",""0"",""7688""
","
","null","","","","","","","","null","","","","","","","","","","","","","","","","",""
"","do_trial","152","725497","0.0-86.0-0.0","""event"",""trial"",""time""
""blur"",""0"",""0""
""focus"",""0"",""0""
""fullscreenenter"",""0"",""7688""
","""event"",""trial"",""time""
""blur"",""0"",""0""
","""event"",""trial"",""time""
""focus"",""0"",""0""
","""event"",""trial"",""time""
""fullscreenenter"",""0"",""7688""
","
","1829.8999999910593","","","","","","","","51","1,0,0","1","city","30","probe-194","1","0.34357132681104746","0.1245960226951568","0","","","","","","","",""
"","html-keyboard-response","153","726499","0.0-86.0-1.0","""event"",""trial"",""time""
""blur"",""0"",""0""
""focus"",""0"",""0""
""fullscreenenter"",""0"",""7688""
","""event"",""trial"",""time""
""blur"",""0"",""0""
","""event"",""trial"",""time""
""focus"",""0"",""0""
","""event"",""trial"",""time""
""fullscreenenter"",""0"",""7688""
","
","null","<p></p>","null","","","","","","","","","","","","","","","","","","","","","","",""
"","do_trial","154","731374","0.0-87.0-0.0","""event"",""trial"",""time""
""blur"",""0"",""0""
""focus"",""0"",""0""
""fullscreenenter"",""0"",""7688""
","""event"",""trial"",""time""
""blur"",""0"",""0""
","""event"",""trial"",""time""
""focus"",""0"",""0""
","""event"",""trial"",""time""
""fullscreenenter"",""0"",""7688""
","
","311.29999999701977","","","","","","","","51","1,1,0","1","city","31","probe-04","1","0.23576020796186523","0.12098831288336218","0","","","","","","","",""
"","html-keyboard-response","155","732380","0.0-87.0-1.0","""event"",""trial"",""time""
""blur"",""0"",""0""
""focus"",""0"",""0""
""fullscreenenter"",""0"",""7688""
","""event"",""trial"",""time""
""blur"",""0"",""0""
","""event"",""trial"",""time""
""focus"",""0"",""0""
","""event"",""trial"",""time""
""fullscreenenter"",""0"",""7688""
","
","null","<p></p>","null","","","","","","","","","","","","","","","","","","","","","","",""
"","do_trial","156","737288","0.0-88.0-0.0","""event"",""trial"",""time""
""blur"",""0"",""0""
""focus"",""0"",""0""
""fullscreenenter"",""0"",""7688""
","""event"",""trial"",""time""
""blur"",""0"",""0""
","""event"",""trial"",""time""
""focus"",""0"",""0""
","""event"",""trial"",""time""
""fullscreenenter"",""0"",""7688""
","
","346.79999999701977","","","","","","","","50","1,1,0","1","city","32","probe-172","1","0.268826099176298","0.18701683676655756","1","","","","","","","",""
"","html-keyboard-response","157","738293","0.0-88.0-1.0","""event"",""trial"",""time""
""blur"",""0"",""0""
""focus"",""0"",""0""
""fullscreenenter"",""0"",""7688""
","""event"",""trial"",""time""
""blur"",""0"",""0""
","""event"",""trial"",""time""
""focus"",""0"",""0""
","""event"",""trial"",""time""
""fullscreenenter"",""0"",""7688""
","
","null","<p></p>","null","","","","","","","","","","","","","","","","","","","","","","",""
"","do_trial","158","743336","0.0-89.0-0.0","""event"",""trial"",""time""
""blur"",""0"",""0""
""focus"",""0"",""0""
""fullscreenenter"",""0"",""7688""
","""event"",""trial"",""time""
""blur"",""0"",""0""
","""event"",""trial"",""time""
""focus"",""0"",""0""
","""event"",""trial"",""time""
""fullscreenenter"",""0"",""7688""
","
","480.09999999403954","","","","","","","","50","1,0,0","1","city","33","probe-91","0.8353062264617565","0.2850642314067729","0.2069822647504115","0","","","","","","","",""
"","html-keyboard-response","159","744342","0.0-89.0-1.0","""event"",""trial"",""time""
""blur"",""0"",""0""
""focus"",""0"",""0""
""fullscreenenter"",""0"",""7688""
","""event"",""trial"",""time""
""blur"",""0"",""0""
","""event"",""trial"",""time""
""focus"",""0"",""0""
","""event"",""trial"",""time""
""fullscreenenter"",""0"",""7688""
","
","null","<p></p>","null","","","","","","","","","","","","","","","","","","","","","","",""
"","do_trial","160","749402","0.0-90.0-0.0","""event"",""trial"",""time""
""blur"",""0"",""0""
""focus"",""0"",""0""
""fullscreenenter"",""0"",""7688""
","""event"",""trial"",""time""
""blur"",""0"",""0""
","""event"",""trial"",""time""
""focus"",""0"",""0""
","""event"",""trial"",""time""
""fullscreenenter"",""0"",""7688""
","
","498.90000000596046","","","","","","","","50","1,1,0","1","city","34","probe-86","0.749598025779605","0.23016280669335892","0.13109660272664025","1","","","","","","","",""
"","html-keyboard-response","161","750405","0.0-90.0-1.0","""event"",""trial"",""time""
""blur"",""0"",""0""
""focus"",""0"",""0""
""fullscreenenter"",""0"",""7688""
","""event"",""trial"",""time""
""blur"",""0"",""0""
","""event"",""trial"",""time""
""focus"",""0"",""0""
","""event"",""trial"",""time""
""fullscreenenter"",""0"",""7688""
","
","null","<p></p>","null","","","","","","","","","","","","","","","","","","","","","","",""
"","do_trial","162","755685","0.0-91.0-0.0","""event"",""trial"",""time""
""blur"",""0"",""0""
""focus"",""0"",""0""
""fullscreenenter"",""0"",""7688""
","""event"",""trial"",""time""
""blur"",""0"",""0""
","""event"",""trial"",""time""
""focus"",""0"",""0""
","""event"",""trial"",""time""
""fullscreenenter"",""0"",""7688""
","
","716.7000000029802","","","","","","","","50","1,1,0","1","city","35","probe-126","0.6833951722997581","0.2868769301050216","0.10803736415681087","1","","","","","","","",""
"","html-keyboard-response","163","756688","0.0-91.0-1.0","""event"",""trial"",""time""
""blur"",""0"",""0""
""focus"",""0"",""0""
""fullscreenenter"",""0"",""7688""
","""event"",""trial"",""time""
""blur"",""0"",""0""
","""event"",""trial"",""time""
""focus"",""0"",""0""
","""event"",""trial"",""time""
""fullscreenenter"",""0"",""7688""
","
","null","<p></p>","null","","","","","","","","","","","","","","","","","","","","","","",""
"","do_trial","164","761603","0.0-92.0-0.0","""event"",""trial"",""time""
""blur"",""0"",""0""
""focus"",""0"",""0""
""fullscreenenter"",""0"",""7688""
","""event"",""trial"",""time""
""blur"",""0"",""0""
","""event"",""trial"",""time""
""focus"",""0"",""0""
","""event"",""trial"",""time""
""fullscreenenter"",""0"",""7688""
","
","357.70000000298023","","","","","","","","50","1,0,0","1","city","36","probe-200","0.8373450483159275","0.18042991437155942","0.2662435682274034","0","","","","","","","",""
"","html-keyboard-response","165","762608","0.0-92.0-1.0","""event"",""trial"",""time""
""blur"",""0"",""0""
""focus"",""0"",""0""
""fullscreenenter"",""0"",""7688""
","""event"",""trial"",""time""
""blur"",""0"",""0""
","""event"",""trial"",""time""
""focus"",""0"",""0""
","""event"",""trial"",""time""
""fullscreenenter"",""0"",""7688""
","
","null","<p></p>","null","","","","","","","","","","","","","","","","","","","","","","",""
"","do_trial","166","767562","0.0-93.0-0.0","""event"",""trial"",""time""
""blur"",""0"",""0""
""focus"",""0"",""0""
""fullscreenenter"",""0"",""7688""
","""event"",""trial"",""time""
""blur"",""0"",""0""
","""event"",""trial"",""time""
""focus"",""0"",""0""
","""event"",""trial"",""time""
""fullscreenenter"",""0"",""7688""
","
","395","","","","","","","","50","1,0,0","1","city","37","probe-148","0.7439023192218346","0.18658835808462285","0.1357692418415718","0","","","","","","","",""
"","html-keyboard-response","167","768564","0.0-93.0-1.0","""event"",""trial"",""time""
""blur"",""0"",""0""
""focus"",""0"",""0""
""fullscreenenter"",""0"",""7688""
","""event"",""trial"",""time""
""blur"",""0"",""0""
","""event"",""trial"",""time""
""focus"",""0"",""0""
","""event"",""trial"",""time""
""fullscreenenter"",""0"",""7688""
","
","null","<p></p>","null","","","","","","","","","","","","","","","","","","","","","","",""
"","do_trial","168","773529","0.0-94.0-0.0","""event"",""trial"",""time""
""blur"",""0"",""0""
""focus"",""0"",""0""
""fullscreenenter"",""0"",""7688""
","""event"",""trial"",""time""
""blur"",""0"",""0""
","""event"",""trial"",""time""
""focus"",""0"",""0""
","""event"",""trial"",""time""
""fullscreenenter"",""0"",""7688""
","
","402","","","","","","","","50","0,1,0","1","city","38","probe-111","0.6038286567811343","0.20229503906974103","0.07294119303306956","1","","","","","","","",""
"","html-keyboard-response","169","774534","0.0-94.0-1.0","""event"",""trial"",""time""
""blur"",""0"",""0""
""focus"",""0"",""0""
""fullscreenenter"",""0"",""7688""
","""event"",""trial"",""time""
""blur"",""0"",""0""
","""event"",""trial"",""time""
""focus"",""0"",""0""
","""event"",""trial"",""time""
""fullscreenenter"",""0"",""7688""
","
","null","<p></p>","null","","","","","","","","","","","","","","","","","","","","","","",""
"","do_trial","170","779760","0.0-95.0-0.0","""event"",""trial"",""time""
""blur"",""0"",""0""
""focus"",""0"",""0""
""fullscreenenter"",""0"",""7688""
","""event"",""trial"",""time""
""blur"",""0"",""0""
","""event"",""trial"",""time""
""focus"",""0"",""0""
","""event"",""trial"",""time""
""fullscreenenter"",""0"",""7688""
","
","665.6000000089407","","","","","","","","49","1,0,0","1","city","39","probe-174","0.5929843283027463","0.1870817806235794","0.1658740888499848","1","","","","","","","",""
"","html-keyboard-response","171","780766","0.0-95.0-1.0","""event"",""trial"",""time""
""blur"",""0"",""0""
""focus"",""0"",""0""
""fullscreenenter"",""0"",""7688""
","""event"",""trial"",""time""
""blur"",""0"",""0""
","""event"",""trial"",""time""
""focus"",""0"",""0""
","""event"",""trial"",""time""
""fullscreenenter"",""0"",""7688""
","
","null","<p></p>","null","","","","","","","","","","","","","","","","","","","","","","",""
"","do_trial","172","785698","0.0-96.0-0.0","""event"",""trial"",""time""
""blur"",""0"",""0""
""focus"",""0"",""0""
""fullscreenenter"",""0"",""7688""
","""event"",""trial"",""time""
""blur"",""0"",""0""
","""event"",""trial"",""time""
""focus"",""0"",""0""
","""event"",""trial"",""time""
""fullscreenenter"",""0"",""7688""
","
","372","","","","","","","","49","1,1,0","1","city","40","probe-25","0.48368139914030145","0.31489349021434637","0.19402952738025203","1","","","","","","","",""
"","html-keyboard-response","173","786703","0.0-96.0-1.0","""event"",""trial"",""time""
""blur"",""0"",""0""
""focus"",""0"",""0""
""fullscreenenter"",""0"",""7688""
","""event"",""trial"",""time""
""blur"",""0"",""0""
","""event"",""trial"",""time""
""focus"",""0"",""0""
","""event"",""trial"",""time""
""fullscreenenter"",""0"",""7688""
","
","null","<p></p>","null","","","","","","","","","","","","","","","","","","","","","","",""
"","do_trial","174","792969","0.0-97.0-0.0","""event"",""trial"",""time""
""blur"",""0"",""0""
""focus"",""0"",""0""
""fullscreenenter"",""0"",""7688""
","""event"",""trial"",""time""
""blur"",""0"",""0""
","""event"",""trial"",""time""
""focus"",""0"",""0""
","""event"",""trial"",""time""
""fullscreenenter"",""0"",""7688""
","
","1707.0999999940395","","","","","","","","49","1,0,1","1","city","41","probe-107","0.5952806592860537","0.43158148990923834","0.12060309363442126","1","","","","","","","",""
"","html-keyboard-response","175","793974","0.0-97.0-1.0","""event"",""trial"",""time""
""blur"",""0"",""0""
""focus"",""0"",""0""
""fullscreenenter"",""0"",""7688""
","""event"",""trial"",""time""
""blur"",""0"",""0""
","""event"",""trial"",""time""
""focus"",""0"",""0""
","""event"",""trial"",""time""
""fullscreenenter"",""0"",""7688""
","
","null","<p></p>","null","","","","","","","","","","","","","","","","","","","","","","",""
"","do_trial","176","799991","0.0-98.0-0.0","""event"",""trial"",""time""
""blur"",""0"",""0""
""focus"",""0"",""0""
""fullscreenenter"",""0"",""7688""
","""event"",""trial"",""time""
""blur"",""0"",""0""
","""event"",""trial"",""time""
""focus"",""0"",""0""
","""event"",""trial"",""time""
""fullscreenenter"",""0"",""7688""
","
","1452.3999999910593","","","","","","","","49","1,1,0","1","city","42","probe-128","0.34876588907766987","0.5592700277958736","0.18453503959721468","1","","","","","","","",""
"","html-keyboard-response","177","800997","0.0-98.0-1.0","""event"",""trial"",""time""
""blur"",""0"",""0""
""focus"",""0"",""0""
""fullscreenenter"",""0"",""7688""
","""event"",""trial"",""time""
""blur"",""0"",""0""
","""event"",""trial"",""time""
""focus"",""0"",""0""
","""event"",""trial"",""time""
""fullscreenenter"",""0"",""7688""
","
","null","<p></p>","null","","","","","","","","","","","","","","","","","","","","","","",""
"","do_trial","178","805999","0.0-99.0-0.0","""event"",""trial"",""time""
""blur"",""0"",""0""
""focus"",""0"",""0""
""fullscreenenter"",""0"",""7688""
","""event"",""trial"",""time""
""blur"",""0"",""0""
","""event"",""trial"",""time""
""focus"",""0"",""0""
","""event"",""trial"",""time""
""fullscreenenter"",""0"",""7688""
","
","441.30000001192093","","","","","","","","49","0,1,0","1","city","43","probe-109","0.1180001532166244","0.604815956349881","0.20600792718616862","0","","","","","","","",""
"","html-keyboard-response","179","807004","0.0-99.0-1.0","""event"",""trial"",""time""
""blur"",""0"",""0""
""focus"",""0"",""0""
""fullscreenenter"",""0"",""7688""
","""event"",""trial"",""time""
""blur"",""0"",""0""
","""event"",""trial"",""time""
""focus"",""0"",""0""
","""event"",""trial"",""time""
""fullscreenenter"",""0"",""7688""
","
","null","<p></p>","null","","","","","","","","","","","","","","","","","","","","","","",""
"","do_trial","180","812771","0.0-100.0-0.0","""event"",""trial"",""time""
""blur"",""0"",""0""
""focus"",""0"",""0""
""fullscreenenter"",""0"",""7688""
","""event"",""trial"",""time""
""blur"",""0"",""0""
","""event"",""trial"",""time""
""focus"",""0"",""0""
","""event"",""trial"",""time""
""fullscreenenter"",""0"",""7688""
","
","1204.2999999970198","","","","","","","","49","0,0,0","1","city","44","probe-79","0.1073355545831818","0.5041198613900806","0.21613812506321164","0","","","","","","","",""
"","html-keyboard-response","181","813776","0.0-100.0-1.0","""event"",""trial"",""time""
""blur"",""0"",""0""
""focus"",""0"",""0""
""fullscreenenter"",""0"",""7688""
","""event"",""trial"",""time""
""blur"",""0"",""0""
","""event"",""trial"",""time""
""focus"",""0"",""0""
","""event"",""trial"",""time""
""fullscreenenter"",""0"",""7688""
","
","null","<p></p>","null","","","","","","","","","","","","","","","","","","","","","","",""
"","do_trial","182","818732","0.0-101.0-0.0","""event"",""trial"",""time""
""blur"",""0"",""0""
""focus"",""0"",""0""
""fullscreenenter"",""0"",""7688""
","""event"",""trial"",""time""
""blur"",""0"",""0""
","""event"",""trial"",""time""
""focus"",""0"",""0""
","""event"",""trial"",""time""
""fullscreenenter"",""0"",""7688""
","
