"success","trial_type","trial_index","time_elapsed","internal_node_id","rt","stimulus","key_press","subject_id","response","choice_outcomes","context_n","context_img_id","trial_n","probe_img_id","pR_red","pR_white","pR_black","outcome","contextArray_ind","validImageProbes","invalidImageProbes","pRew_Red","pRew_White","pRew_Black","availableForMemProbe","choice_blocks"
"true","fullscreen","0","12857","0.0-0.0","","","","","","","","","","","","","","","","","","","","","",""
"","pavlovia","1","12868","0.0-1.0","","","","","","","","","","","","","","","","","","","","","",""
"","html-keyboard-response","2","36530","0.0-2.0","23655.885000000126","<div class='center'><p>Welcome! This is the first day of the experiment which will last ~30 minutes. In this experiment, you are the head captain of a pirate ship traveling around the world to different places. You will complete several different tasks during this experiment. Here is an overview of these tasks:</p><br><p>Day 1</p><p>1. Tutorial and quiz</p><p>2. Pick a pirate game in 6 different places</p><br><p>Day 2</p><p>3. Pick a pirate game and memory game</p><p>4. Final questions and payment</p><br><p>If you complete the entire experiment, you will receive $15 and a possible bonus payment.</p><p><b>[Press the space bar to begin the tutorial]</b></p></div>","32","5aa9e691f0536100014124f9","","","","","","","","","","","","","","","","","",""
"","html-keyboard-response","3","73455","0.0-3.0","36922.68499999773","<div class='center'><p>You’ll stop at these 6 islands on your journey. You'll be able to see them in the distance from your ship.</p><p><img src='run_exp/static/images/contexts/all_contexts.png' height='500'></p><p><b>[Press the space bar to continue]</b></p></div>","32","","","","","","","","","","","","","","","","","","",""
"","html-keyboard-response","4","95826","0.0-4.0","22367.22000000009","<div class='center'><p> The pirates on your ship will rob other ships as they leave island</p> These ships have just sold their things to the people living on the island, so they will have lots and lots of gold on them.</p><p><img src='run_exp/static/images/tutorial/ship_center.png' height='400'></p><p><b>[Press the space bar to continue]</b></p></div>","32","","","","","","","","","","","","","","","","","","",""
"","html-keyboard-response","5","117220","0.0-5.0","21388.69999999588","<div class='center'><p>As the head captain, you do not have to rob any ships yourself.</p><p>Another pirate will be doing the robbing for you. </p><p><img src='run_exp/static/images/tutorial/pirates_all_crop.png' height='200'></p><p>If they could rob the ship, then you will get a stack of gold coins like this:</p><p><img src='run_exp/static/images/tutorial/reward.png' height='150'></p><p> If they couldn't rob the ship, then you will get no gold coins and you'll see a big red x like this: </p><p><img src='run_exp/static/images/tutorial/reward_no.png' height='150'></p><p> How much bonus money you make is based on how many gold coins you collect.</p><p><b>[Press the space bar to continue]</b></p><div>","32","","","","","","","","","","","","","","","","","","",""
"","html-keyboard-response","6","135331","0.0-6.0","18105.985000001965","<div class='center'><p>Even the most skilled pirate can not rob EVERY ship.</p><p> Some ships will have very strong defenses against pirate attacks.</p><p> For example, blue beard, here, is very, very good at robbing ships.</p><p> You can press the <b>‘1’</b> button on the keyboard to choose him.</p><p> Try choosing him 10 times to see how often he can rob a ship. </p><p><img src='run_exp/static/images/tutorial/blue.png' height='500'></p></div>","49","","","","","","","","","","","","","","","","","","",""
"","html-keyboard-response","7","136835","0.0-7.0","null","<div class='center'><p><img src='run_exp/static/images/tutorial/blue_win.png' height='500'></p></div>","null","","","","","","","","","","","","","","","","","","",""
"","html-keyboard-response","8","137105","0.0-8.0","267.59499999752734","<div class='center'><img src='run_exp/static/images/tutorial/blue.png' height='500'></p></div>","49","","","","","","","","","","","","","","","","","","",""
"","html-keyboard-response","9","138608","0.0-9.0","null","<div class='center'><p><img src='run_exp/static/images/tutorial/blue_win.png' height='500'></p></div>","null","","","","","","","","","","","","","","","","","","",""
"","html-keyboard-response","10","140322","0.0-10.0","1712.469999998575","<div class='center'><img src='run_exp/static/images/tutorial/blue.png' height='500'></p></div>","49","","","","","","","","","","","","","","","","","","",""
"","html-keyboard-response","11","141826","0.0-11.0","null","<div class='center'><p><img src='run_exp/static/images/tutorial/blue_win.png' height='500'></p></div>","null","","","","","","","","","","","","","","","","","","",""
"","html-keyboard-response","12","143400","0.0-12.0","1571.3099999993574","<div class='center'><img src='run_exp/static/images/tutorial/blue.png' height='500'></p></div>","49","","","","","","","","","","","","","","","","","","",""
"","html-keyboard-response","13","144904","0.0-13.0","null","<div class='center'><p><img src='run_exp/static/images/tutorial/blue_no_win.png' height='500'></p></div>","null","","","","","","","","","","","","","","","","","","",""
"","html-keyboard-response","14","146042","0.0-14.0","1134.9300000001676","<div class='center'><img src='run_exp/static/images/tutorial/blue.png' height='500'></p></div>","49","","","","","","","","","","","","","","","","","","",""
"","html-keyboard-response","15","147544","0.0-15.0","null","<div class='center'><p><img src='run_exp/static/images/tutorial/blue_win.png' height='500'></p></div>","null","","","","","","","","","","","","","","","","","","",""
"","html-keyboard-response","16","150599","0.0-16.0","3051.7699999909382","<div class='center'><img src='run_exp/static/images/tutorial/blue.png' height='500'></p></div>","49","","","","","","","","","","","","","","","","","","",""
"","html-keyboard-response","17","152101","0.0-17.0","null","<div class='center'><p><img src='run_exp/static/images/tutorial/blue_win.png' height='500'></p></div>","null","","","","","","","","","","","","","","","","","","",""
"","html-keyboard-response","18","153243","0.0-18.0","1139.6950000053039","<div class='center'><img src='run_exp/static/images/tutorial/blue.png' height='500'></p></div>","49","","","","","","","","","","","","","","","","","","",""
"","html-keyboard-response","19","154746","0.0-19.0","null","<div class='center'><p><img src='run_exp/static/images/tutorial/blue_win.png' height='500'></p></div>","null","","","","","","","","","","","","","","","","","","",""
"","html-keyboard-response","20","155429","0.0-20.0","679.4800000061514","<div class='center'><img src='run_exp/static/images/tutorial/blue.png' height='500'></p></div>","49","","","","","","","","","","","","","","","","","","",""
"","html-keyboard-response","21","156932","0.0-21.0","null","<div class='center'><p><img src='run_exp/static/images/tutorial/blue_no_win.png' height='500'></p></div>","null","","","","","","","","","","","","","","","","","","",""
"","html-keyboard-response","22","157647","0.0-22.0","711.6700000042329","<div class='center'><img src='run_exp/static/images/tutorial/blue.png' height='500'></p></div>","49","","","","","","","","","","","","","","","","","","",""
"","html-keyboard-response","23","159151","0.0-23.0","null","<div class='center'><p><img src='run_exp/static/images/tutorial/blue_win.png' height='500'></p></div>","null","","","","","","","","","","","","","","","","","","",""
"","html-keyboard-response","24","159616","0.0-24.0","461.4150000124937","<div class='center'><img src='run_exp/static/images/tutorial/blue.png' height='500'></p></div>","49","","","","","","","","","","","","","","","","","","",""
"","html-keyboard-response","25","161118","0.0-25.0","null","<div class='center'><p><img src='run_exp/static/images/tutorial/blue_win.png' height='500'></p></div>","null","","","","","","","","","","","","","","","","","","",""
"","html-keyboard-response","26","165654","0.0-26.0","4534.035000004224","<div class='center'><p> See, he could rob the ships most of the time but not every time. </p><p><b>[Press the space bar to continue]</b></p></div>","32","","","","","","","","","","","","","","","","","","",""
"","html-keyboard-response","27","180935","0.0-27.0","15276.385000004666","<div class='center'><p>You will get to choose which of three pirates you want to rob the next ship. <p>Press the <b>‘1’</b> button on your keyboard to pick the pirate with the red beard.</p><p> Press <b>‘2’</b> to pick the pirate with the white beard.</p><p> Press <b>‘3’</b> to pick the pirate with the black beard.</p><p>Try picking a pirate now!</p><p><img src='run_exp/static/images/tutorial/all_pirates.png' height='500'></p></div>","51","","","","","","","","","","","","","","","","","","",""
"","html-keyboard-response","28","184822","0.0-28.0-0.0","3879.850000012084","<div class='center'><p>This pirate could rob the ship!</p><p><img src='run_exp/static/images/tutorial/black_win.png' height='500'></p><p><b>[Press the space bar to continue]</b></p></div>","32","","","","","","","","","","","","","","","","","","",""
"","html-keyboard-response","29","188922","0.0-28.0-1.0","4096.485000001849","<div class='center'><p>Now try choosing another</p><p><img src='run_exp/static/images/tutorial/all_pirates.png' height='500'></p></div>","49","","","","","","","","","","","","","","","","","","",""
"","html-keyboard-response","30","191275","0.0-29.0-0.0","2348.0950000084704","<div class='center'><p>This pirate could not rob the ship.</p><p><img src='run_exp/static/images/tutorial/red_no_win.png' height='500'></p><p><b>[Press the space bar to continue]</b></p></div>","32","","","","","","","","","","","","","","","","","","",""
"","html-keyboard-response","31","264286","0.0-30.0-0.0","73008.34499999473","<div class='center'><p>If you don’t make your choice fast enough, you’ll have to wait a few seconds before you can make another one. </p><p>You can’t collect more gold coins. You just have to sit and wait.</p><p><img src='run_exp/static/images/miscellaneous/hurry_up.png' height='500'></p><p><b>[Press the space bar to continue]</b></p></div>","32","","","","","","","","","","","","","","","","","","",""
"","html-keyboard-response","32","292602","0.0-30.0-1.0","28311.22000000323","<div class='center'><p>Once you choose a pirate, you’ll be shown the ship they are robbing.</p><p>You will never rob the same ship twice.</p><p>Ships can be told apart from one another by the image on them.</p><p> Every time you see a ship, you will have to remember on which island you saw it.</p><p> Remembering correctly will help you win more bonus money!</p><p>A helpful strategy is to try to come up with a story of the object on the ship interacting with the current island scene.</p><p> For example, here, you could imagine a mug full of water in the desert. </p><p>For a ship with an apple on it on the forest island, you could imagine an apple falling from a tree in the forest.</p><p><img src='run_exp/static/images/tutorial/example_probe.png' height='500'></p><p><b>[Press the space bar to continue]</b></p></div>","32","","","","","","","","","","","","","","","","","","",""
"","html-keyboard-response","33","302699","0.0-30.0-2.0","10093.974999996135","<div class='center'><p>How good a pirate is at robbing ships will depend on the current island.</p><p> A pirate may have visited the island many times before and gained a lot of practice robbing ships there.</p><p>So, they're more likely to bring back gold coins than a pirate who has never visited this island before. </p><p><b>[Press the space bar to continue]</b></p></div>","32","","","","","","","","","","","","","","","","","","",""
"","html-keyboard-response","34","322449","0.0-30.0-3.0","19748.184999989462","<div class='center'><p>How good a pirate is at robbing ships can also change over the time spent on the island<p> Ships may hear from islanders about the pirates coming and will improve their protection against the attack. This may make it harder to rob them.</p><p> Ships may also become lazy and lower their protection. This may make it easier to rob them.</p><br><p>Things are always changing on the high seas! So, try your best to pay attention!</p><p><img src='run_exp/static/images/tutorial/contingency.png' height='500'></p><p><b>[Press the space bar to continue]</b></p></div>","32","","","","","","","","","","","","","","","","","","",""
"","html-keyboard-response","35","359281","0.0-30.0-4.0","36829.01499999571","<div class='center'><p>Let's go over the instructions quickly again.You have two important things to do: </p><b><p> 1. Pick the pirate who is the best at robbing ships on the current island.</p></b><b><p> 2. Remember on which island a ship was robbed.</p> </b><p>How much bonus money you make is based on both. </p><br><p>Let’s try a practice game. The game will start by showing you the pirates. First pick a pirate using the <b> 1, 2, 3 </b> buttons on your keyboard. When you are shown a ship, try to remember the island you’re on by making up a story.</p><p> You only have 3 seconds to pick a pirate, so please make a choice quickly! If you are too slow, you’ll have to wait a bit during the time out.</p><p> Don’t feel rushed, but please do try to make a choice every time.</p><p>This is just a practice game, so you’re not playing for money. </p><p> Good luck, remember press <b>'1'</b> to choose red beard, <b>'2'</b> to choose white beard, and <b>'3'</b> to choose black beard</p><p><b>[Press the space bar to begin the practice game]</b></p></div>","32","","","","","","","","","","","","","","","","","","",""
"","do_welcome","36","360793","0.0-30.0-5.0","null","","","","null","","","","","","","","","","","","","","","","",""
"","do_trial","37","366279","0.0-30.0-6.0","959.1599999985192","","","","51","1,0,0","","","","","","","","","","","","","","","",""
"","html-keyboard-response","38","367283","0.0-31.0-0.0","null","<p></p>","null","","","","","","","","","","","","","","","","","","",""
"","do_trial","39","374174","0.0-31.0-1.0","2370.874999993248","","","","51","1,1,0","","","","","","","","","","","","","","","",""
"","html-keyboard-response","40","375177","0.0-32.0-0.0","null","<p></p>","null","","","","","","","","","","","","","","","","","","",""
"","do_trial","41","381878","0.0-32.0-1.0","2183.7499999965075","","","","50","1,0,1","","","","","","","","","","","","","","","",""
"","html-keyboard-response","42","382881","0.0-33.0-0.0","null","<p></p>","null","","","","","","","","","","","","","","","","","","",""
"","do_trial","43","388657","0.0-33.0-1.0","1260.9250000095926","","","","49","0,1,0","","","","","","","","","","","","","","","",""
"","html-keyboard-response","44","389661","0.0-34.0-0.0","null","<p></p>","null","","","","","","","","","","","","","","","","","","",""
"","do_trial","45","395788","0.0-34.0-1.0","1614.4150000036461","","","","51","1,0,0","","","","","","","","","","","","","","","",""
"","do_bye","46","397300","0.0-35.0-0.0","null","","","","null","","","","","","","","","","","","","","","","",""
"","do_travel","47","403303","0.0-35.0-1.0","null","","","","null","","","","","","","","","","","","","","","","",""
"","do_welcome","48","404813","0.0-35.0-2.0","null","","","","null","","","","","","","","","","","","","","","","",""
"","do_trial","49","410267","0.0-35.0-3.0","930.9700000012526","","","","50","1,0,0","","","","","","","","","","","","","","","",""
"","html-keyboard-response","50","411271","0.0-36.0-0.0","null","<p></p>","null","","","","","","","","","","","","","","","","","","",""
"","do_trial","51","416719","0.0-36.0-1.0","935.5150000046706","","","","51","1,0,1","","","","","","","","","","","","","","","",""
"","html-keyboard-response","52","417721","0.0-37.0-0.0","null","<p></p>","null","","","","","","","","","","","","","","","","","","",""
"","do_trial","53","424109","0.0-37.0-1.0","1862.8800000005867","","","","49","1,1,0","","","","","","","","","","","","","","","",""
"","html-keyboard-response","54","425115","0.0-38.0-0.0","null","<p></p>","null","","","","","","","","","","","","","","","","","","",""
"","do_trial","55","430770","0.0-38.0-1.0","1126.5799999964656","","","","50","0,0,1","","","","","","","","","","","","","","","",""
"","html-keyboard-response","56","431777","0.0-39.0-0.0","null","<p></p>","null","","","","","","","","","","","","","","","","","","",""
"","do_trial","57","437166","0.0-39.0-1.0","871.9049999926938","","","","51","1,0,1","","","","","","","","","","","","","","","",""
"","html-keyboard-response","58","447468","0.0-40.0-0.0","10297.705000004498","<div class='center'><p><img src='run_exp/static/images/tutorial/prac_best_pirate.png'  height='500'></p></div>","50","","","","","","","","","","","","","","","","","","",""
"","html-keyboard-response","59","450260","0.0-41.0-0.0","2787.3150000086753","<div class='center'><p>That's incorrect! Red beard was the best.</p><p><b>[Press the space bar to continue]</b></p></div>","32","","","","","","","","","","","","","","","","","","",""
"","html-keyboard-response","60","459153","0.0-41.0-1.0","8890.92000000528","<div class='center'><p><img src='run_exp/static/images/tutorial/prac_source.png'  height='500'></p></div>","49","","","","","","","","","","","","","","","","","","",""
"","html-keyboard-response","61","461041","0.0-42.0-0.0","1883.4500000084518","<div class='center'><p>That's incorrect! You saw this ship on the cavern island</p><p><b>[Press the space bar to continue]</b></p></div>","32","","","","","","","","","","","","","","","","","","",""
"","html-keyboard-response","62","470946","0.0-42.0-1.0","9897.234999996726","<div class='center'><p>Good job on the practice game! Now, you will be asked you some true or false questions to make sure you really understand the rules of the game.</p><p> Press <b>'1'</b> on the keyboard for true and press <b>'2'</b> for false.</p><p><b>[Press the space bar to begin the quiz]</b></p></div>","32","","","","","","","","","","","","","","","","","","",""
"","html-keyboard-response","63","480726","0.0-42.0-2.0","9778.099999995902","<div class='center'><p>You win bonus money by making choices as fast as possible.</p><p>Press 1 for true and press  2 for false.</p></div>","49","","","","","","","","","","","","","","","","","","",""
"","html-keyboard-response","64","482569","0.0-43.0-0.0","1839.959999997518","<<div class='center'><p>That’s incorrect! You win bonus money by collecting as many gold coins as possible!</p><p><b>[press the space bar to continue with the quiz]</b></p></div>","32","","","","","","","","","","","","","","","","","","",""
"","html-keyboard-response","65","493641","0.0-43.0-1.0","11069.804999991902","<div class='center'><p>You press the <b>‘3’</b> button on the keyboard to choose the red bearded pirate. </p><p>Press 1 for true and press  2 for false.</p></div>","50","","","","","","","","","","","","","","","","","","",""
"","html-keyboard-response","66","495152","0.0-44.0-0.0","1508.1500000087544","<div class='center'><p>That's correct!</p> <p><b>[press the space bar to continue with the quiz]</b></p></div>","32","","","","","","","","","","","","","","","","","","",""
"","html-keyboard-response","67","502477","0.0-44.0-1.0","7322.834999999031","<div class='center'><p>The pirate who is the best at robbing ships on the first island will be the best on every other island.</p><p>Press 1 for true and press  2 for false.</p></div>","50","","","","","","","","","","","","","","","","","","",""
"","html-keyboard-response","68","503846","0.0-45.0-0.0","1365.3699999995297","<div class='center'><p>That's correct!</p> <p><b>[press the space bar to continue with the quiz]</b></p></div>","32","","","","","","","","","","","","","","","","","","",""
"","html-keyboard-response","69","507610","0.0-45.0-1.0","3761.175000006915","<div class='center'><p>You should remember the island where a pirate robbed a ship.</p><p>Press 1 for true and press  2 for false.</p></div>","49","","","","","","","","","","","","","","","","","","",""
"","html-keyboard-response","70","508842","0.0-46.0-0.0","1223.1299999984913","<div class='center'><p>That's correct!</p> <p><b>[press the space bar to continue with the quiz]</b></p></div>","32","","","","","","","","","","","","","","","","","","",""
"","html-keyboard-response","71","514228","0.0-47.0-0.0","5384.23499999044","<div class='center'><p>Oops, you missed some questions. Now that you’ve heard the correct answers. Try the quiz again! If you fail the quiz too many times, you won’t be able to do the experiment. </p> <p><br>[press the space bar to repeat the quiz]</br></p></div>","32","","","","","","","","","","","","","","","","","","",""
"","html-keyboard-response","72","517499","0.0-47.0-1.0","3268.309999999474","<div class='center'><p>You win bonus money by making choices as fast as possible.</p><p>Press 1 for true and press  2 for false.</p></div>","50","","","","","","","","","","","","","","","","","","",""
"","html-keyboard-response","73","518949","0.0-48.0-0.0","1446.0949999920558","<div class='center'><p>That's correct!</p> <p><b>[press the space bar to continue with the quiz]</b></p></div>","32","","","","","","","","","","","","","","","","","","",""
"","html-keyboard-response","74","524469","0.0-48.0-1.0","5517.404999991413","<div class='center'><p>You press the <b>‘3’</b> button on the keyboard to choose the red bearded pirate. </p><p>Press 1 for true and press  2 for false.</p></div>","50","","","","","","","","","","","","","","","","","","",""
"","html-keyboard-response","75","525231","0.0-49.0-0.0","760.3600000002189","<div class='center'><p>That's correct!</p> <p><b>[press the space bar to continue with the quiz]</b></p></div>","32","","","","","","","","","","","","","","","","","","",""
"","html-keyboard-response","76","529894","0.0-49.0-1.0","4660.455000004731","<div class='center'><p>The pirate who is the best at robbing ships on the first island will be the best on every other island.</p><p>Press 1 for true and press  2 for false.</p></div>","50","","","","","","","","","","","","","","","","","","",""
"","html-keyboard-response","77","530556","0.0-50.0-0.0","660.3200000099605","<div class='center'><p>That's correct!</p> <p><b>[press the space bar to continue with the quiz]</b></p></div>","32","","","","","","","","","","","","","","","","","","",""
"","html-keyboard-response","78","532344","0.0-50.0-1.0","1785.0000000034925","<div class='center'><p>You should remember the island where a pirate robbed a ship.</p><p>Press 1 for true and press  2 for false.</p></div>","49","","","","","","","","","","","","","","","","","","",""
"","html-keyboard-response","79","533231","0.0-51.0-0.0","838.7349999975413","<div class='center'><p>That's correct!</p> <p><b>[press the space bar to continue with the quiz]</b></p></div>","32","","","","","","","","","","","","","","","","","","",""
"","html-keyboard-response","80","534967","0.0-52.0-0.0","1733.330000002752","<div class='center'><p>Good job! You’re now ready to move on to the real game!</p> <p><br>[press the space bar to begin!]</br></p></div>","32","","","","","","","","","","","","","","","","","","",""
"","do_welcome","81","536478","0.0-53.0-0.0","null","","","","null","","","","","","","","","","","","","","","","",""
"","do_trial","82","543453","0.0-54.0-0.0","2358.4499999997206","","","","51","1,1,0","0","mountain","0","probe-208","0.6","0.3","0.1","0","","","","","","","",""
"","html-keyboard-response","83","544457","0.0-54.0-1.0","null","<p></p>","null","","","","","","","","","","","","","","","","","","",""
"","do_trial","84","550427","0.0-55.0-0.0","1363.8899999932619","","","","50","1,0,0","0","mountain","1","probe-40","0.6263334565009798","0.38224059978677377","0.08179735757797423","0","","","","","","","",""
"","html-keyboard-response","85","551431","0.0-55.0-1.0","null","<p></p>","null","","","","","","","","","","","","","","","","","","",""
"","do_trial","86","557448","0.0-56.0-0.0","1412.3399999953108","","","","49","1,1,0","0","mountain","2","probe-79","0.5918035675992038","0.48306153123866213","0.1036101674173637","1","","","","","","","",""
"","html-keyboard-response","87","558454","0.0-56.0-1.0","null","<p></p>","null","","","","","","","","","","","","","","","","","","",""
"","do_trial","88","564096","0.0-57.0-0.0","1032.4049999908311","","","","50","0,0,0","0","mountain","3","probe-174","0.641618460426987","0.4931328083448317","0.13821097802406018","0","","","","","","","",""
"","html-keyboard-response","89","565101","0.0-57.0-1.0","null","<p></p>","null","","","","","","","","","","","","","","","","","","",""
"","do_trial","90","570462","0.0-58.0-0.0","746.129999999539","","","","51","1,0,0","0","mountain","4","probe-121","0.5393152835444219","0.3733055534487301","0.11154932109114718","0","","","","","","","",""
"","html-keyboard-response","91","571469","0.0-58.0-1.0","null","<p></p>","null","","","","","","","","","","","","","","","","","","",""
"","do_trial","92","576984","0.0-59.0-0.0","911.0899999941466","","","","49","1,1,0","0","mountain","5","probe-158","0.6011774685117421","0.39906815594068645","0.07302177623811876","1","","","","","","","",""
"","html-keyboard-response","93","577987","0.0-59.0-1.0","null","<p></p>","null","","","","","","","","","","","","","","","","","","",""
"","do_trial","94","583076","0.0-60.0-0.0","473.0650000128662","","","","50","0,0,0","0","mountain","6","probe-84","0.4290104954385754","0.38831875701316676","0.09844620171468124","0","","","","","","","",""
"","html-keyboard-response","95","584081","0.0-60.0-1.0","null","<p></p>","null","","","","","","","","","","","","","","","","","","",""
"","do_trial","96","589122","0.0-61.0-0.0","433.5199999914039","","","","49","0,0,0","0","mountain","7","probe-198","0.5526075781744352","0.2974090321092088","0.15185075695234024","0","","","","","","","",""
"","html-keyboard-response","97","590126","0.0-61.0-1.0","null","<p></p>","null","","","","","","","","","","","","","","","","","","",""
"","do_trial","98","595474","0.0-62.0-0.0","736.4200000010896","","","","51","1,0,0","0","mountain","8","probe-24","0.5471701319096082","0.4017445171069251","0.18744696552705928","0","","","","","","","",""
"","html-keyboard-response","99","596480","0.0-62.0-1.0","null","<p></p>","null","","","","","","","","","","","","","","","","","","",""
"","do_trial","100","601782","0.0-63.0-0.0","700.3899999981513","","","","50","0,1,1","0","mountain","9","probe-45","0.701580699868212","0.4017411292788169","0.24981030114787886","1","","","","","","","",""
"","html-keyboard-response","101","602785","0.0-63.0-1.0","null","<p></p>","null","","","","","","","","","","","","","","","","","","",""
"","do_trial","102","608230","0.0-64.0-0.0","838.3650000032503","","","","49","1,0,0","0","mountain","10","probe-35","0.6258325431248617","0.45542229922005995","0.0670275252169124","1","","","","","","","",""
"","html-keyboard-response","103","609234","0.0-64.0-1.0","null","<p></p>","null","","","","","","","","","","","","","","","","","","",""
"","do_trial","104","614764","0.0-65.0-0.0","922.1400000096764","","","","51","1,0,0","0","mountain","11","probe-181","0.6440897236867362","0.37800134157864895","0.16135342160084648","0","","","","","","","",""
"","html-keyboard-response","105","615777","0.0-65.0-1.0","null","<p></p>","null","","","","","","","","","","","","","","","","","","",""
"","do_trial","106","621304","0.0-66.0-0.0","918.9449999976205","","","","50","0,0,0","0","mountain","12","probe-99","0.4511016139390906","0.2678568265440332","0.1326840844391251","0","","","","","","","",""
"","html-keyboard-response","107","622311","0.0-66.0-1.0","null","<p></p>","null","","","","","","","","","","","","","","","","","","",""
"","do_trial","108","627696","0.0-67.0-0.0","770.8049999928335","","","","49","1,0,0","0","mountain","13","probe-20","0.5273409271033103","0.29785497132380556","0.15443963626706642","1","","","","","","","",""
"","html-keyboard-response","109","628698","0.0-67.0-1.0","null","<p></p>","null","","","","","","","","","","","","","","","","","","",""
"","do_trial","110","635599","0.0-68.0-0.0","2293.5100000031525","","","","51","1,0,1","0","mountain","14","probe-100","0.5493857154546175","0.45509011657612997","0.23554627857416563","1","","","","","","","",""
"","html-keyboard-response","111","636602","0.0-68.0-1.0","null","<p></p>","null","","","","","","","","","","","","","","","","","","",""
"","do_trial","112","642495","0.0-69.0-0.0","1285.0900000048568","","","","50","1,1,0","0","mountain","15","probe-82","0.6064598533978286","0.4419192919632574","0.15680693549363126","1","","","","","","","",""
"","html-keyboard-response","113","643499","0.0-69.0-1.0","null","<p></p>","null","","","","","","","","","","","","","","","","","","",""
"","do_trial","114","649188","0.0-70.0-0.0","1075.9350000007544","","","","49","1,0,0","0","mountain","16","probe-102","0.5846318972858474","0.39576580811462714","0.0924545610648553","1","","","","","","","",""
"","html-keyboard-response","115","650192","0.0-70.0-1.0","null","<p></p>","null","","","","","","","","","","","","","","","","","","",""
"","do_trial","116","655351","0.0-71.0-0.0","549.7000000032131","","","","50","0,1,0","0","mountain","17","probe-61","0.6302953971335138","0.3953571411537499","0.17042121937593233","1","","","","","","","",""
"","html-keyboard-response","117","656355","0.0-71.0-1.0","null","<p></p>","null","","","","","","","","","","","","","","","","","","",""
"","do_trial","118","661660","0.0-72.0-0.0","695.4799999948591","","","","49","1,0,1","0","mountain","18","probe-148","0.6117815987208279","0.11111359878618324","0.07903812808678967","1","","","","","","","",""
"","html-keyboard-response","119","662664","0.0-72.0-1.0","null","<p></p>","null","","","","","","","","","","","","","","","","","","",""
"","do_trial","120","667850","0.0-73.0-0.0","575.5199999985052","","","","50","0,0,0","0","mountain","19","probe-87","0.4846656027520204","0.15687874085647466","0.06493348500505547","0","","","","","","","",""
"","html-keyboard-response","121","668853","0.0-73.0-1.0","null","<p></p>","null","","","","","","","","","","","","","","","","","","",""
"","do_trial","122","674114","0.0-74.0-0.0","657.165000011446","","","","51","0,0,0","0","mountain","20","probe-42","0.4328595891307952","0.13807018180843797","0.17525002153558233","0","","","","","","","",""
"","html-keyboard-response","123","675117","0.0-74.0-1.0","null","<p></p>","null","","","","","","","","","","","","","","","","","","",""
"","do_trial","124","680176","0.0-75.0-0.0","447.45000000693835","","","","49","0,0,0","0","mountain","21","probe-89","0.41660737707754325","0.18257760240827506","0.125195112897203","0","","","","","","","",""
"","html-keyboard-response","125","681179","0.0-75.0-1.0","null","<p></p>","null","","","","","","","","","","","","","","","","","","",""
"","do_trial","126","686521","0.0-76.0-0.0","735.0049999949988","","","","49","0,0,0","0","mountain","22","probe-86","0.6365857133591528","0.2683390225306963","0.0661544982806347","0","","","","","","","",""
"","html-keyboard-response","127","687524","0.0-76.0-1.0","null","<p></p>","null","","","","","","","","","","","","","","","","","","",""
"","do_trial","128","692838","0.0-77.0-0.0","701.1099999945145","","","","50","0,0,0","0","mountain","23","probe-189","0.7490024434577557","0.3646317825634754","0.06960827406770777","0","","","","","","","",""
"","html-keyboard-response","129","693843","0.0-77.0-1.0","null","<p></p>","null","","","","","","","","","","","","","","","","","","",""
"","do_trial","130","699294","0.0-78.0-0.0","839.4350000016857","","","","49","0,0,0","0","mountain","24","probe-101","0.7640329349216222","0.2289363746735613","0.14283750707243928","0","","","","","","","",""
"","html-keyboard-response","131","700299","0.0-78.0-1.0","null","<p></p>","null","","","","","","","","","","","","","","","","","","",""
"","do_trial","132","705817","0.0-79.0-0.0","908.6550000065472","","","","51","0,0,0","0","mountain","25","probe-39","0.5989781018182935","0.35079426123196533","0.0502687935702532","0","","","","","","","",""
"","html-keyboard-response","133","706820","0.0-79.0-1.0","null","<p></p>","null","","","","","","","","","","","","","","","","","","",""
"","do_trial","134","711959","0.0-80.0-0.0","515.0649999995949","","","","49","1,1,0","0","mountain","26","probe-145","0.5973684537081683","0.5147099497562581","0.08831949496971053","1","","","","","","","",""
"","html-keyboard-response","135","712961","0.0-80.0-1.0","null","<p></p>","null","","","","","","","","","","","","","","","","","","",""
"","do_trial","136","718295","0.0-81.0-0.0","723.5400000063237","","","","50","1,1,0","0","mountain","27","probe-16","0.5414852746093461","0.4894798281403987","0.0679277163852053","1","","","","","","","",""
"","html-keyboard-response","137","719301","0.0-81.0-1.0","null","<p></p>","null","","","","","","","","","","","","","","","","","","",""
"","do_trial","138","725181","0.0-82.0-0.0","1261.9750000012573","","","","49","0,0,0","0","mountain","28","probe-46","0.5730950548811619","0.43641111304308267","0.12222641203864676","0","","","","","","","",""
"","html-keyboard-response","139","726187","0.0-82.0-1.0","null","<p></p>","null","","","","","","","","","","","","","","","","","","",""
"","do_trial","140","731293","0.0-83.0-0.0","493.58000000938773","","","","51","1,0,0","0","mountain","29","probe-139","0.6304165265362507","0.39691415280311454","0.12734208931922208","0","","","","","","","",""
"","html-keyboard-response","141","732297","0.0-83.0-1.0","null","<p></p>","null","","","","","","","","","","","","","","","","","","",""
"","do_bye","142","733808","0.0-84.0-0.0","null","","","","null","","","","","","","","","","","","","","","","",""
"","do_travel","143","739813","0.0-85.0-0.0","null","","","","null","","","","","","","","","","","","","","","","",""
"","do_welcome","144","741328","0.0-85.0-1.0","null","","","","null","","","","","","","","","","","","","","","","",""
"","do_trial","145","747017","0.0-86.0-0.0","1084.1400000063004","","","","51","1,0,0","1","city","30","probe-123","1","0.32325101133463136","0.08670005602279127","0","","","","","","","",""
"","html-keyboard-response","146","748022","0.0-86.0-1.0","null","<p></p>","null","","","","","","","","","","","","","","","","","","",""
"","do_trial","147","753338","0.0-87.0-0.0","707.3250000103144","","","","50","1,1,0","1","city","31","probe-144","1","0.4070622688965145","0.10274468408361928","1","","","","","","","",""
"","html-keyboard-response","148","754341","0.0-87.0-1.0","null","<p></p>","null","","","","","","","","","","","","","","","","","","",""
"","do_trial","149","760116","0.0-88.0-0.0","1169.1700000083074","","","","49","1,0,0","1","city","32","probe-104","1","0.27025994070346754","0.179061993092228","1","","","","","","","",""
"","html-keyboard-response","150","761122","0.0-88.0-1.0","null","<p></p>","null","","","","","","","","","","","","","","","","","","",""
"","do_trial","151","766278","0.0-89.0-0.0","542.9299999959767","","","","50","1,1,1","1","city","33","probe-200","0.8864790976786688","0.32036315456082876","0.27266944528503284","1","","","","","","","",""
"","html-keyboard-response","152","767282","0.0-89.0-1.0","null","<p></p>","null","","","","","","","","","","","","","","","","","","",""
"","do_trial","153","772745","0.0-90.0-0.0","841.8299999902956","","","","49","1,0,0","1","city","34","probe-41","0.8033191861610459","0.29836622230898296","0.12894303625803133","1","","","","","","","",""
"","html-keyboard-response","154","773750","0.0-90.0-1.0","null","<p></p>","null","","","","","","","","","","","","","","","","","","",""
"","do_trial","155","779075","0.0-91.0-0.0","707.8250000049593","","","","51","1,0,0","1","city","35","probe-85","0.6440715094740739","0.2995786305699486","0.05768726111464675","0","","","","","","","",""
"","html-keyboard-response","156","780079","0.0-91.0-1.0","null","<p></p>","null","","","","","","","","","","","","","","","","","","",""
"","do_trial","157","785646","0.0-92.0-0.0","950.0850000040373","","","","50","1,0,0","1","city","36","probe-38","0.5871152394906466","0.28792637303546287","0.24612951746294748","0","","","","","","","",""
"","html-keyboard-response","158","786651","0.0-92.0-1.0","null","<p></p>","null","","","","","","","","","","","","","","","","","","",""
"","do_trial","159","791849","0.0-93.0-0.0","594.6849999891128","","","","49","1,0,0","1","city","37","probe-156","0.6896151068537162","0.3301096731627386","0.10996883019855658","1","","","","","","","",""
"","html-keyboard-response","160","792854","0.0-93.0-1.0","null","<p></p>","null","","","","","","","","","","","","","","","","","","",""
"","do_trial","161","798354","0.0-94.0-0.0","893.290000007255","","","","51","0,0,0","1","city","38","probe-01","0.6227023868947105","0.35692642061044616","0.10455148645013182","0","","","","","","","",""
"","html-keyboard-response","162","799360","0.0-94.0-1.0","null","<p></p>","null","","","","","","","","","","","","","","","","","","",""
"","do_trial","163","804998","0.0-95.0-0.0","1024.779999992461","","","","49","0,0,0","1","city","39","probe-206","0.6766862447564423","0.40402780970402463","0.07592852628734434","0","","","","","","","",""
"","html-keyboard-response","164","806003","0.0-95.0-1.0","null","<p></p>","null","","","","","","","","","","","","","","","","","","",""
"","do_trial","165","811204","0.0-96.0-0.0","589.5299999974668","","","","50","1,0,0","1","city","40","probe-143","0.6033622775124939","0.3308089656622263","0.14239227042871286","0","","","","","","","",""
"","html-keyboard-response","166","812208","0.0-96.0-1.0","null","<p></p>","null","","","","","","","","","","","","","","","","","","",""
"","do_trial","167","817522","0.0-97.0-0.0","697.0699999947101","","","","49","0,1,0","1","city","41","probe-140","0.42185268671857434","0.20261346387333773","0.13032660574217578","0","","","","","","","",""
"","html-keyboard-response","168","818526","0.0-97.0-1.0","null","<p></p>","null","","","","","","","","","","","","","","","","","","",""
"","do_trial","169","823683","0.0-98.0-0.0","552.8950000007171","","","","51","0,0,0","1","city","42","probe-94","0.2454735697827986","0.3205962444824065","0.25689232824698716","0","","","","","","","",""
"","html-keyboard-response","170","824687","0.0-98.0-1.0","null","<p></p>","null","","","","","","","","","","","","","","","","","","",""
"","do_trial","171","829930","0.0-99.0-0.0","636.4800000010291","","","","50","1,0,0","1","city","43","probe-224","0.3011850033795013","0.4424575670734774","0.2698652534019802","0","","","","","","","",""
"","html-keyboard-response","172","830935","0.0-99.0-1.0","null","<p></p>","null","","","","","","","","","","","","","","","","","","",""
"","do_trial","173","836327","0.0-100.0-0.0","787.5499999936437","","","","49","1,1,0","1","city","44","probe-57","0.28338910958264496","0.6381599201369669","0.19223356752800322","1","","","","","","","",""
"","html-keyboard-response","174","837332","0.0-100.0-1.0","null","<p></p>","null","","","","","","","","","","","","","","","","","","",""
"","do_trial","175","842551","0.0-101.0-0.0","617.4250000040047","","","","51","0,0,1","1","city","45","probe-124","0.2894228227634267","0.6703326132382351","0.2501723707219981","1","","","","","","","",""
"","html-keyboard-response","176","843554","0.0-101.0-1.0","null","<p></p>","null","","","","","","","","","","","","","","","","","","",""
"","do_trial","177","848810","0.0-102.0-0.0","645.3449999971781","","","","50","0,0,0","1","city","46","probe-172","0.15487454362990083","0.6678598037312231","0.25354793720775987","0","","","","","","","",""
"","html-keyboard-response","178","849815","0.0-102.0-1.0","null","<p></p>","null","","","","","","","","","","","","","","","","","","",""
"","do_trial","179","855054","0.0-103.0-0.0","624.8150000028545","","","","49","0,1,0","1","city","47","probe-04","0.1188814806004938","0.5302785581726502","0.2566206848582754","0","","","","","","","",""
"","html-keyboard-response","180","856057","0.0-103.0-1.0","null","<p></p>","null","","","","","","","","","","","","","","","","","","",""
"","do_trial","181","861481","0.0-104.0-0.0","814.6649999980582","","","","50","0,0,1","1","city","48","probe-21","0.10753893206734721","0.5013702506985643","0.2951942524747036","0","","","","","","","",""
"","html-keyboard-response","182","862483","0.0-104.0-1.0","null","<p></p>","null","","","","","","","","","","","","","","","","","","",""
"","do_trial","183","867730","0.0-105.0-0.0","632.6149999949848","","","","51","0,1,0","1","city","49","probe-218","0.1228993034040989","0.5496907106254639","0.2853195789621269","0","","","","","","","",""
"","html-keyboard-response","184","868732","0.0-105.0-1.0","null","<p></p>","null","","","","","","","","","","","","","","","","","","",""
"","do_trial","185","874042","0.0-106.0-0.0","704.5350000116741","","","","50","0,0,0","1","city","50","probe-28","0.16271989275015933","0.6639093953325526","0.32480621622995465","0","","","","","","","",""
"","html-keyboard-response","186","875045","0.0-106.0-1.0","null","<p></p>","null","","","","","","","","","","","","","","","","","","",""
"","do_trial","187","880234","0.0-107.0-0.0","585.2000000013504","","","","49","0,1,0","1","city","51","probe-136","0.3343846583576922","0.5808315317894776","0.15739217670494798","0","","","","","","","",""
"","html-keyboard-response","188","881237","0.0-107.0-1.0","null","<p></p>","null","","","","","","","","","","","","","","","","","","",""
"","do_trial","189","886462","0.0-108.0-0.0","609.4300000113435","","","","50","0,1,0","1","city","52","probe-91","0.13078829204868292","0.5229147135529101","0.24237325177385521","1","","","","","","","",""
"","html-keyboard-response","190","887466","0.0-108.0-1.0","null","<p></p>","null","","","","","","","","","","","","","","","","","","",""
"","do_trial","191","892891","0.0-109.0-0.0","806.3300000067102","","","","49","0,1,1","1","city","53","probe-14","0.14430834708450196","0.5782110756128498","0.3015324118022106","0","","","","","","","",""
"","html-keyboard-response","192","893896","0.0-109.0-1.0","null","<p></p>","null","","","","","","","","","","","","","","","","","","",""
"","do_trial","193","899572","0.0-110.0-0.0","1062.6000000047497","","","","51","0,0,0","1","city","54","probe-179","0.18620052075229285","0.7141975195291554","0.23957787881654638","0","","","","","","","",""
"","html-keyboard-response","194","900575","0.0-110.0-1.0","null","<p></p>","null","","","","","","","","","","","","","","","","","","",""
"","do_trial","195","906046","0.0-111.0-0.0","864.6999999909895","","","","50","0,1,0","1","city","55","probe-205","0.1298766550580752","0.6151783056592243","0.29503515373937267","1","","","","","","","",""
"","html-keyboard-response","196","907048","0.0-111.0-1.0","null","<p></p>","null","","","","","","","","","","","","","","","","","","",""
"","do_trial","197","912389","0.0-112.0-0.0","734.1350000060629","","","","49","0,1,0","1","city","56","probe-211","0.11543318604788114","0.5679851867036421","0.25386512008709244","0","","","","","","","",""
"","html-keyboard-response","198","913394","0.0-112.0-1.0","null","<p></p>","null","","","","","","","","","","","","","","","","","","",""
"","do_trial","199","918571","0.0-113.0-0.0","562.9400000034366","","","","51","1,0,0","1","city","57","probe-169","0.31420148846076873","0.480886851736574","0.36930895261265895","0","","","","","","","",""
"","html-keyboard-response","200","919574","0.0-113.0-1.0","null","<p></p>","null","","","","","","","","","","","","","","","","","","",""
"","do_trial","201","924593","0.0-114.0-0.0","404.5299999997951","","","","50","0,1,0","1","city","58","probe-56","0.29904573364528353","0.524509150144578","0.29880961552561336","1","","","","","","","",""
"","html-keyboard-response","202","925595","0.0-114.0-1.0","null","<p></p>","null","","","","","","","","","","","","","","","","","","",""
"","do_trial","203","930716","0.0-115.0-0.0","510.4200000059791","","","","49","0,1,0","1","city","59","probe-37","0.18332853581413183","0.5566810484105911","0.2817005353488965","0","","","","","","","",""
"","html-keyboard-response","204","931720","0.0-115.0-1.0","null","<p></p>","null","","","","","","","","","","","","","","","","","","",""
"","do_trial","205","936757","0.0-116.0-0.0","430.980000004638","","","","50","0,1,0","1","city","60","probe-202","0.13670829310247068","0.6185813361497376","0.32910130629995155","1","","","","","","","",""
"","html-keyboard-response","206","937765","0.0-116.0-1.0","null","<p></p>","null","","","","","","","","","","","","","","","","","","",""
"","do_trial","207","943227","0.0-117.0-0.0","842.754999990575","","","","51","0,1,0","1","city","61","probe-60","0.2387504960529678","0.548438493947692","0.32034108215905827","0","","","","","","","",""
"","html-keyboard-response","208","944233","0.0-117.0-1.0","null","<p></p>","null","","","","","","","","","","","","","","","","","","",""
"","do_trial","209","949646","0.0-118.0-0.0","799.9149999959627","","","","49","0,1,0","1","city","62","probe-175","0.1659135997868381","0.5670071975031008","0.2740832502804603","0","","","","","","","",""
"","html-keyboard-response","210","950650","0.0-118.0-1.0","null","<p></p>","null","","","","","","","","","","","","","","","","","","",""
"","do_trial","211","956427","0.0-119.0-0.0","1170.109999991837","","","","50","0,0,0","1","city","63","probe-120","0.1770592305515447","0.5001355777830608","0.32097952896720244","0","","","","","","","",""
"","html-keyboard-response","212","957431","0.0-119.0-1.0","null","<p></p>","null","","","","","","","","","","","","","","","","","","",""
"","do_trial","213","962716","0.0-120.0-0.0","678.090000001248","","","","50","0,1,1","1","city","64","probe-88","0.19882679362513273","0.6930417938658334","0.34178581136738373","1","","","","","","","",""
"","html-keyboard-response","214","963720","0.0-120.0-1.0","null","<p></p>","null","","","","","","","","","","","","","","","","","","",""
"","do_trial","215","968870","0.0-121.0-0.0","538.3849999925587","","","","49","0,0,0","1","city","65","probe-72","0.1810137280896384","0.8217627741827487","0.2360334504160512","0","","","","","","","",""
"","html-keyboard-response","216","969872","0.0-121.0-1.0","null","<p></p>","null","","","","","","","","","","","","","","","","","","",""
"","do_trial","217","975036","0.0-122.0-0.0","563.55999999505","","","","50","0,1,0","1","city","66","probe-27","0.1461771872996381","0.7798237717288876","0.3285108486196111","1","","","","","","","",""
"","html-keyboard-response","218","976040","0.0-122.0-1.0","null","<p></p>","null","","","","","","","","","","","","","","","","","","",""
"","do_trial","219","981323","0.0-123.0-0.0","678.2600000005914","","","","51","1,1,0","1","city","67","probe-31","0.1645839557406253","0.7242867644753369","0.21432988087898153","0","","","","","","","",""
"","html-keyboard-response","220","982327","0.0-123.0-1.0","null","<p></p>","null","","","","","","","","","","","","","","","","","","",""
"","do_trial","221","987679","0.0-124.0-0.0","741.9099999970058","","","","50","0,1,0","1","city","68","probe-137","0.1496196710074285","0.5854928298577049","0.3102659978089877","1","","","","","","","",""
"","html-keyboard-response","222","988683","0.0-124.0-1.0","null","<p></p>","null","","","","","","","","","","","","","","","","","","",""
"","do_trial","223","993985","0.0-125.0-0.0","690.7400000054622","","","","49","0,1,0","1","city","69","probe-74","0.16486201737320344","0.544152259869114","0.2563201559232216","0","","","","","","","",""
"","html-keyboard-response","224","994990","0.0-125.0-1.0","null","<p></p>","null","","","","","","","","","","","","","","","","","","",""
"","do_bye","225","996500","0.0-126.0-0.0","null","","","","null","","","","","","","","","","","","","","","","",""
"","do_travel","226","1002505","0.0-127.0-0.0","null","","","","null","","","","","","","","","","","","","","","","",""
"","do_welcome","227","1004021","0.0-127.0-1.0","null","","","","null","","","","","","","","","","","","","","","","",""
"","do_trial","228","1009929","0.0-128.0-0.0","1301.129999992554","","","","51","0,1,0","2","countryside","70","probe-08","0.13664457797026183","1","0.2233671610905931","0","","","","","","","",""
"","html-keyboard-response","229","1010931","0.0-128.0-1.0","null","<p></p>","null","","","","","","","","","","","","","","","","","","",""
"","do_trial","230","1017031","0.0-129.0-0.0","1494.2000000010012","","","","50","0,1,1","2","countryside","71","probe-216","0.11789236054033626","1","0.16512128461521905","1","","","","","","","",""
"","html-keyboard-response","231","1018034","0.0-129.0-1.0","null","<p></p>","null","","","","","","","","","","","","","","","","","","",""
"","do_trial","232","1023617","0.0-130.0-0.0","973.8450000004377","","","","50","0,1,1","2","countryside","72","probe-108","0.24749179233582513","0.909984626314168","0.1767453476977784","1","","","","","","","",""
"","html-keyboard-response","233","1024624","0.0-130.0-1.0","null","<p></p>","null","","","","","","","","","","","","","","","","","","",""
"","do_trial","234","1030563","0.0-131.0-0.0","1328.2599999947706","","","","49","0,1,0","2","countryside","73","probe-44","0.21509430443972175","0.9321391884318078","0.1889873197249139","0","","","","","","","",""
"","html-keyboard-response","235","1031566","0.0-131.0-1.0","null","<p></p>","null","","","","","","","","","","","","","","","","","","",""
"","do_trial","236","1037330","0.0-132.0-0.0","1157.655000002822","","","","51","0,0,0","2","countryside","74","probe-165","0.10722064397921717","0.7952468065183851","0.28096400800834226","0","","","","","","","",""
"","html-keyboard-response","237","1038334","0.0-132.0-1.0","null","<p></p>","null","","","","","","","","","","","","","","","","","","",""
"","do_trial","238","1044368","0.0-133.0-0.0","1427.7049999947194","","","","51","0,1,0","2","countryside","75","probe-43","0.05698427343263626","0.6778107905615705","0.22257746641261122","0","","","","","","","",""
"","html-keyboard-response","239","1045374","0.0-133.0-1.0","null","<p></p>","null","","","","","","","","","","","","","","","","","","",""
"","do_trial","240","1050669","0.0-134.0-0.0","692.2800000030547","","","","49","0,0,1","2","countryside","76","probe-209","0.2197240659882597","0.6407920547717452","0.18682631753473225","0","","","","","","","",""
"","html-keyboard-response","241","1051672","0.0-134.0-1.0","null","<p></p>","null","","","","","","","","","","","","","","","","","","",""
"","do_trial","242","1057379","0.0-135.0-0.0","1095.2899999974761","","","","50","0,0,0","2","countryside","77","probe-166","0.27018317645111856","0.6464904309517256","0.14218340104759813","0","","","","","","","",""
"","html-keyboard-response","243","1058382","0.0-135.0-1.0","null","<p></p>","null","","","","","","","","","","","","","","","","","","",""
"","do_trial","244","1064175","0.0-136.0-0.0","1181.8900000071153","","","","51","0,1,0","2","countryside","78","probe-19","0.36241002296855646","0.4814178933525023","0.2514947318816994","0","","","","","","","",""
"","html-keyboard-response","245","1065179","0.0-136.0-1.0","null","<p></p>","null","","","","","","","","","","","","","","","","","","",""
"","do_trial","246","1070791","0.0-137.0-0.0","1001.8249999992549","","","","49","0,0,0","2","countryside","79","probe-54","0.16511550202189895","0.4547555235040419","0.24469351097750083","0","","","","","","","",""
"","html-keyboard-response","247","1071794","0.0-137.0-1.0","null","<p></p>","null","","","","","","","","","","","","","","","","","","",""
"","do_trial","248","1077454","0.0-138.0-0.0","1055.99500000244","","","","50","0,0,0","2","countryside","80","probe-157","0.16522438080763419","0.611721650424676","0.21284055822207315","0","","","","","","","",""
"","html-keyboard-response","249","1078459","0.0-138.0-1.0","null","<p></p>","null","","","","","","","","","","","","","","","","","","",""
"","do_trial","250","1083551","0.0-139.0-0.0","483.34000000637025","","","","51","0,0,1","2","countryside","81","probe-203","0.1489505709074516","0.5859054710771276","0.3080087178383748","1","","","","","","","",""
"","html-keyboard-response","251","1084554","0.0-139.0-1.0","null","<p></p>","null","","","","","","","","","","","","","","","","","","",""
"","do_trial","252","1090414","0.0-140.0-0.0","1249.5400000042282","","","","51","1,0,1","2","countryside","82","probe-73","0.37137657659280815","0.27628967057651715","0.5252440775178","1","","","","","","","",""
"","html-keyboard-response","253","1091420","0.0-140.0-1.0","null","<p></p>","null","","","","","","","","","","","","","","","","","","",""
"","do_trial","254","1096741","0.0-141.0-0.0","708.8149999906309","","","","49","0,1,1","2","countryside","83","probe-197","0.3149776126432928","0.18385529682954704","0.6313776640058277","0","","","","","","","",""
"","html-keyboard-response","255","1097746","0.0-141.0-1.0","null","<p></p>","null","","","","","","","","","","","","","","","","","","",""
"","do_trial","256","1103575","0.0-142.0-0.0","1222.0700000033248","","","","51","0,0,1","2","countryside","84","probe-217","0.2768012986446483","0.27783790335400615","0.5631747157999911","1","","","","","","","",""
"","html-keyboard-response","257","1104579","0.0-142.0-1.0","null","<p></p>","null","","","","","","","","","","","","","","","","","","",""
"","do_trial","258","1110107","0.0-143.0-0.0","913.2050000044983","","","","50","0,0,0","2","countryside","85","probe-201","0.2496927889708953","0.37737070339459466","0.5245534465086995","0","","","","","","","",""
"","html-keyboard-response","259","1111111","0.0-143.0-1.0","null","<p></p>","null","","","","","","","","","","","","","","","","","","",""
"","do_trial","260","1116066","0.0-144.0-0.0","346.2850000069011","","","","49","0,0,1","2","countryside","86","probe-13","0.18057504140523825","0.3294839904651421","0.5683556874315148","0","","","","","","","",""
"","html-keyboard-response","261","1117071","0.0-144.0-1.0","null","<p></p>","null","","","","","","","","","","","","","","","","","","",""
"","do_trial","262","1122208","0.0-145.0-0.0","527.6449999946635","","","","51","0,0,0","2","countryside","87","probe-25","0.10280682606464997","0.10801854546403056","0.574608118132235","0","","","","","","","",""
"","html-keyboard-response","263","1123214","0.0-145.0-1.0","null","<p></p>","null","","","","","","","","","","","","","","","","","","",""
"","do_trial","264","1128378","0.0-146.0-0.0","555.5299999976996","","","","51","0,0,1","2","countryside","88","probe-193","0.07474093935859775","0.056357088736300576","0.732866021406455","1","","","","","","","",""
"","html-keyboard-response","265","1129384","0.0-146.0-1.0","null","<p></p>","null","","","","","","","","","","","","","","","","","","",""
"","do_trial","266","1134812","0.0-147.0-0.0","810.0550000090152","","","","50","1,1,0","2","countryside","89","probe-67","0.1837425047513478","0.20011365916098853","0.7462810575552921","1","","","","","","","",""
"","html-keyboard-response","267","1135815","0.0-147.0-1.0","null","<p></p>","null","","","","","","","","","","","","","","","","","","",""
"","do_trial","268","1141655","0.0-148.0-0.0","1226.244999998249","","","","49","0,0,1","2","countryside","90","probe-29","0.3143573885188807","0.2041528607118234","0.6570783946669785","0","","","","","","","",""
"","html-keyboard-response","269","1142658","0.0-148.0-1.0","null","<p></p>","null","","","","","","","","","","","","","","","","","","",""
"","do_trial","270","1148065","0.0-149.0-0.0","799.5900000096299","","","","51","0,0,0","2","countryside","91","probe-96","0.43994906466763","0.18225469030788868","0.5789125386740317","0","","","","","","","",""
"","html-keyboard-response","271","1149070","0.0-149.0-1.0","null","<p></p>","null","","","","","","","","","","","","","","","","","","",""
"","do_trial","272","1154153","0.0-150.0-0.0","474.77999998955056","","","","51","0,0,0","2","countryside","92","probe-48","0.3385410172287789","0.08143291069583128","0.6750111368767329","0","","","","","","","",""
"","html-keyboard-response","273","1155158","0.0-150.0-1.0","null","<p></p>","null","","","","","","","","","","","","","","","","","","",""
"","do_trial","274","1160155","0.0-151.0-0.0","384.4399999943562","","","","50","0,0,1","2","countryside","93","probe-152","0.24829883688095078","0.06751567201683634","0.5647676645237013","0","","","","","","","",""
"","html-keyboard-response","275","1161158","0.0-151.0-1.0","null","<p></p>","null","","","","","","","","","","","","","","","","","","",""
"","do_trial","276","1166382","0.0-152.0-0.0","614.7900000070222","","","","51","0,0,0","2","countryside","94","probe-22","0.2317077286504929","0.18004015433959417","0.748508747134124","0","","","","","","","",""
"","html-keyboard-response","277","1167386","0.0-152.0-1.0","null","<p></p>","null","","","","","","","","","","","","","","","","","","",""
"","do_trial","278","1172508","0.0-153.0-0.0","514.5100000081584","","","","51","0,1,0","2","countryside","95","probe-12","0.41919202111329606","0.16227454404568661","0.6582976361515287","0","","","","","","","",""
"","html-keyboard-response","279","1173512","0.0-153.0-1.0","null","<p></p>","null","","","","","","","","","","","","","","","","","","",""
"","do_trial","280","1178711","0.0-154.0-0.0","595.6350000053644","","","","51","0,0,1","2","countryside","96","probe-07","0.3778651671867879","0.22423186232556278","0.6713609313923743","1","","","","","","","",""
"","html-keyboard-response","281","1179717","0.0-154.0-1.0","null","<p></p>","null","","","","","","","","","","","","","","","","","","",""
"","do_trial","282","1184803","0.0-155.0-0.0","477.86500000790693","","","","49","1,1,1","2","countryside","97","probe-111","0.3089175813070324","0.21553915040452432","0.7623811112790692","1","","","","","","","",""
"","html-keyboard-response","283","1185808","0.0-155.0-1.0","null","<p></p>","null","","","","","","","","","","","","","","","","","","",""
"","do_trial","284","1191436","0.0-156.0-0.0","1027.5749999999534","","","","50","1,0,0","2","countryside","98","probe-114","0.3111162081509101","0.19050938006754595","0.5628077353422599","0","","","","","","","",""
"","html-keyboard-response","285","1192441","0.0-156.0-1.0","null","<p></p>","null","","","","","","","","","","","","","","","","","","",""
"","do_trial","286","1197637","0.0-157.0-0.0","582.4649999996182","","","","49","0,1,1","2","countryside","99","probe-213","0.3872513545697615","0.12851612613932187","0.6386426062144548","0","","","","","","","",""
"","html-keyboard-response","287","1198641","0.0-157.0-1.0","null","<p></p>","null","","","","","","","","","","","","","","","","","","",""
"","do_trial","288","1203693","0.0-158.0-0.0","440.6899999885354","","","","51","0,0,0","2","countryside","100","probe-155","0.4353796325839977","0.10787185929859273","0.6477470893891912","0","","","","","","","",""
"","html-keyboard-response","289","1204699","0.0-158.0-1.0","null","<p></p>","null","","","","","","","","","","","","","","","","","","",""
"","do_trial","290","1210349","0.0-159.0-0.0","1045.539999992121","","","","51","0,0,0","2","countryside","101","probe-18","0.4425293910719366","0.128373549987518","0.6764488826620136","0","","","","","","","",""
"","html-keyboard-response","291","1211352","0.0-159.0-1.0","null","<p></p>","null","","","","","","","","","","","","","","","","","","",""
"","do_trial","292","1216464","0.0-160.0-0.0","499.5449999985285","","","","51","1,0,1","2","countryside","102","probe-226","0.4745182915876818","0.10479518679200744","0.6656355213918966","1","","","","","","","",""
"","html-keyboard-response","293","1217467","0.0-160.0-1.0","null","<p></p>","null","","","","","","","","","","","","","","","","","","",""
"","do_trial","294","1222840","0.0-161.0-0.0","769.4100000080653","","","","49","0,0,0","2","countryside","103","probe-131","0.33131710147406623","0.14875782151373287","0.7637337870099669","0","","","","","","","",""
"","html-keyboard-response","295","1223844","0.0-161.0-1.0","null","<p></p>","null","","","","","","","","","","","","","","","","","","",""
"","do_trial","296","1228889","0.0-162.0-0.0","436.69499999657273","","","","50","0,0,1","2","countryside","104","probe-23","0.3424609743876162","0.17578693259388767","0.7301679089129689","0","","","","","","","",""
"","html-keyboard-response","297","1229892","0.0-162.0-1.0","null","<p></p>","null","","","","","","","","","","","","","","","","","","",""
"","do_trial","298","1235396","0.0-163.0-0.0","883.5099999995437","","","","51","0,0,0","2","countryside","105","probe-51","0.25858676288796445","0.164224561645921","0.4950601465805363","0","","","","","","","",""
"","html-keyboard-response","299","1236402","0.0-163.0-1.0","null","<p></p>","null","","","","","","","","","","","","","","","","","","",""
"","do_trial","300","1241524","0.0-164.0-0.0","498.12999999243766","","","","51","1,0,0","2","countryside","106","probe-170","0.22355534238844527","0.1816948115275968","0.527515377162805","0","","","","","","","",""
"","html-keyboard-response","301","1242531","0.0-164.0-1.0","null","<p></p>","null","","","","","","","","","","","","","","","","","","",""
"","do_trial","302","1248082","0.0-165.0-0.0","941.1699999908451","","","","51","0,0,0","2","countryside","107","probe-98","0.17587925200703614","0.1257881348968321","0.468926471901991","0","","","","","","","",""
"","html-keyboard-response","303","1249086","0.0-165.0-1.0","null","<p></p>","null","","","","","","","","","","","","","","","","","","",""
"","do_trial","304","1254408","0.0-166.0-0.0","717.9199999955017","","","","50","1,1,0","2","countryside","108","probe-76","0.3168481687742942","0.21333735813086305","0.5291035827991101","1","","","","","","","",""
"","html-keyboard-response","305","1255413","0.0-166.0-1.0","null","<p></p>","null","","","","","","","","","","","","","","","","","","",""
"","do_trial","306","1260668","0.0-167.0-0.0","647.3899999982677","","","","51","0,0,0","2","countryside","109","probe-196","0.375014638587921","0.16648563591507595","0.6783343554340237","0","","","","","","","",""
"","html-keyboard-response","307","1261672","0.0-167.0-1.0","null","<p></p>","null","","","","","","","","","","","","","","","","","","",""
"","do_bye","308","1263184","0.0-168.0-0.0","null","","","","null","","","","","","","","","","","","","","","","",""
"","do_travel","309","1269188","0.0-169.0-0.0","null","","","","null","","","","","","","","","","","","","","","","",""
"","do_welcome","310","1270700","0.0-169.0-1.0","null","","","","null","","","","","","","","","","","","","","","","",""
"","do_trial","311","1278154","0.0-170.0-0.0","2846.4499999971595","","","","50","1,1,1","3","coast","110","probe-127","0.38089141066941784","0.10426519849324198","1","1","","","","","","","",""
"","html-keyboard-response","312","1279157","0.0-170.0-1.0","null","<p></p>","null","","","","","","","","","","","","","","","","","","",""
"","do_trial","313","1284554","0.0-171.0-0.0","782.9800000037067","","","","49","0,0,1","3","coast","111","probe-135","0.391894704577579","0.060856262265744684","1","0","","","","","","","",""
"","html-keyboard-response","314","1285558","0.0-171.0-1.0","null","<p></p>","null","","","","","","","","","","","","","","","","","","",""
"","do_trial","315","1290743","0.0-172.0-0.0","578.7350000028964","","","","51","0,0,1","3","coast","112","probe-223","0.3643108635852012","0.10180179055183403","0.7369676921052806","1","","","","","","","",""
"","html-keyboard-response","316","1291751","0.0-172.0-1.0","null","<p></p>","null","","","","","","","","","","","","","","","","","","",""
"","do_trial","317","1297083","0.0-173.0-0.0","713.2700000074692","","","","50","0,1,0","3","coast","113","probe-17","0.4136658986680739","0.0932332509089612","0.6774477206421566","1","","","","","","","",""
"","html-keyboard-response","318","1298091","0.0-173.0-1.0","null","<p></p>","null","","","","","","","","","","","","","","","","","","",""
"","do_trial","319","1303606","0.0-174.0-0.0","899.045000012964","","","","49","0,1,0","3","coast","114","probe-204","0.6321152510293981","0.24285223373341155","0.5510078466253","0","","","","","","","",""
"","html-keyboard-response","320","1304608","0.0-174.0-1.0","null","<p></p>","null","","","","","","","","","","","","","","","","","","",""
"","do_trial","321","1310653","0.0-175.0-0.0","1434.7899999993388","","","","50","0,0,1","3","coast","115","probe-221","0.454763944117454","0.2270337695416273","0.7491802155391325","0","","","","","","","",""
"","html-keyboard-response","322","1311657","0.0-175.0-1.0","null","<p></p>","null","","","","","","","","","","","","","","","","","","",""
"","do_trial","323","1316820","0.0-176.0-0.0","557.0100000042003","","","","51","1,0,0","3","coast","116","probe-222","0.414827048598714","0.17977297194904523","0.7019606428006123","0","","","","","","","",""
"","html-keyboard-response","324","1317825","0.0-176.0-1.0","null","<p></p>","null","","","","","","","","","","","","","","","","","","",""
"","do_trial","325","1323275","0.0-177.0-0.0","835.5999999912456","","","","49","1,0,0","3","coast","117","probe-10","0.3339178631961706","0.18502093749653573","0.7634994800963574","1","","","","","","","",""
"","html-keyboard-response","326","1324281","0.0-177.0-1.0","null","<p></p>","null","","","","","","","","","","","","","","","","","","",""
"","do_trial","327","1329819","0.0-178.0-0.0","929.9399999873713","","","","50","0,1,1","3","coast","118","probe-55","0.309880263379413","0.1784398420503139","0.7513660467755292","1","","","","","","","",""
"","html-keyboard-response","328","1330825","0.0-178.0-1.0","null","<p></p>","null","","","","","","","","","","","","","","","","","","",""
"","do_trial","329","1336251","0.0-179.0-0.0","817.1849999926053","","","","49","0,1,1","3","coast","119","probe-187","0.27611095783269696","0.1490177885508656","0.7515825545130163","0","","","","","","","",""
"","html-keyboard-response","330","1337258","0.0-179.0-1.0","null","<p></p>","null","","","","","","","","","","","","","","","","","","",""
"","do_trial","331","1343377","0.0-180.0-0.0","null","","","","null","0,1,0","3","coast","120","probe-90","0.21722256704547277","0.3195677509108002","0.6414414751748116","","","","","","","","",""
"","html-keyboard-response","332","1344383","0.0-180.0-1.0","null","<p></p>","null","","","","","","","","","","","","","","","","","","",""
"","do_trial","333","1349531","0.0-181.0-0.0","539.3550000009127","","","","49","1,1,0","3","coast","121","probe-15","0.3567105448407215","0.3402630212792283","0.681445694232364","1","","","","","","","",""
"","html-keyboard-response","334","1350537","0.0-181.0-1.0","null","<p></p>","null","","","","","","","","","","","","","","","","","","",""
"","do_trial","335","1356300","0.0-182.0-0.0","1148.7800000032876","","","","50","0,0,0","3","coast","122","probe-34","0.4691534059253419","0.40118185161205894","0.482480001686735","0","","","","","","","",""
"","html-keyboard-response","336","1357307","0.0-182.0-1.0","null","<p></p>","null","","","","","","","","","","","","","","","","","","",""
"","do_trial","337","1363416","0.0-183.0-0.0","null","","","","null","1,1,1","3","coast","123","probe-212","0.6262145899142676","0.38893826766143913","0.28296591790179026","","","","","","","","",""
"","html-keyboard-response","338","1364420","0.0-183.0-1.0","null","<p></p>","null","","","","","","","","","","","","","","","","","","",""
"","do_trial","339","1369419","0.0-184.0-0.0","386.7400000016205","","","","51","1,1,0","3","coast","124","probe-105","0.5021288855936752","0.4433540007817983","0.19581650562840325","0","","","","","","","",""
"","html-keyboard-response","340","1370423","0.0-184.0-1.0","null","<p></p>","null","","","","","","","","","","","","","","","","","","",""
"","do_trial","341","1375736","0.0-185.0-0.0","699.2199999948498","","","","50","0,0,0","3","coast","125","probe-167","0.5313393467687536","0.4260360527808542","0.12724476567960488","0","","","","","","","",""
"","html-keyboard-response","342","1376741","0.0-185.0-1.0","null","<p></p>","null","","","","","","","","","","","","","","","","","","",""
"","do_trial","343","1381938","0.0-186.0-0.0","579.9300000071526","","","","49","0,0,0","3","coast","126","probe-106","0.48904041924972613","0.4268890154056094","0.05096727992931838","0","","","","","","","",""
"","html-keyboard-response","344","1382943","0.0-186.0-1.0","null","<p></p>","null","","","","","","","","","","","","","","","","","","",""
"","do_trial","345","1388606","0.0-187.0-0.0","1052.0749999997206","","","","50","1,1,0","3","coast","127","probe-219","0.5692239737455889","0.30396430760077836","0.10359912715310195","1","","","","","","","",""
"","html-keyboard-response","346","1389609","0.0-187.0-1.0","null","<p></p>","null","","","","","","","","","","","","","","","","","","",""
"","do_trial","347","1395113","0.0-188.0-0.0","893.2749999947846","","","","51","1,1,0","3","coast","128","probe-107","0.5599160127641796","0.25294944990350876","0.186491652776401","0","","","","","","","",""
"","html-keyboard-response","348","1396117","0.0-188.0-1.0","null","<p></p>","null","","","","","","","","","","","","","","","","","","",""
"","do_trial","349","1401260","0.0-189.0-0.0","542.9999999906868","","","","50","1,0,0","3","coast","129","probe-228","0.5570893448416123","0.29928229599210615","0.14552052068734922","0","","","","","","","",""
"","html-keyboard-response","350","1402264","0.0-189.0-1.0","null","<p></p>","null","","","","","","","","","","","","","","","","","","",""
"","do_trial","351","1407527","0.0-190.0-0.0","657.8700000101235","","","","49","1,0,1","3","coast","130","probe-168","0.5489471948515685","0.30622556490619623","0.19743119026518763","1","","","","","","","",""
"","html-keyboard-response","352","1408535","0.0-190.0-1.0","null","<p></p>","null","","","","","","","","","","","","","","","","","","",""
"","do_trial","353","1414200","0.0-191.0-0.0","1055.5599999933038","","","","49","1,0,0","3","coast","131","probe-66","0.6523486345383713","0.25331466219558774","0.11976039519347254","1","","","","","","","",""
"","html-keyboard-response","354","1415204","0.0-191.0-1.0","null","<p></p>","null","","","","","","","","","","","","","","","","","","",""
"","do_trial","355","1420867","0.0-192.0-0.0","1050.9099999908358","","","","50","1,1,0","3","coast","132","probe-77","0.5906774532861374","0.1452686142981474","0.06883449105990405","1","","","","","","","",""
"","html-keyboard-response","356","1421869","0.0-192.0-1.0","null","<p></p>","null","","","","","","","","","","","","","","","","","","",""
"","do_trial","357","1426933","0.0-193.0-0.0","455.72500000707805","","","","49","1,0,0","3","coast","133","probe-103","0.653404645951808","0.18684047007381818","0.05493580477677014","1","","","","","","","",""
"","html-keyboard-response","358","1427938","0.0-193.0-1.0","null","<p></p>","null","","","","","","","","","","","","","","","","","","",""
"","do_trial","359","1432970","0.0-194.0-0.0","422.43999999482185","","","","50","0,0,0","3","coast","134","probe-49","0.5377238140516127","0.3064977476441197","0.09380421124165031","0","","","","","","","",""
"","html-keyboard-response","360","1433975","0.0-194.0-1.0","null","<p></p>","null","","","","","","","","","","","","","","","","","","",""
"","do_trial","361","1439014","0.0-195.0-0.0","428.6049999934621","","","","49","1,1,0","3","coast","135","probe-119","0.6073445723926896","0.2755456906603256","0.0607722314847806","1","","","","","","","",""
"","html-keyboard-response","362","1440018","0.0-195.0-1.0","null","<p></p>","null","","","","","","","","","","","","","","","","","","",""
"","do_trial","363","1445365","0.0-196.0-0.0","734.8199999977369","","","","50","1,0,0","3","coast","136","probe-142","0.5873904888651755","0.32542195623220893","0.15993409622222973","0","","","","","","","",""
"","html-keyboard-response","364","1446368","0.0-196.0-1.0","null","<p></p>","null","","","","","","","","","","","","","","","","","","",""
"","do_trial","365","1451453","0.0-197.0-0.0","466.9750000028871","","","","49","1,0,0","3","coast","137","probe-50","0.6044411284809692","0.40839818723080606","0.2764533425250603","1","","","","","","","",""
"","html-keyboard-response","366","1452457","0.0-197.0-1.0","null","<p></p>","null","","","","","","","","","","","","","","","","","","",""
"","do_trial","367","1458245","0.0-198.0-0.0","1181.1000000014901","","","","51","1,0,0","3","coast","138","probe-125","0.7400070496336867","0.30848354672985095","0.4011814216347755","0","","","","","","","",""
"","html-keyboard-response","368","1459249","0.0-198.0-1.0","null","<p></p>","null","","","","","","","","","","","","","","","","","","",""
"","do_trial","369","1464363","0.0-199.0-0.0","507.29999999748543","","","","49","1,0,0","3","coast","139","probe-117","0.6649129552977076","0.31612811622155995","0.40099257499617147","1","","","","","","","",""
"","html-keyboard-response","370","1465368","0.0-199.0-1.0","null","<p></p>","null","","","","","","","","","","","","","","","","","","",""
"","do_trial","371","1470826","0.0-200.0-0.0","844.0700000063516","","","","50","1,0,1","3","coast","140","probe-180","0.5903328382103866","0.34752415587218416","0.4035170710088879","0","","","","","","","",""
"","html-keyboard-response","372","1471829","0.0-200.0-1.0","null","<p></p>","null","","","","","","","","","","","","","","","","","","",""
"","do_trial","373","1477268","0.0-201.0-0.0","828.8749999918509","","","","49","1,1,1","3","coast","141","probe-194","0.5541774213550504","0.3554393659063004","0.31339103655742867","1","","","","","","","",""
"","html-keyboard-response","374","1478273","0.0-201.0-1.0","null","<p></p>","null","","","","","","","","","","","","","","","","","","",""
"","do_trial","375","1484127","0.0-202.0-0.0","1239.8249999969266","","","","49","0,0,0","3","coast","142","probe-215","0.6991202766803815","0.365419768826978","0.2004894465219765","0","","","","","","","",""
"","html-keyboard-response","376","1485130","0.0-202.0-1.0","null","<p></p>","null","","","","","","","","","","","","","","","","","","",""
"","do_trial","377","1490326","0.0-203.0-0.0","583.3300000086892","","","","50","0,0,1","3","coast","143","probe-97","0.7336370683028259","0.3361368578313181","0.251135055851677","0","","","","","","","",""
"","html-keyboard-response","378","1491329","0.0-203.0-1.0","null","<p></p>","null","","","","","","","","","","","","","","","","","","",""
"","do_trial","379","1496436","0.0-204.0-0.0","498.05500000342727","","","","49","1,0,0","3","coast","144","probe-64","0.7007448171746121","0.34397402020439666","0.14501756740470423","1","","","","","","","",""
"","html-keyboard-response","380","1497444","0.0-204.0-1.0","null","<p></p>","null","","","","","","","","","","","","","","","","","","",""
"","do_trial","381","1502939","0.0-205.0-0.0","886.7949999985285","","","","51","1,0,0","3","coast","145","probe-132","0.5953657431855244","0.44183954341924286","0.13032962920359312","0","","","","","","","",""
"","html-keyboard-response","382","1503944","0.0-205.0-1.0","null","<p></p>","null","","","","","","","","","","","","","","","","","","",""
"","do_trial","383","1509024","0.0-206.0-0.0","462.54000000772066","","","","49","1,0,0","3","coast","146","probe-75","0.6782736866145838","0.4472877036741463","0.13957445980116912","1","","","","","","","",""
"","html-keyboard-response","384","1510032","0.0-206.0-1.0","null","<p></p>","null","","","","","","","","","","","","","","","","","","",""
"","do_trial","385","1515065","0.0-207.0-0.0","428.14000000339","","","","50","0,0,0","3","coast","147","probe-59","0.6435750703508687","0.34413104713096476","0.07709360360783168","0","","","","","","","",""
"","html-keyboard-response","386","1516069","0.0-207.0-1.0","null","<p></p>","null","","","","","","","","","","","","","","","","","","",""
"","do_trial","387","1521443","0.0-208.0-0.0","763.4350000007544","","","","49","0,1,0","3","coast","148","probe-163","0.562374132155546","0.4712809121689148","0.14211196175073076","0","","","","","","","",""
"","html-keyboard-response","388","1522446","0.0-208.0-1.0","null","<p></p>","null","","","","","","","","","","","","","","","","","","",""
"","do_trial","389","1528309","0.0-209.0-0.0","1255.1050000037067","","","","49","0,0,0","3","coast","149","probe-53","0.6115670627335125","0.37741620231915163","0.2388975008239877","0","","","","","","","",""
"","html-keyboard-response","390","1529314","0.0-209.0-1.0","null","<p></p>","null","","","","","","","","","","","","","","","","","","",""
"","do_bye","391","1530828","0.0-210.0-0.0","null","","","","null","","","","","","","","","","","","","","","","",""
"","do_travel","392","1536832","0.0-211.0-0.0","null","","","","null","","","","","","","","","","","","","","","","",""
"","do_welcome","393","1538341","0.0-211.0-1.0","null","","","","null","","","","","","","","","","","","","","","","",""
"","do_trial","394","1544867","0.0-212.0-0.0","1917.709999994142","","","","51","1,0,0","4","highway","150","probe-178","1","0.3597806592412644","0.24911327853401738","0","","","","","","","",""
"","html-keyboard-response","395","1545870","0.0-212.0-1.0","null","<p></p>","null","","","","","","","","","","","","","","","","","","",""
"","do_trial","396","1551293","0.0-213.0-0.0","813.8249999901745","","","","50","1,0,0","4","highway","151","probe-138","1","0.2205836649290326","0.22618921831475405","0","","","","","","","",""
"","html-keyboard-response","397","1552295","0.0-213.0-1.0","null","<p></p>","null","","","","","","","","","","","","","","","","","","",""
"","do_trial","398","1557705","0.0-214.0-0.0","803.6900000004098","","","","49","1,0,0","4","highway","152","probe-112","0.8060313849534351","0.14315290123194938","0.14696397817816098","1","","","","","","","",""
"","html-keyboard-response","399","1558710","0.0-214.0-1.0","null","<p></p>","null","","","","","","","","","","","","","","","","","","",""
"","do_trial","400","1564651","0.0-215.0-0.0","1323.9699999976438","","","","49","1,0,0","4","highway","153","probe-227","0.6381938066564683","0.08513412816760133","0.21314780978012585","1","","","","","","","",""
"","html-keyboard-response","401","1565655","0.0-215.0-1.0","null","<p></p>","null","","","","","","","","","","","","","","","","","","",""
"","do_trial","402","1571053","0.0-216.0-0.0","782.8199999930803","","","","50","1,0,1","4","highway","154","probe-160","0.6641084099596143","0.10802375274041044","0.3125470936444729","0","","","","","","","",""
"","html-keyboard-response","403","1572057","0.0-216.0-1.0","null","<p></p>","null","","","","","","","","","","","","","","","","","","",""
"","do_trial","404","1577342","0.0-217.0-0.0","676.9550000028685","","","","51","0,0,0","4","highway","155","probe-126","0.7392171552584607","0.14445212642565017","0.24407386326306493","0","","","","","","","",""
"","html-keyboard-response","405","1578345","0.0-217.0-1.0","null","<p></p>","null","","","","","","","","","","","","","","","","","","",""
"","do_trial","406","1583564","0.0-218.0-0.0","608.4350000019185","","","","51","1,1,0","4","highway","156","probe-62","0.6917300612437854","0.28990570650034314","0.15553650988091652","0","","","","","","","",""
"","html-keyboard-response","407","1584566","0.0-218.0-1.0","null","<p></p>","null","","","","","","","","","","","","","","","","","","",""
"","do_trial","408","1589704","0.0-219.0-0.0","524.8850000060629","","","","49","0,1,0","4","highway","157","probe-146","0.7432100824299214","0.2854143264662689","0.2557449676732229","0","","","","","","","",""
"","html-keyboard-response","409","1590710","0.0-219.0-1.0","null","<p></p>","null","","","","","","","","","","","","","","","","","","",""
"","do_trial","410","1595827","0.0-220.0-0.0","501.1449999874458","","","","50","1,0,0","4","highway","158","probe-113","0.5777680121592853","0.17201965805632768","0.09168069308605263","0","","","","","","","",""
"","html-keyboard-response","411","1596830","0.0-220.0-1.0","null","<p></p>","null","","","","","","","","","","","","","","","","","","",""
"","do_trial","412","1602051","0.0-221.0-0.0","615.2349999903236","","","","49","0,0,0","4","highway","159","probe-11","0.6734372755031928","0.19816649904059527","0.09240960943318077","0","","","","","","","",""
"","html-keyboard-response","413","1603054","0.0-221.0-1.0","null","<p></p>","null","","","","","","","","","","","","","","","","","","",""
"","do_trial","414","1608518","0.0-222.0-0.0","852.4650000035763","","","","51","1,0,0","4","highway","160","probe-06","0.599433417614094","0.17518917124019012","0.06912299810925035","0","","","","","","","",""
"","html-keyboard-response","415","1609524","0.0-222.0-1.0","null","<p></p>","null","","","","","","","","","","","","","","","","","","",""
"","do_trial","416","1614807","0.0-223.0-0.0","669.3500000110362","","","","49","1,0,1","4","highway","161","probe-210","0.6592091721637847","0.17620701407355005","0.13855846606409597","1","","","","","","","",""
"","html-keyboard-response","417","1615813","0.0-223.0-1.0","null","<p></p>","null","","","","","","","","","","","","","","","","","","",""
"","do_trial","418","1621602","0.0-224.0-0.0","1173.7200000060257","","","","50","1,0,0","4","highway","162","probe-80","0.4478080510137825","0.22267378184955017","0.2645477646334385","0","","","","","","","",""
"","html-keyboard-response","419","1622608","0.0-224.0-1.0","null","<p></p>","null","","","","","","","","","","","","","","","","","","",""
"","do_trial","420","1628065","0.0-225.0-0.0","838.6949999986682","","","","51","0,1,0","4","highway","163","probe-159","0.2794680596953264","0.46759307190935945","0.3586089002011034","0","","","","","","","",""
"","html-keyboard-response","421","1629069","0.0-225.0-1.0","null","<p></p>","null","","","","","","","","","","","","","","","","","","",""
"","do_trial","422","1634218","0.0-226.0-0.0","534.1449999979232","","","","50","0,1,1","4","highway","164","probe-78","0.20974926197183066","0.4865962515686592","0.2342379507881962","1","","","","","","","",""
"","html-keyboard-response","423","1635221","0.0-226.0-1.0","null","<p></p>","null","","","","","","","","","","","","","","","","","","",""
"","do_trial","424","1640430","0.0-227.0-0.0","598.1600000087637","","","","49","0,1,1","4","highway","165","probe-02","0.23825928197335636","0.642907170739113","0.2073536016136609","0","","","","","","","",""
"","html-keyboard-response","425","1641433","0.0-227.0-1.0","null","<p></p>","null","","","","","","","","","","","","","","","","","","",""
"","do_trial","426","1646619","0.0-228.0-0.0","563.7849999910686","","","","49","0,1,1","4","highway","166","probe-128","0.2960920066760941","0.7602246209060256","0.2628918053749979","0","","","","","","","",""
"","html-keyboard-response","427","1647625","0.0-228.0-1.0","null","<p></p>","null","","","","","","","","","","","","","","","","","","",""
"","do_trial","428","1652880","0.0-229.0-0.0","648.9950000103563","","","","50","0,1,1","4","highway","167","probe-220","0.11744445136628567","0.7027412970923743","0.1771855914657236","1","","","","","","","",""
"","html-keyboard-response","429","1653885","0.0-229.0-1.0","null","<p></p>","null","","","","","","","","","","","","","","","","","","",""
"","do_trial","430","1659404","0.0-230.0-0.0","910.7650000078138","","","","51","0,1,0","4","highway","168","probe-26","0.11201547255072454","0.5668298274062168","0.25328309492014783","0","","","","","","","",""
"","html-keyboard-response","431","1660409","0.0-230.0-1.0","null","<p></p>","null","","","","","","","","","","","","","","","","","","",""
"","do_trial","432","1665659","0.0-231.0-0.0","643.9800000081304","","","","49","0,1,0","4","highway","169","probe-199","0.1697282798694605","0.4490417505954267","0.333457097562851","0","","","","","","","",""
"","html-keyboard-response","433","1666663","0.0-231.0-1.0","null","<p></p>","null","","","","","","","","","","","","","","","","","","",""
"","do_trial","434","1672668","0.0-232.0-0.0","1392.7050000056624","","","","50","0,1,1","4","highway","170","probe-71","0.15596837764450794","0.5345897148492251","0.38990457593837","1","","","","","","","",""
"","html-keyboard-response","435","1673671","0.0-232.0-1.0","null","<p></p>","null","","","","","","","","","","","","","","","","","","",""
"","do_trial","436","1678941","0.0-233.0-0.0","655.1349999937229","","","","51","0,0,1","4","highway","171","probe-230","0.07596271935353113","0.5242174132419669","0.4031810953216153","1","","","","","","","",""
"","html-keyboard-response","437","1679947","0.0-233.0-1.0","null","<p></p>","null","","","","","","","","","","","","","","","","","","",""
"","do_trial","438","1685500","0.0-234.0-0.0","948.1700000031851","","","","50","0,1,0","4","highway","172","probe-229","0.15985714214031024","0.6038723910362637","0.3786724302987219","1","","","","","","","",""
"","html-keyboard-response","439","1686505","0.0-234.0-1.0","null","<p></p>","null","","","","","","","","","","","","","","","","","","",""
"","do_trial","440","1692113","0.0-235.0-0.0","1005.4349999991246","","","","49","0,1,0","4","highway","173","probe-171","0.11821205704661385","0.5526065059024583","0.34620118316770593","0","","","","","","","",""
"","html-keyboard-response","441","1693117","0.0-235.0-1.0","null","<p></p>","null","","","","","","","","","","","","","","","","","","",""
"","do_trial","442","1698211","0.0-236.0-0.0","478.53500000201166","","","","51","0,0,1","4","highway","174","probe-81","0.12637109617547546","0.5507990330067842","0.36499709489919063","1","","","","","","","",""
"","html-keyboard-response","443","1699214","0.0-236.0-1.0","null","<p></p>","null","","","","","","","","","","","","","","","","","","",""
"","do_trial","444","1704499","0.0-237.0-0.0","667.8600000014994","","","","50","0,0,0","4","highway","175","probe-190","0.09580703434074994","0.5499805619889722","0.3891349066657195","0","","","","","","","",""
"","html-keyboard-response","445","1705502","0.0-237.0-1.0","null","<p></p>","null","","","","","","","","","","","","","","","","","","",""
"","do_trial","446","1710460","0.0-238.0-0.0","354.68000000412576","","","","51","0,0,1","4","highway","176","probe-177","0.09401551931884129","0.5246908687071958","0.5343272454149994","1","","","","","","","",""
"","html-keyboard-response","447","1711465","0.0-238.0-1.0","null","<p></p>","null","","","","","","","","","","","","","","","","","","",""
"","do_trial","448","1717048","0.0-239.0-0.0","979.4849999889266","","","","49","0,1,0","4","highway","177","probe-133","0.12162890982903074","0.4963731061553647","0.512225956132254","0","","","","","","","",""
"","html-keyboard-response","449","1718055","0.0-239.0-1.0","null","<p></p>","null","","","","","","","","","","","","","","","","","","",""
"","do_trial","450","1723312","0.0-240.0-0.0","639.7900000012014","","","","50","0,0,0","4","highway","178","probe-153","0.05950878042489628","0.47755656232161947","0.32693893423752846","0","","","","","","","",""
"","html-keyboard-response","451","1724318","0.0-240.0-1.0","null","<p></p>","null","","","","","","","","","","","","","","","","","","",""
"","do_trial","452","1729484","0.0-241.0-0.0","545.4449999961071","","","","51","0,0,1","4","highway","179","probe-176","0.05469782822997338","0.4467580807772849","0.29679764710505274","1","","","","","","","",""
"","html-keyboard-response","453","1730488","0.0-241.0-1.0","null","<p></p>","null","","","","","","","","","","","","","","","","","","",""
"","do_trial","454","1736430","0.0-242.0-0.0","1332.3300000047311","","","","49","1,1,0","4","highway","180","probe-47","0.07410029157253205","0.34751823797065456","0.2837014358124216","1","","","","","","","",""
"","html-keyboard-response","455","1737434","0.0-242.0-1.0","null","<p></p>","null","","","","","","","","","","","","","","","","","","",""
"","do_trial","456","1742769","0.0-243.0-0.0","721.6000000045169","","","","50","1,0,0","4","highway","181","probe-184","0.10437360020599994","0.39818107049762164","0.3566578619469594","0","","","","","","","",""
"","html-keyboard-response","457","1743774","0.0-243.0-1.0","null","<p></p>","null","","","","","","","","","","","","","","","","","","",""
"","do_trial","458","1748690","0.0-244.0-0.0","306.4300000113435","","","","51","0,0,0","4","highway","182","probe-141","0.0588886670484458","0.5807188878621917","0.3956528332262373","0","","","","","","","",""
"","html-keyboard-response","459","1749693","0.0-244.0-1.0","null","<p></p>","null","","","","","","","","","","","","","","","","","","",""
"","do_trial","460","1754747","0.0-245.0-0.0","441.17000000551343","","","","51","0,0,0","4","highway","183","probe-36","0.11134379812376737","0.532536960278709","0.263707943498012","0","","","","","","","",""
"","html-keyboard-response","461","1755749","0.0-245.0-1.0","null","<p></p>","null","","","","","","","","","","","","","","","","","","",""
"","do_trial","462","1760828","0.0-246.0-0.0","473.98499998962507","","","","49","0,1,1","4","highway","184","probe-161","0.17526574146697166","0.5384596014310636","0.6012785579442109","0","","","","","","","",""
"","html-keyboard-response","463","1761832","0.0-246.0-1.0","null","<p></p>","null","","","","","","","","","","","","","","","","","","",""
"","do_trial","464","1766982","0.0-247.0-0.0","542.6550000119023","","","","49","0,0,1","4","highway","185","probe-173","0.15870928138188822","0.4914953646265283","0.37874218102918755","0","","","","","","","",""
"","html-keyboard-response","465","1767986","0.0-247.0-1.0","null","<p></p>","null","","","","","","","","","","","","","","","","","","",""
"","do_trial","466","1773178","0.0-248.0-0.0","587.8300000040326","","","","50","0,1,0","4","highway","186","probe-32","0.07030327892096291","0.6707543069897398","0.35093800621299887","1","","","","","","","",""
"","html-keyboard-response","467","1774183","0.0-248.0-1.0","null","<p></p>","null","","","","","","","","","","","","","","","","","","",""
"","do_trial","468","1779450","0.0-249.0-0.0","660.8950000084005","","","","51","0,0,0","4","highway","187","probe-150","0.17424264467163092","0.6930114128999963","0.45440768480083227","0","","","","","","","",""
"","html-keyboard-response","469","1780459","0.0-249.0-1.0","null","<p></p>","null","","","","","","","","","","","","","","","","","","",""
"","do_trial","470","1785426","0.0-250.0-0.0","356.6350000037346","","","","51","0,1,0","4","highway","188","probe-109","0.1744092195550312","0.7619064001939279","0.4448416680741938","0","","","","","","","",""
"","html-keyboard-response","471","1786432","0.0-250.0-1.0","null","<p></p>","null","","","","","","","","","","","","","","","","","","",""
"","do_trial","472","1791761","0.0-251.0-0.0","714.8549999983516","","","","49","1,1,0","4","highway","189","probe-130","0.07197069780457312","0.7267421702967619","0.2879698269505069","1","","","","","","","",""
"","html-keyboard-response","473","1792765","0.0-251.0-1.0","null","<p></p>","null","","","","","","","","","","","","","","","","","","",""
"","do_bye","474","1794278","0.0-252.0-0.0","null","","","","null","","","","","","","","","","","","","","","","",""
"","do_travel","475","1800285","0.0-253.0-0.0","null","","","","null","","","","","","","","","","","","","","","","",""
"","do_welcome","476","1801799","0.0-253.0-1.0","null","","","","null","","","","","","","","","","","","","","","","",""
"","do_trial","477","1808526","0.0-254.0-0.0","2119.194999991916","","","","50","0,1,0","5","forest","190","probe-122","0.10680162493493069","1","0.3485596050012296","1","","","","","","","",""
"","html-keyboard-response","478","1809530","0.0-254.0-1.0","null","<p></p>","null","","","","","","","","","","","","","","","","","","",""
"","do_trial","479","1814727","0.0-255.0-0.0","592.1049999888055","","","","49","0,1,0","5","forest","191","probe-188","0.0543202547566372","1","0.3508706167256858","0","","","","","","","",""
"","html-keyboard-response","480","1815732","0.0-255.0-1.0","null","<p></p>","null","","","","","","","","","","","","","","","","","","",""
"","do_trial","481","1821265","0.0-256.0-0.0","922.129999991972","","","","51","1,0,1","5","forest","192","probe-05","0.07948453502215573","0.6797817375327988","0.45082678962269007","1","","","","","","","",""
"","html-keyboard-response","482","1822268","0.0-256.0-1.0","null","<p></p>","null","","","","","","","","","","","","","","","","","","",""
"","do_trial","483","1828235","0.0-257.0-0.0","1355.705000008922","","","","49","0,1,0","5","forest","193","probe-110","0.24425325454056307","0.6289132974883405","0.3776974379228169","0","","","","","","","",""
"","html-keyboard-response","484","1829240","0.0-257.0-1.0","null","<p></p>","null","","","","","","","","","","","","","","","","","","",""
"","do_trial","485","1834611","0.0-258.0-0.0","762.5000000116415","","","","50","0,1,0","5","forest","194","probe-116","0.22804456749453508","0.7086738097039161","0.23370968831786446","1","","","","","","","",""
"","html-keyboard-response","486","1835614","0.0-258.0-1.0","null","<p></p>","null","","","","","","","","","","","","","","","","","","",""
"","do_trial","487","1841004","0.0-259.0-0.0","778.4350000002887","","","","51","0,1,1","5","forest","195","probe-129","0.21597486241822747","0.759939540847874","0.33544289078822187","1","","","","","","","",""
"","html-keyboard-response","488","1842008","0.0-259.0-1.0","null","<p></p>","null","","","","","","","","","","","","","","","","","","",""
"","do_trial","489","1847309","0.0-260.0-0.0","691.0700000007637","","","","50","0,0,0","5","forest","196","probe-63","0.26580425500077326","0.5871927009716799","0.2872996457033776","0","","","","","","","",""
"","html-keyboard-response","490","1848312","0.0-260.0-1.0","null","<p></p>","null","","","","","","","","","","","","","","","","","","",""
"","do_trial","491","1853482","0.0-261.0-0.0","554.075000007404","","","","51","1,0,0","5","forest","197","probe-95","0.263449976754571","0.5280209869950739","0.21058372832579494","0","","","","","","","",""
"","html-keyboard-response","492","1854487","0.0-261.0-1.0","null","<p></p>","null","","","","","","","","","","","","","","","","","","",""
"","do_trial","493","1859551","0.0-262.0-0.0","454.8700000012759","","","","49","0,1,0","5","forest","198","probe-118","0.15760062963571345","0.36703782905802895","0.2862036395559548","0","","","","","","","",""
"","html-keyboard-response","494","1860555","0.0-262.0-1.0","null","<p></p>","null","","","","","","","","","","","","","","","","","","",""
"","do_trial","495","1865601","0.0-263.0-0.0","445.26999999629334","","","","50","0,1,0","5","forest","199","probe-115","0.05126431701247157","0.5213129261147622","0.2924413387086706","1","","","","","","","",""
"","html-keyboard-response","496","1866607","0.0-263.0-1.0","null","<p></p>","null","","","","","","","","","","","","","","","","","","",""
"","do_trial","497","1871650","0.0-264.0-0.0","439.78499999502674","","","","51","0,1,0","5","forest","200","probe-33","0.1317358032278108","0.625769328236051","0.2556275476208441","0","","","","","","","",""
"","html-keyboard-response","498","1872654","0.0-264.0-1.0","null","<p></p>","null","","","","","","","","","","","","","","","","","","",""
"","do_trial","499","1877701","0.0-265.0-0.0","442.6349999993108","","","","50","0,1,0","5","forest","201","probe-09","0.14138217101603825","0.6896797953427398","0.1562086263199328","1","","","","","","","",""
"","html-keyboard-response","500","1878708","0.0-265.0-1.0","null","<p></p>","null","","","","","","","","","","","","","","","","","","",""
"","do_trial","501","1883626","0.0-266.0-0.0","302.0950000062585","","","","51","0,1,0","5","forest","202","probe-195","0.21422990453796156","0.47026229122386326","0.2896520745807388","0","","","","","","","",""
"","html-keyboard-response","502","1884631","0.0-266.0-1.0","null","<p></p>","null","","","","","","","","","","","","","","","","","","",""
"","do_trial","503","1889591","0.0-267.0-0.0","345.23999999510124","","","","50","0,1,0","5","forest","203","probe-162","0.2896482417495867","0.2826499959360173","0.290556228479679","1","","","","","","","",""
"","html-keyboard-response","504","1890595","0.0-267.0-1.0","null","<p></p>","null","","","","","","","","","","","","","","","","","","",""
"","do_trial","505","1895548","0.0-268.0-0.0","345.23999999510124","","","","51","0,1,1","5","forest","204","probe-65","0.26343143827226384","0.1405151623768512","0.45053033378179314","1","","","","","","","",""
"","html-keyboard-response","506","1896551","0.0-268.0-1.0","null","<p></p>","null","","","","","","","","","","","","","","","","","","",""
"","do_trial","507","1901494","0.0-269.0-0.0","338.31500000087544","","","","50","0,0,0","5","forest","205","probe-191","0.18608442404554928","0.17698645963068615","0.441298291749604","0","","","","","","","",""
"","html-keyboard-response","508","1902499","0.0-269.0-1.0","null","<p></p>","null","","","","","","","","","","","","","","","","","","",""
"","do_trial","509","1907701","0.0-270.0-0.0","592.2099999878556","","","","51","0,0,0","5","forest","206","probe-186","0.2778304750043925","0.18117084239046008","0.5214296677635737","0","","","","","","","",""
"","html-keyboard-response","510","1908707","0.0-270.0-1.0","null","<p></p>","null","","","","","","","","","","","","","","","","","","",""
"","do_trial","511","1913704","0.0-271.0-0.0","387.37500000558794","","","","50","0,0,0","5","forest","207","probe-52","0.354707562238267","0.13436235219028866","0.5584583308444911","0","","","","","","","",""
"","html-keyboard-response","512","1914710","0.0-271.0-1.0","null","<p></p>","null","","","","","","","","","","","","","","","","","","",""
"","do_trial","513","1919701","0.0-272.0-0.0","386.9949999935925","","","","51","0,0,1","5","forest","208","probe-182","0.2870809555614439","0.07864867454522738","0.5310925515071709","1","","","","","","","",""
"","html-keyboard-response","514","1920705","0.0-272.0-1.0","null","<p></p>","null","","","","","","","","","","","","","","","","","","",""
"","do_trial","515","1925789","0.0-273.0-0.0","475.0799999893643","","","","50","1,1,0","5","forest","209","probe-83","0.10154612933805059","0.062246290812630146","0.518801696424623","1","","","","","","","",""
"","html-keyboard-response","516","1926794","0.0-273.0-1.0","null","<p></p>","null","","","","","","","","","","","","","","","","","","",""
"","do_trial","517","1931854","0.0-274.0-0.0","444.50000001257285","","","","50","0,0,0","5","forest","210","probe-03","0.22900810607888292","0.05800487986381344","0.5949201405885411","0","","","","","","","",""
"","html-keyboard-response","518","1932857","0.0-274.0-1.0","null","<p></p>","null","","","","","","","","","","","","","","","","","","",""
"","do_trial","519","1937914","0.0-275.0-0.0","449.20499999728054","","","","50","0,0,0","5","forest","211","probe-134","0.2335549504828895","0.07113971207267633","0.6439474788690183","0","","","","","","","",""
"","html-keyboard-response","520","1938919","0.0-275.0-1.0","null","<p></p>","null","","","","","","","","","","","","","","","","","","",""
