"success","trial_type","trial_index","time_elapsed","internal_node_id","rt","stimulus","key_press","subject_id","response","choice_outcomes","context_n","context_img_id","trial_n","probe_img_id","pR_red","pR_white","pR_black","outcome","contextArray_ind","validImageProbes","invalidImageProbes","pRew_Red","pRew_White","pRew_Black","availableForMemProbe","choice_blocks"
"true","fullscreen","0","81695","0.0-0.0","","","","","","","","","","","","","","","","","","","","","",""
"","pavlovia","1","81700","0.0-1.0","","","","","","","","","","","","","","","","","","","","","",""
"","html-keyboard-response","2","104879","0.0-2.0","23175.999999999985","<div class='center'><p>Welcome! This is the first day of the experiment which will last ~30 minutes. In this experiment, you are the head captain of a pirate ship traveling around the world to different places. You will complete several different tasks during this experiment. Here is an overview of these tasks:</p><br><p>Day 1</p><p>1. Tutorial and quiz</p><p>2. Pick a pirate game in 6 different places</p><br><p>Day 2</p><p>3. Pick a pirate game and memory game</p><p>4. Final questions and payment</p><br><p>If you complete the entire experiment, you will receive $15 and a possible bonus payment.</p><p><b>[Press the space bar to begin the tutorial]</b></p></div>","32","612934eb6efb3e2749abb9d2","","","","","","","","","","","","","","","","","",""
"","html-keyboard-response","3","117263","0.0-3.0","12383","<div class='center'><p>You are the head captain of a pirate ship.</p><p> Your pirates rob other ships as they leave the marketplace port.</p> These ships have just sold all their goods at the marketplace, so they have lots and lots of gold on them.</p><p><img src='run_exp/static/images/ship_center.png' height='400'></p><p><b>[Press the space bar to continue]</b></p></div>","32","","","","","","","","","","","","","","","","","","",""
"","html-keyboard-response","4","144047","0.0-4.0","26782","<div class='center'><p>As the head captain, you do not have to rob any ships yourself.</p><p>You get to choose which pirate you want to rob the next ship. </p><p>If they are successful at robbing the ship, then you will get gold coins.</p><p> If they are not successful, then you will get no gold coins.</p><p> The more coins you collect, the more bonus money you will win. So, choose your pirate wisely.</p><p><img src='run_exp/static/images/goal.png' height='400'></p><p><b>[Press the space bar to continue]</b></p><div>","32","","","","","","","","","","","","","","","","","","",""
"","html-keyboard-response","5","161425","0.0-5.0","17377.00000000003","<div class='center'><p>Even the most skilled pirate will not be able to rob EVERY ship.</p><p> Some ships will have very strong defenses against attacks.</p><p> For example, blue beard, here,  is very good at robbing ships.</p><p> You can press the <b>‘1’</b> button on the keyboard to choose him.</p><p> Try choosing him 10 times to see how often he is successful at robbing ships. </p><p><img src='run_exp/static/images/blue.png' height='500'></p></div>","49","","","","","","","","","","","","","","","","","","",""
"","html-keyboard-response","6","162928","0.0-6.0","null","<br><br><br><br><p><img src='run_exp/static/images/blue_win.png' height='500'></p>","null","","","","","","","","","","","","","","","","","","",""
"","html-keyboard-response","7","164241","0.0-7.0","1312","<br><br><br><br><p><img src='run_exp/static/images/blue.png' height='500'></p>","49","","","","","","","","","","","","","","","","","","",""
"","html-keyboard-response","8","165743","0.0-8.0","null","<br><br><br><br><p><img src='run_exp/static/images/blue_win.png' height='500'></p>","null","","","","","","","","","","","","","","","","","","",""
"","html-keyboard-response","9","166873","0.0-9.0","1128","<br><br><br><br><p><img src='run_exp/static/images/blue.png' height='500'></p>","49","","","","","","","","","","","","","","","","","","",""
"","html-keyboard-response","10","168375","0.0-10.0","null","<br><br><br><br><p><img src='run_exp/static/images/blue_win.png' height='500'></p>","null","","","","","","","","","","","","","","","","","","",""
"","html-keyboard-response","11","169958","0.0-11.0","1581","<br><br><br><br><p><img src='run_exp/static/images/blue.png' height='500'></p>","49","","","","","","","","","","","","","","","","","","",""
"","html-keyboard-response","12","171459","0.0-12.0","null","<br><br><br><br><p><img src='run_exp/static/images/blue_no_win.png' height='500'></p>","null","","","","","","","","","","","","","","","","","","",""
"","html-keyboard-response","13","172612","0.0-13.0","1152","<br><br><br><br><p><img src='run_exp/static/images/blue.png' height='500'></p>","49","","","","","","","","","","","","","","","","","","",""
"","html-keyboard-response","14","174114","0.0-14.0","null","<br><br><br><br><p><img src='run_exp/static/images/blue_win.png' height='500'></p>","null","","","","","","","","","","","","","","","","","","",""
"","html-keyboard-response","15","174812","0.0-15.0","696","<br><br><br><br><p><img src='run_exp/static/images/blue.png' height='500'></p>","49","","","","","","","","","","","","","","","","","","",""
"","html-keyboard-response","16","176314","0.0-16.0","null","<br><br><br><br><p><img src='run_exp/static/images/blue_win.png' height='500'></p>","null","","","","","","","","","","","","","","","","","","",""
"","html-keyboard-response","17","176661","0.0-17.0","345","<br><br><br><br><p><img src='run_exp/static/images/blue.png' height='500'></p>","49","","","","","","","","","","","","","","","","","","",""
"","html-keyboard-response","18","178163","0.0-18.0","null","<br><br><br><br><p><img src='run_exp/static/images/blue_win.png' height='500'></p>","null","","","","","","","","","","","","","","","","","","",""
"","html-keyboard-response","19","178422","0.0-19.0","258","<br><br><br><br><p><img src='run_exp/static/images/blue.png' height='500'></p>","49","","","","","","","","","","","","","","","","","","",""
"","html-keyboard-response","20","179924","0.0-20.0","null","<br><br><br><br><p><img src='run_exp/static/images/blue_no_win.png' height='500'></p>","null","","","","","","","","","","","","","","","","","","",""
"","html-keyboard-response","21","180212","0.0-21.0","286.9999999999709","<br><br><br><br><p><img src='run_exp/static/images/blue.png' height='500'></p>","49","","","","","","","","","","","","","","","","","","",""
"","html-keyboard-response","22","181714","0.0-22.0","null","<br><br><br><br><p><img src='run_exp/static/images/blue_win.png' height='500'></p>","null","","","","","","","","","","","","","","","","","","",""
"","html-keyboard-response","23","182031","0.0-23.0","316","<br><br><br><br><p><img src='run_exp/static/images/blue.png' height='500'></p>","49","","","","","","","","","","","","","","","","","","",""
"","html-keyboard-response","24","183532","0.0-24.0","null","<br><br><br><br><p><img src='run_exp/static/images/blue_win.png' height='500'></p>","null","","","","","","","","","","","","","","","","","","",""
"","html-keyboard-response","25","187866","0.0-25.0","4332","<div class='center'><p> See, he was successful at robbing the ships most of the time but not every time. </p><p><b>[Press the space bar to continue]</b></p></div>","32","","","","","","","","","","","","","","","","","","",""
"","html-keyboard-response","26","200222","0.0-26.0","12354","<div class='center'><p>In the game, you will get to choose which of three pirates you want to rob the next ship. <p>Press the <b>‘1’</b> button on your keyboard to pick the pirate with the red beard.</p><p> Press <b>‘2’</b> to pick the pirate with the white beard.</p><p> Press <b>‘3’</b> to pick the pirate with the black beard.</p><p>Try picking a pirate now!</p><p><img src='run_exp/static/images/all_pirates.png' height='500'></p></div>","49","","","","","","","","","","","","","","","","","","",""
"","html-keyboard-response","27","202831","0.0-27.0-0.0","2607","<div class='center'><p>This pirate was successful at robbing the ship!</p><p><img src='run_exp/static/images/red_win.png' height='500'></p><p><b>[Press the space bar to continue]</b></p></div>","32","","","","","","","","","","","","","","","","","","",""
"","html-keyboard-response","28","204769","0.0-27.0-1.0","1936.999999999971","<div class='center'><p>Now try choosing another</p><p><img src='run_exp/static/images/all_pirates.png' height='500'></p></div>","51","","","","","","","","","","","","","","","","","","",""
"","html-keyboard-response","29","206027","0.0-28.0-0.0","1256","<div class='center'><p>This pirate was not successful at robbing the ship!</p><p><img src='run_exp/static/images/black_no_win.png' height='500'></p><p><b>[Press the space bar to continue]</b></p></div>","32","","","","","","","","","","","","","","","","","","",""
"","html-keyboard-response","30","211780","0.0-29.0-0.0","5752","<div class='center'><p>You’ll stop at these 6 places on your journey.</p><p><img src='run_exp/static/images/all_contexts.png' height='500'></p><p><b>[Press the space bar to continue]</b></p></div>","32","","","","","","","","","","","","","","","","","","",""
"","html-keyboard-response","31","218322","0.0-29.0-1.0","6541","<div class='center'><p>How good a pirate is at robbing ships will depend on the current place.</p><p> Some pirates will have been to the place before, and will have more experience robbing ships there.</p><p>So, they will be more successful at stealing gold and bringing it back to you.</p><p><b>[Press the space bar to continue]</b></p></div>","32","","","","","","","","","","","","","","","","","","",""
"","html-keyboard-response","32","238000","0.0-29.0-2.0","19677","<div class='center'><p>How successful a pirate is at robbing ships can also change in a place.<p> Ships may hear about the pirates coming and will improve their defenses. This may make it more difficult to rob them.</p><p> Ships may also grow lazy and lower their defenses. This may make it easier to rob them.</p><br><p>Things are always changing on the high seas! So, try your best to pay attention!</p><p><img src='run_exp/static/images/contingency.png' height='500'></p><p><b>[Press the space bar to continue]</b></p></div>","32","","","","","","","","","","","","","","","","","","",""
"","html-keyboard-response","33","283899","0.0-29.0-3.0","45896","<div class='center'><p>Once you choose a pirate to rob a ship, you’ll be shown the ship they are robbing.</p><p>The ship will have a picture of the item they sold at the marketplace.</p><p> Try your best to remember the ship and where you saw the ship.</p><p> You’ll have to remember this for later, and remembering this correctly will help you win more bonus money!</p><p>You can remember the ship by remembering the item they sold at the marketplace</p><p>A helpful strategy is to try to come up with a story of the chosen pirate and ship’s item interacting with the scene.</p><p> For example, a ship might have sold travel mugs and you could imagine red beard walking through the city with a travel mug. </p><p>Or imagine an apple falling from a tree into white beard's hands in the forest.</p><p><img src='run_exp/static/images/example_probe.png' height='500'></p><p><b>[Press the space bar to continue]</b></p></div>","32","","","","","","","","","","","","","","","","","","",""
"","html-keyboard-response","34","289777","0.0-29.0-4.0","5877","<div class='center'><p>If you don’t make your choice fast enough, you’ll have to wait a few seconds before you can make another one. </p><p>You can’t win more gold. You just have to sit and wait.</p><p><img src='run_exp/static/images/hurry_up.png' height='500'></p><p><b>[Press the space bar to continue]</b></p></div>","32","","","","","","","","","","","","","","","","","","",""
"","html-keyboard-response","35","340060","0.0-29.0-5.0","50280.00000000006","<div class='center'><p>Again, you have two important things to do: </p><b><p> 1. Pick the pirate who you think will be most successful at robbing the next ship.</p></b><b><p> 2. Remember where a pirate robbed a ship.</p> </b><p>Both are important in determining how much bonus money you’ll win.</p><br><p>Let’s try a practice game. The game will start by showing you the pirates. First pick a pirate using the <b> 1, 2, 3 </b> buttons on your keyboard. When you are shown a ship, try to remember the place you’re in by making up a story.</p><p> You only have 3 seconds to pick a pirate, so please make a choice quickly! If you are too slow, you’ll have to wait a bit during the time out.</p><p> Don’t feel rushed, but please do try to make a choice every time.</p><p>How good a pirate is at robbing a ship will change depending on the place they are in and how good the defenses are of the ship.</p> <p>This is just a practice game, so you’re not playing for money. </p><p>You’ll receive a bag which may or may not contain gold coins.</p><p> In the real game, though, you’ll be able to see whether or not you received the gold coins.</p><p> Good luck, remember press <b>'1'</b> to choose red beard, <b>'2'</b> to choose white beard, and <b>'3'</b> to choose black beard</p><p><b>[Press the space bar to begin the practice game]</b></p></div>","32","","","","","","","","","","","","","","","","","","",""
"","do_trial_prac","36","345991","0.0-29.0-6.0","1424","","","","50","","","","","","","","","","","","","","","","",""
"","do_trial_prac","37","353386","0.0-29.0-7.0","2888","","","","50","","","","","","","","","","","","","","","","",""
"","do_trial_prac","38","359860","0.0-29.0-8.0","1968","","","","51","","","","","","","","","","","","","","","","",""
"","do_trial_prac","39","366052","0.0-29.0-9.0","1685","","","","49","","","","","","","","","","","","","","","","",""
"","do_trial_prac","40","372225","0.0-29.0-10.0","1668","","","","50","","","","","","","","","","","","","","","","",""
"","html-keyboard-response","41","380934","0.0-29.0-11.0","8706","<div class='center'><p>Great job on the practice game!</p><p> Now, you will be asked you some true or false questions to make sure you really understand the rules of the game.</p><p> Press <b>'1'</b> on the keyboard for true and press <b>'2'</b> for false.</p><p><b>[Press the space bar to begin the quiz]</b></p></div>","32","","","","","","","","","","","","","","","","","","",""
"","html-keyboard-response","42","385046","0.0-29.0-12.0","4111","<div class='center'><p>You win bonus money by making choices as fast as possible.</p><p>Press 1 for true and press  2 for false.</p></div>","49","","","","","","","","","","","","","","","","","","",""
"","html-keyboard-response","43","388814","0.0-30.0-0.0","3767","<br><br><br><br><p>That’s incorrect! You win bonus money by collecting as many gold coins as possible!</p><p><b>[press the space bar to continue with the quiz]</b></p>","32","","","","","","","","","","","","","","","","","","",""
"","html-keyboard-response","44","392155","0.0-30.0-1.0","3339","<div class='center'><p>You press the <b>‘3’</b> button on the keyboard to choose the red bearded pirate? </p><p>Press 1 for true and press  2 for false.</p></div>","50","","","","","","","","","","","","","","","","","","",""
"","html-keyboard-response","45","393479","0.0-31.0-0.0","1323","<br><br><br><br><p>That's correct!</p> <p><b>[press the space bar to continue with the quiz]</b></p>","32","","","","","","","","","","","","","","","","","","",""
"","html-keyboard-response","46","397101","0.0-31.0-1.0","3621","<div class='center'><p>A pirate will always be equally successful at robbing ships in each place</p><p>Press 1 for true and press  2 for false.</p></div>","50","","","","","","","","","","","","","","","","","","",""
"","html-keyboard-response","47","398237","0.0-32.0-0.0","1135","<br><br><br><br><p>That's correct!</p> <p><b>[press the space bar to continue with the quiz]</b></p>","32","","","","","","","","","","","","","","","","","","",""
"","html-keyboard-response","48","402344","0.0-32.0-1.0","4106","<div class='center'><p>You should remember the place where a pirate robbed a ship.</p><p>Press 1 for true and press  2 for false.</p></div>","49","","","","","","","","","","","","","","","","","","",""
"","html-keyboard-response","49","403258","0.0-33.0-0.0","912","<br><br><br><br><p>That's correct!</p> <p><b>[press the space bar to continue with the quiz]</b></p>","32","","","","","","","","","","","","","","","","","","",""
"","html-keyboard-response","50","408774","0.0-34.0-0.0","5515.999999999942","<br><br><br><br><p>Oops, you missed some questions. Now that you’ve heard the correct answers. Try the quiz again! If you fail the quiz too many times, you won’t be able to do the experiment. </p> <p><br>[press the space bar to repeat the quiz]</br></p>","32","","","","","","","","","","","","","","","","","","",""
"","html-keyboard-response","51","412203","0.0-34.0-1.0","3426.999999999942","<div class='center'><p>You win bonus money by making choices as fast as possible.</p><p>Press 1 for true and press  2 for false.</p></div>","50","","","","","","","","","","","","","","","","","","",""
"","html-keyboard-response","52","412789","0.0-35.0-0.0","584.0000000000582","<br><br><br><br><p>That's correct!</p> <p><b>[press the space bar to continue with the quiz]</b></p>","32","","","","","","","","","","","","","","","","","","",""
"","html-keyboard-response","53","414936","0.0-35.0-1.0","2146","<div class='center'><p>You press the <b>‘3’</b> button on the keyboard to choose the red bearded pirate? </p><p>Press 1 for true and press  2 for false.</p></div>","49","","","","","","","","","","","","","","","","","","",""
"","html-keyboard-response","54","416177","0.0-36.0-0.0","1240","<br><br><br><br><p>That’s incorrect! You press the <b>‘1’</b> button to choose the red bearded pirate!</p><p><b>[press the space bar to continue with the quiz]</b></p>","32","","","","","","","","","","","","","","","","","","",""
"","html-keyboard-response","55","419142","0.0-36.0-1.0","2963","<div class='center'><p>A pirate will always be equally successful at robbing ships in each place</p><p>Press 1 for true and press  2 for false.</p></div>","50","","","","","","","","","","","","","","","","","","",""
"","html-keyboard-response","56","420083","0.0-37.0-0.0","940","<br><br><br><br><p>That's correct!</p> <p><b>[press the space bar to continue with the quiz]</b></p>","32","","","","","","","","","","","","","","","","","","",""
"","html-keyboard-response","57","421193","0.0-37.0-1.0","1109","<div class='center'><p>You should remember the place where a pirate robbed a ship.</p><p>Press 1 for true and press  2 for false.</p></div>","49","","","","","","","","","","","","","","","","","","",""
"","html-keyboard-response","58","421693","0.0-38.0-0.0","498.9999999999418","<br><br><br><br><p>That's correct!</p> <p><b>[press the space bar to continue with the quiz]</b></p>","32","","","","","","","","","","","","","","","","","","",""
"","html-keyboard-response","59","424548","0.0-39.0-0.0","2853.999999999942","<br><br><br><br><p>Oops, you missed some questions. Now that you’ve heard the correct answers. Try the quiz again! If you fail the quiz too many times, you won’t be able to do the experiment. </p> <p><br>[press the space bar to repeat the quiz]</br></p>","32","","","","","","","","","","","","","","","","","","",""
"","html-keyboard-response","60","427632","0.0-39.0-1.0","3083","<div class='center'><p>You win bonus money by making choices as fast as possible.</p><p>Press 1 for true and press  2 for false.</p></div>","50","","","","","","","","","","","","","","","","","","",""
"","html-keyboard-response","61","428567","0.0-40.0-0.0","934","<br><br><br><br><p>That's correct!</p> <p><b>[press the space bar to continue with the quiz]</b></p>","32","","","","","","","","","","","","","","","","","","",""
"","html-keyboard-response","62","432575","0.0-40.0-1.0","4007","<div class='center'><p>You press the <b>‘3’</b> button on the keyboard to choose the red bearded pirate? </p><p>Press 1 for true and press  2 for false.</p></div>","49","","","","","","","","","","","","","","","","","","",""
"","html-keyboard-response","63","436041","0.0-41.0-0.0","3465","<br><br><br><br><p>That’s incorrect! You press the <b>‘1’</b> button to choose the red bearded pirate!</p><p><b>[press the space bar to continue with the quiz]</b></p>","32","","","","","","","","","","","","","","","","","","",""
"","html-keyboard-response","64","443387","0.0-41.0-1.0","7344","<div class='center'><p>A pirate will always be equally successful at robbing ships in each place</p><p>Press 1 for true and press  2 for false.</p></div>","50","","","","","","","","","","","","","","","","","","",""
"","html-keyboard-response","65","443969","0.0-42.0-0.0","581.0000000000582","<br><br><br><br><p>That's correct!</p> <p><b>[press the space bar to continue with the quiz]</b></p>","32","","","","","","","","","","","","","","","","","","",""
"","html-keyboard-response","66","444957","0.0-42.0-1.0","987.0000000000582","<div class='center'><p>You should remember the place where a pirate robbed a ship.</p><p>Press 1 for true and press  2 for false.</p></div>","49","","","","","","","","","","","","","","","","","","",""
"","html-keyboard-response","67","445447","0.0-43.0-0.0","489","<br><br><br><br><p>That's correct!</p> <p><b>[press the space bar to continue with the quiz]</b></p>","32","","","","","","","","","","","","","","","","","","",""
"","html-keyboard-response","68","446791","0.0-44.0-0.0","1343","<br><br><br><br><p>Oops, you missed some questions. Now that you’ve heard the correct answers. Try the quiz again! If you fail the quiz too many times, you won’t be able to do the experiment. </p> <p><br>[press the space bar to repeat the quiz]</br></p>","32","","","","","","","","","","","","","","","","","","",""
"","html-keyboard-response","69","452527","0.0-44.0-1.0","5735.000000000058","<div class='center'><p>You win bonus money by making choices as fast as possible.</p><p>Press 1 for true and press  2 for false.</p></div>","50","","","","","","","","","","","","","","","","","","",""
"","html-keyboard-response","70","453148","0.0-45.0-0.0","620","<br><br><br><br><p>That's correct!</p> <p><b>[press the space bar to continue with the quiz]</b></p>","32","","","","","","","","","","","","","","","","","","",""
"","html-keyboard-response","71","454695","0.0-45.0-1.0","1546.0000000000582","<div class='center'><p>You press the <b>‘3’</b> button on the keyboard to choose the red bearded pirate? </p><p>Press 1 for true and press  2 for false.</p></div>","50","","","","","","","","","","","","","","","","","","",""
"","html-keyboard-response","72","455224","0.0-46.0-0.0","528.0000000000582","<br><br><br><br><p>That's correct!</p> <p><b>[press the space bar to continue with the quiz]</b></p>","32","","","","","","","","","","","","","","","","","","",""
"","html-keyboard-response","73","457826","0.0-46.0-1.0","2601","<div class='center'><p>A pirate will always be equally successful at robbing ships in each place</p><p>Press 1 for true and press  2 for false.</p></div>","50","","","","","","","","","","","","","","","","","","",""
"","html-keyboard-response","74","458371","0.0-47.0-0.0","544","<br><br><br><br><p>That's correct!</p> <p><b>[press the space bar to continue with the quiz]</b></p>","32","","","","","","","","","","","","","","","","","","",""
"","html-keyboard-response","75","460001","0.0-47.0-1.0","1630","<div class='center'><p>You should remember the place where a pirate robbed a ship.</p><p>Press 1 for true and press  2 for false.</p></div>","49","","","","","","","","","","","","","","","","","","",""
"","html-keyboard-response","76","460421","0.0-48.0-0.0","413","<br><br><br><br><p>That's correct!</p> <p><b>[press the space bar to continue with the quiz]</b></p>","32","","","","","","","","","","","","","","","","","","",""
"","html-keyboard-response","77","462231","0.0-49.0-0.0","1810","<br><br><br><br><p>Good job! You’re now ready to move on to the real game!</p> <p><br>[press the space bar to begin!]</br></p>","32","","","","","","","","","","","","","","","","","","",""
"","do_welcome","78","463736","0.0-50.0-0.0","null","","","","null","","","","","","","","","","","","","","","","",""
"","do_trial","79","470292","0.0-51.0-0.0","2017.9999999999418","","","","50","1,0,0","0","mountain","0","probe-197","1","0.4","0.1","0","","","","","","","",""
"","do_trial","80","477098","0.0-52.0-0.0","2275","","","","51","1,0,0","0","mountain","1","probe-221","1","0.454209213588681","0.21590467618607279","0","","","","","","","",""
"","do_trial","81","482778","0.0-53.0-0.0","1150","","","","49","1,0,0","0","mountain","2","probe-122","1","0.3355931920645945","0.15313749945549665","1","","","","","","","",""
"","do_trial","82","489007","0.0-54.0-0.0","1695.9999999999418","","","","49","1,1,1","0","mountain","3","probe-172","1","0.543567578063122","0.10455481284074751","1","","","","","","","",""
"","do_trial","83","495253","0.0-55.0-0.0","1715","","","","49","1,1,0","0","mountain","4","probe-192","0.6747934998685358","0.5232286539650286","0.10844697820767682","1","","","","","","","",""
"","do_trial","84","502743","0.0-56.0-0.0","2959","","","","50","0,1,0","0","mountain","5","probe-144","0.5828675553824302","0.5227088620215967","0.1930185274967419","1","","","","","","","",""
"","do_trial","85","508616","0.0-57.0-0.0","1342","","","","49","0,1,0","0","mountain","6","probe-48","0.839908980165051","0.49484383653192887","0.21056033695311055","0","","","","","","","",""
"","do_trial","86","515213","0.0-58.0-0.0","2064.999999999942","","","","51","0,0,0","0","mountain","7","probe-208","0.7135337532495829","0.47290830191216104","0.14091950400450845","0","","","","","","","",""
"","do_trial","87","520531","0.0-59.0-0.0","788","","","","50","1,1,0","0","mountain","8","probe-36","0.7536543572960634","0.4901003401359044","0.052521015871458354","1","","","","","","","",""
"","do_trial","88","526717","0.0-60.0-0.0","1655","","","","50","1,1,0","0","mountain","9","probe-143","0.7695025666955957","0.4577679484997141","0.08933192430367635","1","","","","","","","",""
"","do_trial","89","533376","0.0-61.0-0.0","2128","","","","49","1,1,1","0","mountain","10","probe-173","0.4963446525515971","0.6178378199791467","0.05865760080801649","1","","","","","","","",""
"","do_trial","90","538997","0.0-62.0-0.0","1092","","","","50","1,1,1","0","mountain","11","probe-214","0.5050602788765015","0.7495776406318626","0.0912619673478336","1","","","","","","","",""
"","do_trial","91","544322","0.0-63.0-0.0","793","","","","49","1,1,0","0","mountain","12","probe-01","0.5430940591813059","0.6806888837432545","0.13167009100759253","1","","","","","","","",""
"","do_trial","92","549911","0.0-64.0-0.0","1059","","","","51","0,0,0","0","mountain","13","probe-165","0.5238729973039112","0.6798006664559527","0.0571172325139453","0","","","","","","","",""
"","do_trial","93","554986","0.0-65.0-0.0","541.0000000001164","","","","49","0,1,1","0","mountain","14","probe-206","0.51751824528494","0.852626903828642","0.1375377726157613","0","","","","","","","",""
"","do_trial","94","559910","0.0-66.0-0.0","393","","","","50","0,0,0","0","mountain","15","probe-166","0.3803395994818412","0.7599737919578953","0.058914328961735","0","","","","","","","",""
"","do_trial","95","565380","0.0-67.0-0.0","941","","","","49","0,1,0","0","mountain","16","probe-205","0.41157889103162154","0.7753100791435397","0.14615438172369669","0","","","","","","","",""
"","do_trial","96","570331","0.0-68.0-0.0","421","","","","51","1,1,0","0","mountain","17","probe-78","0.27306414625386","0.8849710600204271","0.15817311372069767","0","","","","","","","",""
"","do_trial","97","576707","0.0-69.0-0.0","1847.9999999998836","","","","50","0,1,0","0","mountain","18","probe-184","0.4237434107119516","0.8769076420267695","0.12684895020387893","1","","","","","","","",""
"","do_trial","98","582385","0.0-70.0-0.0","1149.9999999998836","","","","49","1,1,1","0","mountain","19","probe-127","0.42968477421296997","0.9273737373031975","0.08702363034457651","1","","","","","","","",""
"","do_trial","99","587648","0.0-71.0-0.0","734","","","","50","0,1,0","0","mountain","20","probe-138","0.33799794759116647","0.9475583069736281","0.05339514605058685","1","","","","","","","",""
"","do_trial","100","592750","0.0-72.0-0.0","569.9999999998836","","","","49","0,1,0","0","mountain","21","probe-55","0.37045164436348754","0.7773343411911572","0.11200466263391398","0","","","","","","","",""
"","do_trial","101","597711","0.0-73.0-0.0","430","","","","51","0,1,0","0","mountain","22","probe-140","0.42502936752342485","0.7040380097851968","0.21847228016801531","0","","","","","","","",""
"","do_trial","102","602610","0.0-74.0-0.0","372.0000000001164","","","","50","0,1,0","0","mountain","23","probe-115","0.4866513306481753","0.7488877016394604","0.38574685822581833","1","","","","","","","",""
"","do_trial","103","607795","0.0-75.0-0.0","652","","","","50","0,1,0","0","mountain","24","probe-32","0.4421134560006793","0.7395896931246161","0.1356560583698931","1","","","","","","","",""
"","do_trial","104","613054","0.0-76.0-0.0","730.0000000001164","","","","50","0,1,0","0","mountain","25","probe-38","0.34419927503938846","0.7796957738360899","0.06597066450606602","1","","","","","","","",""
"","do_trial","105","618020","0.0-77.0-0.0","439","","","","50","1,1,0","0","mountain","26","probe-68","0.44205643803239414","0.7656605185703012","0.0676002090482424","1","","","","","","","",""
"","do_trial","106","623473","0.0-78.0-0.0","925","","","","50","1,0,0","0","mountain","27","probe-47","0.46815180742056","0.8500517675862165","0.10349349623723565","0","","","","","","","",""
"","do_trial","107","628670","0.0-79.0-0.0","664","","","","49","0,1,0","0","mountain","28","probe-02","0.3256639721317016","0.8609848792995853","0.08528947787499712","0","","","","","","","",""
"","do_trial","108","633623","0.0-80.0-0.0","421","","","","50","0,1,0","0","mountain","29","probe-17","0.23709666020272666","0.7189317871551165","0.08048640950125126","1","","","","","","","",""
"","do_trial","109","639019","0.0-81.0-0.0","863.9999999998836","","","","50","0,1,0","0","mountain","30","probe-117","0.3613380196573688","0.9014828717562483","0.05632159761624395","1","","","","","","","",""
"","do_trial","110","644093","0.0-82.0-0.0","537","","","","50","1,1,0","0","mountain","31","probe-236","0.2598144296875947","0.8148797979353131","0.07809227998989458","1","","","","","","","",""
"","do_trial","111","649178","0.0-83.0-0.0","552","","","","50","0,0,0","0","mountain","32","probe-65","0.22158766705137878","0.809421178372852","0.1052167264576037","0","","","","","","","",""
"","do_trial","112","655096","0.0-84.0-0.0","1387.9999999998836","","","","50","0,0,0","0","mountain","33","probe-108","0.405188550206123","0.7176683887718089","0.10693414949850132","0","","","","","","","",""
"","do_trial","113","659942","0.0-85.0-0.0","317.0000000001164","","","","51","0,0,0","0","mountain","34","probe-77","0.4946234566843191","0.7889150424407072","0.22929079204237718","0","","","","","","","",""
"","do_trial","114","664800","0.0-86.0-0.0","328","","","","49","0,1,0","0","mountain","35","probe-57","0.39883529741409673","0.6835622914356195","0.15419721133750394","0","","","","","","","",""
"","do_trial","115","669764","0.0-87.0-0.0","431.0000000001164","","","","50","1,1,0","0","mountain","36","probe-189","0.5117584300615606","0.7217729354860561","0.1067630571381736","1","","","","","","","",""
"","do_trial","116","674735","0.0-88.0-0.0","445","","","","50","0,1,1","0","mountain","37","probe-148","0.4661765573235473","0.7678882673943153","0.22774008336777307","1","","","","","","","",""
"","do_trial","117","679822","0.0-89.0-0.0","557","","","","50","0,0,0","0","mountain","38","probe-213","0.4628117776789702","0.7288959601024209","0.20266695010400035","0","","","","","","","",""
"","do_trial","118","686145","0.0-90.0-0.0","1793","","","","49","0,1,0","0","mountain","39","probe-83","0.4324068685743155","0.6794184929723616","0.12917028558141025","0","","","","","","","",""
"","do_bye","119","687649","0.0-91.0-0.0","null","","","","null","","","","","","","","","","","","","","","","",""
"","do_travel","120","693653","0.0-92.0-0.0","null","","","","null","","","","","","","","","","","","","","","","",""
"","do_welcome","121","695158","0.0-92.0-1.0","null","","","","null","","","","","","","","","","","","","","","","",""
"","do_trial","122","701190","0.0-93.0-0.0","null","","","","null","1,1,0","1","coast","40","probe-133","0.43406772845754826","1","0.16288210126353683","","","","","","","","",""
"","do_trial","123","707243","0.0-94.0-0.0","1521","","","","49","0,1,1","1","coast","41","probe-96","0.5502576050526813","1","0.17850566920718064","0","","","","","","","",""
"","do_trial","124","712128","0.0-95.0-0.0","354","","","","50","0,1,0","1","coast","42","probe-139","0.4740386602494672","1","0.21350315524766117","1","","","","","","","",""
"","do_trial","125","717029","0.0-96.0-0.0","367","","","","51","1,1,0","1","coast","43","probe-67","0.5175377250885506","1","0.17220283407626116","0","","","","","","","",""
"","do_trial","126","721918","0.0-97.0-0.0","359","","","","50","0,1,0","1","coast","44","probe-211","0.33944387629469525","0.8232712724795684","0.15768516642594008","1","","","","","","","",""
"","do_trial","127","726790","0.0-98.0-0.0","340","","","","49","0,1,0","1","coast","45","probe-45","0.33340150117045647","0.9155701359006441","0.18353772543120583","0","","","","","","","",""
"","do_trial","128","731715","0.0-99.0-0.0","394","","","","50","0,1,0","1","coast","46","probe-05","0.3125775404219649","0.9290586382944522","0.28461364801676176","1","","","","","","","",""
"","do_trial","129","736330","0.0-100.0-0.0","83","","","","50","0,1,0","1","coast","47","probe-180","0.34861702089783364","0.9332579990755854","0.21948531719802705","1","","","","","","","",""
"","do_trial","130","741179","0.0-101.0-0.0","319.9999999998836","","","","50","0,1,1","1","coast","48","probe-103","0.349602844769838","0.8230772315933441","0.36291604348528467","1","","","","","","","",""
"","do_trial","131","746180","0.0-102.0-0.0","470","","","","50","1,1,0","1","coast","49","probe-73","0.3825318666854679","0.8822166391369014","0.3520845575799518","1","","","","","","","",""
"","do_trial","132","751268","0.0-103.0-0.0","555.9999999998836","","","","49","0,0,0","1","coast","50","probe-15","0.6329100519978392","0.5538240940874285","0.33820366598484847","0","","","","","","","",""
"","do_trial","133","756367","0.0-104.0-0.0","568","","","","50","1,1,0","1","coast","51","probe-64","0.640073894500935","0.31469436357485664","0.18612430275805408","1","","","","","","","",""
"","do_trial","134","761288","0.0-105.0-0.0","387.0000000001164","","","","50","0,0,0","1","coast","52","probe-84","0.7012681044824597","0.2325747180795781","0.20795923988622592","0","","","","","","","",""
"","do_trial","135","766318","0.0-106.0-0.0","499","","","","51","1,1,0","1","coast","53","probe-238","0.7926768547855666","0.2194355215446017","0.36239526939419775","0","","","","","","","",""
"","do_trial","136","771443","0.0-107.0-0.0","592.0000000001164","","","","50","0,0,0","1","coast","54","probe-110","0.8046857391224177","0.062359301777904594","0.28351912300898463","0","","","","","","","",""
"","do_trial","137","776438","0.0-108.0-0.0","461","","","","50","1,0,1","1","coast","55","probe-169","0.8294222647350101","0.10766145828846745","0.2346888559305451","0","","","","","","","",""
"","do_trial","138","781360","0.0-109.0-0.0","391","","","","49","1,0,0","1","coast","56","probe-137","0.7206724389418803","0.08105590431549263","0.3035218461027467","1","","","","","","","",""
"","do_trial","139","786351","0.0-110.0-0.0","458","","","","50","1,1,0","1","coast","57","probe-23","0.8431041299488666","0.16816023272747874","0.33969326369847236","1","","","","","","","",""
"","do_trial","140","791395","0.0-111.0-0.0","511","","","","49","1,0,0","1","coast","58","probe-114","0.8844777914546096","0.07858737943597287","0.2829222009355765","1","","","","","","","",""
"","do_trial","141","797037","0.0-112.0-0.0","1109","","","","50","1,0,0","1","coast","59","probe-10","0.8428356915980666","0.13072809774044952","0.4273115241686404","0","","","","","","","",""
"","do_trial","142","802921","0.0-113.0-0.0","1351","","","","49","0,0,0","1","coast","60","probe-87","0.8230337027670008","0.21210619587042132","0.5907515600293838","0","","","","","","","",""
"","do_trial","143","808762","0.0-114.0-0.0","1308.0000000001164","","","","51","1,0,0","1","coast","61","probe-16","0.9339724512820736","0.21506268646433163","0.41830140805455174","0","","","","","","","",""
"","do_trial","144","813691","0.0-115.0-0.0","396","","","","50","0,0,1","1","coast","62","probe-41","0.7820525088014949","0.08840511326234257","0.4457908003466439","0","","","","","","","",""
"","do_trial","145","818652","0.0-116.0-0.0","424","","","","49","1,0,1","1","coast","63","probe-224","0.7966191244222853","0.07469032603672818","0.32280159914678097","1","","","","","","","",""
"","do_trial","146","824680","0.0-117.0-0.0","1497","","","","50","0,0,0","1","coast","64","probe-234","0.6844553065641596","0.22870435062592154","0.3132789780432656","0","","","","","","","",""
"","do_trial","147","831373","0.0-118.0-0.0","2162.0000000001164","","","","49","1,0,1","1","coast","65","probe-30","0.7722413197901149","0.23956072776281162","0.42850277634749556","1","","","","","","","",""
"","do_trial","148","836647","0.0-119.0-0.0","743","","","","49","1,1,1","1","coast","66","probe-177","0.9022321016061658","0.09399869880356886","0.43920519560363736","1","","","","","","","",""
"","do_trial","149","841594","0.0-120.0-0.0","418.0000000001164","","","","49","1,1,0","1","coast","67","probe-93","0.8681715870111752","0.11444955969437674","0.5148945612367501","1","","","","","","","",""
"","do_trial","150","847299","0.0-121.0-0.0","1172","","","","49","1,0,0","1","coast","68","probe-163","0.9437835471419641","0.15937223420222482","0.4724240109396116","1","","","","","","","",""
"","do_trial","151","853744","0.0-122.0-0.0","1914","","","","49","1,0,0","1","coast","69","probe-164","0.8571500376016556","0.11454546696665328","0.4457657314355642","1","","","","","","","",""
"","do_trial","152","861022","0.0-123.0-0.0","2747.9999999998836","","","","49","1,0,0","1","coast","70","probe-168","0.7899200845437936","0.09646910235256333","0.3882765021011291","1","","","","","","","",""
"","do_trial","153","866251","0.0-124.0-0.0","698","","","","49","1,0,0","1","coast","71","probe-209","0.8927367184656465","0.0674552180458609","0.3211117420276027","1","","","","","","","",""
"","do_trial","154","871859","0.0-125.0-0.0","1077","","","","49","1,0,0","1","coast","72","probe-70","0.8924293560913806","0.11687473103436652","0.41177851881900107","1","","","","","","","",""
"","do_trial","155","878252","0.0-126.0-0.0","1862.9999999998836","","","","50","1,0,0","1","coast","73","probe-226","0.7753300880308354","0.14252980650557212","0.3517306276878644","0","","","","","","","",""
"","do_trial","156","883303","0.0-127.0-0.0","520","","","","49","0,0,0","1","coast","74","probe-146","0.9105590981939894","0.1647610735530028","0.3933053023639237","0","","","","","","","",""
"","do_trial","157","888176","0.0-128.0-0.0","342","","","","51","1,0,1","1","coast","75","probe-105","0.8438547260843251","0.14678265597917536","0.5280477725936354","1","","","","","","","",""
"","do_trial","158","893483","0.0-129.0-0.0","775","","","","51","1,0,1","1","coast","76","probe-26","0.8820535141248734","0.05954767902026662","0.4070413871259757","1","","","","","","","",""
"","do_trial","159","898796","0.0-130.0-0.0","782","","","","51","1,0,1","1","coast","77","probe-178","0.7153362820105938","0.08721540621785127","0.4081750495150111","1","","","","","","","",""
"","do_trial","160","904183","0.0-131.0-0.0","859","","","","51","0,0,1","1","coast","78","probe-40","0.6597107163280974","0.16785199928367803","0.4807345739142089","1","","","","","","","",""
"","do_trial","161","909422","0.0-132.0-0.0","713","","","","51","1,0,0","1","coast","79","probe-231","0.6134885909691701","0.2179942530836116","0.44750899182612536","0","","","","","","","",""
"","do_bye","162","910927","0.0-133.0-0.0","null","","","","null","","","","","","","","","","","","","","","","",""
"","do_travel","163","916928","0.0-134.0-0.0","null","","","","null","","","","","","","","","","","","","","","","",""
"","do_welcome","164","918434","0.0-134.0-1.0","null","","","","null","","","","","","","","","","","","","","","","",""
"","do_trial","165","924340","0.0-135.0-0.0","1377","","","","50","1,0,1","2","countryside","80","probe-195","1","0.18679981742473634","0.4727431298471108","0","","","","","","","",""
"","do_trial","166","929814","0.0-136.0-0.0","945","","","","51","1,0,1","2","countryside","81","probe-118","1","0.20380425818127798","0.42997845047166167","1","","","","","","","",""
"","do_trial","167","935125","0.0-137.0-0.0","781","","","","49","1,0,1","2","countryside","82","probe-202","1","0.11913390867475522","0.4574744540236823","1","","","","","","","",""
"","do_trial","168","940789","0.0-138.0-0.0","1133.9999999998836","","","","49","1,0,1","2","countryside","83","probe-44","1","0.12832091584554817","0.5426782939906911","1","","","","","","","",""
"","do_trial","169","945780","0.0-139.0-0.0","460.0000000001164","","","","50","1,1,0","2","countryside","84","probe-200","0.8355112553861728","0.06283013431462889","0.4947611246011354","1","","","","","","","",""
"","do_trial","170","952400","0.0-140.0-0.0","2089.0000000001164","","","","50","1,0,1","2","countryside","85","probe-150","0.7676296878484022","0.0693348605788073","0.5073365685181779","0","","","","","","","",""
"","do_trial","171","959290","0.0-141.0-0.0","2360","","","","49","0,1,0","2","countryside","86","probe-171","0.7218582472216487","0.1834815852997079","0.5408401570599187","0","","","","","","","",""
"","do_trial","172","966218","0.0-142.0-0.0","2398","","","","49","1,1,1","2","countryside","87","probe-71","0.7170978830992449","0.14265479225890274","0.6784026154531047","1","","","","","","","",""
"","do_trial","173","971633","0.0-143.0-0.0","884","","","","49","1,0,0","2","countryside","88","probe-147","0.8102811203992139","0.1762443016871826","0.6265959800949259","1","","","","","","","",""
"","do_trial","174","976775","0.0-144.0-0.0","611","","","","49","0,0,0","2","countryside","89","probe-104","0.6810469758549315","0.2032019634850957","0.3492374250229419","0","","","","","","","",""
"","do_trial","175","981722","0.0-145.0-0.0","415.0000000001164","","","","51","0,0,0","2","countryside","90","probe-124","0.5868544511656307","0.12559700340839436","0.5973786673708127","0","","","","","","","",""
"","do_trial","176","986841","0.0-146.0-0.0","589","","","","50","0,0,0","2","countryside","91","probe-216","0.616697166829357","0.060984326540167375","0.797614200658987","0","","","","","","","",""
"","do_trial","177","991776","0.0-147.0-0.0","404.9999999998836","","","","49","1,0,1","2","countryside","92","probe-03","0.3935748424714565","0.12094112994306645","0.7769982348405944","1","","","","","","","",""
"","do_trial","178","997322","0.0-148.0-0.0","1016.0000000001164","","","","49","0,0,1","2","countryside","93","probe-235","0.7078238689298411","0.06004358581755493","0.799511521794675","0","","","","","","","",""
"","do_trial","179","1002223","0.0-149.0-0.0","370","","","","49","1,0,0","2","countryside","94","probe-136","0.5794205138726882","0.18139835317277675","0.7914139982916091","1","","","","","","","",""
"","do_trial","180","1007395","0.0-150.0-0.0","640","","","","49","0,0,1","2","countryside","95","probe-79","0.45796479771558296","0.13795768180864548","0.8397864774002608","0","","","","","","","",""
"","do_trial","181","1012379","0.0-151.0-0.0","454","","","","50","1,0,1","2","countryside","96","probe-60","0.3492952207782911","0.23976473926474356","0.7409427246161527","0","","","","","","","",""
"","do_trial","182","1017017","0.0-152.0-0.0","109","","","","51","0,0,1","2","countryside","97","probe-174","0.4805329505994713","0.054864378606604","0.6963238578369638","1","","","","","","","",""
"","do_trial","183","1022660","0.0-153.0-0.0","1111","","","","51","0,0,1","2","countryside","98","probe-39","0.5966282749349688","0.19285025309206355","0.6892738583595273","1","","","","","","","",""
"","do_trial","184","1029072","0.0-154.0-0.0","1882.0000000001164","","","","51","1,0,1","2","countryside","99","probe-109","0.5354040897216417","0.09856754650325353","0.6861073057950177","1","","","","","","","",""
"","do_trial","185","1035060","0.0-155.0-0.0","1457.9999999997672","","","","51","1,0,1","2","countryside","100","probe-90","0.5064660771566782","0.08128356376556159","0.7167358242850894","1","","","","","","","",""
"","do_trial","186","1040927","0.0-156.0-0.0","1336","","","","51","0,0,0","2","countryside","101","probe-228","0.5201723314129307","0.13408671075206116","0.7982878370558446","0","","","","","","","",""
"","do_trial","187","1047146","0.0-157.0-0.0","1687.9999999998836","","","","50","1,0,1","2","countryside","102","probe-11","0.5069947758756607","0.19812589831062496","0.699834015566398","0","","","","","","","",""
"","do_trial","188","1052288","0.0-158.0-0.0","610.9999999997672","","","","49","1,0,0","2","countryside","103","probe-156","0.5175674846947644","0.05560919666242535","0.7395022642510697","1","","","","","","","",""
"","do_trial","189","1057836","0.0-159.0-0.0","1017","","","","49","0,0,1","2","countryside","104","probe-125","0.4197689352094491","0.11070210568577972","0.75812611450912","0","","","","","","","",""
"","do_trial","190","1063349","0.0-160.0-0.0","982","","","","50","0,0,1","2","countryside","105","probe-183","0.41612183539879916","0.17328146640072425","0.7909352697082379","0","","","","","","","",""
"","do_trial","191","1068439","0.0-161.0-0.0","559","","","","51","0,0,0","2","countryside","106","probe-158","0.45218877217698067","0.13107274880873473","0.940590975405383","0","","","","","","","",""
"","do_trial","192","1073498","0.0-162.0-0.0","529","","","","49","0,0,1","2","countryside","107","probe-95","0.5291805247156025","0.15012855165624783","0.9443496234277629","0","","","","","","","",""
"","do_trial","193","1078447","0.0-163.0-0.0","418","","","","49","1,0,0","2","countryside","108","probe-161","0.4854660123949724","0.16585374576161244","0.8484163976856914","1","","","","","","","",""
"","do_trial","194","1085060","0.0-164.0-0.0","2081","","","","49","0,0,1","2","countryside","109","probe-07","0.49379916319382683","0.21598076122975066","0.8239539634821879","0","","","","","","","",""
"","do_trial","195","1090218","0.0-165.0-0.0","626.9999999997672","","","","49","1,0,1","2","countryside","110","probe-63","0.48288975329256695","0.25957466068722324","0.8189206161825799","1","","","","","","","",""
"","do_trial","196","1096050","0.0-166.0-0.0","1300","","","","49","1,1,0","2","countryside","111","probe-153","0.36922640388985256","0.36010519608790104","0.6972857298767938","1","","","","","","","",""
"","do_trial","197","1101798","0.0-167.0-0.0","1218","","","","49","1,0,0","2","countryside","112","probe-80","0.4019758026510236","0.3035407008641654","0.7435218185578728","1","","","","","","","",""
"","do_trial","198","1107859","0.0-168.0-0.0","1528","","","","49","0,0,1","2","countryside","113","probe-129","0.2714567645735807","0.31102411827003157","0.820232016439011","0","","","","","","","",""
"","do_trial","199","1113340","0.0-169.0-0.0","949","","","","50","0,0,1","2","countryside","114","probe-204","0.45760231093208653","0.3077894527053867","0.8965568400310023","0","","","","","","","",""
"","do_trial","200","1118006","0.0-170.0-0.0","132","","","","51","0,0,1","2","countryside","115","probe-27","0.3454814947894076","0.1767103748936885","0.9197605499792018","1","","","","","","","",""
"","do_trial","201","1123355","0.0-171.0-0.0","816","","","","50","0,0,1","2","countryside","116","probe-141","0.3237488480537554","0.10628376262332624","0.9170805168508117","0","","","","","","","",""
"","do_trial","202","1130438","0.0-172.0-0.0","2550.000000000233","","","","50","0,0,0","2","countryside","117","probe-54","0.502230087244218","0.0840338394684182","0.8946698890933285","0","","","","","","","",""
"","do_trial","203","1137117","0.0-173.0-0.0","2146","","","","50","0,0,1","2","countryside","118","probe-134","0.4388244122276217","0.05064660525663732","0.8056218134057143","0","","","","","","","",""
"","do_trial","204","1142122","0.0-174.0-0.0","473","","","","49","0,0,1","2","countryside","119","probe-157","0.43510487957222843","0.06294461437600334","0.7762449521795678","0","","","","","","","",""
"","do_bye","205","1143628","0.0-175.0-0.0","null","","","","null","","","","","","","","","","","","","","","","",""
"","do_travel","206","1149631","0.0-176.0-0.0","null","","","","null","","","","","","","","","","","","","","","","",""
"","do_welcome","207","1151140","0.0-176.0-1.0","null","","","","null","","","","","","","","","","","","","","","","",""
"","do_trial","208","1157086","0.0-177.0-0.0","1417.9999999997672","","","","51","1,0,1","3","forest","120","probe-188","0.5840822035960844","0.054881705167145294","1","1","","","","","","","",""
"","do_trial","209","1162086","0.0-178.0-0.0","466","","","","51","0,0,1","3","forest","121","probe-121","0.5949200826494606","0.07465631793866621","1","1","","","","","","","",""
"","do_trial","210","1167227","0.0-179.0-0.0","608.0000000002328","","","","51","0,0,1","3","forest","122","probe-218","0.5460752456776089","0.0687794504966113","1","1","","","","","","","",""
"","do_trial","211","1172608","0.0-180.0-0.0","848","","","","51","0,1,1","3","forest","123","probe-215","0.5314298756611384","0.10552872102451798","1","1","","","","","","","",""
"","do_trial","212","1177526","0.0-181.0-0.0","385.99999999976717","","","","51","0,0,0","3","forest","124","probe-100","0.4085945554259405","0.08966993603188243","0.8755065272492728","0","","","","","","","",""
"","do_trial","213","1183088","0.0-182.0-0.0","1030","","","","50","0,0,1","3","forest","125","probe-182","0.5460715195155842","0.1094425386165588","0.9281491388840807","0","","","","","","","",""
"","do_trial","214","1188412","0.0-183.0-0.0","789","","","","50","0,0,1","3","forest","126","probe-04","0.4974608175437932","0.06072128708809372","0.9484381458028928","0","","","","","","","",""
"","do_trial","215","1193286","0.0-184.0-0.0","336","","","","49","0,0,1","3","forest","127","probe-154","0.4906298955912561","0.07640222682448293","0.9473139570614934","0","","","","","","","",""
"","do_trial","216","1198332","0.0-185.0-0.0","517.0000000002328","","","","51","0,0,1","3","forest","128","probe-58","0.5322913939245223","0.061147860375099415","0.8672085067383845","1","","","","","","","",""
"","do_trial","217","1204229","0.0-186.0-0.0","1366","","","","51","1,1,1","3","forest","129","probe-34","0.5286465693188804","0.05452166569643548","0.8310149146952075","1","","","","","","","",""
"","do_trial","218","1209739","0.0-187.0-0.0","978","","","","51","1,0,1","3","forest","130","probe-149","0.3619057895494946","0.2538088814623875","0.6346852132580066","1","","","","","","","",""
"","do_trial","219","1215203","0.0-188.0-0.0","932","","","","51","0,0,0","3","forest","131","probe-176","0.19356740785589807","0.3776880945433309","0.586135779268265","0","","","","","","","",""
"","do_trial","220","1220421","0.0-189.0-0.0","687.0000000002328","","","","51","0,0,1","3","forest","132","probe-37","0.10827334229848604","0.4658902668827015","0.6135472912705078","1","","","","","","","",""
"","do_trial","221","1225622","0.0-190.0-0.0","670.0000000002328","","","","50","0,1,1","3","forest","133","probe-88","0.13540203284026658","0.5528194655309837","0.5114836269550324","1","","","","","","","",""
"","do_trial","222","1231491","0.0-191.0-0.0","1337","","","","50","0,0,1","3","forest","134","probe-123","0.21184495619988575","0.6348405647699384","0.4992825655572687","0","","","","","","","",""
"","do_trial","223","1237297","0.0-192.0-0.0","1275","","","","49","0,1,1","3","forest","135","probe-220","0.13084187449096096","0.8241265256219148","0.5628477131115143","0","","","","","","","",""
"","do_trial","224","1243025","0.0-193.0-0.0","1195.0000000002328","","","","50","0,0,1","3","forest","136","probe-56","0.13374050426130413","0.6671102884678232","0.6463672817918551","0","","","","","","","",""
"","do_trial","225","1248220","0.0-194.0-0.0","668","","","","51","0,1,1","3","forest","137","probe-198","0.12861259784053894","0.773638443375533","0.6170053530977068","1","","","","","","","",""
"","do_trial","226","1253831","0.0-195.0-0.0","1079","","","","51","0,1,1","3","forest","138","probe-155","0.12543891108693836","0.6919856262871923","0.49523636536310267","1","","","","","","","",""
"","do_trial","227","1259252","0.0-196.0-0.0","890","","","","51","0,1,0","3","forest","139","probe-14","0.21782756366560294","0.7132838604383901","0.4407844404918799","0","","","","","","","",""
"","do_trial","228","1264850","0.0-197.0-0.0","1066","","","","50","0,1,1","3","forest","140","probe-18","0.26256731428117525","0.7903254260417556","0.3916270422556437","1","","","","","","","",""
"","do_trial","229","1269811","0.0-198.0-0.0","432","","","","50","0,1,1","3","forest","141","probe-196","0.1418873285451979","0.7475446809069861","0.3905282638079048","1","","","","","","","",""
"","do_trial","230","1275064","0.0-199.0-0.0","722","","","","50","0,1,0","3","forest","142","probe-28","0.0880209395808396","0.8195303104573569","0.3817612685267964","1","","","","","","","",""
"","do_trial","231","1280511","0.0-200.0-0.0","915","","","","50","0,1,1","3","forest","143","probe-229","0.1105767995369743","0.7387610681289223","0.3601783396945533","1","","","","","","","",""
"","do_trial","232","1285862","0.0-201.0-0.0","819","","","","50","0,1,0","3","forest","144","probe-06","0.171028519264759","0.6253791976045205","0.3872767478399799","1","","","","","","","",""
"","do_trial","233","1290918","0.0-202.0-0.0","525","","","","49","0,1,0","3","forest","145","probe-199","0.15931544411060153","0.8123576065590455","0.5472066889369668","0","","","","","","","",""
"","do_trial","234","1295961","0.0-203.0-0.0","510.99999999976717","","","","50","1,1,1","3","forest","146","probe-91","0.18238662921615187","0.8408266380803575","0.66310142977483","1","","","","","","","",""
"","do_trial","235","1301400","0.0-204.0-0.0","909","","","","50","0,1,0","3","forest","147","probe-51","0.15371867482318238","0.8942208577854984","0.49295374691150395","1","","","","","","","",""
"","do_trial","236","1308109","0.0-205.0-0.0","2177.999999999767","","","","50","0,1,1","3","forest","148","probe-179","0.1723545965412084","0.9432037509553916","0.381824981889747","1","","","","","","","",""
"","do_trial","237","1314269","0.0-206.0-0.0","1629","","","","50","0,1,0","3","forest","149","probe-08","0.18408466530036613","0.7930882039493652","0.4938857629714768","1","","","","","","","",""
"","do_trial","238","1319112","0.0-207.0-0.0","311","","","","51","0,1,0","3","forest","150","probe-97","0.17000945616468705","0.790462456650144","0.3459191918900171","0","","","","","","","",""
"","do_trial","239","1324037","0.0-208.0-0.0","392.99999999976717","","","","50","0,1,0","3","forest","151","probe-92","0.07675423449784577","0.6814969091246728","0.4694542355457329","1","","","","","","","",""
"","do_trial","240","1329515","0.0-209.0-0.0","947","","","","50","0,1,1","3","forest","152","probe-186","0.16089879778574165","0.7141807034563463","0.3809863117202399","1","","","","","","","",""
"","do_trial","241","1334837","0.0-210.0-0.0","792","","","","50","0,1,0","3","forest","153","probe-49","0.10658543016904651","0.7806103620124158","0.42025578324980034","1","","","","","","","",""
"","do_trial","242","1340037","0.0-211.0-0.0","676","","","","50","0,1,1","3","forest","154","probe-190","0.10855226527392348","0.8081681550984865","0.42242555954380984","1","","","","","","","",""
"","do_trial","243","1345718","0.0-212.0-0.0","1150.9999999997672","","","","50","0,1,1","3","forest","155","probe-219","0.20090721618144103","0.8225891318604459","0.2963553096777013","1","","","","","","","",""
"","do_trial","244","1350712","0.0-213.0-0.0","464","","","","49","1,1,0","3","forest","156","probe-131","0.12998637501401966","0.8858273333777126","0.32839306653264755","1","","","","","","","",""
"","do_trial","245","1356041","0.0-214.0-0.0","800.9999999997672","","","","49","0,1,1","3","forest","157","probe-61","0.10884072860850097","0.9119429685774825","0.3626834176719192","0","","","","","","","",""
"","do_trial","246","1361674","0.0-215.0-0.0","1102","","","","50","0,1,1","3","forest","158","probe-19","0.17064014405058667","0.7961749232714367","0.40158992112460407","1","","","","","","","",""
"","do_trial","247","1367197","0.0-216.0-0.0","992","","","","50","0,1,1","3","forest","159","probe-101","0.05447573860230909","0.866566472355197","0.5228668443721618","1","","","","","","","",""
"","do_bye","248","1368702","0.0-217.0-0.0","null","","","","null","","","","","","","","","","","","","","","","",""
"","do_travel","249","1374705","0.0-218.0-0.0","null","","","","null","","","","","","","","","","","","","","","","",""
"","do_welcome","250","1376212","0.0-218.0-1.0","null","","","","null","","","","","","","","","","","","","","","","",""
"","do_trial","251","1382440","0.0-219.0-0.0","1697.9999999997672","","","","51","0,1,0","4","highway","160","probe-225","0.2398304028597779","1","0.5301396926853481","0","","","","","","","",""
"","do_trial","252","1387513","0.0-220.0-0.0","546","","","","49","1,1,1","4","highway","161","probe-185","0.31147537021735433","1","0.6419122086621017","1","","","","","","","",""
"","do_trial","253","1392798","0.0-221.0-0.0","755.0000000002328","","","","50","0,1,1","4","highway","162","probe-86","0.2858329475524603","1","0.5122289973281666","1","","","","","","","",""
"","do_trial","254","1398985","0.0-222.0-0.0","1654","","","","50","0,1,0","4","highway","163","probe-102","0.22011924601385197","1","0.4893745502457865","1","","","","","","","",""
"","do_trial","255","1404647","0.0-223.0-0.0","1130","","","","50","0,1,1","4","highway","164","probe-82","0.36744642799257904","0.876195066073798","0.6471875313882263","1","","","","","","","",""
"","do_trial","256","1410018","0.0-224.0-0.0","841","","","","50","1,1,1","4","highway","165","probe-76","0.2748529051851564","0.9015322025283564","0.6650732869348686","1","","","","","","","",""
"","do_trial","257","1415885","0.0-225.0-0.0","1335.0000000002328","","","","50","0,1,1","4","highway","166","probe-12","0.12902033923171277","0.8505306437534081","0.5498952726308336","1","","","","","","","",""
"","do_trial","258","1420984","0.0-226.0-0.0","568","","","","51","0,1,0","4","highway","167","probe-94","0.11610871254996476","0.7374560731572919","0.41332450226576856","0","","","","","","","",""
"","do_trial","259","1426683","0.0-227.0-0.0","1168.0000000002328","","","","49","0,1,0","4","highway","168","probe-99","0.054185409875520146","0.7165302015703016","0.2884835247704515","0","","","","","","","",""
"","do_trial","260","1431955","0.0-228.0-0.0","740","","","","50","0,1,0","4","highway","169","probe-142","0.2212846847659158","0.8381076132982236","0.12507067488996618","1","","","","","","","",""
"","do_trial","261","1437316","0.0-229.0-0.0","830","","","","50","0,0,0","4","highway","170","probe-152","0.15231583682439287","0.5613235721916671","0.39426896746607726","0","","","","","","","",""
"","do_trial","262","1442676","0.0-230.0-0.0","827","","","","50","0,0,0","4","highway","171","probe-72","0.1903652410349298","0.3713453637978622","0.4124890757240732","0","","","","","","","",""
"","do_trial","263","1448118","0.0-231.0-0.0","911","","","","50","0,1,1","4","highway","172","probe-89","0.10935175039746739","0.5247744848964289","0.47393313920762353","1","","","","","","","",""
"","do_trial","264","1454149","0.0-232.0-0.0","null","","","","null","0,0,1","4","highway","173","probe-85","0.13049591292627194","0.3612130950721233","0.5920230139113529","","","","","","","","",""
"","do_trial","265","1459222","0.0-233.0-0.0","539","","","","50","0,0,1","4","highway","174","probe-135","0.07655523840713473","0.2945706824487468","0.5729321049874877","0","","","","","","","",""
"","do_trial","266","1464736","0.0-234.0-0.0","984.9999999997672","","","","50","0,0,1","4","highway","175","probe-207","0.07431624388598147","0.3363124639448143","0.6412283463456601","0","","","","","","","",""
"","do_trial","267","1470170","0.0-235.0-0.0","900","","","","51","0,1,1","4","highway","176","probe-203","0.11357012092803027","0.4850709974164139","0.6665982853285517","1","","","","","","","",""
"","do_trial","268","1475499","0.0-236.0-0.0","803","","","","51","0,0,0","4","highway","177","probe-74","0.08626992578138465","0.3250777139655385","0.8226644641683355","0","","","","","","","",""
"","do_trial","269","1481689","0.0-237.0-0.0","1658","","","","49","0,1,1","4","highway","178","probe-52","0.12654623068733842","0.35858144940517356","0.7880726674371893","0","","","","","","","",""
"","do_trial","270","1487112","0.0-238.0-0.0","892","","","","50","0,1,1","4","highway","179","probe-42","0.11972231573935284","0.3301330233366073","0.8294606646550137","1","","","","","","","",""
"","do_trial","271","1492970","0.0-239.0-0.0","1327","","","","50","0,0,1","4","highway","180","probe-81","0.22861050211748357","0.35865714007933874","0.7263742229504105","0","","","","","","","",""
"","do_trial","272","1498816","0.0-240.0-0.0","1313.9999999997672","","","","51","0,0,1","4","highway","181","probe-113","0.15916368829563976","0.4252434325415427","0.7319897875104926","1","","","","","","","",""
"","do_trial","273","1505626","0.0-241.0-0.0","2280.000000000233","","","","51","0,0,1","4","highway","182","probe-126","0.12146150998197115","0.42008918688423763","0.7407962728992723","1","","","","","","","",""
"","do_trial","274","1511833","0.0-242.0-0.0","1675","","","","51","0,0,1","4","highway","183","probe-20","0.1068967870309905","0.4248573785778435","0.7990420652500276","1","","","","","","","",""
"","do_trial","275","1517084","0.0-243.0-0.0","720","","","","50","1,1,1","4","highway","184","probe-239","0.061933392809173766","0.5634810928201799","0.8561790384903692","1","","","","","","","",""
"","do_trial","276","1522469","0.0-244.0-0.0","854","","","","51","0,1,1","4","highway","185","probe-75","0.05580434085810288","0.6531862892559386","0.8201824992010096","1","","","","","","","",""
"","do_trial","277","1528726","0.0-245.0-0.0","1725.0000000002328","","","","51","0,1,1","4","highway","186","probe-227","0.07426958729398493","0.6418704848556717","0.828999067555753","1","","","","","","","",""
"","do_trial","278","1534094","0.0-246.0-0.0","835","","","","51","0,0,0","4","highway","187","probe-212","0.1251241724554997","0.6577503030917464","0.7730660606220194","0","","","","","","","",""
"","do_trial","279","1539251","0.0-247.0-0.0","622","","","","49","1,0,1","4","highway","188","probe-237","0.2959799232745347","0.6450987934380759","0.8131700780344823","1","","","","","","","",""
"","do_trial","280","1544455","0.0-248.0-0.0","670","","","","49","0,1,1","4","highway","189","probe-35","0.2055533494807483","0.4951307871092407","0.8863352912656773","0","","","","","","","",""
"","do_trial","281","1549374","0.0-249.0-0.0","387","","","","51","0,0,1","4","highway","190","probe-13","0.1674012177217995","0.3679293943743896","0.9433730414184336","1","","","","","","","",""
"","do_trial","282","1554584","0.0-250.0-0.0","680","","","","51","0,0,1","4","highway","191","probe-116","0.28091007738619556","0.3562303430223518","0.9385678086337191","1","","","","","","","",""
"","do_trial","283","1559964","0.0-251.0-0.0","846","","","","51","0,0,1","4","highway","192","probe-21","0.15630188483104662","0.4617707432954224","0.825499157083385","1","","","","","","","",""
"","do_trial","284","1565193","0.0-252.0-0.0","702","","","","50","0,1,1","4","highway","193","probe-167","0.15212457678776917","0.38587604289299726","0.9027720061191699","1","","","","","","","",""
"","do_trial","285","1570319","0.0-253.0-0.0","591.0000000002328","","","","51","0,0,1","4","highway","194","probe-33","0.12045548832321444","0.4386444505727128","0.8198910728455955","1","","","","","","","",""
"","do_trial","286","1575372","0.0-254.0-0.0","524","","","","50","0,1,1","4","highway","195","probe-191","0.23921713158706598","0.3354866612424114","0.744948462733775","1","","","","","","","",""
"","do_trial","287","1580634","0.0-255.0-0.0","727.9999999997672","","","","51","0,0,1","4","highway","196","probe-69","0.08231009111292738","0.26737285201133654","0.8168076905392281","1","","","","","","","",""
"","do_trial","288","1585489","0.0-256.0-0.0","325","","","","50","0,0,0","4","highway","197","probe-132","0.12445564955558444","0.32782856384689646","0.8587391214488996","0","","","","","","","",""
"","do_trial","289","1590725","0.0-257.0-0.0","701","","","","49","0,1,0","4","highway","198","probe-111","0.2882329776764505","0.20229453827765903","0.6506634598464891","0","","","","","","","",""
"","do_trial","290","1595577","0.0-258.0-0.0","323.00000000023283","","","","51","0,1,0","4","highway","199","probe-175","0.28239479375725873","0.17997706516164727","0.6974883146246945","0","","","","","","","",""
"","do_bye","291","1597085","0.0-259.0-0.0","null","","","","null","","","","","","","","","","","","","","","","",""
"","do_travel","292","1603088","0.0-260.0-0.0","null","","","","null","","","","","","","","","","","","","","","","",""
"","do_welcome","293","1604593","0.0-260.0-1.0","null","","","","null","","","","","","","","","","","","","","","","",""
"","do_trial","294","1610600","0.0-261.0-0.0","1477","","","","49","0,0,1","5","city","200","probe-62","0.31226113935948524","0.16931145491089056","1","0","","","","","","","",""
"","do_trial","295","1615636","0.0-262.0-0.0","504.00000000023283","","","","50","0,0,1","5","city","201","probe-53","0.35461182926176","0.11748032703993841","1","0","","","","","","","",""
"","do_trial","296","1620504","0.0-263.0-0.0","333.00000000023283","","","","51","1,1,1","5","city","202","probe-160","0.348989802178216","0.3179270508673737","1","1","","","","","","","",""
"","do_trial","297","1625606","0.0-264.0-0.0","572.0000000002328","","","","51","1,1,1","5","city","203","probe-210","0.20749994931313878","0.324494077122204","1","1","","","","","","","",""
"","do_trial","298","1630721","0.0-265.0-0.0","580","","","","51","0,0,1","5","city","204","probe-120","0.30537816386794964","0.3275734306373701","0.9315420858236394","1","","","","","","","",""
"","do_trial","299","1635664","0.0-266.0-0.0","414.00000000023283","","","","51","0,0,1","5","city","205","probe-130","0.1817736536905366","0.30015436858665195","0.6151198452961151","1","","","","","","","",""
"","do_trial","300","1640612","0.0-267.0-0.0","414","","","","51","0,1,0","5","city","206","probe-43","0.12878131557379216","0.3011766365180736","0.7359888571507054","0","","","","","","","",""
"","do_trial","301","1645990","0.0-268.0-0.0","848","","","","50","0,0,1","5","city","207","probe-194","0.11336937251425534","0.33449055409543366","0.9416454376564137","0","","","","","","","",""
"","do_trial","302","1652073","0.0-269.0-0.0","1547","","","","50","0,1,1","5","city","208","probe-151","0.07756878205005817","0.3922538333006188","0.9181673401773759","1","","","","","","","",""
"","do_trial","303","1658238","0.0-270.0-0.0","1633","","","","49","0,0,1","5","city","209","probe-187","0.08101974411674435","0.4806085203440408","0.8429268309199566","0","","","","","","","",""
"","do_trial","304","1664299","0.0-271.0-0.0","1530","","","","50","0,0,0","5","city","210","probe-107","0.06765937176746573","0.605420102549012","0.6004730911851363","0","","","","","","","",""
"","do_trial","305","1669814","0.0-272.0-0.0","984","","","","51","0,1,0","5","city","211","probe-232","0.08877456182402074","0.7189253462978956","0.6027022198868579","0","","","","","","","",""
"","do_trial","306","1675836","0.0-273.0-0.0","1491","","","","50","0,1,0","5","city","212","probe-59","0.060925821642496755","0.7786846390055183","0.5479039553744111","1","","","","","","","",""
"","do_trial","307","1681234","0.0-274.0-0.0","866.9999999997672","","","","51","0,1,1","5","city","213","probe-217","0.17174414674296082","0.6480667788746299","0.5641559324858497","1","","","","","","","",""
"","do_trial","308","1686622","0.0-275.0-0.0","855","","","","50","0,1,0","5","city","214","probe-29","0.16867341367859104","0.6445723583105689","0.4069280601045546","1","","","","","","","",""
"","do_trial","309","1692463","0.0-276.0-0.0","1308","","","","49","0,1,0","5","city","215","probe-31","0.1949288179934831","0.8327811037008853","0.4276346470333494","0","","","","","","","",""
"","do_trial","310","1697717","0.0-277.0-0.0","721.9999999997672","","","","50","0,1,0","5","city","216","probe-66","0.10786974771913109","0.8991232484470952","0.4620191031531756","1","","","","","","","",""
"","do_trial","311","1702688","0.0-278.0-0.0","440","","","","51","0,0,1","5","city","217","probe-106","0.07497003813434955","0.7244623829097776","0.38853771466505593","1","","","","","","","",""
"","do_trial","312","1708167","0.0-279.0-0.0","949","","","","50","0,1,0","5","city","218","probe-98","0.06475450310643734","0.640751781561035","0.36090866813767797","1","","","","","","","",""
"","do_trial","313","1713975","0.0-280.0-0.0","1274","","","","51","1,1,0","5","city","219","probe-09","0.2417031616710137","0.7755110727088566","0.3327745240449591","0","","","","","","","",""
"","do_trial","314","1719209","0.0-281.0-0.0","706","","","","50","1,1,0","5","city","220","probe-50","0.25491922982382526","0.9066107894492653","0.3619448531505644","1","","","","","","","",""
"","do_trial","315","1724361","0.0-282.0-0.0","619","","","","50","0,1,0","5","city","221","probe-159","0.24283198593954036","0.8755664557815067","0.5636560556997751","1","","","","","","","",""
"","do_trial","316","1729201","0.0-283.0-0.0","309","","","","50","0,1,0","5","city","222","probe-240","0.23982888316433737","0.7730595912310012","0.37107374281822625","1","","","","","","","",""
"","do_trial","317","1734311","0.0-284.0-0.0","575.9999999997672","","","","50","1,1,0","5","city","223","probe-128","0.22178097444389314","0.8409954555159189","0.4086780283698975","1","","","","","","","",""
"","do_trial","318","1741192","0.0-285.0-0.0","2351","","","","50","0,0,0","5","city","224","probe-201","0.15904438581038158","0.8591386062701565","0.23317806318771983","0","","","","","","","",""
"","do_trial","319","1746467","0.0-286.0-0.0","742","","","","51","0,0,0","5","city","225","probe-112","0.2144009182172946","0.8250771181171538","0.15228683462919892","0","","","","","","","",""
"","do_trial","320","1752008","0.0-287.0-0.0","1006","","","","49","0,1,0","5","city","226","probe-162","0.23423793698110196","0.8204377773799963","0.1368543115374446","0","","","","","","","",""
"","do_trial","321","1758038","0.0-288.0-0.0","1501","","","","50","1,1,1","5","city","227","probe-46","0.11132857452636938","0.8981883623767901","0.2584019475199068","1","","","","","","","",""
"","do_trial","322","1765333","0.0-289.0-0.0","2762.999999999767","","","","50","0,1,0","5","city","228","probe-223","0.11143556465584674","0.7488257691711772","0.4630131037302712","1","","","","","","","",""
"","do_trial","323","1770493","0.0-290.0-0.0","627.0000000002328","","","","50","0,0,0","5","city","229","probe-24","0.13465589328806543","0.7759062418748027","0.4789143291199443","0","","","","","","","",""
"","do_trial","324","1775840","0.0-291.0-0.0","814","","","","50","0,0,0","5","city","230","probe-181","0.15459499764745302","0.6964037510906042","0.35249608318451536","0","","","","","","","",""
"","do_trial","325","1781874","0.0-292.0-0.0","null","","","","null","0,1,0","5","city","231","probe-119","0.10286066528093703","0.7621554012376536","0.37021587265868605","","","","","","","","",""
"","do_trial","326","1787162","0.0-293.0-0.0","753.9999999997672","","","","50","0,1,1","5","city","232","probe-170","0.08668466608881253","0.6889928748738308","0.5049304256022983","1","","","","","","","",""
"","do_trial","327","1792913","0.0-294.0-0.0","1219","","","","50","0,1,1","5","city","233","probe-22","0.05798761767989563","0.7908155619256618","0.4040022965124052","1","","","","","","","",""
"","do_trial","328","1798920","0.0-295.0-0.0","1470.0000000002328","","","","50","0,1,1","5","city","234","probe-233","0.06265153130029534","0.7532985573018229","0.3464777551601064","1","","","","","","","",""
"","do_trial","329","1805889","0.0-296.0-0.0","2438.000000000233","","","","50","0,0,0","5","city","235","probe-25","0.10117414177233058","0.8323826639197298","0.3395972189322485","0","","","","","","","",""
"","do_trial","330","1811403","0.0-297.0-0.0","977","","","","51","0,1,0","5","city","236","probe-222","0.19353170044506654","0.88881174363616","0.4259955105486185","0","","","","","","","",""
"","do_trial","331","1816560","0.0-298.0-0.0","621","","","","50","1,1,0","5","city","237","probe-193","0.19800000882728136","0.8700690468814015","0.41182260210082466","1","","","","","","","",""
"","do_trial","332","1823522","0.0-299.0-0.0","2429","","","","49","0,1,1","5","city","238","probe-145","0.13552900458039363","0.856339583957605","0.3782651696434966","0","","","","","","","",""
"","do_trial","333","1828474","0.0-300.0-0.0","421.00000000023283","","","","50","0,1,0","5","city","239","probe-230","0.18510101161508602","0.7787414398384972","0.21346471008740397","1","","","","","","","",""
"","do_bye","334","1829980","0.0-301.0-0.0","null","","","","null","","","","","","","","","","","","","","","","",""
"","html-keyboard-response","335","1838477","0.0-301.0-1.0","8494","<div class='center'>You are all done with the first part of the experiment! Thank you for participating. Tomorrow, you will recieve an invite to participate in the next phase of the experiment which you must complete by the end of the day. <p><b>[Press the space bar to end the experiment]</b></p></div>","32","","","","","","","","","","","","2,0,1,3,4,5","196,220,121,171,191,143,47,207,35,142,172,213,0,164,205,165,204,77,183,126,137,54,139,114,31,37,67,46,1,16,116,235,64,107,76,56,188,147,212,82,132,95,138,66,210,44,4,179,102,72,14,63,83,237,109,168,136,22,113,9,86,15,40,223,233,29,176,92,162,163,167,208,69,225,145,104,25,177,39,230,194,117,201,43,199,149,170,70,146,103,123,215,2,234,135,78,59,173,38,108,89,227,10,155,124,182,157,94,160,6,62,152,79,128,203,26,140,53,133,156,187,120,217,214,99,181,3,153,57,33,148,175,36,87,122,219,55,197,154,13,17,195,27,228,5,198,90,50,178,7,96,91,185,48,189,218,130,60,18,100,224,184,85,101,81,75,11,93,98,141,151,71,88,84,134,206,202,73,51,41,80,112,125,19,238,74,226,211,236,34,12,115,20,166,32,190,68,131,110,174,61,52,159,209,119,129,42,193,150,186,106,231,58,216,28,30,65,105,97,8,49,158,239,127,200,111,161,45,222,23,180,118,169,21,232,24,221,192,144,229","6,1,10,2,13,0,12,15,7,14,4,5,3,18,16,17,9,8,11","0.06330097144131455,0.08059608611506945,0.14110247209218327,0.09946991742249699,0.11833062068722267,0.07329271102276941,0.10920683844469271,0.07291557616290374,0.06972983091958627,0.06609322798375238,0.4180083347538732,0.5650179427645511,0.6732433699806971,0.5950624578034847,0.5713995261980219,0.6161097246736158,0.6860870307302718,0.6977014715705534,0.7008395455181949,0.7196750510343902,0.7416300014032073,0.8344999011436515,0.8935542244249416,0.9308194067003244,0.7208888987800267,0.8999838876966324,0.9207656182902056,0.8691598826612168,0.9242431988233605,0.7514837589959582,1,0.8894011739456991,0.9023047833422941,0.9228365279842534,0.6914118042376225,0.7117991669822235,0.7130428491947904,0.7445005898594923,0.793732660192599,0.772275178512963,0.840233316227557,0.8077324029784265,0.5217687421912032,0.22687249681117952,0.08346606141617846,0.09395187719276032,0.2422237407860667,0.24408777041968374,0.14368843239741957,0.05113342361818474,0.10501777937623036,0.11253869656079832,0.09844453021156042,0.1037199241736779,0.07874556350895652,0.05315440850925348,0.07708257228554569,0.11888842211978133,0.16410423538971775,0.05686622296247254,0.11643661936956473,0.16982652710711502,0.14157383533613863,0.15664282863768544,0.15527033629373027,0.08120077997973653,0.11460648638678805,0.15239019882183918,0.07687188017277563,0.08651205090332698,0.10183765427680387,0.25392746721330267,0.35369508909888936,0.38992258108212513,0.3380420559841016,0.5067668325071881,0.5491574883693319,0.5283663197325783,0.5996182955109773,0.4471113614403884,0.41552445936915894,0.4902701334916703,0.35106500678276986,0.27694978351204913,0.3787868127143259,0.3129248746251263,0.45178450815724985,0.4729785236198436,0.5153790934214189,0.4911426566226553,0.4743196215521919,0.5082710520055579,0.5246793698527878,0.4627830820145088,0.48674876310167015,0.63440771318195,0.6615864634932828,0.6189196171275168,0.5380217409767607,0.4625668953580079,0.3585180116794298,0.39354554200125175,0.23578467140379214,0.2481171651896802,0.3324447277274305,0.2683757297716608,0.4104705944419282,0.28244028669863264,0.24178648788198168,0.3296205916251588,0.4175112392543687,0.372233335414898,0.18222043735021623,0.25123902430336736,0.20710878853994835,0.271037683305822,0.3343292881070037,0.23127097743197822,0.3614466589956635,0.4368280250989783,0.30320787281915823,0.27735971366073975,0.46578887095960825,0.4032245389284887,0.267632268479486,0.356795534134953,0.3587503601700924,0.4451091948967038,0.576477235961489,0.5390755179352342,0.5039467623105413,0.49275231586325874,0.4793657503032716,0.39616169514658384,0.35312739189632425,0.3423558279585527,0.45701916733770037,0.4838047499913081,0.4951404187926939,0.2850803207312178,0.22992230223755455,0.17130117238408307,0.2350223854833439,0.10765859405908099,0.12859003432498664,0.07366225907998146,0.11547808669135849,0.14704547637292978,0.10947901082447668,0.09839116583165142,0.06645843067311566,0.09061654008067727,0.0862150509606403,0.17953393679594978,0.1872291213826569,0.15882445336020642,0.27167885007295456,0.0830464244340671,0.11380699004468797,0.0982274066049643,0.059627712560265604,0.18886839156047028,0.5110284784493601,0.6104003461003253,0.6476854110903598,0.7956232222199819,0.813166799750517,0.7460831056744399,0.7975003957792514,0.7869256026405189,0.8339149288822655,0.7062985029562776,0.7002579508593547,0.7168889694890733,0.8258280519440017,0.7514873448093343,0.6416534288029411,0.7156011557714623,0.7350462272817133,0.7268689519751973","1,0.9010469611639239,0.7228237434444654,0.7545721819155509,0.7975941994984421,0.7634239415233941,0.8568809887908444,0.7819249544469892,0.6833332416181077,0.7397804230835879,0.4819132322527516,0.4456952272661313,0.5394627310674772,0.5439562224153002,0.4072144858796098,0.4116349732182757,0.2357928715909248,0.23569842373251643,0.27547276674527976,0.2766426562650754,0.3260220064186655,0.3527107670062694,0.2637286358493081,0.4287177066999363,0.4644055724297149,0.5274252781495213,0.4370809978658427,0.4184599543571353,0.3631815781913498,0.5362276814218766,0.37619836087084585,0.4671689007773588,0.3186534487352991,0.3388314943381203,0.41076528172065835,0.43667618581256323,0.3915022599376704,0.4181449419012278,0.4310247305836472,0.4624577904837673,0.39215644218861484,0.4200136987940307,0.5514363043884645,0.30460910532788793,0.4570029258618634,0.5000003529240563,0.7124507275594093,0.5943930577669942,0.5571182553092151,0.45316153538654563,0.40531338236788117,0.31845795062862636,0.22889928163750894,0.24959188400384988,0.25910045897744716,0.25694594979528573,0.2892899227440908,0.24501020230165288,0.3357946466180943,0.4024611816821335,0.3824889162091863,0.3258713389071089,0.36675993323059686,0.3716105765412977,0.48136523903834844,0.4342288165569047,0.4536225062525913,0.39270703673302476,0.48742001946594754,0.3375738811110103,0.5871827069760138,0.673461254491574,0.5508068651322229,0.7392247004628395,0.6377304013679629,0.7459091456187278,0.7705777765117741,0.7106172684053425,0.7869766417726982,0.5926646433458909,0.47713340657466385,0.5433515812293712,0.7417135832779311,0.7134406877571329,0.6903440097709469,0.7606743222990524,0.7927919922315237,0.7171638742202414,0.9020378039063836,0.8329683792420158,1,0.8847380232777101,0.8803795019722219,0.7829127177366288,0.7226627895124093,0.7425198134934994,0.7641295537859496,0.717536370975284,0.5569977163504914,0.6049560032657944,0.499908007154244,0.1953501763925386,0.1601167354692468,0.0834156736158544,0.13088022710790032,0.08787273008593552,0.12059985908590666,0.06957118861070717,0.12108529740254666,0.19532888631068068,0.23163059046042805,0.3057046539404795,0.4055116942264423,0.3222392304259077,0.22417746348701584,0.22449769609325393,0.13310090010497155,0.19243758374668943,0.13895557334691094,0.11427773236663123,0.1421658613758892,0.2238915339127656,0.1558161528176478,0.36310328713894285,0.25762696442867067,0.08471008936702047,0.05217504763732045,0.1560098897593721,0.09016664180477328,0.05349800732789689,0.055152664108086065,0.09553966480895083,0.23096585907852188,0.32085854716606477,0.23090442127117164,0.15862897396546782,0.1447095358400096,0.15501108465093322,0.07208599076210308,0.42798667754275954,0.6300546388792966,0.6430192536468567,0.7014170682305471,0.7462181099625471,0.8627243142770677,0.8664706366175488,0.8765179672370461,0.9461029170093483,0.8278459455463444,0.691099133066412,1,0.8479549374477349,0.7966238180883679,0.8093752139845662,0.7791351086692336,0.8769425031254493,0.8035032003022496,0.9253114411131671,0.8469441430844121,0.8788208869622025,0.917283724491854,0.7718007711461182,0.6565569094434368,0.6031866960457003,0.7171353284050358,0.48214825529486893,0.5194132623336187,0.3260048470554377,0.2696376243016752,0.3759080625148284,0.33078141512738923,0.3480947411076768,0.43267470348261533,0.28053894909995775,0.33415772035671637,0.3740697179205338,0.31843295149269485,0.3801723652460806,0.3673203344562435,0.24909233401816613","0.18924543720357176,0.19989850885964042,0.23246593991804385,0.16046929704809273,0.2863095359736431,0.3650789636838334,0.40268211605815235,0.6003329241728989,0.4634511521297206,0.46438035487064666,0.3009934437155422,0.11132497430211734,0.2070759704620846,0.18592280990457105,0.1503175666261743,0.16877903909391662,0.14392537905597266,0.12434431773412202,0.2141868982896522,0.17469923527565076,0.050030484443587875,0.06320053021040664,0.06255579040831526,0.13983063381397023,0.14028434337038162,0.10665530429251707,0.13525508349652646,0.13735701589211005,0.055880829671748185,0.05558902855502833,0.09177137641631351,0.05906246239631301,0.07730141205492438,0.1386672795525008,0.1746689081113943,0.13418862492558775,0.12762719692588875,0.13547708372320533,0.22409226144208666,0.11545474425245415,0.1609913733170296,0.12582356969518874,0.2725909972062239,0.3117187593921132,0.5088620956292644,0.6112493765171816,0.6371016975939221,0.5799729697624457,0.7174679873050315,0.7530778971244858,0.829497140261814,0.8664704712914455,0.8600083754643295,0.7256567492211294,0.768179089643458,0.7915711401346259,0.7646150498593137,0.847073486733888,0.858359631754362,0.7831989499170127,1,0.8449366856774906,0.6885452420256649,0.6791872854972338,0.6487364424017252,0.8357982660497077,0.9384082428779763,0.8408154779166865,0.8533099246012453,0.8886677322560015,0.5379100771093244,0.32226752447179857,0.26708877092027117,0.3394174984577377,0.3866217540853309,0.30598628038492587,0.2953423420963528,0.1752284171201315,0.2070461518381491,0.14131845684835212,0.3536331143139674,0.23955790800876733,0.1309995580610283,0.09044146668524376,0.05898741680076589,0.11983670196612192,0.08989394089963657,0.22031698371780953,0.3070425726579114,0.1310271482070373,0.2418333354875401,0.25713377004699145,0.3021211727502561,0.2292464384797785,0.23494982343699264,0.16929644910441624,0.23356783289130342,0.3321053060860221,0.0909536837811875,0.12556253417868937,0.5416738928885811,0.5115207200205341,0.41820023143505664,0.487408275708612,0.5667615496202381,0.6139370371229841,0.7156048574071204,0.7559548481788043,0.7335774005633704,0.8876496591153307,0.8348383690651977,0.9074901181063468,0.8832047392646287,0.7631580108807497,0.846654962808226,0.7810196244736805,0.7875952438667707,0.8066664139740762,0.8130983252268016,0.878830838471222,1,0.8012231379661825,0.7716622702403741,0.9479185470500437,0.9115442415116501,0.7675994688495898,0.8066797308459209,0.7874642397350169,0.7775587335445612,0.8270506688513155,0.8415493247557523,0.7716421621886741,0.7431294387575518,0.6914688601154784,0.6255365874708768,0.7119047665278337,0.6722506104676934,0.684133282312306,0.6637014992646452,0.5792556505346571,0.4841234609634218,0.3595348118418552,0.35449827522120403,0.4082796902752854,0.33174814721684664,0.36946606110417995,0.21839926005373392,0.20640885859139274,0.2809915465303647,0.24940694813308464,0.5183550947154829,0.5713129222291593,0.6078544083552704,0.41090303981174386,0.39449458767976475,0.18684655326476882,0.13809391937002288,0.2077220826214218,0.21150672684348187,0.2368112660934068,0.1927451505980031,0.06464350865129463,0.07381971207253119,0.06964023309659888,0.0940030331000962,0.15864250584468081,0.08499031731384751,0.10207587063466682,0.09251565089688675,0.07262116356229273,0.12791162765501643,0.13013929719348363,0.11661183654608333,0.21678344981563016,0.08202173518812876,0.15436199805886652,0.09602127624951191,0.09470808402698505,0.07466527147978974,0.060067957454896084","201,121,163,43,82,122,48,87,125,203,161,89,44,120,80,88,124,128,123,127,207,166,41,167,202,46,164,47,208,84,169,160,83,165,162,129,200,209,42,126,49,205,45,86,85,81,206,168,204","1,5,1,3,1,1,1,1,1,1,6,1,5,5,1,1,4,1,4,2,2,1,1,1,1,5,1,3,2,2,1,1,1,1,1,3,1,1,1,1,2,2,1,3,1,4,2,1,1,1,3,1,1,5,4,2,1,3,4,1"
