"success","trial_type","trial_index","time_elapsed","internal_node_id","interactions","blur_events","focus_events","fullscreenenter_events","fullscreenexit_events","rt","stimulus","key_press","subject_id","participant_id","age","gender","prompt","response","choice_outcomes","context_n","context_img_id","trial_n","probe_img_id","pR_red","pR_white","pR_black","outcome","contextArray_ind","validImageProbes","invalidImageProbes","pRew_Red","pRew_White","pRew_Black","availableForMemProbe","choice_blocks"
"true","fullscreen","0","7618","0.0-0.0","""event"",""trial"",""time""
""fullscreenenter"",""0"",""6635""
","
","
","""event"",""trial"",""time""
""fullscreenenter"",""0"",""6635""
","
","","","","","","","","","","","","","","","","","","","","","","","","","",""
"","pavlovia","1","7624","0.0-1.0","""event"",""trial"",""time""
""fullscreenenter"",""0"",""6635""
","
","
","""event"",""trial"",""time""
""fullscreenenter"",""0"",""6635""
","
","","","","","","","","","","","","","","","","","","","","","","","","","",""
"","instruc1","2","52783","0.0-2.0","""event"",""trial"",""time""
""fullscreenenter"",""0"",""6635""
","
","
","""event"",""trial"",""time""
""fullscreenenter"",""0"",""6635""
","
","null","run_exp/static/audio/clip_1_welcome.m4a","null","870","1182","17","Female","<div class='center'><p>Welcome! This is the first part of the study. It will last ~30 minutes. In part 1 and part 2 of the study, you are the head captain of a pirate ship traveling around the world to different islands. You will play a few different games throughout these two parts. Here is an overview of them:</p><br><p>Part 1 (today)</p><p>1. Instructions, practice game, and quiz</p><p>2. Pick a pirate game on 6 different islands</p><br><p>Part 2 (tomorrow)</p><p>3. Pick a pirate game and memory game</p><p>4. Where did you see this ship? </p></div>","","","","","","","","","","","","","","","","","",""
"","html-keyboard-response","3","70197","0.0-3.0","""event"",""trial"",""time""
""fullscreenenter"",""0"",""6635""
","
","
","""event"",""trial"",""time""
""fullscreenenter"",""0"",""6635""
","
","17411.900000002235","<div class='center'><p>Welcome! This is the first part of the study. It will last ~30 minutes. In part 1 and part 2 of the study, you are the head captain of a pirate ship traveling around the world to different islands. You will play a few different games throughout these two parts. Here is an overview of them:</p><br><p>Part 1 (today)</p><p>1. Instructions, practice game, and quiz</p><p>2. Pick a pirate game on 6 different islands</p><br><p>Part 2 (tomorrow)</p><p>3. Pick a pirate game and memory game</p><p>4. Where did you see this ship? </p><p><b>[Press the space bar to continue]</b></p></div>","32","","","","","","","","","","","","","","","","","","","","","","",""
"","instruc2","4","75598","0.0-4.0","""event"",""trial"",""time""
""fullscreenenter"",""0"",""6635""
","
","
","""event"",""trial"",""time""
""fullscreenenter"",""0"",""6635""
","
","null","run_exp/static/audio/clip_2_different_places.m4a","null","","","","","<div class='center'><p>Today, you’ll visit these 6 islands on your journey. You'll be able to see these islands from your ship.</p><p><img src='run_exp/static/images/contexts/all_contexts.png' height='500'></p></div>","","","","","","","","","","","","","","","","","",""
"","html-keyboard-response","5","77518","0.0-5.0","""event"",""trial"",""time""
""fullscreenenter"",""0"",""6635""
","
","
","""event"",""trial"",""time""
""fullscreenenter"",""0"",""6635""
","
","1917.8999999985099","<div class='center'><p>Today, you’ll visit these 6 islands on your journey. You'll be able to see these islands from your ship.</p><p><img src='run_exp/static/images/contexts/all_contexts.png' height='500'></p><p><b>[Press the space bar to continue]</b></p></div>","32","","","","","","","","","","","","","","","","","","","","","","",""
"","instruc3","6","87394","0.0-6.0","""event"",""trial"",""time""
""fullscreenenter"",""0"",""6635""
","
","
","""event"",""trial"",""time""
""fullscreenenter"",""0"",""6635""
","
","null","run_exp/static/audio/clip_3_goal_of_game_1.m4a","null","","","","","<div class='center'><p> The pirates on your ship will rob other ships as they leave the island.</p> These ships have just sold their goods to the islanders, so they will be filled with lots and lots of gold.</p><p><img src='run_exp/static/images/tutorial/ship_center.png' height='400'></p></div>","","","","","","","","","","","","","","","","","",""
"","html-keyboard-response","7","104858","0.0-7.0","""event"",""trial"",""time""
""fullscreenenter"",""0"",""6635""
","
","
","""event"",""trial"",""time""
""fullscreenenter"",""0"",""6635""
","
","17461.800000000745","<div class='center'><p> The pirates on your ship will rob other ships as they leave the island.</p> These ships have just sold their goods to the islanders, so they will be filled with lots and lots of gold.</p><p><img src='run_exp/static/images/tutorial/ship_center.png' height='400'></p><p><b>[Press the space bar to continue]</b></p></div>","32","","","","","","","","","","","","","","","","","","","","","","",""
"","instruc4","8","132918","0.0-8.0","""event"",""trial"",""time""
""fullscreenenter"",""0"",""6635""
","
","
","""event"",""trial"",""time""
""fullscreenenter"",""0"",""6635""
","
","null","run_exp/static/audio/clip_4_goal_of_game_2.m4a","null","","","","","<div class='center'><p>As the head captain, you do not have to rob any ships yourself. Another pirate will be doing the robbing for you. First, you will choose a pirate to rob the next ship.</p><p><img src='run_exp/static/images/tutorial/pirates_all_crop.png' height='200'></p><p>Then, you'll see if the pirate successfully robbed the ship of their gold. If they were successful, then you'll get a stack of gold coins like this:</p><p><img src='run_exp/static/images/tutorial/reward.png' height='150'></p><p> If they were <b>not</b> successful, then you'll get no gold coins, and you'll see a big red x like this: </p><p><img src='run_exp/static/images/tutorial/reward_no.png' height='150'></p><p> How much bonus money you make is based on how many gold coins you collect.</p><div>","","","","","","","","","","","","","","","","","",""
"","html-keyboard-response","9","137845","0.0-9.0","""event"",""trial"",""time""
""fullscreenenter"",""0"",""6635""
","
","
","""event"",""trial"",""time""
""fullscreenenter"",""0"",""6635""
","
","4924.400000002235","<div class='center'><p>As the head captain, you do not have to rob any ships yourself. Another pirate will be doing the robbing for you. First, you will choose a pirate to rob the next ship.</p><p><img src='run_exp/static/images/tutorial/pirates_all_crop.png' height='200'></p><p>Then, you'll see if the pirate successfully robbed the ship of their gold. If they were successful, then you'll get a stack of gold coins like this:</p><p><img src='run_exp/static/images/tutorial/reward.png' height='150'></p><p> If they were <b>not</b> successful, then you'll get no gold coins, and you'll see a big red x like this: </p><p><img src='run_exp/static/images/tutorial/reward_no.png' height='150'></p><p> How much bonus money you make is based on how many gold coins you collect.</p<p><b>[Press the space bar to continue]</b></p></div>","32","","","","","","","","","","","","","","","","","","","","","","",""
"","instruc5","10","181499","0.0-10.0","""event"",""trial"",""time""
""fullscreenenter"",""0"",""6635""
","
","
","""event"",""trial"",""time""
""fullscreenenter"",""0"",""6635""
","
","43651.5","run_exp/static/audio/clip_5_probabilistic.m4a","49","","","","","<div class='center'><p>Even the most skilled pirate can not rob EVERY ship.</p><p> Some ships will have very strong protections against pirate attacks.</p><p> Blue beard, here, is very, very good at robbing ships, but he won't be successful every time he tries to rob one.</p><p> You can press the <b>‘1’</b> key on the keyboard to choose him.</p><p> Try choosing him 10 times to see how often he succeeds at robbing a ship. </p><p><img src='run_exp/static/images/tutorial/blue.png' height='500'></p></div>","","","","","","","","","","","","","","","","","",""
"","html-keyboard-response","11","183002","0.0-11.0","""event"",""trial"",""time""
""fullscreenenter"",""0"",""6635""
","
","
","""event"",""trial"",""time""
""fullscreenenter"",""0"",""6635""
","
","null","<div class='center'><p><img src='run_exp/static/images/tutorial/blue_win.png' height='500'></p></div>","null","","","","","","","","","","","","","","","","","","","","","","",""
"","html-keyboard-response","12","183196","0.0-12.0","""event"",""trial"",""time""
""fullscreenenter"",""0"",""6635""
","
","
","""event"",""trial"",""time""
""fullscreenenter"",""0"",""6635""
","
","192","<div class='center'><img src='run_exp/static/images/tutorial/blue.png' height='500'></p></div>","49","","","","","","","","","","","","","","","","","","","","","","",""
"","html-keyboard-response","13","184698","0.0-13.0","""event"",""trial"",""time""
""fullscreenenter"",""0"",""6635""
","
","
","""event"",""trial"",""time""
""fullscreenenter"",""0"",""6635""
","
","null","<div class='center'><p><img src='run_exp/static/images/tutorial/blue_win.png' height='500'></p></div>","null","","","","","","","","","","","","","","","","","","","","","","",""
"","html-keyboard-response","14","184771","0.0-14.0","""event"",""trial"",""time""
""fullscreenenter"",""0"",""6635""
","
","
","""event"",""trial"",""time""
""fullscreenenter"",""0"",""6635""
","
","71.60000000149012","<div class='center'><img src='run_exp/static/images/tutorial/blue.png' height='500'></p></div>","49","","","","","","","","","","","","","","","","","","","","","","",""
"","html-keyboard-response","15","186273","0.0-15.0","""event"",""trial"",""time""
""fullscreenenter"",""0"",""6635""
","
","
","""event"",""trial"",""time""
""fullscreenenter"",""0"",""6635""
","
","null","<div class='center'><p><img src='run_exp/static/images/tutorial/blue_win.png' height='500'></p></div>","null","","","","","","","","","","","","","","","","","","","","","","",""
"","html-keyboard-response","16","186433","0.0-16.0","""event"",""trial"",""time""
""fullscreenenter"",""0"",""6635""
","
","
","""event"",""trial"",""time""
""fullscreenenter"",""0"",""6635""
","
","158.09999999776483","<div class='center'><img src='run_exp/static/images/tutorial/blue.png' height='500'></p></div>","49","","","","","","","","","","","","","","","","","","","","","","",""
"","html-keyboard-response","17","187935","0.0-17.0","""event"",""trial"",""time""
""fullscreenenter"",""0"",""6635""
","
","
","""event"",""trial"",""time""
""fullscreenenter"",""0"",""6635""
","
","null","<div class='center'><p><img src='run_exp/static/images/tutorial/blue_no_win.png' height='500'></p></div>","null","","","","","","","","","","","","","","","","","","","","","","",""
"","html-keyboard-response","18","188555","0.0-18.0","""event"",""trial"",""time""
""fullscreenenter"",""0"",""6635""
","
","
","""event"",""trial"",""time""
""fullscreenenter"",""0"",""6635""
","
","618.7999999970198","<div class='center'><img src='run_exp/static/images/tutorial/blue.png' height='500'></p></div>","49","","","","","","","","","","","","","","","","","","","","","","",""
"","html-keyboard-response","19","190057","0.0-19.0","""event"",""trial"",""time""
""fullscreenenter"",""0"",""6635""
","
","
","""event"",""trial"",""time""
""fullscreenenter"",""0"",""6635""
","
","null","<div class='center'><p><img src='run_exp/static/images/tutorial/blue_win.png' height='500'></p></div>","null","","","","","","","","","","","","","","","","","","","","","","",""
"","html-keyboard-response","20","190364","0.0-20.0","""event"",""trial"",""time""
""fullscreenenter"",""0"",""6635""
","
","
","""event"",""trial"",""time""
""fullscreenenter"",""0"",""6635""
","
","305.0999999977648","<div class='center'><img src='run_exp/static/images/tutorial/blue.png' height='500'></p></div>","49","","","","","","","","","","","","","","","","","","","","","","",""
"","html-keyboard-response","21","191865","0.0-21.0","""event"",""trial"",""time""
""fullscreenenter"",""0"",""6635""
","
","
","""event"",""trial"",""time""
""fullscreenenter"",""0"",""6635""
","
","null","<div class='center'><p><img src='run_exp/static/images/tutorial/blue_win.png' height='500'></p></div>","null","","","","","","","","","","","","","","","","","","","","","","",""
"","html-keyboard-response","22","192184","0.0-22.0","""event"",""trial"",""time""
""fullscreenenter"",""0"",""6635""
","
","
","""event"",""trial"",""time""
""fullscreenenter"",""0"",""6635""
","
","316.9000000022352","<div class='center'><img src='run_exp/static/images/tutorial/blue.png' height='500'></p></div>","49","","","","","","","","","","","","","","","","","","","","","","",""
"","html-keyboard-response","23","193686","0.0-23.0","""event"",""trial"",""time""
""fullscreenenter"",""0"",""6635""
","
","
","""event"",""trial"",""time""
""fullscreenenter"",""0"",""6635""
","
","null","<div class='center'><p><img src='run_exp/static/images/tutorial/blue_win.png' height='500'></p></div>","null","","","","","","","","","","","","","","","","","","","","","","",""
"","html-keyboard-response","24","193724","0.0-24.0","""event"",""trial"",""time""
""fullscreenenter"",""0"",""6635""
","
","
","""event"",""trial"",""time""
""fullscreenenter"",""0"",""6635""
","
","36.70000000298023","<div class='center'><img src='run_exp/static/images/tutorial/blue.png' height='500'></p></div>","49","","","","","","","","","","","","","","","","","","","","","","",""
"","html-keyboard-response","25","195226","0.0-25.0","""event"",""trial"",""time""
""fullscreenenter"",""0"",""6635""
","
","
","""event"",""trial"",""time""
""fullscreenenter"",""0"",""6635""
","
","null","<div class='center'><p><img src='run_exp/static/images/tutorial/blue_no_win.png' height='500'></p></div>","null","","","","","","","","","","","","","","","","","","","","","","",""
"","html-keyboard-response","26","195318","0.0-26.0","""event"",""trial"",""time""
""fullscreenenter"",""0"",""6635""
","
","
","""event"",""trial"",""time""
""fullscreenenter"",""0"",""6635""
","
","90.80000000074506","<div class='center'><img src='run_exp/static/images/tutorial/blue.png' height='500'></p></div>","49","","","","","","","","","","","","","","","","","","","","","","",""
"","html-keyboard-response","27","196820","0.0-27.0","""event"",""trial"",""time""
""fullscreenenter"",""0"",""6635""
","
","
","""event"",""trial"",""time""
""fullscreenenter"",""0"",""6635""
","
","null","<div class='center'><p><img src='run_exp/static/images/tutorial/blue_win.png' height='500'></p></div>","null","","","","","","","","","","","","","","","","","","","","","","",""
"","html-keyboard-response","28","197227","0.0-28.0","""event"",""trial"",""time""
""fullscreenenter"",""0"",""6635""
","
","
","""event"",""trial"",""time""
""fullscreenenter"",""0"",""6635""
","
","405.69999999925494","<div class='center'><img src='run_exp/static/images/tutorial/blue.png' height='500'></p></div>","49","","","","","","","","","","","","","","","","","","","","","","",""
"","html-keyboard-response","29","198729","0.0-29.0","""event"",""trial"",""time""
""fullscreenenter"",""0"",""6635""
","
","
","""event"",""trial"",""time""
""fullscreenenter"",""0"",""6635""
","
","null","<div class='center'><p><img src='run_exp/static/images/tutorial/blue_win.png' height='500'></p></div>","null","","","","","","","","","","","","","","","","","","","","","","",""
"","instruc6","30","204317","0.0-30.0","""event"",""trial"",""time""
""fullscreenenter"",""0"",""6635""
","
","
","""event"",""trial"",""time""
""fullscreenenter"",""0"",""6635""
","
","null","run_exp/static/audio/clip_6_blue_beard_outcome.m4a","null","","","","","<div class='center'><p> See, he succeeded in robbing the ships most of the time but not every time. </p></div>","","","","","","","","","","","","","","","","","",""
"","html-keyboard-response","31","206523","0.0-31.0","""event"",""trial"",""time""
""fullscreenenter"",""0"",""6635""
","
","
","""event"",""trial"",""time""
""fullscreenenter"",""0"",""6635""
","
","2203.60000000149","<div class='center'><p> See, he succeeded in robbing the ships most of the time but not every time. </p><p><b>[Press the space bar to continue]</b></p></div>","32","","","","","","","","","","","","","","","","","","","","","","",""
"","audio-keyboard-response","32","224365","0.0-32.0","""event"",""trial"",""time""
""fullscreenenter"",""0"",""6635""
","
","
","""event"",""trial"",""time""
""fullscreenenter"",""0"",""6635""
","
","17840","run_exp/static/audio/clip_7_pick_pirate.m4a","49","","","","","","","","","","","","","","","","","","","","","","",""
"","audio-keyboard-response","33","225736","0.0-33.0-0.0","""event"",""trial"",""time""
""fullscreenenter"",""0"",""6635""
","
","
","""event"",""trial"",""time""
""fullscreenenter"",""0"",""6635""
","
","1368.0999999977648","run_exp/static/audio/clip_8_chosen_pirate_win.m4a","32","","","","","","","","","","","","","","","","","","","","","","",""
"","audio-keyboard-response","34","229191","0.0-33.0-1.0","""event"",""trial"",""time""
""fullscreenenter"",""0"",""6635""
","
","
","""event"",""trial"",""time""
""fullscreenenter"",""0"",""6635""
","
","3452.199999999255","run_exp/static/audio/clip_9_pick_a_pirate_again.m4a","50","","","","","","","","","","","","","","","","","","","","","","",""
"","audio-keyboard-response","35","231695","0.0-34.0-0.0","""event"",""trial"",""time""
""fullscreenenter"",""0"",""6635""
","
","
","""event"",""trial"",""time""
""fullscreenenter"",""0"",""6635""
","
","2499","run_exp/static/audio/clip_10_chosen_pirate_loss.m4a","32","","","","","","","","","","","","","","","","","","","","","","",""
"","instruc9","36","237383","0.0-35.0-0.0","""event"",""trial"",""time""
""fullscreenenter"",""0"",""6635""
","
","
","""event"",""trial"",""time""
""fullscreenenter"",""0"",""6635""
","
","null","run_exp/static/audio/clip_11_time_out.m4a","null","","","","","<div class='center'><p>If you don’t make your choice fast enough, you’ll have to wait a few seconds before you can make another one. </p><p><img src='run_exp/static/images/miscellaneous/hurry_up.png' height='500'></p></div>","","","","","","","","","","","","","","","","","",""
"","html-keyboard-response","37","237995","0.0-35.0-1.0","""event"",""trial"",""time""
""fullscreenenter"",""0"",""6635""
","
","
","""event"",""trial"",""time""
""fullscreenenter"",""0"",""6635""
","
","610.6000000014901","<div class='center'><p>If you don’t make your choice fast enough, you’ll have to wait a few seconds before you can make another one. </p><p><img src='run_exp/static/images/miscellaneous/hurry_up.png' height='500'></p><p><b>[Press the space bar to continue]</b></p></div>","32","","","","","","","","","","","","","","","","","","","","","","",""
"","instruc10","38","277321","0.0-35.0-2.0","""event"",""trial"",""time""
""fullscreenenter"",""0"",""6635""
","
","
","""event"",""trial"",""time""
""fullscreenenter"",""0"",""6635""
","
","null","run_exp/static/audio/clip_12_probe.m4a","null","","","","","<div class='center'><p>Once you've chosen a pirate, you’ll be shown the ship they are robbing. You will never rob the same ship twice. Ships can be told apart from one another by the image on them. These are the goods that they sell. See, this ship has a travel mug on it. </p><p> You’ll have to remember which island you saw each ship on. You will win more gold coins and hence more bonus money if you remember correctly! To help you remember, you can imagine a story. For example, here, you could imagine a mug full of water in the desert. Or, as another example, if on the forest island, your pirate robbed a ship with an apple on it, you could imagine an apple falling from a tree in the forest. </p><p><img src='run_exp/static/images/tutorial/example_probe.png' height='500'></p></div>","","","","","","","","","","","","","","","","","",""
"","html-keyboard-response","39","278616","0.0-35.0-3.0","""event"",""trial"",""time""
""fullscreenenter"",""0"",""6635""
","
","
","""event"",""trial"",""time""
""fullscreenenter"",""0"",""6635""
","
","1293","<div class='center'><p>Once you've chosen a pirate, you’ll be shown the ship they are robbing. You will never rob the same ship twice. Ships can be told apart from one another by the image on them. These are the goods that they sell. See, this ship has a travel mug on it. </p><p> You’ll have to remember which island you saw each ship on. You will win more gold coins and hence more bonus money if you remember correctly! To help you remember, you can imagine a story. For example, here, you could imagine a mug full of water in the desert. Or, as another example, if on the forest island, your pirate robbed a ship with an apple on it, you could imagine an apple falling from a tree in the forest. </p><p><img src='run_exp/static/images/tutorial/example_probe.png' height='500'></p><p><b>[Press the space bar to continue]</b></p></div>","32","","","","","","","","","","","","","","","","","","","","","","",""
"","instruc11","40","295247","0.0-35.0-4.0","""event"",""trial"",""time""
""fullscreenenter"",""0"",""6635""
","
","
","""event"",""trial"",""time""
""fullscreenenter"",""0"",""6635""
","
","null","run_exp/static/audio/clip_13_changepoint.m4a","null","","","","","<div class='center'><p>How successful a pirate is at robbing ships will depend on the island you’re on.</p><p> A pirate may have visited this island many times before and gained a lot of practice robbing ships there.</p><p>So, they’re more likely to be successful than a pirate who has never visited the island before.</p></div>","","","","","","","","","","","","","","","","","",""
"","html-keyboard-response","41","300396","0.0-35.0-5.0","""event"",""trial"",""time""
""fullscreenenter"",""0"",""6635""
","
","
","""event"",""trial"",""time""
""fullscreenenter"",""0"",""6635""
","
","5146.300000000745","<div class='center'><p>How successful a pirate is at robbing ships will depend on the island you’re on.</p><p> A pirate may have visited this island many times before and gained a lot of practice robbing ships there.</p><p>So, they’re more likely to be successful than a pirate who has never visited the island before.</p><p><b>[Press the space bar to continue]</b></p></div>","32","","","","","","","","","","","","","","","","","","","","","","",""
"","instruc12","42","341687","0.0-35.0-6.0","""event"",""trial"",""time""
""fullscreenenter"",""0"",""6635""
","
","
","""event"",""trial"",""time""
""fullscreenenter"",""0"",""6635""
","
","null","run_exp/static/audio/clip_14_drift.m4a","null","","","","","<div class='center'><p>How successful a pirate is at robbing ships can also change over the time spent on the island. </p><p> Ships may hear from islanders about the pirates coming and will improve their protections against the attack. This may make it harder to rob them.</p><p> Ships may also become lazy and weaken the strength of their protections. This may make it easier to rob them.</p><br><p>Things are always changing on the high seas! So, try your best to pay attention!</p><p><img src='run_exp/static/images/tutorial/contingency.png' height='500'></p></div>","","","","","","","","","","","","","","","","","",""
"","html-keyboard-response","43","342610","0.0-35.0-7.0","""event"",""trial"",""time""
""fullscreenenter"",""0"",""6635""
","
","
","""event"",""trial"",""time""
""fullscreenenter"",""0"",""6635""
","
","920.5999999977648","<div class='center'><p>How successful a pirate is at robbing ships can also change over the time spent on the island. </p><p> Ships may hear from islanders about the pirates coming and will improve their protections against the attack. This may make it harder to rob them.</p><p> Ships may also become lazy and weaken the strength of their protections. This may make it easier to rob them.</p><br><p>Things are always changing on the high seas! So, try your best to pay attention!</p><p><img src='run_exp/static/images/tutorial/contingency.png' height='500'></p><p><b>[Press the space bar to continue]</b></p></div>","32","","","","","","","","","","","","","","","","","","","","","","",""
"","instruc13","44","378096","0.0-35.0-8.0","""event"",""trial"",""time""
""fullscreenenter"",""0"",""6635""
","
","
","""event"",""trial"",""time""
""fullscreenenter"",""0"",""6635""
","
","null","run_exp/static/audio/clip_15_summary.m4a","null","","","","","<div class='center'><p>Let's go over the instructions quickly again. You have two important things to do: </p><b><p> 1. Pick the pirate who is the best at robbing ships on the current island. </p></b><b><p> 2. Remember on which island a ship was robbed.</p> </b><p>The amount of bonus money you can win depends on both.</p><p><br><p>Let’s try a practice game. The game will start by showing you the pirates. First, pick a pirate using the <b> 1, 2, 3 </b> keys on your keyboard. When you are shown a ship, try to remember which island you’re on by making up a story.</p><p>This is just a practice game, so you’re not playing for money. </p><p> Good luck! This game will be very difficult but try your best!</p></div>","","","","","","","","","","","","","","","","","",""
"","html-keyboard-response","45","399266","0.0-35.0-9.0","""event"",""trial"",""time""
""fullscreenenter"",""0"",""6635""
","
","
","""event"",""trial"",""time""
""fullscreenenter"",""0"",""6635""
","
","21167.699999999255","<div class='center'><p>Let's go over the instructions quickly again. You have two important things to do: </p><b><p> 1. Pick the pirate who is the best at robbing ships on the current island. </p></b><b><p> 2. Remember on which island a ship was robbed.</p> </b><p>The amount of bonus money you can win depends on both.</p><p><br><p>Let’s try a practice game. The game will start by showing you the pirates. First, pick a pirate using the <b> 1, 2, 3 </b> keys on your keyboard. When you are shown a ship, try to remember which island you’re on by making up a story.</p><p>This is just a practice game, so you’re not playing for money. </p><p> Good luck! This game will be very difficult but try your best!</p><p><b>[Press the space bar to continue]</b></p></div>","32","","","","","","","","","","","","","","","","","","","","","","",""
"","do_welcome","46","403281","0.0-35.0-10.0","""event"",""trial"",""time""
""fullscreenenter"",""0"",""6635""
","
","
","""event"",""trial"",""time""
""fullscreenenter"",""0"",""6635""
","
","null","","","","","","","","null","","","","","","","","","","","","","","","","",""
"","do_trial","47","409334","0.0-35.0-11.0","""event"",""trial"",""time""
""fullscreenenter"",""0"",""6635""
","
","
","""event"",""trial"",""time""
""fullscreenenter"",""0"",""6635""
","
","1542.300000000745","","","","","","","","50","1,0,0","","","","","","","","","","","","","","","",""
"","html-keyboard-response","48","410336","0.0-36.0-0.0","""event"",""trial"",""time""
""fullscreenenter"",""0"",""6635""
","
","
","""event"",""trial"",""time""
""fullscreenenter"",""0"",""6635""
","
","null","<p></p>","null","","","","","","","","","","","","","","","","","","","","","","",""
"","do_trial","49","414961","0.0-36.0-1.0","""event"",""trial"",""time""
""fullscreenenter"",""0"",""6635""
","
","
","""event"",""trial"",""time""
""fullscreenenter"",""0"",""6635""
","
","116.69999999925494","","","","","","","","50","1,1,0","","","","","","","","","","","","","","","",""
"","html-keyboard-response","50","415963","0.0-37.0-0.0","""event"",""trial"",""time""
""fullscreenenter"",""0"",""6635""
","
","
","""event"",""trial"",""time""
""fullscreenenter"",""0"",""6635""
","
","null","<p></p>","null","","","","","","","","","","","","","","","","","","","","","","",""
"","do_trial","51","420485","0.0-37.0-1.0","""event"",""trial"",""time""
""fullscreenenter"",""0"",""6635""
","
","
","""event"",""trial"",""time""
""fullscreenenter"",""0"",""6635""
","
","13.099999997764826","","","","","","","","50","1,0,1","","","","","","","","","","","","","","","",""
"","html-keyboard-response","52","421487","0.0-38.0-0.0","""event"",""trial"",""time""
""fullscreenenter"",""0"",""6635""
","
","
","""event"",""trial"",""time""
""fullscreenenter"",""0"",""6635""
","
","null","<p></p>","null","","","","","","","","","","","","","","","","","","","","","","",""
"","do_trial","53","426501","0.0-38.0-1.0","""event"",""trial"",""time""
""fullscreenenter"",""0"",""6635""
","
","
","""event"",""trial"",""time""
""fullscreenenter"",""0"",""6635""
","
","506.1000000014901","","","","","","","","50","0,1,0","","","","","","","","","","","","","","","",""
"","html-keyboard-response","54","427503","0.0-39.0-0.0","""event"",""trial"",""time""
""fullscreenenter"",""0"",""6635""
","
","
","""event"",""trial"",""time""
""fullscreenenter"",""0"",""6635""
","
","null","<p></p>","null","","","","","","","","","","","","","","","","","","","","","","",""
"","do_trial","55","432300","0.0-39.0-1.0","""event"",""trial"",""time""
""fullscreenenter"",""0"",""6635""
","
","
","""event"",""trial"",""time""
""fullscreenenter"",""0"",""6635""
","
","288.6000000014901","","","","","","","","50","1,0,0","","","","","","","","","","","","","","","",""
"","do_bye","56","433807","0.0-40.0-0.0","""event"",""trial"",""time""
""fullscreenenter"",""0"",""6635""
","
","
","""event"",""trial"",""time""
""fullscreenenter"",""0"",""6635""
","
","null","","","","","","","","null","","","","","","","","","","","","","","","","",""
"","do_travel","57","442811","0.0-40.0-1.0","""event"",""trial"",""time""
""fullscreenenter"",""0"",""6635""
","
","
","""event"",""trial"",""time""
""fullscreenenter"",""0"",""6635""
","
","null","","","","","","","","null","","","","","","","","","","","","","","","","",""
"","do_welcome","58","446821","0.0-40.0-2.0","""event"",""trial"",""time""
""fullscreenenter"",""0"",""6635""
","
","
","""event"",""trial"",""time""
""fullscreenenter"",""0"",""6635""
","
","null","","","","","","","","null","","","","","","","","","","","","","","","","",""
"","do_trial","59","453285","0.0-40.0-3.0","""event"",""trial"",""time""
""fullscreenenter"",""0"",""6635""
","
","
","""event"",""trial"",""time""
""fullscreenenter"",""0"",""6635""
","
","1955.9000000022352","","","","","","","","49","1,0,0","","","","","","","","","","","","","","","",""
"","html-keyboard-response","60","454287","0.0-41.0-0.0","""event"",""trial"",""time""
""fullscreenenter"",""0"",""6635""
","
","
","""event"",""trial"",""time""
""fullscreenenter"",""0"",""6635""
","
","null","<p></p>","null","","","","","","","","","","","","","","","","","","","","","","",""
"","do_trial","61","459374","0.0-41.0-1.0","""event"",""trial"",""time""
""fullscreenenter"",""0"",""6635""
","
","
","""event"",""trial"",""time""
""fullscreenenter"",""0"",""6635""
","
","576.1999999992549","","","","","","","","49","1,0,1","","","","","","","","","","","","","","","",""
"","html-keyboard-response","62","460376","0.0-42.0-0.0","""event"",""trial"",""time""
""fullscreenenter"",""0"",""6635""
","
","
","""event"",""trial"",""time""
""fullscreenenter"",""0"",""6635""
","
","null","<p></p>","null","","","","","","","","","","","","","","","","","","","","","","",""
"","do_trial","63","465364","0.0-42.0-1.0","""event"",""trial"",""time""
""fullscreenenter"",""0"",""6635""
","
","
","""event"",""trial"",""time""
""fullscreenenter"",""0"",""6635""
","
","469.19999999925494","","","","","","","","49","1,1,0","","","","","","","","","","","","","","","",""
"","html-keyboard-response","64","466366","0.0-43.0-0.0","""event"",""trial"",""time""
""fullscreenenter"",""0"",""6635""
","
","
","""event"",""trial"",""time""
""fullscreenenter"",""0"",""6635""
","
","null","<p></p>","null","","","","","","","","","","","","","","","","","","","","","","",""
"","do_trial","65","471142","0.0-43.0-1.0","""event"",""trial"",""time""
""fullscreenenter"",""0"",""6635""
","
","
","""event"",""trial"",""time""
""fullscreenenter"",""0"",""6635""
","
","267.0999999977648","","","","","","","","49","0,0,1","","","","","","","","","","","","","","","",""
"","html-keyboard-response","66","472145","0.0-44.0-0.0","""event"",""trial"",""time""
""fullscreenenter"",""0"",""6635""
","
","
","""event"",""trial"",""time""
""fullscreenenter"",""0"",""6635""
","
","null","<p></p>","null","","","","","","","","","","","","","","","","","","","","","","",""
"","do_trial","67","477356","0.0-44.0-1.0","""event"",""trial"",""time""
""fullscreenenter"",""0"",""6635""
""fullscreenexit"",""68"",""493970""
","
","
","""event"",""trial"",""time""
""fullscreenenter"",""0"",""6635""
","""event"",""trial"",""time""
""fullscreenexit"",""68"",""493970""
","702.6000000014901","","","","","","","","49","1,0,1","","","","","","","","","","","","","","","",""
"","html-keyboard-response","68","496220","0.0-45.0-0.0","""event"",""trial"",""time""
""fullscreenenter"",""0"",""6635""
""fullscreenexit"",""68"",""493970""
","
","
","""event"",""trial"",""time""
""fullscreenenter"",""0"",""6635""
","""event"",""trial"",""time""
""fullscreenexit"",""68"",""493970""
","18860.099999997765","<div class='center'><p><img src='run_exp/static/images/tutorial/prac_best_pirate.png'  height='500'></p></div>","49","","","","","","","","","","","","","","","","","","","","","","",""
"","html-keyboard-response","69","501491","0.0-46.0-0.0","""event"",""trial"",""time""
""fullscreenenter"",""0"",""6635""
""fullscreenexit"",""68"",""493970""
","
","
","""event"",""trial"",""time""
""fullscreenenter"",""0"",""6635""
","""event"",""trial"",""time""
""fullscreenexit"",""68"",""493970""
","5268.199999999255","<div class='center'><p>That's correct! Red beard was the best.</p><p><b>[Press the space bar to continue]</b></p></div>","32","","","","","","","","","","","","","","","","","","","","","","",""
"","html-keyboard-response","70","506361","0.0-46.0-1.0","""event"",""trial"",""time""
""fullscreenenter"",""0"",""6635""
""fullscreenexit"",""68"",""493970""
","
","
","""event"",""trial"",""time""
""fullscreenenter"",""0"",""6635""
","""event"",""trial"",""time""
""fullscreenexit"",""68"",""493970""
","4868.300000000745","<div class='center'><p><img src='run_exp/static/images/tutorial/prac_source.png'  height='500'></p></div>","50","","","","","","","","","","","","","","","","","","","","","","",""
"","html-keyboard-response","71","510943","0.0-47.0-0.0","""event"",""trial"",""time""
""fullscreenenter"",""0"",""6635""
""fullscreenexit"",""68"",""493970""
","
","
","""event"",""trial"",""time""
""fullscreenenter"",""0"",""6635""
","""event"",""trial"",""time""
""fullscreenexit"",""68"",""493970""
","4579.599999997765","<div class='center'><p>That's correct! You saw this ship on the cavern island.</p><p><b>[Press the space bar to continue]</b></p></div>","32","","","","","","","","","","","","","","","","","","","","","","",""
"","quiz_beginning","72","522288","0.0-47.0-1.0","""event"",""trial"",""time""
""fullscreenenter"",""0"",""6635""
""fullscreenexit"",""68"",""493970""
","
","
","""event"",""trial"",""time""
""fullscreenenter"",""0"",""6635""
","""event"",""trial"",""time""
""fullscreenexit"",""68"",""493970""
","null","run_exp/static/audio/clip_16_quiz_intro.m4a","null","","","","","<div class='center'><p>Good job on the practice game! Now, you will be asked some true or false questions to make sure you really understand the rules of the game.</p><p> Press <b>'1'</b> on the keyboard for true and press <b>'2'</b> for false.</p></div>","","","","","","","","","","","","","","","","","",""
"","audio-keyboard-response","73","527637","0.0-47.0-2.0","""event"",""trial"",""time""
""fullscreenenter"",""0"",""6635""
""fullscreenexit"",""68"",""493970""
","
","
","""event"",""trial"",""time""
""fullscreenenter"",""0"",""6635""
","""event"",""trial"",""time""
""fullscreenexit"",""68"",""493970""
","5346.800000000745","run_exp/static/audio/clip_17_q1.m4a","49","","","","","","","","","","","","","","","","","","","","","","",""
"","correct","74","530276","0.0-48.0-0.0","""event"",""trial"",""time""
""fullscreenenter"",""0"",""6635""
""fullscreenexit"",""68"",""493970""
","
","
","""event"",""trial"",""time""
""fullscreenenter"",""0"",""6635""
","""event"",""trial"",""time""
""fullscreenexit"",""68"",""493970""
","null","run_exp/static/audio/clip_18_correct.m4a","null","","","","","<div class='center'><p>That's correct!</p></div>","","","","","","","","","","","","","","","","","",""
"","html-keyboard-response","75","531369","0.0-48.0-1.0","""event"",""trial"",""time""
""fullscreenenter"",""0"",""6635""
""fullscreenexit"",""68"",""493970""
","
","
","""event"",""trial"",""time""
""fullscreenenter"",""0"",""6635""
","""event"",""trial"",""time""
""fullscreenexit"",""68"",""493970""
","1091.5","<div class='center'><p>That's correct!</p><p><b>[Press the space bar to continue]</b></p></div>","32","","","","","","","","","","","","","","","","","","","","","","",""
"","audio-keyboard-response","76","534285","0.0-48.0-2.0","""event"",""trial"",""time""
""fullscreenenter"",""0"",""6635""
""fullscreenexit"",""68"",""493970""
","
","
","""event"",""trial"",""time""
""fullscreenenter"",""0"",""6635""
","""event"",""trial"",""time""
""fullscreenexit"",""68"",""493970""
","2913.699999999255","run_exp/static/audio/clip_20_q2.m4a","50","","","","","","","","","","","","","","","","","","","","","","",""
"","correct","77","536963","0.0-49.0-0.0","""event"",""trial"",""time""
""fullscreenenter"",""0"",""6635""
""fullscreenexit"",""68"",""493970""
","
","
","""event"",""trial"",""time""
""fullscreenenter"",""0"",""6635""
","""event"",""trial"",""time""
""fullscreenexit"",""68"",""493970""
","null","run_exp/static/audio/clip_18_correct.m4a","null","","","","","<div class='center'><p>That's correct!</p></div>","","","","","","","","","","","","","","","","","",""
"","html-keyboard-response","78","537821","0.0-49.0-1.0","""event"",""trial"",""time""
""fullscreenenter"",""0"",""6635""
""fullscreenexit"",""68"",""493970""
","
","
","""event"",""trial"",""time""
""fullscreenenter"",""0"",""6635""
","""event"",""trial"",""time""
""fullscreenexit"",""68"",""493970""
","856.6000000014901","<div class='center'><p>That's correct!</p><p><b>[Press the space bar to continue]</b></p></div>","32","","","","","","","","","","","","","","","","","","","","","","",""
"","audio-keyboard-response","79","543240","0.0-49.0-2.0","""event"",""trial"",""time""
""fullscreenenter"",""0"",""6635""
""fullscreenexit"",""68"",""493970""
","
","
","""event"",""trial"",""time""
""fullscreenenter"",""0"",""6635""
","""event"",""trial"",""time""
""fullscreenexit"",""68"",""493970""
","5416.599999997765","run_exp/static/audio/clip_22_q3.m4a","50","","","","","","","","","","","","","","","","","","","","","","",""
"","correct","80","545880","0.0-50.0-0.0","""event"",""trial"",""time""
""fullscreenenter"",""0"",""6635""
""fullscreenexit"",""68"",""493970""
","
","
","""event"",""trial"",""time""
""fullscreenenter"",""0"",""6635""
","""event"",""trial"",""time""
""fullscreenexit"",""68"",""493970""
","null","run_exp/static/audio/clip_18_correct.m4a","null","","","","","<div class='center'><p>That's correct!</p></div>","","","","","","","","","","","","","","","","","",""
"","html-keyboard-response","81","546305","0.0-50.0-1.0","""event"",""trial"",""time""
""fullscreenenter"",""0"",""6635""
""fullscreenexit"",""68"",""493970""
","
","
","""event"",""trial"",""time""
""fullscreenenter"",""0"",""6635""
","""event"",""trial"",""time""
""fullscreenexit"",""68"",""493970""
","423.5999999977648","<div class='center'><p>That's correct!</p><p><b>[Press the space bar to continue]</b></p></div>","32","","","","","","","","","","","","","","","","","","","","","","",""
"","audio-keyboard-response","82","550994","0.0-50.0-2.0","""event"",""trial"",""time""
""fullscreenenter"",""0"",""6635""
""fullscreenexit"",""68"",""493970""
","
","
","""event"",""trial"",""time""
""fullscreenenter"",""0"",""6635""
","""event"",""trial"",""time""
""fullscreenexit"",""68"",""493970""
","4686.5","run_exp/static/audio/clip_24_q4.m4a","49","","","","","","","","","","","","","","","","","","","","","","",""
"","correct","83","553776","0.0-51.0-0.0","""event"",""trial"",""time""
""fullscreenenter"",""0"",""6635""
""fullscreenexit"",""68"",""493970""
","
","
","""event"",""trial"",""time""
""fullscreenenter"",""0"",""6635""
","""event"",""trial"",""time""
""fullscreenexit"",""68"",""493970""
","null","run_exp/static/audio/clip_18_correct.m4a","null","","","","","<div class='center'><p>That's correct!</p></div>","","","","","","","","","","","","","","","","","",""
"","html-keyboard-response","84","554118","0.0-51.0-1.0","""event"",""trial"",""time""
""fullscreenenter"",""0"",""6635""
""fullscreenexit"",""68"",""493970""
","
","
","""event"",""trial"",""time""
""fullscreenenter"",""0"",""6635""
","""event"",""trial"",""time""
""fullscreenexit"",""68"",""493970""
","340.0999999977648","<div class='center'><p>That's correct!</p><p><b>[Press the space bar to continue]</b></p></div>","32","","","","","","","","","","","","","","","","","","","","","","",""
"","q_all_corr","85","562784","0.0-52.0-0.0","""event"",""trial"",""time""
""fullscreenenter"",""0"",""6635""
""fullscreenexit"",""68"",""493970""
","
","
","""event"",""trial"",""time""
""fullscreenenter"",""0"",""6635""
","""event"",""trial"",""time""
""fullscreenexit"",""68"",""493970""
","null","run_exp/static/audio/clip_27_quiz_all_correct.m4a","null","","","","","<div class='center'><p>Good job! You’re now ready to move on to the real game! Remember this game will be difficult but don't get discouraged and try your best!</p></div>","","","","","","","","","","","","","","","","","",""
"","html-keyboard-response","86","563327","0.0-52.0-1.0","""event"",""trial"",""time""
""fullscreenenter"",""0"",""6635""
""fullscreenexit"",""68"",""493970""
","
","
","""event"",""trial"",""time""
""fullscreenenter"",""0"",""6635""
","""event"",""trial"",""time""
""fullscreenexit"",""68"",""493970""
","540.8999999985099","<div class='center'><p>Good job! You’re now ready to move on to the real game! Remember this game will be difficult but don't get discouraged and try your best!</p><p><b>[Press the space bar to continue]</b></p></div>","32","","","","","","","","","","","","","","","","","","","","","","",""
"","do_welcome","87","567335","0.0-53.0-0.0","""event"",""trial"",""time""
""fullscreenenter"",""0"",""6635""
""fullscreenexit"",""68"",""493970""
","
","
","""event"",""trial"",""time""
""fullscreenenter"",""0"",""6635""
","""event"",""trial"",""time""
""fullscreenexit"",""68"",""493970""
","null","","","","","","","","null","","","","","","","","","","","","","","","","",""
"","do_trial","88","573167","0.0-54.0-0.0","""event"",""trial"",""time""
""fullscreenenter"",""0"",""6635""
""fullscreenexit"",""68"",""493970""
","
","
","""event"",""trial"",""time""
""fullscreenenter"",""0"",""6635""
","""event"",""trial"",""time""
""fullscreenexit"",""68"",""493970""
","1253.5","","","","","","","","49","0,0,1","0","countryside","0","probe-100","0.6","0.3","0.1","0","","","","","","","",""
"","html-keyboard-response","89","574171","0.0-54.0-1.0","""event"",""trial"",""time""
""fullscreenenter"",""0"",""6635""
""fullscreenexit"",""68"",""493970""
","
","
","""event"",""trial"",""time""
""fullscreenenter"",""0"",""6635""
","""event"",""trial"",""time""
""fullscreenexit"",""68"",""493970""
","null","<p></p>","null","","","","","","","","","","","","","","","","","","","","","","",""
"","do_trial","90","578748","0.0-55.0-0.0","""event"",""trial"",""time""
""fullscreenenter"",""0"",""6635""
""fullscreenexit"",""68"",""493970""
","
","
","""event"",""trial"",""time""
""fullscreenenter"",""0"",""6635""
","""event"",""trial"",""time""
""fullscreenexit"",""68"",""493970""
","2.400000002235174","","","","","","","","49","1,0,0","0","countryside","1","probe-138","0.5483721804240205","0.24847742649070292","0.06783430885213067","1","","","","","","","",""
"","html-keyboard-response","91","579751","0.0-55.0-1.0","""event"",""trial"",""time""
""fullscreenenter"",""0"",""6635""
""fullscreenexit"",""68"",""493970""
","
","
","""event"",""trial"",""time""
""fullscreenenter"",""0"",""6635""
","""event"",""trial"",""time""
""fullscreenexit"",""68"",""493970""
","null","<p></p>","null","","","","","","","","","","","","","","","","","","","","","","",""
"","do_trial","92","584572","0.0-56.0-0.0","""event"",""trial"",""time""
""fullscreenenter"",""0"",""6635""
""fullscreenexit"",""68"",""493970""
","
","
","""event"",""trial"",""time""
""fullscreenenter"",""0"",""6635""
","""event"",""trial"",""time""
""fullscreenexit"",""68"",""493970""
","245.70000000298023","","","","","","","","49","0,1,0","0","countryside","2","probe-47","0.6913406772952938","0.42276911686628615","0.050364569864864796","0","","","","","","","",""
"","html-keyboard-response","93","585578","0.0-56.0-1.0","""event"",""trial"",""time""
""fullscreenenter"",""0"",""6635""
""fullscreenexit"",""68"",""493970""
","
","
","""event"",""trial"",""time""
""fullscreenenter"",""0"",""6635""
","""event"",""trial"",""time""
""fullscreenexit"",""68"",""493970""
","null","<p></p>","null","","","","","","","","","","","","","","","","","","","","","","",""
"","do_trial","94","590535","0.0-57.0-0.0","""event"",""trial"",""time""
""fullscreenenter"",""0"",""6635""
""fullscreenexit"",""68"",""493970""
","
","
","""event"",""trial"",""time""
""fullscreenenter"",""0"",""6635""
","""event"",""trial"",""time""
""fullscreenexit"",""68"",""493970""
","379.1000000014901","","","","","","","","49","1,0,0","0","countryside","3","probe-19","0.8035681828976078","0.42614909999362566","0.10634767530203064","1","","","","","","","",""
"","html-keyboard-response","95","591537","0.0-57.0-1.0","""event"",""trial"",""time""
""fullscreenenter"",""0"",""6635""
""fullscreenexit"",""68"",""493970""
","
","
","""event"",""trial"",""time""
""fullscreenenter"",""0"",""6635""
","""event"",""trial"",""time""
""fullscreenexit"",""68"",""493970""
","null","<p></p>","null","","","","","","","","","","","","","","","","","","","","","","",""
"","do_trial","96","596493","0.0-58.0-0.0","""event"",""trial"",""time""
""fullscreenenter"",""0"",""6635""
""fullscreenexit"",""68"",""493970""
","
","
","""event"",""trial"",""time""
""fullscreenenter"",""0"",""6635""
","""event"",""trial"",""time""
""fullscreenexit"",""68"",""493970""
","381.6000000014901","","","","","","","","49","0,0,1","0","countryside","4","probe-48","0.6928322305844374","0.3762041080598937","0.12077273134336786","0","","","","","","","",""
"","html-keyboard-response","97","597495","0.0-58.0-1.0","""event"",""trial"",""time""
""fullscreenenter"",""0"",""6635""
""fullscreenexit"",""68"",""493970""
","
","
","""event"",""trial"",""time""
""fullscreenenter"",""0"",""6635""
","""event"",""trial"",""time""
""fullscreenexit"",""68"",""493970""
","null","<p></p>","null","","","","","","","","","","","","","","","","","","","","","","",""
"","do_trial","98","602298","0.0-59.0-0.0","""event"",""trial"",""time""
""fullscreenenter"",""0"",""6635""
""fullscreenexit"",""68"",""493970""
","
","
","""event"",""trial"",""time""
""fullscreenenter"",""0"",""6635""
","""event"",""trial"",""time""
""fullscreenexit"",""68"",""493970""
","228.80000000074506","","","","","","","","49","1,1,0","0","countryside","5","probe-104","0.6240995213831991","0.2026717774890064","0.10555013631323146","1","","","","","","","",""
"","html-keyboard-response","99","603300","0.0-59.0-1.0","""event"",""trial"",""time""
""fullscreenenter"",""0"",""6635""
""fullscreenexit"",""68"",""493970""
","
","
","""event"",""trial"",""time""
""fullscreenenter"",""0"",""6635""
","""event"",""trial"",""time""
""fullscreenexit"",""68"",""493970""
","null","<p></p>","null","","","","","","","","","","","","","","","","","","","","","","",""
"","do_trial","100","607938","0.0-60.0-0.0","""event"",""trial"",""time""
""fullscreenenter"",""0"",""6635""
""fullscreenexit"",""68"",""493970""
","
","
","""event"",""trial"",""time""
""fullscreenenter"",""0"",""6635""
","""event"",""trial"",""time""
""fullscreenexit"",""68"",""493970""
","64.89999999850988","","","","","","","","49","0,0,0","0","countryside","6","probe-129","0.6002378572152363","0.2605458417425396","0.09318650340809248","0","","","","","","","",""
"","html-keyboard-response","101","608940","0.0-60.0-1.0","""event"",""trial"",""time""
""fullscreenenter"",""0"",""6635""
""fullscreenexit"",""68"",""493970""
","
","
","""event"",""trial"",""time""
""fullscreenenter"",""0"",""6635""
","""event"",""trial"",""time""
""fullscreenexit"",""68"",""493970""
","null","<p></p>","null","","","","","","","","","","","","","","","","","","","","","","",""
"","do_trial","102","613718","0.0-61.0-0.0","""event"",""trial"",""time""
""fullscreenenter"",""0"",""6635""
""fullscreenexit"",""68"",""493970""
","
","
","""event"",""trial"",""time""
""fullscreenenter"",""0"",""6635""
","""event"",""trial"",""time""
""fullscreenexit"",""68"",""493970""
","203.80000000074506","","","","","","","","49","1,0,0","0","countryside","7","probe-26","0.5263102968959692","0.24326899624748155","0.06108353783665672","1","","","","","","","",""
"","html-keyboard-response","103","614721","0.0-61.0-1.0","""event"",""trial"",""time""
""fullscreenenter"",""0"",""6635""
""fullscreenexit"",""68"",""493970""
","
","
","""event"",""trial"",""time""
""fullscreenenter"",""0"",""6635""
","""event"",""trial"",""time""
""fullscreenexit"",""68"",""493970""
","null","<p></p>","null","","","","","","","","","","","","","","","","","","","","","","",""
"","do_trial","104","619447","0.0-62.0-0.0","""event"",""trial"",""time""
""fullscreenenter"",""0"",""6635""
""fullscreenexit"",""68"",""493970""
","
","
","""event"",""trial"",""time""
""fullscreenenter"",""0"",""6635""
","""event"",""trial"",""time""
""fullscreenexit"",""68"",""493970""
","150.80000000074506","","","","","","","","49","1,1,0","0","countryside","8","probe-161","0.6469438569833126","0.23017444596830722","0.0612103879625848","1","","","","","","","",""
"","html-keyboard-response","105","620450","0.0-62.0-1.0","""event"",""trial"",""time""
""fullscreenenter"",""0"",""6635""
""fullscreenexit"",""68"",""493970""
","
","
","""event"",""trial"",""time""
""fullscreenenter"",""0"",""6635""
","""event"",""trial"",""time""
""fullscreenexit"",""68"",""493970""
","null","<p></p>","null","","","","","","","","","","","","","","","","","","","","","","",""
"","do_trial","106","625123","0.0-63.0-0.0","""event"",""trial"",""time""
""fullscreenenter"",""0"",""6635""
""fullscreenexit"",""68"",""493970""
","
","
","""event"",""trial"",""time""
""fullscreenenter"",""0"",""6635""
","""event"",""trial"",""time""
""fullscreenexit"",""68"",""493970""
","99","","","","","","","","49","1,0,0","0","countryside","9","probe-89","0.5021255509855348","0.3415875050225451","0.08546597212877473","1","","","","","","","",""
"","html-keyboard-response","107","626125","0.0-63.0-1.0","""event"",""trial"",""time""
""fullscreenenter"",""0"",""6635""
""fullscreenexit"",""68"",""493970""
","
","
","""event"",""trial"",""time""
""fullscreenenter"",""0"",""6635""
","""event"",""trial"",""time""
""fullscreenexit"",""68"",""493970""
","null","<p></p>","null","","","","","","","","","","","","","","","","","","","","","","",""
"","do_trial","108","630701","0.0-64.0-0.0","""event"",""trial"",""time""
""fullscreenenter"",""0"",""6635""
""fullscreenexit"",""68"",""493970""
","
","
","""event"",""trial"",""time""
""fullscreenenter"",""0"",""6635""
","""event"",""trial"",""time""
""fullscreenexit"",""68"",""493970""
","0.30000000074505806","","","","","","","","49","1,1,0","0","countryside","10","probe-36","0.6113555372740267","0.3752321627031166","0.0501735580924247","1","","","","","","","",""
"","html-keyboard-response","109","631703","0.0-64.0-1.0","""event"",""trial"",""time""
""fullscreenenter"",""0"",""6635""
""fullscreenexit"",""68"",""493970""
","
","
","""event"",""trial"",""time""
""fullscreenenter"",""0"",""6635""
","""event"",""trial"",""time""
""fullscreenexit"",""68"",""493970""
","null","<p></p>","null","","","","","","","","","","","","","","","","","","","","","","",""
"","do_trial","110","636823","0.0-65.0-0.0","""event"",""trial"",""time""
""fullscreenenter"",""0"",""6635""
""fullscreenexit"",""68"",""493970""
","
","
","""event"",""trial"",""time""
""fullscreenenter"",""0"",""6635""
","""event"",""trial"",""time""
""fullscreenexit"",""68"",""493970""
","543.6000000014901","","","","","","","","49","0,0,0","0","countryside","11","probe-33","0.6811358536114746","0.39824312983421506","0.14654023870604038","0","","","","","","","",""
"","html-keyboard-response","111","637825","0.0-65.0-1.0","""event"",""trial"",""time""
""fullscreenenter"",""0"",""6635""
""fullscreenexit"",""68"",""493970""
","
","
","""event"",""trial"",""time""
""fullscreenenter"",""0"",""6635""
","""event"",""trial"",""time""
""fullscreenexit"",""68"",""493970""
","null","<p></p>","null","","","","","","","","","","","","","","","","","","","","","","",""
"","do_trial","112","642405","0.0-66.0-0.0","""event"",""trial"",""time""
""fullscreenenter"",""0"",""6635""
""fullscreenexit"",""68"",""493970""
","
","
","""event"",""trial"",""time""
""fullscreenenter"",""0"",""6635""
","""event"",""trial"",""time""
""fullscreenexit"",""68"",""493970""
","5.199999999254942","","","","","","","","49","1,1,0","0","countryside","12","probe-224","0.8542197375154521","0.4163945519684735","0.19792890747168812","1","","","","","","","",""
"","html-keyboard-response","113","643408","0.0-66.0-1.0","""event"",""trial"",""time""
""fullscreenenter"",""0"",""6635""
""fullscreenexit"",""68"",""493970""
","
","
","""event"",""trial"",""time""
""fullscreenenter"",""0"",""6635""
","""event"",""trial"",""time""
""fullscreenexit"",""68"",""493970""
","null","<p></p>","null","","","","","","","","","","","","","","","","","","","","","","",""
"","do_trial","114","648090","0.0-67.0-0.0","""event"",""trial"",""time""
""fullscreenenter"",""0"",""6635""
""fullscreenexit"",""68"",""493970""
","
","
","""event"",""trial"",""time""
""fullscreenenter"",""0"",""6635""
","""event"",""trial"",""time""
""fullscreenexit"",""68"",""493970""
","106.39999999850988","","","","","","","","49","0,0,0","0","countryside","13","probe-40","0.6236028070889472","0.3749940977268598","0.17315173088510652","0","","","","","","","",""
"","html-keyboard-response","115","649093","0.0-67.0-1.0","""event"",""trial"",""time""
""fullscreenenter"",""0"",""6635""
""fullscreenexit"",""68"",""493970""
","
","
","""event"",""trial"",""time""
""fullscreenenter"",""0"",""6635""
","""event"",""trial"",""time""
""fullscreenexit"",""68"",""493970""
","null","<p></p>","null","","","","","","","","","","","","","","","","","","","","","","",""
"","do_trial","116","654111","0.0-68.0-0.0","""event"",""trial"",""time""
""fullscreenenter"",""0"",""6635""
""fullscreenexit"",""68"",""493970""
","
","
","""event"",""trial"",""time""
""fullscreenenter"",""0"",""6635""
","""event"",""trial"",""time""
""fullscreenexit"",""68"",""493970""
","443.19999999925494","","","","","","","","49","0,0,0","0","countryside","14","probe-87","0.5099343198055463","0.16464781782001547","0.12818447092482294","0","","","","","","","",""
"","html-keyboard-response","117","655114","0.0-68.0-1.0","""event"",""trial"",""time""
""fullscreenenter"",""0"",""6635""
""fullscreenexit"",""68"",""493970""
","
","
","""event"",""trial"",""time""
""fullscreenenter"",""0"",""6635""
","""event"",""trial"",""time""
""fullscreenexit"",""68"",""493970""
","null","<p></p>","null","","","","","","","","","","","","","","","","","","","","","","",""
"","do_trial","118","659952","0.0-69.0-0.0","""event"",""trial"",""time""
""fullscreenenter"",""0"",""6635""
""fullscreenexit"",""68"",""493970""
","
","
","""event"",""trial"",""time""
""fullscreenenter"",""0"",""6635""
","""event"",""trial"",""time""
""fullscreenexit"",""68"",""493970""
","264.30000000074506","","","","","","","","49","1,0,0","0","countryside","15","probe-199","0.5832530669221986","0.2125256147798186","0.08846626697689482","1","","","","","","","",""
"","html-keyboard-response","119","660954","0.0-69.0-1.0","""event"",""trial"",""time""
""fullscreenenter"",""0"",""6635""
""fullscreenexit"",""68"",""493970""
","
","
","""event"",""trial"",""time""
""fullscreenenter"",""0"",""6635""
","""event"",""trial"",""time""
""fullscreenexit"",""68"",""493970""
","null","<p></p>","null","","","","","","","","","","","","","","","","","","","","","","",""
"","do_trial","120","665971","0.0-70.0-0.0","""event"",""trial"",""time""
""fullscreenenter"",""0"",""6635""
""fullscreenexit"",""68"",""493970""
","
","
","""event"",""trial"",""time""
""fullscreenenter"",""0"",""6635""
","""event"",""trial"",""time""
""fullscreenexit"",""68"",""493970""
","441.79999999701977","","","","","","","","49","1,0,0","0","countryside","16","probe-210","0.5946543191700687","0.35364937077567815","0.07882214613564519","1","","","","","","","",""
"","html-keyboard-response","121","666973","0.0-70.0-1.0","""event"",""trial"",""time""
""fullscreenenter"",""0"",""6635""
""fullscreenexit"",""68"",""493970""
","
","
","""event"",""trial"",""time""
""fullscreenenter"",""0"",""6635""
","""event"",""trial"",""time""
""fullscreenexit"",""68"",""493970""
","null","<p></p>","null","","","","","","","","","","","","","","","","","","","","","","",""
"","do_trial","122","672889","0.0-71.0-0.0","""event"",""trial"",""time""
""fullscreenenter"",""0"",""6635""
""fullscreenexit"",""68"",""493970""
","
","
","""event"",""trial"",""time""
""fullscreenenter"",""0"",""6635""
","""event"",""trial"",""time""
""fullscreenexit"",""68"",""493970""
","1339.5","","","","","","","","49","1,1,0","0","countryside","17","probe-65","0.5640541577312772","0.3124471094467258","0.2536716889366703","1","","","","","","","",""
"","html-keyboard-response","123","673891","0.0-71.0-1.0","""event"",""trial"",""time""
""fullscreenenter"",""0"",""6635""
""fullscreenexit"",""68"",""493970""
","
","
","""event"",""trial"",""time""
""fullscreenenter"",""0"",""6635""
","""event"",""trial"",""time""
""fullscreenexit"",""68"",""493970""
","null","<p></p>","null","","","","","","","","","","","","","","","","","","","","","","",""
"","do_trial","124","679050","0.0-72.0-0.0","""event"",""trial"",""time""
""fullscreenenter"",""0"",""6635""
""fullscreenexit"",""68"",""493970""
","
","
","""event"",""trial"",""time""
""fullscreenenter"",""0"",""6635""
","""event"",""trial"",""time""
""fullscreenexit"",""68"",""493970""
","584.2999999970198","","","","","","","","49","0,1,0","0","countryside","18","probe-11","0.6288928067167929","0.3844691077919423","0.12769455908682484","0","","","","","","","",""
"","html-keyboard-response","125","680053","0.0-72.0-1.0","""event"",""trial"",""time""
""fullscreenenter"",""0"",""6635""
""fullscreenexit"",""68"",""493970""
","
","
","""event"",""trial"",""time""
""fullscreenenter"",""0"",""6635""
","""event"",""trial"",""time""
""fullscreenexit"",""68"",""493970""
","null","<p></p>","null","","","","","","","","","","","","","","","","","","","","","","",""
"","do_trial","126","684906","0.0-73.0-0.0","""event"",""trial"",""time""
""fullscreenenter"",""0"",""6635""
""fullscreenexit"",""68"",""493970""
","
","
","""event"",""trial"",""time""
""fullscreenenter"",""0"",""6635""
","""event"",""trial"",""time""
""fullscreenexit"",""68"",""493970""
","278.80000000074506","","","","","","","","49","0,1,0","0","countryside","19","probe-04","0.5811376507640947","0.37671089447926853","0.1300201034794006","0","","","","","","","",""
"","html-keyboard-response","127","685908","0.0-73.0-1.0","""event"",""trial"",""time""
""fullscreenenter"",""0"",""6635""
""fullscreenexit"",""68"",""493970""
","
","
","""event"",""trial"",""time""
""fullscreenenter"",""0"",""6635""
","""event"",""trial"",""time""
""fullscreenexit"",""68"",""493970""
","null","<p></p>","null","","","","","","","","","","","","","","","","","","","","","","",""
"","do_trial","128","691052","0.0-74.0-0.0","""event"",""trial"",""time""
""fullscreenenter"",""0"",""6635""
""fullscreenexit"",""68"",""493970""
","
","
","""event"",""trial"",""time""
""fullscreenenter"",""0"",""6635""
","""event"",""trial"",""time""
""fullscreenexit"",""68"",""493970""
","569.5","","","","","","","","49","1,0,0","0","countryside","20","probe-62","0.46820905557994336","0.22734771999672518","0.20629503605032148","1","","","","","","","",""
"","html-keyboard-response","129","692055","0.0-74.0-1.0","""event"",""trial"",""time""
""fullscreenenter"",""0"",""6635""
""fullscreenexit"",""68"",""493970""
","
","
","""event"",""trial"",""time""
""fullscreenenter"",""0"",""6635""
","""event"",""trial"",""time""
""fullscreenexit"",""68"",""493970""
","null","<p></p>","null","","","","","","","","","","","","","","","","","","","","","","",""
"","do_trial","130","696769","0.0-75.0-0.0","""event"",""trial"",""time""
""fullscreenenter"",""0"",""6635""
""fullscreenexit"",""68"",""493970""
","
","
","""event"",""trial"",""time""
""fullscreenenter"",""0"",""6635""
","""event"",""trial"",""time""
""fullscreenexit"",""68"",""493970""
","138.60000000149012","","","","","","","","49","0,0,0","0","countryside","21","probe-06","0.42331151799630706","0.11104671873577181","0.21046128107567172","0","","","","","","","",""
"","html-keyboard-response","131","697771","0.0-75.0-1.0","""event"",""trial"",""time""
""fullscreenenter"",""0"",""6635""
""fullscreenexit"",""68"",""493970""
","
","
","""event"",""trial"",""time""
""fullscreenenter"",""0"",""6635""
","""event"",""trial"",""time""
""fullscreenexit"",""68"",""493970""
","null","<p></p>","null","","","","","","","","","","","","","","","","","","","","","","",""
"","do_trial","132","702472","0.0-76.0-0.0","""event"",""trial"",""time""
""fullscreenenter"",""0"",""6635""
""fullscreenexit"",""68"",""493970""
","
","
","""event"",""trial"",""time""
""fullscreenenter"",""0"",""6635""
","""event"",""trial"",""time""
""fullscreenexit"",""68"",""493970""
","124.80000000074506","","","","","","","","49","0,0,0","0","countryside","22","probe-203","0.5542237192884274","0.15376760177437965","0.2085692014740403","0","","","","","","","",""
"","html-keyboard-response","133","703474","0.0-76.0-1.0","""event"",""trial"",""time""
""fullscreenenter"",""0"",""6635""
""fullscreenexit"",""68"",""493970""
","
","
","""event"",""trial"",""time""
""fullscreenenter"",""0"",""6635""
","""event"",""trial"",""time""
""fullscreenexit"",""68"",""493970""
","null","<p></p>","null","","","","","","","","","","","","","","","","","","","","","","",""
"","do_trial","134","708231","0.0-77.0-0.0","""event"",""trial"",""time""
""fullscreenenter"",""0"",""6635""
""fullscreenexit"",""68"",""493970""
","
","
","""event"",""trial"",""time""
""fullscreenenter"",""0"",""6635""
","""event"",""trial"",""time""
""fullscreenexit"",""68"",""493970""
","182","","","","","","","","49","1,0,0","0","countryside","23","probe-85","0.6636226342143025","0.269554204349207","0.11513464735109469","1","","","","","","","",""
"","html-keyboard-response","135","709233","0.0-77.0-1.0","""event"",""trial"",""time""
""fullscreenenter"",""0"",""6635""
""fullscreenexit"",""68"",""493970""
","
","
","""event"",""trial"",""time""
""fullscreenenter"",""0"",""6635""
","""event"",""trial"",""time""
""fullscreenexit"",""68"",""493970""
","null","<p></p>","null","","","","","","","","","","","","","","","","","","","","","","",""
"","do_trial","136","713808","0.0-78.0-0.0","""event"",""trial"",""time""
""fullscreenenter"",""0"",""6635""
""fullscreenexit"",""68"",""493970""
","
","
","""event"",""trial"",""time""
""fullscreenenter"",""0"",""6635""
","""event"",""trial"",""time""
""fullscreenexit"",""68"",""493970""
","0.30000000074505806","","","","","","","","49","0,1,0","0","countryside","24","probe-190","0.5852136597115586","0.2936277526709576","0.1156242310649553","0","","","","","","","",""
"","html-keyboard-response","137","714810","0.0-78.0-1.0","""event"",""trial"",""time""
""fullscreenenter"",""0"",""6635""
""fullscreenexit"",""68"",""493970""
","
","
","""event"",""trial"",""time""
""fullscreenenter"",""0"",""6635""
","""event"",""trial"",""time""
""fullscreenexit"",""68"",""493970""
","null","<p></p>","null","","","","","","","","","","","","","","","","","","","","","","",""
"","do_trial","138","720885","0.0-79.0-0.0","""event"",""trial"",""time""
""fullscreenenter"",""0"",""6635""
""fullscreenexit"",""68"",""493970""
","
","
","""event"",""trial"",""time""
""fullscreenenter"",""0"",""6635""
","""event"",""trial"",""time""
""fullscreenexit"",""68"",""493970""
","null","","","","","","","","null","0,0,0","0","countryside","25","probe-192","0.5845491813155144","0.30048465187250556","0.12554799002905973","","","","","","","","",""
"","html-keyboard-response","139","721887","0.0-79.0-1.0","""event"",""trial"",""time""
""fullscreenenter"",""0"",""6635""
""fullscreenexit"",""68"",""493970""
","
","
","""event"",""trial"",""time""
""fullscreenenter"",""0"",""6635""
","""event"",""trial"",""time""
""fullscreenexit"",""68"",""493970""
","null","<p></p>","null","","","","","","","","","","","","","","","","","","","","","","",""
"","do_trial","140","726757","0.0-80.0-0.0","""event"",""trial"",""time""
""fullscreenenter"",""0"",""6635""
""fullscreenexit"",""68"",""493970""
","
","
","""event"",""trial"",""time""
""fullscreenenter"",""0"",""6635""
","""event"",""trial"",""time""
""fullscreenexit"",""68"",""493970""
","296.30000000074506","","","","","","","","49","0,0,0","0","countryside","26","probe-132","0.6604719736632397","0.245298812543099","0.21291795251232046","0","","","","","","","",""
"","html-keyboard-response","141","727760","0.0-80.0-1.0","""event"",""trial"",""time""
""fullscreenenter"",""0"",""6635""
""fullscreenexit"",""68"",""493970""
","
","
","""event"",""trial"",""time""
""fullscreenenter"",""0"",""6635""
","""event"",""trial"",""time""
""fullscreenexit"",""68"",""493970""
","null","<p></p>","null","","","","","","","","","","","","","","","","","","","","","","",""
"","do_trial","142","732450","0.0-81.0-0.0","""event"",""trial"",""time""
""fullscreenenter"",""0"",""6635""
""fullscreenexit"",""68"",""493970""
","
","
","""event"",""trial"",""time""
""fullscreenenter"",""0"",""6635""
","""event"",""trial"",""time""
""fullscreenexit"",""68"",""493970""
","115.89999999850988","","","","","","","","49","0,0,0","0","countryside","27","probe-46","0.5050227713645122","0.18132223258163813","0.2229221135615083","0","","","","","","","",""
"","html-keyboard-response","143","733452","0.0-81.0-1.0","""event"",""trial"",""time""
""fullscreenenter"",""0"",""6635""
""fullscreenexit"",""68"",""493970""
","
","
","""event"",""trial"",""time""
""fullscreenenter"",""0"",""6635""
","""event"",""trial"",""time""
""fullscreenexit"",""68"",""493970""
","null","<p></p>","null","","","","","","","","","","","","","","","","","","","","","","",""
"","do_trial","144","738784","0.0-82.0-0.0","""event"",""trial"",""time""
""fullscreenenter"",""0"",""6635""
""fullscreenexit"",""68"",""493970""
","
","
","""event"",""trial"",""time""
""fullscreenenter"",""0"",""6635""
","""event"",""trial"",""time""
""fullscreenexit"",""68"",""493970""
","755.9000000022352","","","","","","","","49","1,1,0","0","countryside","28","probe-197","0.5454341040451047","0.3808874809236783","0.11085396206368431","1","","","","","","","",""
"","html-keyboard-response","145","739787","0.0-82.0-1.0","""event"",""trial"",""time""
""fullscreenenter"",""0"",""6635""
""fullscreenexit"",""68"",""493970""
","
","
","""event"",""trial"",""time""
""fullscreenenter"",""0"",""6635""
","""event"",""trial"",""time""
""fullscreenexit"",""68"",""493970""
","null","<p></p>","null","","","","","","","","","","","","","","","","","","","","","","",""
"","do_trial","146","745137","0.0-83.0-0.0","""event"",""trial"",""time""
""fullscreenenter"",""0"",""6635""
""fullscreenexit"",""68"",""493970""
","
","
","""event"",""trial"",""time""
""fullscreenenter"",""0"",""6635""
","""event"",""trial"",""time""
""fullscreenexit"",""68"",""493970""
","776.4000000022352","","","","","","","","49","1,1,0","0","countryside","29","probe-21","0.5109178153820757","0.3338877486733553","0.2677434259788442","1","","","","","","","",""
"","html-keyboard-response","147","746139","0.0-83.0-1.0","""event"",""trial"",""time""
""fullscreenenter"",""0"",""6635""
""fullscreenexit"",""68"",""493970""
","
","
","""event"",""trial"",""time""
""fullscreenenter"",""0"",""6635""
","""event"",""trial"",""time""
""fullscreenexit"",""68"",""493970""
","null","<p></p>","null","","","","","","","","","","","","","","","","","","","","","","",""
"","do_bye","148","747646","0.0-84.0-0.0","""event"",""trial"",""time""
""fullscreenenter"",""0"",""6635""
""fullscreenexit"",""68"",""493970""
","
","
","""event"",""trial"",""time""
""fullscreenenter"",""0"",""6635""
","""event"",""trial"",""time""
""fullscreenexit"",""68"",""493970""
","null","","","","","","","","null","","","","","","","","","","","","","","","","",""
"","break","149","749412","0.0-84.0-1.0","""event"",""trial"",""time""
""fullscreenenter"",""0"",""6635""
""fullscreenexit"",""68"",""493970""
","
","
","""event"",""trial"",""time""
""fullscreenenter"",""0"",""6635""
","""event"",""trial"",""time""
""fullscreenexit"",""68"",""493970""
","1763.699999999255","<div class='center'><p>Time to take a quick break! You have 2 minutes to rest, but you can move on sooner if you'd like.</p><p> Press the <b>space bar</b> to continue.</p></div>","32","","","","","","","","","","","","","","","","","","","","","","",""
"","do_travel","150","758416","0.0-85.0-0.0","""event"",""trial"",""time""
""fullscreenenter"",""0"",""6635""
""fullscreenexit"",""68"",""493970""
","
","
","""event"",""trial"",""time""
""fullscreenenter"",""0"",""6635""
","""event"",""trial"",""time""
""fullscreenexit"",""68"",""493970""
","null","","","","","","","","null","","","","","","","","","","","","","","","","",""
"","do_welcome","151","762424","0.0-85.0-1.0","""event"",""trial"",""time""
""fullscreenenter"",""0"",""6635""
""fullscreenexit"",""68"",""493970""
","
","
","""event"",""trial"",""time""
""fullscreenenter"",""0"",""6635""
","""event"",""trial"",""time""
""fullscreenexit"",""68"",""493970""
","null","","","","","","","","null","","","","","","","","","","","","","","","","",""
"","do_trial","152","768501","0.0-86.0-0.0","""event"",""trial"",""time""
""fullscreenenter"",""0"",""6635""
""fullscreenexit"",""68"",""493970""
","
","
","""event"",""trial"",""time""
""fullscreenenter"",""0"",""6635""
","""event"",""trial"",""time""
""fullscreenexit"",""68"",""493970""
","null","","","","","","","","null","1,0,0","1","coast","30","probe-90","1","0.18172926718590504","0.13905525538710886","","","","","","","","",""
"","html-keyboard-response","153","769505","0.0-86.0-1.0","""event"",""trial"",""time""
""fullscreenenter"",""0"",""6635""
""fullscreenexit"",""68"",""493970""
","
","
","""event"",""trial"",""time""
""fullscreenenter"",""0"",""6635""
","""event"",""trial"",""time""
""fullscreenexit"",""68"",""493970""
","null","<p></p>","null","","","","","","","","","","","","","","","","","","","","","","",""
"","do_trial","154","775581","0.0-87.0-0.0","""event"",""trial"",""time""
""fullscreenenter"",""0"",""6635""
""fullscreenexit"",""68"",""493970""
","
","
","""event"",""trial"",""time""
""fullscreenenter"",""0"",""6635""
","""event"",""trial"",""time""
""fullscreenexit"",""68"",""493970""
","null","","","","","","","","null","1,0,0","1","coast","31","probe-57","1","0.2648259082163543","0.1028136640320859","","","","","","","","",""
"","html-keyboard-response","155","776584","0.0-87.0-1.0","""event"",""trial"",""time""
""fullscreenenter"",""0"",""6635""
""fullscreenexit"",""68"",""493970""
""blur"",""156"",""779341""
","""event"",""trial"",""time""
""blur"",""156"",""779341""
","
","""event"",""trial"",""time""
""fullscreenenter"",""0"",""6635""
","""event"",""trial"",""time""
""fullscreenexit"",""68"",""493970""
","null","<p></p>","null","","","","","","","","","","","","","","","","","","","","","","",""
"","do_trial","156","782135","0.0-88.0-0.0","""event"",""trial"",""time""
""fullscreenenter"",""0"",""6635""
""fullscreenexit"",""68"",""493970""
""blur"",""156"",""779341""
","""event"",""trial"",""time""
""blur"",""156"",""779341""
","
","""event"",""trial"",""time""
""fullscreenenter"",""0"",""6635""
","""event"",""trial"",""time""
""fullscreenexit"",""68"",""493970""
","972.6000000014901","","","","","","","","50","1,0,1","1","coast","32","probe-112","1","0.3854492818477114","0.2661252445273486","0","","","","","","","",""
"","html-keyboard-response","157","783137","0.0-88.0-1.0","""event"",""trial"",""time""
""fullscreenenter"",""0"",""6635""
""fullscreenexit"",""68"",""493970""
""blur"",""156"",""779341""
""focus"",""158"",""784368""
""blur"",""158"",""788995""
","""event"",""trial"",""time""
""blur"",""156"",""779341""
""blur"",""158"",""788995""
","""event"",""trial"",""time""
""focus"",""158"",""784368""
","""event"",""trial"",""time""
""fullscreenenter"",""0"",""6635""
","""event"",""trial"",""time""
""fullscreenexit"",""68"",""493970""
","null","<p></p>","null","","","","","","","","","","","","","","","","","","","","","","",""
"","do_trial","158","789223","0.0-89.0-0.0","""event"",""trial"",""time""
""fullscreenenter"",""0"",""6635""
""fullscreenexit"",""68"",""493970""
""blur"",""156"",""779341""
""focus"",""158"",""784368""
""blur"",""158"",""788995""
""focus"",""159"",""789335""
","""event"",""trial"",""time""
""blur"",""156"",""779341""
""blur"",""158"",""788995""
","""event"",""trial"",""time""
""focus"",""158"",""784368""
""focus"",""159"",""789335""
","""event"",""trial"",""time""
""fullscreenenter"",""0"",""6635""
","""event"",""trial"",""time""
""fullscreenexit"",""68"",""493970""
","null","","","","","","","","null","1,1,1","1","coast","33","probe-82","0.8876572446099132","0.3527331526064723","0.2744172367197111","","","","","","","","",""
"","html-keyboard-response","159","790225","0.0-89.0-1.0","""event"",""trial"",""time""
""fullscreenenter"",""0"",""6635""
""fullscreenexit"",""68"",""493970""
""blur"",""156"",""779341""
""focus"",""158"",""784368""
""blur"",""158"",""788995""
""focus"",""159"",""789335""
","""event"",""trial"",""time""
""blur"",""156"",""779341""
""blur"",""158"",""788995""
","""event"",""trial"",""time""
""focus"",""158"",""784368""
""focus"",""159"",""789335""
","""event"",""trial"",""time""
""fullscreenenter"",""0"",""6635""
","""event"",""trial"",""time""
""fullscreenexit"",""68"",""493970""
","null","<p></p>","null","","","","","","","","","","","","","","","","","","","","","","",""
"","do_trial","160","796052","0.0-90.0-0.0","""event"",""trial"",""time""
""fullscreenenter"",""0"",""6635""
""fullscreenexit"",""68"",""493970""
""blur"",""156"",""779341""
""focus"",""158"",""784368""
""blur"",""158"",""788995""
""focus"",""159"",""789335""
","""event"",""trial"",""time""
""blur"",""156"",""779341""
""blur"",""158"",""788995""
","""event"",""trial"",""time""
""focus"",""158"",""784368""
""focus"",""159"",""789335""
","""event"",""trial"",""time""
""fullscreenenter"",""0"",""6635""
","""event"",""trial"",""time""
""fullscreenexit"",""68"",""493970""
","1249.5","","","","","","","","51","0,0,0","1","coast","34","probe-156","0.7149414500542283","0.35551187048232885","0.1647974986026051","0","","","","","","","",""
"","html-keyboard-response","161","797055","0.0-90.0-1.0","""event"",""trial"",""time""
""fullscreenenter"",""0"",""6635""
""fullscreenexit"",""68"",""493970""
""blur"",""156"",""779341""
""focus"",""158"",""784368""
""blur"",""158"",""788995""
""focus"",""159"",""789335""
","""event"",""trial"",""time""
""blur"",""156"",""779341""
""blur"",""158"",""788995""
","""event"",""trial"",""time""
""focus"",""158"",""784368""
""focus"",""159"",""789335""
","""event"",""trial"",""time""
""fullscreenenter"",""0"",""6635""
","""event"",""trial"",""time""
""fullscreenexit"",""68"",""493970""
","null","<p></p>","null","","","","","","","","","","","","","","","","","","","","","","",""
"","do_trial","162","802600","0.0-91.0-0.0","""event"",""trial"",""time""
""fullscreenenter"",""0"",""6635""
""fullscreenexit"",""68"",""493970""
""blur"",""156"",""779341""
""focus"",""158"",""784368""
""blur"",""158"",""788995""
""focus"",""159"",""789335""
","""event"",""trial"",""time""
""blur"",""156"",""779341""
""blur"",""158"",""788995""
","""event"",""trial"",""time""
""focus"",""158"",""784368""
""focus"",""159"",""789335""
","""event"",""trial"",""time""
""fullscreenenter"",""0"",""6635""
","""event"",""trial"",""time""
""fullscreenexit"",""68"",""493970""
","970.8999999985099","","","","","","","","51","1,1,0","1","coast","35","probe-55","0.8745573222374281","0.3700411584218987","0.20589994774097384","0","","","","","","","",""
"","html-keyboard-response","163","803603","0.0-91.0-1.0","""event"",""trial"",""time""
""fullscreenenter"",""0"",""6635""
""fullscreenexit"",""68"",""493970""
""blur"",""156"",""779341""
""focus"",""158"",""784368""
""blur"",""158"",""788995""
""focus"",""159"",""789335""
""blur"",""164"",""805091""
""focus"",""164"",""807883""
","""event"",""trial"",""time""
""blur"",""156"",""779341""
""blur"",""158"",""788995""
""blur"",""164"",""805091""
","""event"",""trial"",""time""
""focus"",""158"",""784368""
""focus"",""159"",""789335""
""focus"",""164"",""807883""
","""event"",""trial"",""time""
""fullscreenenter"",""0"",""6635""
","""event"",""trial"",""time""
""fullscreenexit"",""68"",""493970""
","null","<p></p>","null","","","","","","","","","","","","","","","","","","","","","","",""
"","do_trial","164","808609","0.0-92.0-0.0","""event"",""trial"",""time""
""fullscreenenter"",""0"",""6635""
""fullscreenexit"",""68"",""493970""
""blur"",""156"",""779341""
""focus"",""158"",""784368""
""blur"",""158"",""788995""
""focus"",""159"",""789335""
""blur"",""164"",""805091""
""focus"",""164"",""807883""
","""event"",""trial"",""time""
""blur"",""156"",""779341""
""blur"",""158"",""788995""
""blur"",""164"",""805091""
","""event"",""trial"",""time""
""focus"",""158"",""784368""
""focus"",""159"",""789335""
""focus"",""164"",""807883""
","""event"",""trial"",""time""
""fullscreenenter"",""0"",""6635""
","""event"",""trial"",""time""
""fullscreenexit"",""68"",""493970""
","431.8999999985099","","","","","","","","51","0,0,0","1","coast","36","probe-170","0.673078566808721","0.37659983158137567","0.1846169032190392","0","","","","","","","",""
"","html-keyboard-response","165","812215","0.0-92.0-1.0","""event"",""trial"",""time""
""fullscreenenter"",""0"",""6635""
""fullscreenexit"",""68"",""493970""
""blur"",""156"",""779341""
""focus"",""158"",""784368""
""blur"",""158"",""788995""
""focus"",""159"",""789335""
""blur"",""164"",""805091""
""focus"",""164"",""807883""
","""event"",""trial"",""time""
""blur"",""156"",""779341""
""blur"",""158"",""788995""
""blur"",""164"",""805091""
","""event"",""trial"",""time""
""focus"",""158"",""784368""
""focus"",""159"",""789335""
""focus"",""164"",""807883""
","""event"",""trial"",""time""
""fullscreenenter"",""0"",""6635""
","""event"",""trial"",""time""
""fullscreenexit"",""68"",""493970""
","null","<p></p>","null","","","","","","","","","","","","","","","","","","","","","","",""
"","do_trial","166","817407","0.0-93.0-0.0","""event"",""trial"",""time""
""fullscreenenter"",""0"",""6635""
""fullscreenexit"",""68"",""493970""
""blur"",""156"",""779341""
""focus"",""158"",""784368""
""blur"",""158"",""788995""
""focus"",""159"",""789335""
""blur"",""164"",""805091""
""focus"",""164"",""807883""
","""event"",""trial"",""time""
""blur"",""156"",""779341""
""blur"",""158"",""788995""
""blur"",""164"",""805091""
","""event"",""trial"",""time""
""focus"",""158"",""784368""
""focus"",""159"",""789335""
""focus"",""164"",""807883""
","""event"",""trial"",""time""
""fullscreenenter"",""0"",""6635""
","""event"",""trial"",""time""
""fullscreenexit"",""68"",""493970""
","600.3000000007451","","","","","","","","51","0,0,0","1","coast","37","probe-43","0.5833347021254309","0.32814624864984804","0.13096309006732335","0","","","","","","","",""
"","html-keyboard-response","167","818409","0.0-93.0-1.0","""event"",""trial"",""time""
""fullscreenenter"",""0"",""6635""
""fullscreenexit"",""68"",""493970""
""blur"",""156"",""779341""
""focus"",""158"",""784368""
""blur"",""158"",""788995""
""focus"",""159"",""789335""
""blur"",""164"",""805091""
""focus"",""164"",""807883""
","""event"",""trial"",""time""
""blur"",""156"",""779341""
""blur"",""158"",""788995""
""blur"",""164"",""805091""
","""event"",""trial"",""time""
""focus"",""158"",""784368""
""focus"",""159"",""789335""
""focus"",""164"",""807883""
","""event"",""trial"",""time""
""fullscreenenter"",""0"",""6635""
","""event"",""trial"",""time""
""fullscreenexit"",""68"",""493970""
","null","<p></p>","null","","","","","","","","","","","","","","","","","","","","","","",""
"","do_trial","168","824041","0.0-94.0-0.0","""event"",""trial"",""time""
""fullscreenenter"",""0"",""6635""
""fullscreenexit"",""68"",""493970""
""blur"",""156"",""779341""
""focus"",""158"",""784368""
""blur"",""158"",""788995""
""focus"",""159"",""789335""
""blur"",""164"",""805091""
""focus"",""164"",""807883""
","""event"",""trial"",""time""
""blur"",""156"",""779341""
""blur"",""158"",""788995""
""blur"",""164"",""805091""
","""event"",""trial"",""time""
""focus"",""158"",""784368""
""focus"",""159"",""789335""
""focus"",""164"",""807883""
","""event"",""trial"",""time""
""fullscreenenter"",""0"",""6635""
","""event"",""trial"",""time""
""fullscreenexit"",""68"",""493970""
","1056.1000000014901","","","","","","","","51","1,0,0","1","coast","38","probe-91","0.5812337262944977","0.3777791600925168","0.10979038988909468","0","","","","","","","",""
"","html-keyboard-response","169","825044","0.0-94.0-1.0","""event"",""trial"",""time""
""fullscreenenter"",""0"",""6635""
""fullscreenexit"",""68"",""493970""
""blur"",""156"",""779341""
""focus"",""158"",""784368""
""blur"",""158"",""788995""
""focus"",""159"",""789335""
""blur"",""164"",""805091""
""focus"",""164"",""807883""
""blur"",""170"",""827406""
""focus"",""170"",""828993""
","""event"",""trial"",""time""
""blur"",""156"",""779341""
""blur"",""158"",""788995""
""blur"",""164"",""805091""
""blur"",""170"",""827406""
","""event"",""trial"",""time""
""focus"",""158"",""784368""
""focus"",""159"",""789335""
""focus"",""164"",""807883""
""focus"",""170"",""828993""
","""event"",""trial"",""time""
""fullscreenenter"",""0"",""6635""
","""event"",""trial"",""time""
""fullscreenexit"",""68"",""493970""
","null","<p></p>","null","","","","","","","","","","","","","","","","","","","","","","",""
"","do_trial","170","833074","0.0-95.0-0.0","""event"",""trial"",""time""
""fullscreenenter"",""0"",""6635""
""fullscreenexit"",""68"",""493970""
""blur"",""156"",""779341""
""focus"",""158"",""784368""
""blur"",""158"",""788995""
""focus"",""159"",""789335""
""blur"",""164"",""805091""
""focus"",""164"",""807883""
""blur"",""170"",""827406""
""focus"",""170"",""828993""
","""event"",""trial"",""time""
""blur"",""156"",""779341""
""blur"",""158"",""788995""
""blur"",""164"",""805091""
""blur"",""170"",""827406""
","""event"",""trial"",""time""
""focus"",""158"",""784368""
""focus"",""159"",""789335""
""focus"",""164"",""807883""
""focus"",""170"",""828993""
","""event"",""trial"",""time""
""fullscreenenter"",""0"",""6635""
","""event"",""trial"",""time""
""fullscreenexit"",""68"",""493970""
","1123.0999999977648","","","","","","","","51","0,0,0","1","coast","39","probe-63","0.48921775442884124","0.34243208692656013","0.15987944931818857","0","","","","","","","",""
"","html-keyboard-response","171","834078","0.0-95.0-1.0","""event"",""trial"",""time""
""fullscreenenter"",""0"",""6635""
""fullscreenexit"",""68"",""493970""
""blur"",""156"",""779341""
""focus"",""158"",""784368""
""blur"",""158"",""788995""
""focus"",""159"",""789335""
""blur"",""164"",""805091""
""focus"",""164"",""807883""
""blur"",""170"",""827406""
""focus"",""170"",""828993""
""blur"",""172"",""836081""
""focus"",""172"",""837892""
","""event"",""trial"",""time""
""blur"",""156"",""779341""
""blur"",""158"",""788995""
""blur"",""164"",""805091""
""blur"",""170"",""827406""
""blur"",""172"",""836081""
","""event"",""trial"",""time""
""focus"",""158"",""784368""
""focus"",""159"",""789335""
""focus"",""164"",""807883""
""focus"",""170"",""828993""
""focus"",""172"",""837892""
","""event"",""trial"",""time""
""fullscreenenter"",""0"",""6635""
","""event"",""trial"",""time""
""fullscreenexit"",""68"",""493970""
","null","<p></p>","null","","","","","","","","","","","","","","","","","","","","","","",""
"","do_trial","172","841585","0.0-96.0-0.0","""event"",""trial"",""time""
""fullscreenenter"",""0"",""6635""
""fullscreenexit"",""68"",""493970""
""blur"",""156"",""779341""
""focus"",""158"",""784368""
""blur"",""158"",""788995""
""focus"",""159"",""789335""
""blur"",""164"",""805091""
""focus"",""164"",""807883""
""blur"",""170"",""827406""
""focus"",""170"",""828993""
""blur"",""172"",""836081""
""focus"",""172"",""837892""
","""event"",""trial"",""time""
""blur"",""156"",""779341""
""blur"",""158"",""788995""
""blur"",""164"",""805091""
""blur"",""170"",""827406""
""blur"",""172"",""836081""
","""event"",""trial"",""time""
""focus"",""158"",""784368""
""focus"",""159"",""789335""
""focus"",""164"",""807883""
""focus"",""170"",""828993""
""focus"",""172"",""837892""
","""event"",""trial"",""time""
""fullscreenenter"",""0"",""6635""
","""event"",""trial"",""time""
""fullscreenexit"",""68"",""493970""
","535.8000000007451","","","","","","","","51","1,0,0","1","coast","40","probe-70","0.5149840288969563","0.44239502813927967","0.05283282740220019","0","","","","","","","",""
"","html-keyboard-response","173","842587","0.0-96.0-1.0","""event"",""trial"",""time""
""fullscreenenter"",""0"",""6635""
""fullscreenexit"",""68"",""493970""
""blur"",""156"",""779341""
""focus"",""158"",""784368""
""blur"",""158"",""788995""
""focus"",""159"",""789335""
""blur"",""164"",""805091""
""focus"",""164"",""807883""
""blur"",""170"",""827406""
""focus"",""170"",""828993""
""blur"",""172"",""836081""
""focus"",""172"",""837892""
","""event"",""trial"",""time""
""blur"",""156"",""779341""
""blur"",""158"",""788995""
""blur"",""164"",""805091""
""blur"",""170"",""827406""
""blur"",""172"",""836081""
","""event"",""trial"",""time""
""focus"",""158"",""784368""
""focus"",""159"",""789335""
""focus"",""164"",""807883""
""focus"",""170"",""828993""
""focus"",""172"",""837892""
","""event"",""trial"",""time""
""fullscreenenter"",""0"",""6635""
","""event"",""trial"",""time""
""fullscreenexit"",""68"",""493970""
","null","<p></p>","null","","","","","","","","","","","","","","","","","","","","","","",""
"","do_trial","174","847163","0.0-97.0-0.0","""event"",""trial"",""time""
""fullscreenenter"",""0"",""6635""
""fullscreenexit"",""68"",""493970""
""blur"",""156"",""779341""
""focus"",""158"",""784368""
""blur"",""158"",""788995""
""focus"",""159"",""789335""
""blur"",""164"",""805091""
""focus"",""164"",""807883""
""blur"",""170"",""827406""
""focus"",""170"",""828993""
""blur"",""172"",""836081""
""focus"",""172"",""837892""
","""event"",""trial"",""time""
""blur"",""156"",""779341""
""blur"",""158"",""788995""
""blur"",""164"",""805091""
""blur"",""170"",""827406""
""blur"",""172"",""836081""
","""event"",""trial"",""time""
""focus"",""158"",""784368""
""focus"",""159"",""789335""
""focus"",""164"",""807883""
""focus"",""170"",""828993""
""focus"",""172"",""837892""
","""event"",""trial"",""time""
""fullscreenenter"",""0"",""6635""
","""event"",""trial"",""time""
""fullscreenexit"",""68"",""493970""
","0.4000000022351742","","","","","","","","51","1,1,0","1","coast","41","probe-175","0.4735018129218234","0.3740175467196162","0.1409210887916524","0","","","","","","","",""
"","html-keyboard-response","175","848166","0.0-97.0-1.0","""event"",""trial"",""time""
""fullscreenenter"",""0"",""6635""
""fullscreenexit"",""68"",""493970""
""blur"",""156"",""779341""
""focus"",""158"",""784368""
""blur"",""158"",""788995""
""focus"",""159"",""789335""
""blur"",""164"",""805091""
""focus"",""164"",""807883""
""blur"",""170"",""827406""
""focus"",""170"",""828993""
""blur"",""172"",""836081""
""focus"",""172"",""837892""
","""event"",""trial"",""time""
""blur"",""156"",""779341""
""blur"",""158"",""788995""
""blur"",""164"",""805091""
""blur"",""170"",""827406""
""blur"",""172"",""836081""
","""event"",""trial"",""time""
""focus"",""158"",""784368""
""focus"",""159"",""789335""
""focus"",""164"",""807883""
""focus"",""170"",""828993""
""focus"",""172"",""837892""
","""event"",""trial"",""time""
""fullscreenenter"",""0"",""6635""
","""event"",""trial"",""time""
""fullscreenexit"",""68"",""493970""
","null","<p></p>","null","","","","","","","","","","","","","","","","","","","","","","",""
"","do_trial","176","853303","0.0-98.0-0.0","""event"",""trial"",""time""
""fullscreenenter"",""0"",""6635""
""fullscreenexit"",""68"",""493970""
""blur"",""156"",""779341""
""focus"",""158"",""784368""
""blur"",""158"",""788995""
""focus"",""159"",""789335""
""blur"",""164"",""805091""
""focus"",""164"",""807883""
""blur"",""170"",""827406""
""focus"",""170"",""828993""
""blur"",""172"",""836081""
""focus"",""172"",""837892""
","""event"",""trial"",""time""
""blur"",""156"",""779341""
""blur"",""158"",""788995""
""blur"",""164"",""805091""
""blur"",""170"",""827406""
""blur"",""172"",""836081""
","""event"",""trial"",""time""
""focus"",""158"",""784368""
""focus"",""159"",""789335""
""focus"",""164"",""807883""
""focus"",""170"",""828993""
""focus"",""172"",""837892""
","""event"",""trial"",""time""
""fullscreenenter"",""0"",""6635""
","""event"",""trial"",""time""
""fullscreenexit"",""68"",""493970""
","556.8000000007451","","","","","","","","51","0,0,0","1","coast","42","probe-226","0.3509866763609687","0.5461769431723493","0.21001466690783976","0","","","","","","","",""
"","html-keyboard-response","177","854305","0.0-98.0-1.0","""event"",""trial"",""time""
""fullscreenenter"",""0"",""6635""
""fullscreenexit"",""68"",""493970""
""blur"",""156"",""779341""
""focus"",""158"",""784368""
""blur"",""158"",""788995""
""focus"",""159"",""789335""
""blur"",""164"",""805091""
""focus"",""164"",""807883""
""blur"",""170"",""827406""
""focus"",""170"",""828993""
""blur"",""172"",""836081""
""focus"",""172"",""837892""
","""event"",""trial"",""time""
""blur"",""156"",""779341""
""blur"",""158"",""788995""
""blur"",""164"",""805091""
""blur"",""170"",""827406""
""blur"",""172"",""836081""
","""event"",""trial"",""time""
""focus"",""158"",""784368""
""focus"",""159"",""789335""
""focus"",""164"",""807883""
""focus"",""170"",""828993""
""focus"",""172"",""837892""
","""event"",""trial"",""time""
""fullscreenenter"",""0"",""6635""
","""event"",""trial"",""time""
""fullscreenexit"",""68"",""493970""
","null","<p></p>","null","","","","","","","","","","","","","","","","","","","","","","",""
"","do_trial","178","859830","0.0-99.0-0.0","""event"",""trial"",""time""
""fullscreenenter"",""0"",""6635""
""fullscreenexit"",""68"",""493970""
""blur"",""156"",""779341""
""focus"",""158"",""784368""
""blur"",""158"",""788995""
""focus"",""159"",""789335""
""blur"",""164"",""805091""
""focus"",""164"",""807883""
""blur"",""170"",""827406""
""focus"",""170"",""828993""
""blur"",""172"",""836081""
""focus"",""172"",""837892""
","""event"",""trial"",""time""
""blur"",""156"",""779341""
""blur"",""158"",""788995""
""blur"",""164"",""805091""
""blur"",""170"",""827406""
""blur"",""172"",""836081""
","""event"",""trial"",""time""
""focus"",""158"",""784368""
""focus"",""159"",""789335""
""focus"",""164"",""807883""
""focus"",""170"",""828993""
""focus"",""172"",""837892""
","""event"",""trial"",""time""
""fullscreenenter"",""0"",""6635""
","""event"",""trial"",""time""
""fullscreenexit"",""68"",""493970""
","949.5","","","","","","","","51","0,0,0","1","coast","43","probe-225","0.37136199035780304","0.5426386645635957","0.20684404384441826","0","","","","","","","",""
"","html-keyboard-response","179","860833","0.0-99.0-1.0","""event"",""trial"",""time""
""fullscreenenter"",""0"",""6635""
""fullscreenexit"",""68"",""493970""
""blur"",""156"",""779341""
""focus"",""158"",""784368""
""blur"",""158"",""788995""
""focus"",""159"",""789335""
""blur"",""164"",""805091""
""focus"",""164"",""807883""
""blur"",""170"",""827406""
""focus"",""170"",""828993""
""blur"",""172"",""836081""
""focus"",""172"",""837892""
","""event"",""trial"",""time""
""blur"",""156"",""779341""
""blur"",""158"",""788995""
""blur"",""164"",""805091""
""blur"",""170"",""827406""
""blur"",""172"",""836081""
","""event"",""trial"",""time""
""focus"",""158"",""784368""
""focus"",""159"",""789335""
""focus"",""164"",""807883""
""focus"",""170"",""828993""
""focus"",""172"",""837892""
","""event"",""trial"",""time""
""fullscreenenter"",""0"",""6635""
","""event"",""trial"",""time""
""fullscreenexit"",""68"",""493970""
","null","<p></p>","null","","","","","","","","","","","","","","","","","","","","","","",""
"","do_trial","180","866199","0.0-100.0-0.0","""event"",""trial"",""time""
""fullscreenenter"",""0"",""6635""
""fullscreenexit"",""68"",""493970""
""blur"",""156"",""779341""
""focus"",""158"",""784368""
""blur"",""158"",""788995""
""focus"",""159"",""789335""
""blur"",""164"",""805091""
""focus"",""164"",""807883""
""blur"",""170"",""827406""
""focus"",""170"",""828993""
""blur"",""172"",""836081""
""focus"",""172"",""837892""
","""event"",""trial"",""time""
""blur"",""156"",""779341""
""blur"",""158"",""788995""
""blur"",""164"",""805091""
""blur"",""170"",""827406""
""blur"",""172"",""836081""
","""event"",""trial"",""time""
""focus"",""158"",""784368""
""focus"",""159"",""789335""
""focus"",""164"",""807883""
""focus"",""170"",""828993""
""focus"",""172"",""837892""
","""event"",""trial"",""time""
""fullscreenenter"",""0"",""6635""
","""event"",""trial"",""time""
""fullscreenexit"",""68"",""493970""
","790.5","","","","","","","","51","0,0,0","1","coast","44","probe-147","0.34070711290100486","0.5495992713832563","0.12380146210317865","0","","","","","","","",""
"","html-keyboard-response","181","867202","0.0-100.0-1.0","""event"",""trial"",""time""
""fullscreenenter"",""0"",""6635""
""fullscreenexit"",""68"",""493970""
""blur"",""156"",""779341""
""focus"",""158"",""784368""
""blur"",""158"",""788995""
""focus"",""159"",""789335""
""blur"",""164"",""805091""
""focus"",""164"",""807883""
""blur"",""170"",""827406""
""focus"",""170"",""828993""
""blur"",""172"",""836081""
""focus"",""172"",""837892""
","""event"",""trial"",""time""
""blur"",""156"",""779341""
""blur"",""158"",""788995""
""blur"",""164"",""805091""
""blur"",""170"",""827406""
""blur"",""172"",""836081""
","""event"",""trial"",""time""
""focus"",""158"",""784368""
""focus"",""159"",""789335""
""focus"",""164"",""807883""
""focus"",""170"",""828993""
""focus"",""172"",""837892""
","""event"",""trial"",""time""
""fullscreenenter"",""0"",""6635""
","""event"",""trial"",""time""
""fullscreenexit"",""68"",""493970""
","null","<p></p>","null","","","","","","","","","","","","","","","","","","","","","","",""
"","do_trial","182","872102","0.0-101.0-0.0","""event"",""trial"",""time""
""fullscreenenter"",""0"",""6635""
""fullscreenexit"",""68"",""493970""
""blur"",""156"",""779341""
""focus"",""158"",""784368""
""blur"",""158"",""788995""
""focus"",""159"",""789335""
""blur"",""164"",""805091""
""focus"",""164"",""807883""
""blur"",""170"",""827406""
""focus"",""170"",""828993""
""blur"",""172"",""836081""
""focus"",""172"",""837892""
","""event"",""trial"",""time""
""blur"",""156"",""779341""
""blur"",""158"",""788995""
""blur"",""164"",""805091""
""blur"",""170"",""827406""
""blur"",""172"",""836081""
","""event"",""trial"",""time""
""focus"",""158"",""784368""
""focus"",""159"",""789335""
""focus"",""164"",""807883""
""focus"",""170"",""828993""
""focus"",""172"",""837892""
","""event"",""trial"",""time""
""fullscreenenter"",""0"",""6635""
","""event"",""trial"",""time""
""fullscreenexit"",""68"",""493970""
","325.80000000074506","","","","","","","","51","0,0,0","1","coast","45","probe-163","0.31202184198123684","0.470803398270009","0.16941602550337634","0","","","","","","","",""
"","html-keyboard-response","183","873105","0.0-101.0-1.0","""event"",""trial"",""time""
""fullscreenenter"",""0"",""6635""
""fullscreenexit"",""68"",""493970""
""blur"",""156"",""779341""
""focus"",""158"",""784368""
""blur"",""158"",""788995""
""focus"",""159"",""789335""
""blur"",""164"",""805091""
""focus"",""164"",""807883""
""blur"",""170"",""827406""
""focus"",""170"",""828993""
""blur"",""172"",""836081""
""focus"",""172"",""837892""
","""event"",""trial"",""time""
""blur"",""156"",""779341""
""blur"",""158"",""788995""
""blur"",""164"",""805091""
""blur"",""170"",""827406""
""blur"",""172"",""836081""
","""event"",""trial"",""time""
""focus"",""158"",""784368""
""focus"",""159"",""789335""
""focus"",""164"",""807883""
""focus"",""170"",""828993""
""focus"",""172"",""837892""
","""event"",""trial"",""time""
""fullscreenenter"",""0"",""6635""
","""event"",""trial"",""time""
""fullscreenexit"",""68"",""493970""
","null","<p></p>","null","","","","","","","","","","","","","","","","","","","","","","",""
"","do_trial","184","878072","0.0-102.0-0.0","""event"",""trial"",""time""
""fullscreenenter"",""0"",""6635""
""fullscreenexit"",""68"",""493970""
""blur"",""156"",""779341""
""focus"",""158"",""784368""
""blur"",""158"",""788995""
""focus"",""159"",""789335""
