"success","trial_type","trial_index","time_elapsed","internal_node_id","rt","stimulus","key_press","subject_id","response","choice_outcomes","context_n","context_img_id","trial_n","probe_img_id","pR_red","pR_white","pR_black","outcome","contextArray_ind","validImageProbes","invalidImageProbes","pRew_Red","pRew_White","pRew_Black","availableForMemProbe","choice_blocks"
"true","fullscreen","0","4342","0.0-0.0","","","","","","","","","","","","","","","","","","","","","",""
"","pavlovia","1","4349","0.0-1.0","","","","","","","","","","","","","","","","","","","","","",""
"","html-keyboard-response","2","22214","0.0-2.0","17863","<div class='center'><p>Welcome! This is the first day of the experiment which will last ~30 minutes. In this experiment, you are the head captain of a pirate ship traveling around the world to different places. You will complete several different tasks during this experiment. Here is an overview of these tasks:</p><br><p>Day 1</p><p>1. Tutorial and quiz</p><p>2. Pick a pirate game in 6 different places</p><br><p>Day 2</p><p>3. Pick a pirate game and memory game</p><p>4. Final questions and payment</p><br><p>If you complete the entire experiment, you will receive $15 and a possible bonus payment.</p><p><b>[Press the space bar to begin the tutorial]</b></p></div>","32","60fdf1664071aecd0640f850","","","","","","","","","","","","","","","","","",""
"","html-keyboard-response","3","30204","0.0-3.0","7988","<div class='center'><p>You are the head captain of a pirate ship.</p><p> Your pirates rob other ships as they leave the marketplace port.</p> These ships have just sold all their goods at the marketplace, so they have lots and lots of gold on them.</p><p><img src='run_exp/static/images/ship_center.png' height='400'></p><p><b>[Press the space bar to continue]</b></p></div>","32","","","","","","","","","","","","","","","","","","",""
"","html-keyboard-response","4","42829","0.0-4.0","12624","<div class='center'><p>As the head captain, you do not have to rob any ships yourself.</p><p>You get to choose which pirate you want to rob the next ship. </p><p>If they are successful at robbing the ship, then you will get gold coins.</p><p> If they are not successful, then you will get no gold coins.</p><p> The more coins you collect, the more bonus money you will win. So, choose your pirate wisely.</p><p><img src='run_exp/static/images/goal.png' height='400'></p><p><b>[Press the space bar to continue]</b></p><div>","32","","","","","","","","","","","","","","","","","","",""
"","html-keyboard-response","5","56685","0.0-5.0","13855","<div class='center'><p>Even the most skilled pirate will not be able to rob EVERY ship.</p><p> Some ships will have very strong defenses against attacks.</p><p> For example, blue beard, here,  is very good at robbing ships.</p><p> You can press the <b>‘1’</b> button on the keyboard to choose him.</p><p> Try choosing him 10 times to see how often he is successful at robbing ships. </p><p><img src='run_exp/static/images/blue.png' height='500'></p></div>","49","","","","","","","","","","","","","","","","","","",""
"","html-keyboard-response","6","58191","0.0-6.0","null","<br><br><br><br><p><img src='run_exp/static/images/blue_win.png' height='500'></p>","null","","","","","","","","","","","","","","","","","","",""
"","html-keyboard-response","7","60465","0.0-7.0","2271.9999999999927","<br><br><br><br><p><img src='run_exp/static/images/blue.png' height='500'></p>","49","","","","","","","","","","","","","","","","","","",""
"","html-keyboard-response","8","61970","0.0-8.0","null","<br><br><br><br><p><img src='run_exp/static/images/blue_win.png' height='500'></p>","null","","","","","","","","","","","","","","","","","","",""
"","html-keyboard-response","9","62752","0.0-9.0","779.9999999999854","<br><br><br><br><p><img src='run_exp/static/images/blue.png' height='500'></p>","49","","","","","","","","","","","","","","","","","","",""
"","html-keyboard-response","10","64256","0.0-10.0","null","<br><br><br><br><p><img src='run_exp/static/images/blue_win.png' height='500'></p>","null","","","","","","","","","","","","","","","","","","",""
"","html-keyboard-response","11","65038","0.0-11.0","780","<br><br><br><br><p><img src='run_exp/static/images/blue.png' height='500'></p>","49","","","","","","","","","","","","","","","","","","",""
"","html-keyboard-response","12","66542","0.0-12.0","null","<br><br><br><br><p><img src='run_exp/static/images/blue_no_win.png' height='500'></p>","null","","","","","","","","","","","","","","","","","","",""
"","html-keyboard-response","13","67939","0.0-13.0","1395","<br><br><br><br><p><img src='run_exp/static/images/blue.png' height='500'></p>","49","","","","","","","","","","","","","","","","","","",""
"","html-keyboard-response","14","69444","0.0-14.0","null","<br><br><br><br><p><img src='run_exp/static/images/blue_win.png' height='500'></p>","null","","","","","","","","","","","","","","","","","","",""
"","html-keyboard-response","15","70139","0.0-15.0","693","<br><br><br><br><p><img src='run_exp/static/images/blue.png' height='500'></p>","49","","","","","","","","","","","","","","","","","","",""
"","html-keyboard-response","16","71641","0.0-16.0","null","<br><br><br><br><p><img src='run_exp/static/images/blue_win.png' height='500'></p>","null","","","","","","","","","","","","","","","","","","",""
"","html-keyboard-response","17","72654","0.0-17.0","1012","<br><br><br><br><p><img src='run_exp/static/images/blue.png' height='500'></p>","49","","","","","","","","","","","","","","","","","","",""
"","html-keyboard-response","18","74157","0.0-18.0","null","<br><br><br><br><p><img src='run_exp/static/images/blue_win.png' height='500'></p>","null","","","","","","","","","","","","","","","","","","",""
"","html-keyboard-response","19","74580","0.0-19.0","422","<br><br><br><br><p><img src='run_exp/static/images/blue.png' height='500'></p>","49","","","","","","","","","","","","","","","","","","",""
"","html-keyboard-response","20","76085","0.0-20.0","null","<br><br><br><br><p><img src='run_exp/static/images/blue_no_win.png' height='500'></p>","null","","","","","","","","","","","","","","","","","","",""
"","html-keyboard-response","21","76976","0.0-21.0","889","<br><br><br><br><p><img src='run_exp/static/images/blue.png' height='500'></p>","49","","","","","","","","","","","","","","","","","","",""
"","html-keyboard-response","22","78480","0.0-22.0","null","<br><br><br><br><p><img src='run_exp/static/images/blue_win.png' height='500'></p>","null","","","","","","","","","","","","","","","","","","",""
"","html-keyboard-response","23","79195","0.0-23.0","713","<br><br><br><br><p><img src='run_exp/static/images/blue.png' height='500'></p>","49","","","","","","","","","","","","","","","","","","",""
"","html-keyboard-response","24","80700","0.0-24.0","null","<br><br><br><br><p><img src='run_exp/static/images/blue_win.png' height='500'></p>","null","","","","","","","","","","","","","","","","","","",""
"","html-keyboard-response","25","84316","0.0-25.0","3615","<div class='center'><p> See, he was successful at robbing the ships most of the time but not every time. </p><p><b>[Press the space bar to continue]</b></p></div>","32","","","","","","","","","","","","","","","","","","",""
"","html-keyboard-response","26","99598","0.0-26.0","15279","<div class='center'><p>In the game, you will get to choose which of three pirates you want to rob the next ship. <p>Press the <b>‘1’</b> button on your keyboard to pick the pirate with the red beard.</p><p> Press <b>‘2’</b> to pick the pirate with the white beard.</p><p> Press <b>‘3’</b> to pick the pirate with the black beard.</p><p>Try picking a pirate now!</p><p><img src='run_exp/static/images/all_pirates.png' height='500'></p></div>","50","","","","","","","","","","","","","","","","","","",""
"","html-keyboard-response","27","103914","0.0-27.0-0.0","4313","<div class='center'><p>This pirate was successful at robbing the ship!</p><p><img src='run_exp/static/images/white_win.png' height='500'></p><p><b>[Press the space bar to continue]</b></p></div>","32","","","","","","","","","","","","","","","","","","",""
"","html-keyboard-response","28","108130","0.0-27.0-1.0","4214.000000000015","<div class='center'><p>Now try choosing another</p><p><img src='run_exp/static/images/all_pirates.png' height='500'></p></div>","49","","","","","","","","","","","","","","","","","","",""
"","html-keyboard-response","29","111222","0.0-28.0-0.0","3089.9999999999854","<div class='center'><p>This pirate was not successful at robbing the ship!</p><p><img src='run_exp/static/images/red_no_win.png' height='500'></p><p><b>[Press the space bar to continue]</b></p></div>","32","","","","","","","","","","","","","","","","","","",""
"","html-keyboard-response","30","116528","0.0-29.0-0.0","5303.999999999985","<div class='center'><p>You’ll stop at these 6 places on your journey.</p><p><img src='run_exp/static/images/all_contexts.png' height='500'></p><p><b>[Press the space bar to continue]</b></p></div>","32","","","","","","","","","","","","","","","","","","",""
"","html-keyboard-response","31","123635","0.0-29.0-1.0","7106.000000000015","<div class='center'><p>How good a pirate is at robbing ships will depend on the current place.</p><p> Some pirates will have been to the place before, and will have more experience robbing ships there.</p><p>So, they will be more successful at stealing gold and bringing it back to you.</p><p><b>[Press the space bar to continue]</b></p></div>","32","","","","","","","","","","","","","","","","","","",""
"","html-keyboard-response","32","134338","0.0-29.0-2.0","10701","<div class='center'><p>How successful a pirate is at robbing ships can also change in a place.<p> Ships may hear about the pirates coming and will improve their defenses. This may make it more difficult to rob them.</p><p> Ships may also grow lazy and lower their defenses. This may make it easier to rob them.</p><br><p>Things are always changing on the high seas! So, try your best to pay attention!</p><p><img src='run_exp/static/images/contingency.png' height='500'></p><p><b>[Press the space bar to continue]</b></p></div>","32","","","","","","","","","","","","","","","","","","",""
"","html-keyboard-response","33","157787","0.0-29.0-3.0","23446","<div class='center'><p>Once you choose a pirate to rob a ship, you’ll be shown the ship they are robbing.</p><p>The ship will have a picture of the item they sold at the marketplace.</p><p> Try your best to remember the ship and where you saw the ship.</p><p> You’ll have to remember this for later, and remembering this correctly will help you win more bonus money!</p><p>You can remember the ship by remembering the item they sold at the marketplace</p><p>A helpful strategy is to try to come up with a story of the chosen pirate and ship’s item interacting with the scene.</p><p> For example, a ship might have sold travel mugs and you could imagine red beard walking through the city with a travel mug. </p><p>Or imagine an apple falling from a tree into white beard's hands in the forest.</p><p><img src='run_exp/static/images/example_probe.png' height='500'></p><p><b>[Press the space bar to continue]</b></p></div>","32","","","","","","","","","","","","","","","","","","",""
"","html-keyboard-response","34","160943","0.0-29.0-4.0","3154","<div class='center'><p>If you don’t make your choice fast enough, you’ll have to wait a few seconds before you can make another one. </p><p>You can’t win more gold. You just have to sit and wait.</p><p><img src='run_exp/static/images/hurry_up.png' height='500'></p><p><b>[Press the space bar to continue]</b></p></div>","32","","","","","","","","","","","","","","","","","","",""
"","html-keyboard-response","35","167859","0.0-29.0-5.0","6914","<div class='center'><p>Again, you have two important things to do: </p><b><p> 1. Pick the pirate who you think will be most successful at robbing the next ship.</p></b><b><p> 2. Remember where a pirate robbed a ship.</p> </b><p>Both are important in determining how much bonus money you’ll win.</p><br><p>Let’s try a practice game. The game will start by showing you the pirates. First pick a pirate using the <b> 1, 2, 3 </b> buttons on your keyboard. When you are shown a ship, try to remember the place you’re in by making up a story.</p><p> You only have 3 seconds to pick a pirate, so please make a choice quickly! If you are too slow, you’ll have to wait a bit during the time out.</p><p> Don’t feel rushed, but please do try to make a choice every time.</p><p>How good a pirate is at robbing a ship will change depending on the place they are in and how good the defenses are of the ship.</p> <p>This is just a practice game, so you’re not playing for money. </p><p>You’ll receive a bag which may or may not contain gold coins.</p><p> In the real game, though, you’ll be able to see whether or not you received the gold coins.</p><p> Good luck, remember press <b>'1'</b> to choose red beard, <b>'2'</b> to choose white beard, and <b>'3'</b> to choose black beard</p><p><b>[Press the space bar to begin the practice game]</b></p></div>","32","","","","","","","","","","","","","","","","","","",""
"","do_trial_prac","36","173870","0.0-29.0-6.0","null","","","","null","","","","","","","","","","","","","","","","",""
"","do_trial_prac","37","178929","0.0-29.0-7.0","546","","","","50","","","","","","","","","","","","","","","","",""
"","do_trial_prac","38","185788","0.0-29.0-8.0","2350","","","","51","","","","","","","","","","","","","","","","",""
"","do_trial_prac","39","191657","0.0-29.0-9.0","1357","","","","49","","","","","","","","","","","","","","","","",""
"","do_trial_prac","40","197640","0.0-29.0-10.0","1476","","","","50","","","","","","","","","","","","","","","","",""
"","html-keyboard-response","41","203309","0.0-29.0-11.0","5667","<div class='center'><p>Great job on the practice game!</p><p> Now, you will be asked you some true or false questions to make sure you really understand the rules of the game.</p><p> Press <b>'1'</b> on the keyboard for true and press <b>'2'</b> for false.</p><p><b>[Press the space bar to begin the quiz]</b></p></div>","32","","","","","","","","","","","","","","","","","","",""
"","html-keyboard-response","42","209174","0.0-29.0-12.0","5863","<div class='center'><p>You win bonus money by making choices as fast as possible.</p><p>Press 1 for true and press  2 for false.</p></div>","50","","","","","","","","","","","","","","","","","","",""
"","html-keyboard-response","43","210669","0.0-30.0-0.0","1493","<br><br><br><br><p>That's correct!</p> <p><b>[press the space bar to continue with the quiz]</b></p>","32","","","","","","","","","","","","","","","","","","",""
"","html-keyboard-response","44","215298","0.0-30.0-1.0","4628","<div class='center'><p>You press the <b>‘3’</b> button on the keyboard to choose the red bearded pirate? </p><p>Press 1 for true and press  2 for false.</p></div>","50","","","","","","","","","","","","","","","","","","",""
"","html-keyboard-response","45","216218","0.0-31.0-0.0","919.0000000000291","<br><br><br><br><p>That's correct!</p> <p><b>[press the space bar to continue with the quiz]</b></p>","32","","","","","","","","","","","","","","","","","","",""
"","html-keyboard-response","46","218627","0.0-31.0-1.0","2407","<div class='center'><p>A pirate will always be equally successful at robbing ships in each place</p><p>Press 1 for true and press  2 for false.</p></div>","50","","","","","","","","","","","","","","","","","","",""
"","html-keyboard-response","47","219418","0.0-32.0-0.0","789","<br><br><br><br><p>That's correct!</p> <p><b>[press the space bar to continue with the quiz]</b></p>","32","","","","","","","","","","","","","","","","","","",""
"","html-keyboard-response","48","222305","0.0-32.0-1.0","2885","<div class='center'><p>You should remember the place where a pirate robbed a ship.</p><p>Press 1 for true and press  2 for false.</p></div>","49","","","","","","","","","","","","","","","","","","",""
"","html-keyboard-response","49","223050","0.0-33.0-0.0","735","<br><br><br><br><p>That's correct!</p> <p><b>[press the space bar to continue with the quiz]</b></p>","32","","","","","","","","","","","","","","","","","","",""
"","html-keyboard-response","50","225643","0.0-34.0-0.0","2590.999999999971","<br><br><br><br><p>Good job! You’re now ready to move on to the real game!</p> <p><br>[press the space bar to begin!]</br></p>","32","","","","","","","","","","","","","","","","","","",""
"","do_welcome","51","227152","0.0-35.0-0.0","null","","","","null","","","","","","","","","","","","","","","","",""
"","do_trial","52","233319","0.0-36.0-0.0","1612","","","","50","1,1,0","0","coast","0","probe-45","1","0.4","0.1","1","","","","","","","",""
"","do_trial","53","239012","0.0-37.0-0.0","1154","","","","49","1,1,0","0","coast","1","probe-233","1","0.34329287736996655","0.1395841725436063","1","","","","","","","",""
"","do_trial","54","244719","0.0-38.0-0.0","1167","","","","51","1,0,0","0","coast","2","probe-229","1","0.3136574403706739","0.06899351110874707","0","","","","","","","",""
"","do_trial","55","250457","0.0-39.0-0.0","1188.999999999971","","","","51","1,0,0","0","coast","3","probe-94","1","0.2539029363065709","0.11643815094725037","0","","","","","","","",""
"","do_trial","56","256293","0.0-40.0-0.0","1280.000000000029","","","","50","1,0,0","0","coast","4","probe-01","0.8927657924543045","0.29422967150331536","0.11258913563248452","0","","","","","","","",""
"","do_trial","57","261848","0.0-41.0-0.0","998.9999999999709","","","","49","1,0,0","0","coast","5","probe-197","0.8103471693945021","0.324238855876049","0.1320804517636079","1","","","","","","","",""
"","do_trial","58","267756","0.0-42.0-0.0","1355","","","","50","0,0,0","0","coast","6","probe-49","0.6229070398162582","0.23606893822158803","0.18270524054733359","0","","","","","","","",""
"","do_trial","59","273497","0.0-43.0-0.0","1188","","","","49","1,0,0","0","coast","7","probe-100","0.692549160038785","0.30224219338218133","0.06582790310683728","1","","","","","","","",""
"","do_trial","60","279600","0.0-44.0-0.0","1549","","","","49","1,0,0","0","coast","8","probe-98","0.8711519542067521","0.2708815944368046","0.07723038588755729","1","","","","","","","",""
"","do_trial","61","287040","0.0-45.0-0.0","2884.000000000058","","","","49","1,1,0","0","coast","9","probe-111","0.7433999569757451","0.3705315954716648","0.10959278674114874","1","","","","","","","",""
"","do_trial","62","293165","0.0-46.0-0.0","1569","","","","49","1,0,0","0","coast","10","probe-68","0.439341636140641","0.49793133609404444","0.3881573093223235","1","","","","","","","",""
"","do_trial","63","299171","0.0-47.0-0.0","1450","","","","49","0,0,0","0","coast","11","probe-169","0.3614392871199374","0.4418391011016376","0.6152149430574361","0","","","","","","","",""
"","do_trial","64","304846","0.0-48.0-0.0","1116","","","","49","0,0,1","0","coast","12","probe-95","0.28892300890398925","0.4086786391249649","0.6328236658552888","0","","","","","","","",""
"","do_trial","65","310206","0.0-49.0-0.0","806.0000000000582","","","","49","0,0,1","0","coast","13","probe-201","0.30654820807791117","0.4496726842930095","0.785227020554571","0","","","","","","","",""
"","do_trial","66","315117","0.0-50.0-0.0","353.0000000000582","","","","51","0,0,1","0","coast","14","probe-70","0.3248951430508544","0.3227114684127089","0.7610125518991153","1","","","","","","","",""
"","do_trial","67","320691","0.0-51.0-0.0","1033.0000000000582","","","","51","0,0,1","0","coast","15","probe-61","0.2554539612439602","0.3747520001646132","0.7111456965885227","1","","","","","","","",""
"","do_trial","68","325899","0.0-52.0-0.0","665","","","","51","0,0,0","0","coast","16","probe-57","0.17657690734086284","0.44908135542147526","0.7277217096703157","0","","","","","","","",""
"","do_trial","69","330881","0.0-53.0-0.0","445","","","","50","0,0,1","0","coast","17","probe-17","0.0556655717290381","0.31856419712798056","0.6997358258614678","0","","","","","","","",""
"","do_trial","70","335895","0.0-54.0-0.0","474.9999999999418","","","","51","0,1,0","0","coast","18","probe-96","0.18778262591368794","0.39649253287220354","0.741322900606217","0","","","","","","","",""
"","do_trial","71","341114","0.0-55.0-0.0","680","","","","49","0,0,0","0","coast","19","probe-83","0.21415265757968832","0.19557270835008278","0.797672574073711","0","","","","","","","",""
"","do_trial","72","346052","0.0-56.0-0.0","400.0000000000582","","","","50","0,0,1","0","coast","20","probe-129","0.1891134599733206","0.2438729594144922","0.7224117039676585","0","","","","","","","",""
"","do_trial","73","351220","0.0-57.0-0.0","633","","","","50","0,1,1","0","coast","21","probe-176","0.18562996438665436","0.4365913524272574","0.7861310299025971","1","","","","","","","",""
"","do_trial","74","356321","0.0-58.0-0.0","563","","","","50","0,1,1","0","coast","22","probe-110","0.1063010692558324","0.4095148043716516","0.847393731026071","1","","","","","","","",""
"","do_trial","75","362544","0.0-59.0-0.0","1684","","","","50","0,1,1","0","coast","23","probe-08","0.12090772485252466","0.4237366294611657","0.8606976166941124","1","","","","","","","",""
"","do_trial","76","367809","0.0-60.0-0.0","722.9999999999418","","","","50","0,0,1","0","coast","24","probe-170","0.055185760206914444","0.37619159228700505","0.7714346575852138","0","","","","","","","",""
"","do_trial","77","373052","0.0-61.0-0.0","705.0000000000582","","","","51","0,1,0","0","coast","25","probe-171","0.15903578626580822","0.48472241844281744","0.9111729775455542","0","","","","","","","",""
"","do_trial","78","378660","0.0-62.0-0.0","1070","","","","50","0,1,1","0","coast","26","probe-224","0.07691635133769316","0.5374347684805408","0.8998772918949044","1","","","","","","","",""
"","do_trial","79","383666","0.0-63.0-0.0","467","","","","51","0,1,1","0","coast","27","probe-150","0.13864705635922117","0.3786051316060659","0.7840142436735182","1","","","","","","","",""
"","do_trial","80","388680","0.0-64.0-0.0","477.0000000000582","","","","51","0,0,1","0","coast","28","probe-79","0.10831021814916142","0.2536008349271068","0.7311883649314297","1","","","","","","","",""
"","do_trial","81","393629","0.0-65.0-0.0","407","","","","51","0,1,0","0","coast","29","probe-64","0.12100699025519143","0.46280101988126277","0.7841748346692246","0","","","","","","","",""
"","do_trial","82","398665","0.0-66.0-0.0","494","","","","50","0,1,0","0","coast","30","probe-200","0.12755831425260478","0.49091435907279307","0.7126987587451464","1","","","","","","","",""
"","do_trial","83","403950","0.0-67.0-0.0","746","","","","50","0,0,1","0","coast","31","probe-153","0.09504838934097258","0.6111889823929124","0.7867931047751874","0","","","","","","","",""
"","do_trial","84","410139","0.0-68.0-0.0","1645","","","","49","0,0,1","0","coast","32","probe-239","0.14162713053162612","0.5909406394746157","0.7627229057248142","0","","","","","","","",""
"","do_trial","85","416758","0.0-69.0-0.0","2080","","","","51","0,1,1","0","coast","33","probe-38","0.140744398080209","0.6340164429262503","0.6274872745142757","1","","","","","","","",""
"","do_trial","86","421726","0.0-70.0-0.0","430","","","","51","0,1,1","0","coast","34","probe-130","0.23522385222815045","0.6287621984814372","0.6455678634077645","1","","","","","","","",""
"","do_trial","87","427843","0.0-71.0-0.0","1579.9999999999418","","","","50","0,1,0","0","coast","35","probe-167","0.09063498146818384","0.4431134641405214","0.5654986472800008","1","","","","","","","",""
"","do_trial","88","433409","0.0-72.0-0.0","1030","","","","50","1,1,0","0","coast","36","probe-09","0.10768033927127885","0.3539487389450845","0.549123795676949","1","","","","","","","",""
"","do_trial","89","438371","0.0-73.0-0.0","425.0000000000582","","","","51","0,1,1","0","coast","37","probe-59","0.12287147761341506","0.4177964067649691","0.7173177605481247","1","","","","","","","",""
"","do_trial","90","444229","0.0-74.0-0.0","1304.0000000000582","","","","51","0,0,0","0","coast","38","probe-211","0.21090569513953816","0.4739170811456438","0.7470066787659647","0","","","","","","","",""
"","do_trial","91","449250","0.0-75.0-0.0","482","","","","49","0,0,1","0","coast","39","probe-184","0.21616163061861635","0.4253921002977572","0.8898489457848063","0","","","","","","","",""
"","do_bye","92","450759","0.0-76.0-0.0","null","","","","null","","","","","","","","","","","","","","","","",""
"","do_travel","93","456766","0.0-77.0-0.0","null","","","","null","","","","","","","","","","","","","","","","",""
"","do_welcome","94","458274","0.0-77.0-1.0","null","","","","null","","","","","","","","","","","","","","","","",""
"","do_trial","95","464661","0.0-78.0-0.0","1851","","","","50","0,0,1","1","countryside","40","probe-118","0.14763431892686701","0.45373285780167566","1","0","","","","","","","",""
"","do_trial","96","469989","0.0-79.0-0.0","784.9999999999418","","","","51","0,0,1","1","countryside","41","probe-194","0.0926082074110694","0.49824340363207414","1","1","","","","","","","",""
"","do_trial","97","474996","0.0-80.0-0.0","471","","","","51","1,1,1","1","countryside","42","probe-103","0.08624676478183538","0.5631073988428302","1","1","","","","","","","",""
"","do_trial","98","480246","0.0-81.0-0.0","713","","","","51","0,1,1","1","countryside","43","probe-136","0.09734697758127919","0.38767789456515334","1","1","","","","","","","",""
"","do_trial","99","485660","0.0-82.0-0.0","876","","","","51","0,0,1","1","countryside","44","probe-27","0.10703603507313174","0.3251716824310381","0.9311934633959729","1","","","","","","","",""
"","do_trial","100","490740","0.0-83.0-0.0","541.9999999999418","","","","50","0,0,1","1","countryside","45","probe-151","0.1675027677615023","0.3878766206541928","0.8091285783003384","0","","","","","","","",""
"","do_trial","101","496285","0.0-84.0-0.0","1006","","","","51","1,0,1","1","countryside","46","probe-238","0.2353554954368058","0.32887556815824215","0.8194978338530932","1","","","","","","","",""
"","do_trial","102","502324","0.0-85.0-0.0","1503","","","","49","0,0,1","1","countryside","47","probe-219","0.19722377747798253","0.4077250165516597","0.7790771558501094","0","","","","","","","",""
"","do_trial","103","507431","0.0-86.0-0.0","570","","","","51","0,1,0","1","countryside","48","probe-113","0.08269181341130862","0.359408817645485","0.795703425212455","0","","","","","","","",""
"","do_trial","104","512981","0.0-87.0-0.0","1009.9999999999418","","","","49","1,1,0","1","countryside","49","probe-73","0.17428455214536454","0.34642995772929264","0.6841567192811163","1","","","","","","","",""
"","do_trial","105","520281","0.0-88.0-0.0","2752","","","","49","0,0,0","1","countryside","50","probe-216","0.3129954449112739","0.3483759298676786","0.43715461429503466","0","","","","","","","",""
"","do_trial","106","525524","0.0-89.0-0.0","703","","","","50","1,1,1","1","countryside","51","probe-51","0.19535234728300935","0.5535708313506159","0.310813724310321","1","","","","","","","",""
"","do_trial","107","530591","0.0-90.0-0.0","527","","","","50","1,0,0","1","countryside","52","probe-204","0.2786757939344368","0.6296896530732753","0.25537760172083973","0","","","","","","","",""
"","do_trial","108","535309","0.0-91.0-0.0","180","","","","50","0,1,0","1","countryside","53","probe-141","0.29815424682265074","0.5819722723374734","0.11556339713595479","1","","","","","","","",""
"","do_trial","109","540652","0.0-92.0-0.0","799","","","","49","1,1,0","1","countryside","54","probe-16","0.3815371075452017","0.6519649204507265","0.0708724382695595","1","","","","","","","",""
"","do_trial","110","546262","0.0-93.0-0.0","1071","","","","49","1,0,0","1","countryside","55","probe-48","0.363060913781588","0.5709616619672346","0.06616474273957308","1","","","","","","","",""
"","do_trial","111","551338","0.0-94.0-0.0","537","","","","49","0,1,0","1","countryside","56","probe-217","0.26831073251739185","0.794649123972878","0.1853640744231531","0","","","","","","","",""
"","do_trial","112","557664","0.0-95.0-0.0","1785.0000000001164","","","","50","0,0,0","1","countryside","57","probe-12","0.24716529951445967","0.6813291951685401","0.14864311343937087","0","","","","","","","",""
"","do_trial","113","563937","0.0-96.0-0.0","1725","","","","50","0,1,0","1","countryside","58","probe-174","0.3943690013696467","0.6811673113385384","0.21717342201308829","1","","","","","","","",""
"","do_trial","114","570666","0.0-97.0-0.0","2191.0000000001164","","","","50","0,1,0","1","countryside","59","probe-152","0.4663090528724992","0.7518481120582508","0.22893752894891217","1","","","","","","","",""
"","do_trial","115","577116","0.0-98.0-0.0","1908","","","","51","1,1,1","1","countryside","60","probe-37","0.41531992296018905","0.7534368789555127","0.17833919195231582","1","","","","","","","",""
"","do_trial","116","584642","0.0-99.0-0.0","2983.0000000001164","","","","49","1,0,0","1","countryside","61","probe-223","0.42260412429366084","0.8067249646401412","0.13669756611000722","1","","","","","","","",""
"","do_trial","117","589313","0.0-100.0-0.0","128","","","","50","0,1,0","1","countryside","62","probe-71","0.47391748369878733","0.8485980573699213","0.20835811154550293","1","","","","","","","",""
"","do_trial","118","594320","0.0-101.0-0.0","465","","","","49","1,0,0","1","countryside","63","probe-154","0.46794389522249574","0.7677746042959315","0.2073209001875044","1","","","","","","","",""
"","do_trial","119","599607","0.0-102.0-0.0","742","","","","50","0,1,0","1","countryside","64","probe-81","0.38071771040267477","0.8417470553707945","0.10597297959079068","1","","","","","","","",""
"","do_trial","120","604543","0.0-103.0-0.0","397","","","","49","0,1,1","1","countryside","65","probe-44","0.4074112033420792","0.894476662038348","0.15886718362901459","0","","","","","","","",""
"","do_trial","121","609662","0.0-104.0-0.0","580.0000000001164","","","","50","1,1,1","1","countryside","66","probe-72","0.36317320274175996","0.9168089065791794","0.09513705559087693","1","","","","","","","",""
"","do_trial","122","616992","0.0-105.0-0.0","2793.0000000001164","","","","49","1,0,1","1","countryside","67","probe-135","0.519959471569587","0.7924866802183069","0.07179281212102877","1","","","","","","","",""
"","do_trial","123","622072","0.0-106.0-0.0","540","","","","50","1,1,1","1","countryside","68","probe-105","0.3968454874240524","0.7148160052233803","0.20137763232275185","1","","","","","","","",""
"","do_trial","124","627723","0.0-107.0-0.0","1113","","","","50","0,0,0","1","countryside","69","probe-137","0.35215958449442414","0.6384443013476621","0.2409011543277373","0","","","","","","","",""
"","do_trial","125","633670","0.0-108.0-0.0","1408","","","","50","1,1,0","1","countryside","70","probe-50","0.3066658041563737","0.7392372448900504","0.18964633538778153","1","","","","","","","",""
"","do_trial","126","638619","0.0-109.0-0.0","410","","","","50","0,1,1","1","countryside","71","probe-180","0.365745976828327","0.7915531546868911","0.1308243744157823","1","","","","","","","",""
"","do_trial","127","644801","0.0-110.0-0.0","1642","","","","50","0,1,0","1","countryside","72","probe-199","0.37716363630974575","0.8932208209272607","0.21374636739705097","1","","","","","","","",""
"","do_trial","128","650843","0.0-111.0-0.0","null","","","","null","0,1,0","1","countryside","73","probe-69","0.3231486839350338","0.9130547603025139","0.11716152094761664","","","","","","","","",""
"","do_trial","129","655810","0.0-112.0-0.0","429","","","","50","0,1,0","1","countryside","74","probe-190","0.28562226225060056","0.8738447657998916","0.14523500175068593","1","","","","","","","",""
"","do_trial","130","660809","0.0-113.0-0.0","463","","","","51","0,1,0","1","countryside","75","probe-87","0.26094013564912133","0.9385352018878832","0.06312953243387884","0","","","","","","","",""
"","do_trial","131","665458","0.0-114.0-0.0","109","","","","51","0,1,0","1","countryside","76","probe-161","0.2341849126993375","0.9332131943356038","0.05614070570748094","0","","","","","","","",""
"","do_trial","132","670507","0.0-115.0-0.0","511","","","","51","0,1,0","1","countryside","77","probe-220","0.2254631500111558","0.8699799176395435","0.06725805626270753","0","","","","","","","",""
"","do_trial","133","675515","0.0-116.0-0.0","472.0000000001164","","","","51","1,0,0","1","countryside","78","probe-183","0.38494871264651515","0.7492791816737626","0.17186392283138155","0","","","","","","","",""
"","do_trial","134","681214","0.0-117.0-0.0","1158.0000000001164","","","","50","0,1,0","1","countryside","79","probe-42","0.3691832409511499","0.7653893915307487","0.2177102232106801","1","","","","","","","",""
"","do_bye","135","682723","0.0-118.0-0.0","null","","","","null","","","","","","","","","","","","","","","","",""
"","do_travel","136","688726","0.0-119.0-0.0","null","","","","null","","","","","","","","","","","","","","","","",""
"","do_welcome","137","690236","0.0-119.0-1.0","null","","","","null","","","","","","","","","","","","","","","","",""
"","do_trial","138","695777","0.0-120.0-0.0","1005","","","","50","0,1,0","2","highway","80","probe-93","0.39704984284462913","1","0.1899347257772836","1","","","","","","","",""
"","do_trial","139","701816","0.0-121.0-0.0","null","","","","null","1,1,0","2","highway","81","probe-166","0.44039891975571677","1","0.22775991368578707","","","","","","","","",""
"","do_trial","140","706835","0.0-122.0-0.0","479","","","","50","1,1,0","2","highway","82","probe-196","0.37897423497532423","1","0.11802148931764425","1","","","","","","","",""
"","do_trial","141","712365","0.0-123.0-0.0","990","","","","50","0,1,0","2","highway","83","probe-158","0.3189620777398839","1","0.14926325642850363","1","","","","","","","",""
"","do_trial","142","717164","0.0-124.0-0.0","262.0000000001164","","","","50","0,1,0","2","highway","84","probe-227","0.467618952782678","0.8596507698582112","0.12520953166549117","1","","","","","","","",""
"","do_trial","143","721702","0.0-125.0-0.0","1","","","","51","0,1,0","2","highway","85","probe-164","0.4551028245396842","0.862696848973699","0.07885506857924335","0","","","","","","","",""
"","do_trial","144","726528","0.0-126.0-0.0","289.0000000001164","","","","51","1,0,0","2","highway","86","probe-104","0.4061228684757966","0.7540280880013859","0.06906693339023023","0","","","","","","","",""
"","do_trial","145","731338","0.0-127.0-0.0","271","","","","51","1,1,0","2","highway","87","probe-58","0.46948901730858955","0.9498574178399846","0.07986024694656856","0","","","","","","","",""
"","do_trial","146","736079","0.0-128.0-0.0","199","","","","51","0,1,0","2","highway","88","probe-25","0.36636309878344603","0.9451578170403108","0.17702333058345404","0","","","","","","","",""
"","do_trial","147","742604","0.0-129.0-0.0","1985.9999999998836","","","","51","0,1,0","2","highway","89","probe-218","0.270538689756589","0.864178301004865","0.14816140763896313","0","","","","","","","",""
"","do_trial","148","748015","0.0-130.0-0.0","875","","","","49","0,0,1","2","highway","90","probe-155","0.2225395344199667","0.6937823129096604","0.3752354694669149","0","","","","","","","",""
"","do_trial","149","752608","0.0-131.0-0.0","54","","","","50","0,0,0","2","highway","91","probe-117","0.25918520451811755","0.42761394305664857","0.4222920726313533","0","","","","","","","",""
"","do_trial","150","757495","0.0-132.0-0.0","348","","","","50","1,0,0","2","highway","92","probe-76","0.4724413824773967","0.31831275993603486","0.5435382523311437","0","","","","","","","",""
"","do_trial","151","762035","0.0-133.0-0.0","0.9999999998835847","","","","50","0,0,1","2","highway","93","probe-143","0.2837052097771296","0.2623417616394057","0.6076802806342284","0","","","","","","","",""
"","do_trial","152","767473","0.0-134.0-0.0","897","","","","51","1,1,1","2","highway","94","probe-85","0.31877353155958355","0.2649660009213246","0.7074231774185453","1","","","","","","","",""
"","do_trial","153","773810","0.0-135.0-0.0","1798","","","","50","1,1,1","2","highway","95","probe-192","0.3491912850283546","0.12455957801013207","0.8204289250517255","1","","","","","","","",""
"","do_trial","154","778690","0.0-136.0-0.0","339","","","","51","0,0,1","2","highway","96","probe-208","0.32611020775604505","0.05133769061736563","0.8775457644136709","1","","","","","","","",""
"","do_trial","155","784683","0.0-137.0-0.0","1458","","","","49","0,0,1","2","highway","97","probe-178","0.47057438615703795","0.16801847384343455","0.9213031335340776","0","","","","","","","",""
"","do_trial","156","790650","0.0-138.0-0.0","1429","","","","50","0,0,1","2","highway","98","probe-119","0.43388787150015573","0.15596682698807762","0.9457966034498799","0","","","","","","","",""
"","do_trial","157","795494","0.0-139.0-0.0","306","","","","49","0,1,1","2","highway","99","probe-232","0.41943189715712165","0.2395496325167887","0.9263823756535513","0","","","","","","","",""
"","do_trial","158","800527","0.0-140.0-0.0","493","","","","49","1,0,1","2","highway","100","probe-21","0.5627830479838835","0.10136022531056474","0.8460893740748543","1","","","","","","","",""
"","do_trial","159","805762","0.0-141.0-0.0","697","","","","51","1,0,1","2","highway","101","probe-40","0.6496239378804183","0.22381912731501763","0.8001013519303181","1","","","","","","","",""
"","do_trial","160","812156","0.0-142.0-0.0","1855","","","","50","0,0,1","2","highway","102","probe-116","0.466784376557239","0.09606404410104098","0.7673311245121502","0","","","","","","","",""
"","do_trial","161","817080","0.0-143.0-0.0","385","","","","51","1,0,1","2","highway","103","probe-32","0.5055214613713553","0.05826889443631407","0.9029894383397659","1","","","","","","","",""
"","do_trial","162","822586","0.0-144.0-0.0","966","","","","51","1,0,1","2","highway","104","probe-33","0.43146399509187505","0.15983996181069057","0.929952265489853","1","","","","","","","",""
"","do_trial","163","829599","0.0-145.0-0.0","2478","","","","51","0,1,1","2","highway","105","probe-181","0.4422744407711908","0.13374049754115022","0.7468326833024136","1","","","","","","","",""
"","do_trial","164","834723","0.0-146.0-0.0","586.9999999998836","","","","50","0,0,1","2","highway","106","probe-175","0.487980634986297","0.16398758972561037","0.7657786899139967","0","","","","","","","",""
"","do_trial","165","840765","0.0-147.0-0.0","null","","","","null","0,0,0","2","highway","107","probe-126","0.39442622087074714","0.18757439693149894","0.6931871009150341","","","","","","","","",""
"","do_trial","166","845649","0.0-148.0-0.0","345.9999999998836","","","","51","0,0,1","2","highway","108","probe-221","0.4061712512724268","0.1296780803187638","0.9039955951662643","1","","","","","","","",""
"","do_trial","167","850834","0.0-149.0-0.0","649","","","","50","0,1,0","2","highway","109","probe-46","0.3681224682425361","0.1766892825063604","0.8572532985106357","1","","","","","","","",""
"","do_trial","168","855951","0.0-150.0-0.0","577","","","","51","0,0,1","2","highway","110","probe-198","0.3192048303514823","0.11937611145149929","0.6915569388963558","1","","","","","","","",""
"","do_trial","169","860948","0.0-151.0-0.0","456","","","","49","0,0,1","2","highway","111","probe-222","0.3412077611044236","0.050919476521272086","0.8805366895450147","0","","","","","","","",""
"","do_trial","170","868111","0.0-152.0-0.0","2627","","","","50","0,0,1","2","highway","112","probe-78","0.45019665037750833","0.1327715331090341","0.8221661212806861","0","","","","","","","",""
"","do_trial","171","874296","0.0-153.0-0.0","1640","","","","49","0,1,1","2","highway","113","probe-89","0.3449955480178997","0.31045539330515015","0.8028160843356222","0","","","","","","","",""
"","do_trial","172","879566","0.0-154.0-0.0","734","","","","50","0,0,1","2","highway","114","probe-108","0.4210465063033494","0.18902220304664322","0.7752155165338047","0","","","","","","","",""
"","do_trial","173","884719","0.0-155.0-0.0","612","","","","50","0,1,1","2","highway","115","probe-195","0.3893049364492744","0.050946365651362964","0.7919695815491058","1","","","","","","","",""
"","do_trial","174","889614","0.0-156.0-0.0","353.0000000001164","","","","50","0,0,0","2","highway","116","probe-102","0.5109883410253264","0.11611792636947495","0.6833768731300675","0","","","","","","","",""
"","do_trial","175","894694","0.0-157.0-0.0","539","","","","49","0,1,1","2","highway","117","probe-62","0.48637204090727354","0.1066582885163367","0.8064606319829116","0","","","","","","","",""
"","do_trial","176","899963","0.0-158.0-0.0","727","","","","51","1,1,1","2","highway","118","probe-172","0.4012956462385216","0.17378506845044286","0.8451554517905575","1","","","","","","","",""
"","do_trial","177","905919","0.0-159.0-0.0","1398","","","","50","0,0,1","2","highway","119","probe-187","0.3817464274511569","0.13593026020510515","0.8516513946952888","0","","","","","","","",""
"","do_bye","178","907428","0.0-160.0-0.0","null","","","","null","","","","","","","","","","","","","","","","",""
"","do_travel","179","913433","0.0-161.0-0.0","null","","","","null","","","","","","","","","","","","","","","","",""
"","do_welcome","180","914942","0.0-161.0-1.0","null","","","","null","","","","","","","","","","","","","","","","",""
"","do_trial","181","920640","0.0-162.0-0.0","1157","","","","50","0,0,1","3","mountain","120","probe-122","0.3845834256334512","0.2714309441704775","1","0","","","","","","","",""
"","do_trial","182","925713","0.0-163.0-0.0","532.9999999998836","","","","51","1,0,1","3","mountain","121","probe-237","0.42207294483565017","0.3253156659827407","1","1","","","","","","","",""
"","do_trial","183","930254","0.0-164.0-0.0","0","","","","51","0,1,1","3","mountain","122","probe-23","0.315880729296725","0.17033997473381676","1","1","","","","","","","",""
"","do_trial","184","935278","0.0-165.0-0.0","479","","","","49","0,0,1","3","mountain","123","probe-115","0.33130247314561684","0.15290910865584775","1","0","","","","","","","",""
"","do_trial","185","940262","0.0-166.0-0.0","444.0000000001164","","","","51","0,1,1","3","mountain","124","probe-120","0.38015121708069843","0.12324740166542233","0.8671471942746513","1","","","","","","","",""
"","do_trial","186","947667","0.0-167.0-0.0","2865","","","","49","1,0,0","3","mountain","125","probe-177","0.4861583358124311","0.10583533544174739","0.8267997921168616","1","","","","","","","",""
"","do_trial","187","952792","0.0-168.0-0.0","580.9999999998836","","","","49","0,0,1","3","mountain","126","probe-20","0.4662280339851573","0.13305774766062667","0.802312833013406","0","","","","","","","",""
"","do_trial","188","957829","0.0-169.0-0.0","495","","","","51","0,1,1","3","mountain","127","probe-55","0.41741886208845236","0.18578159036708006","0.840353121239494","1","","","","","","","",""
"","do_trial","189","962844","0.0-170.0-0.0","467","","","","50","1,0,1","3","mountain","128","probe-121","0.3634416936883729","0.16561304729428847","0.8491393385334068","0","","","","","","","",""
"","do_trial","190","967973","0.0-171.0-0.0","580.0000000001164","","","","51","1,1,0","3","mountain","129","probe-54","0.4024100060562802","0.19128075808926376","0.886617156667677","0","","","","","","","",""
"","do_trial","191","973091","0.0-172.0-0.0","563","","","","50","0,0,1","3","mountain","130","probe-240","0.5032393174546613","0.2522397885823876","0.4575904671225993","0","","","","","","","",""
"","do_trial","192","978139","0.0-173.0-0.0","493","","","","49","1,0,0","3","mountain","131","probe-162","0.5638264992856405","0.41661362073660435","0.2168895278347675","1","","","","","","","",""
"","do_trial","193","983311","0.0-174.0-0.0","618","","","","51","1,0,0","3","mountain","132","probe-149","0.7318652876965318","0.19176204888413903","0.06683715936056386","0","","","","","","","",""
"","do_trial","194","988605","0.0-175.0-0.0","739","","","","49","0,0,0","3","mountain","133","probe-145","0.7056816759115507","0.2371814232843988","0.14255057778979457","0","","","","","","","",""
"","do_trial","195","993228","0.0-176.0-0.0","61","","","","50","1,0,1","3","mountain","134","probe-163","0.759250179556656","0.4071767186076702","0.22909088302302588","0","","","","","","","",""
"","do_trial","196","998313","0.0-177.0-0.0","532.9999999998836","","","","50","1,1,0","3","mountain","135","probe-182","0.7357308814001629","0.37014157035614764","0.17112080370946087","1","","","","","","","",""
"","do_trial","197","1003423","0.0-178.0-0.0","556.0000000001164","","","","51","1,0,0","3","mountain","136","probe-191","0.8753513398434182","0.36874344046874463","0.13417653952287453","0","","","","","","","",""
"","do_trial","198","1009008","0.0-179.0-0.0","1020.0000000001164","","","","50","1,0,1","3","mountain","137","probe-213","0.777710176204182","0.15822301978428918","0.20349102833146532","0","","","","","","","",""
"","do_trial","199","1014867","0.0-180.0-0.0","1306","","","","50","0,0,1","3","mountain","138","probe-203","0.7848918877822338","0.22444164315604498","0.1953535013245816","0","","","","","","","",""
"","do_trial","200","1019772","0.0-181.0-0.0","356","","","","49","1,1,0","3","mountain","139","probe-226","0.8971659429461275","0.4460891010364976","0.138592413002161","1","","","","","","","",""
"","do_trial","201","1025381","0.0-182.0-0.0","1050","","","","51","1,0,0","3","mountain","140","probe-106","0.825918290037072","0.43916924914186745","0.07459859741788794","0","","","","","","","",""
"","do_trial","202","1032531","0.0-183.0-0.0","2597","","","","49","0,0,0","3","mountain","141","probe-18","0.7895924349596727","0.4339624338338709","0.17238896957648883","0","","","","","","","",""
"","do_trial","203","1038232","0.0-184.0-0.0","1145","","","","50","1,1,0","3","mountain","142","probe-60","0.755824368317071","0.5435700804243052","0.0823862253040474","1","","","","","","","",""
"","do_trial","204","1043219","0.0-185.0-0.0","429.9999999998836","","","","50","1,0,0","3","mountain","143","probe-97","0.9231338180527974","0.32685805404056156","0.05639167936530735","0","","","","","","","",""
"","do_trial","205","1048787","0.0-186.0-0.0","1016.0000000001164","","","","50","1,0,0","3","mountain","144","probe-101","0.8965799575545063","0.49702769889301496","0.06400344689116373","0","","","","","","","",""
"","do_trial","206","1054371","0.0-187.0-0.0","1027","","","","51","1,1,0","3","mountain","145","probe-30","0.8198674283052151","0.46833501415342826","0.06872848864042135","0","","","","","","","",""
"","do_trial","207","1059900","0.0-188.0-0.0","975","","","","50","1,1,0","3","mountain","146","probe-04","0.8668392196388693","0.5046361922227574","0.1276278815095837","1","","","","","","","",""
"","do_trial","208","1064879","0.0-189.0-0.0","426","","","","49","1,1,0","3","mountain","147","probe-210","0.845498053312123","0.32567399885364035","0.06503677731784195","1","","","","","","","",""
"","do_trial","209","1070705","0.0-190.0-0.0","1272","","","","51","1,1,0","3","mountain","148","probe-159","0.7712677486258903","0.4655989090393223","0.17029249207876415","0","","","","","","","",""
"","do_trial","210","1078066","0.0-191.0-0.0","2806","","","","51","1,1,1","3","mountain","149","probe-123","0.7424826749271688","0.39785430635823527","0.2409086550497235","1","","","","","","","",""
"","do_trial","211","1083731","0.0-192.0-0.0","1109","","","","51","1,1,0","3","mountain","150","probe-15","0.6710343174512184","0.3320813609122429","0.23975633247288458","0","","","","","","","",""
"","do_trial","212","1088915","0.0-193.0-0.0","628.9999999997672","","","","51","1,1,0","3","mountain","151","probe-214","0.7589368746388222","0.3557488753544411","0.2701246450624273","0","","","","","","","",""
"","do_trial","213","1094600","0.0-194.0-0.0","1130","","","","50","0,0,1","3","mountain","152","probe-134","0.845796708309777","0.4041498512447103","0.2721191170320582","0","","","","","","","",""
"","do_trial","214","1099934","0.0-195.0-0.0","773","","","","50","1,1,0","3","mountain","153","probe-29","0.8463501553415337","0.35607334790917705","0.2708026919365416","1","","","","","","","",""
"","do_trial","215","1104950","0.0-196.0-0.0","464","","","","49","1,0,0","3","mountain","154","probe-41","0.8218873104947356","0.42994748324678483","0.18133712462899773","1","","","","","","","",""
"","do_trial","216","1109950","0.0-197.0-0.0","447","","","","49","1,1,0","3","mountain","155","probe-99","0.7162010776541206","0.5017483861993336","0.2208419243001024","1","","","","","","","",""
"","do_trial","217","1115293","0.0-198.0-0.0","787","","","","50","1,1,1","3","mountain","156","probe-207","0.8907010038914132","0.4814114687394082","0.2784323720227019","1","","","","","","","",""
"","do_trial","218","1120622","0.0-199.0-0.0","772","","","","51","1,1,0","3","mountain","157","probe-28","0.899982205603943","0.5072396449732601","0.14859605133698328","0","","","","","","","",""
"","do_trial","219","1126126","0.0-200.0-0.0","949","","","","49","1,0,1","3","mountain","158","probe-225","0.8960544085603894","0.31393253929935566","0.2577710243924327","1","","","","","","","",""
"","do_trial","220","1131168","0.0-201.0-0.0","487.99999999976717","","","","49","1,0,0","3","mountain","159","probe-75","0.7952828935905036","0.4385936517804213","0.2448633905993982","1","","","","","","","",""
"","do_bye","221","1132676","0.0-202.0-0.0","null","","","","null","","","","","","","","","","","","","","","","",""
"","do_travel","222","1138683","0.0-203.0-0.0","null","","","","null","","","","","","","","","","","","","","","","",""
"","do_welcome","223","1140192","0.0-203.0-1.0","null","","","","null","","","","","","","","","","","","","","","","",""
"","do_trial","224","1146386","0.0-204.0-0.0","1639","","","","50","1,0,0","4","city","160","probe-10","1","0.5311911406175259","0.2029529853324175","0","","","","","","","",""
"","do_trial","225","1152450","0.0-205.0-0.0","1509.9999999997672","","","","50","1,0,0","4","city","161","probe-133","1","0.48906396807561237","0.15006575705499375","0","","","","","","","",""
"","do_trial","226","1158513","0.0-206.0-0.0","null","","","","null","1,0,0","4","city","162","probe-80","1","0.3355724592327421","0.2579984758164142","","","","","","","","",""
"","do_trial","227","1163254","0.0-207.0-0.0","185","","","","51","1,0,0","4","city","163","probe-06","1","0.25919883328724036","0.12766409778738344","0","","","","","","","",""
"","do_trial","228","1168680","0.0-208.0-0.0","872.0000000002328","","","","50","1,0,0","4","city","164","probe-35","0.896455398179381","0.34130709013870153","0.19998565036329538","0","","","","","","","",""
"","do_trial","229","1173671","0.0-209.0-0.0","437","","","","51","1,1,0","4","city","165","probe-34","0.8690379309712922","0.3856201190828493","0.13555957836370708","0","","","","","","","",""
"","do_trial","230","1178742","0.0-210.0-0.0","515","","","","49","1,0,0","4","city","166","probe-236","0.9439094901329239","0.4140641904717268","0.10122771361399567","1","","","","","","","",""
"","do_trial","231","1183658","0.0-211.0-0.0","360","","","","50","1,0,0","4","city","167","probe-125","0.8731423899203118","0.36208357099182836","0.12033966629118784","0","","","","","","","",""
"","do_trial","232","1190194","0.0-212.0-0.0","1981","","","","51","1,0,0","4","city","168","probe-43","0.8099056349781947","0.3919480841652569","0.20849989865867294","0","","","","","","","",""
"","do_trial","233","1196463","0.0-213.0-0.0","1698","","","","50","0,0,1","4","city","169","probe-188","0.7162635726258229","0.32675562941591924","0.3052975223540434","0","","","","","","","",""
"","do_trial","234","1201605","0.0-214.0-0.0","589.9999999997672","","","","51","1,0,0","4","city","170","probe-160","0.4597545323969584","0.4643982960741968","0.4611201186406785","0","","","","","","","",""
"","do_trial","235","1207084","0.0-215.0-0.0","923.9999999997672","","","","49","0,1,0","4","city","171","probe-03","0.43481357359561607","0.5272706952168085","0.4316049403228641","0","","","","","","","",""
"","do_trial","236","1211956","0.0-216.0-0.0","317","","","","49","1,0,0","4","city","172","probe-168","0.48960135358110707","0.5019600128321188","0.5723966469858214","1","","","","","","","",""
"","do_trial","237","1217205","0.0-217.0-0.0","695","","","","50","0,1,1","4","city","173","probe-138","0.2628064629463892","0.48949255071458736","0.7096040859560102","1","","","","","","","",""
"","do_trial","238","1222823","0.0-218.0-0.0","1059","","","","50","0,0,0","4","city","174","probe-124","0.2790328371584499","0.42409217481251665","0.6152012545819053","0","","","","","","","",""
"","do_trial","239","1227719","0.0-219.0-0.0","339","","","","49","0,0,0","4","city","175","probe-86","0.12531429689211768","0.35117051749125977","0.6621206881084298","0","","","","","","","",""
"","do_trial","240","1232807","0.0-220.0-0.0","535","","","","49","1,0,1","4","city","176","probe-157","0.20402735970327576","0.3803151553432022","0.6204359051983426","1","","","","","","","",""
"","do_trial","241","1237839","0.0-221.0-0.0","473","","","","49","0,0,1","4","city","177","probe-144","0.22352710534765838","0.3222380987739761","0.6799998171947346","0","","","","","","","",""
"","do_trial","242","1242974","0.0-222.0-0.0","583","","","","51","0,1,1","4","city","178","probe-39","0.2951304903338666","0.41553638891799954","0.7250016765379745","1","","","","","","","",""
"","do_trial","243","1248907","0.0-223.0-0.0","1376","","","","51","0,0,1","4","city","179","probe-14","0.12243855557085354","0.27295690377566334","0.7800498630444882","1","","","","","","","",""
"","do_trial","244","1254256","0.0-224.0-0.0","797","","","","51","0,0,1","4","city","180","probe-235","0.16684196113987224","0.20805764714907982","0.8738529408546504","1","","","","","","","",""
"","do_trial","245","1259185","0.0-225.0-0.0","369.99999999976717","","","","51","0,0,1","4","city","181","probe-02","0.17326153336802375","0.32510389889906904","0.901041186728792","1","","","","","","","",""
"","do_trial","246","1264616","0.0-226.0-0.0","878","","","","51","1,1,1","4","city","182","probe-53","0.23025087695993826","0.3626485085870739","0.9263741385011212","1","","","","","","","",""
"","do_trial","247","1269843","0.0-227.0-0.0","672","","","","51","0,0,1","4","city","183","probe-185","0.0567830005103","0.38791109689605263","0.7939301982378483","1","","","","","","","",""
"","do_trial","248","1276937","0.0-228.0-0.0","2539","","","","51","0,1,1","4","city","184","probe-228","0.05341399274266139","0.46914900048997604","0.7993762141904062","1","","","","","","","",""
"","do_trial","249","1282019","0.0-229.0-0.0","528","","","","51","0,1,1","4","city","185","probe-127","0.16051127387071104","0.6532220697339873","0.7164356376367009","1","","","","","","","",""
"","do_trial","250","1286931","0.0-230.0-0.0","342","","","","51","1,0,1","4","city","186","probe-139","0.20078269288816433","0.6932177477565604","0.7507584290201377","1","","","","","","","",""
"","do_trial","251","1291858","0.0-231.0-0.0","372","","","","51","0,1,1","4","city","187","probe-67","0.10790668207059319","0.604555396893843","0.7465312398947894","1","","","","","","","",""
"","do_trial","252","1296741","0.0-232.0-0.0","327","","","","51","0,0,1","4","city","188","probe-05","0.09476642062828437","0.4191143278736364","0.7352017096871177","1","","","","","","","",""
"","do_trial","253","1302663","0.0-233.0-0.0","1367","","","","51","0,0,1","4","city","189","probe-112","0.1524632059611574","0.43672808427575377","0.7367455462010221","1","","","","","","","",""
"","do_trial","254","1308081","0.0-234.0-0.0","864.0000000002328","","","","51","0,1,1","4","city","190","probe-165","0.21204910741993024","0.4485844273032013","0.7272641380492403","1","","","","","","","",""
"","do_trial","255","1313170","0.0-235.0-0.0","533","","","","50","0,0,0","4","city","191","probe-13","0.1844778598175753","0.4114735082719727","0.7202737954417318","0","","","","","","","",""
"","do_trial","256","1318455","0.0-236.0-0.0","728","","","","50","0,0,1","4","city","192","probe-63","0.15867161523644352","0.39308113656514126","0.8782012263565367","0","","","","","","","",""
"","do_trial","257","1323507","0.0-237.0-0.0","495","","","","50","0,1,1","4","city","193","probe-179","0.09758123007217885","0.3609733952274472","0.947524057487273","1","","","","","","","",""
"","do_trial","258","1328451","0.0-238.0-0.0","389","","","","51","0,0,1","4","city","194","probe-142","0.08709544666221623","0.5332054591857194","0.9045728182021665","1","","","","","","","",""
"","do_trial","259","1333772","0.0-239.0-0.0","765.9999999997672","","","","51","0,0,0","4","city","195","probe-186","0.12490538272487207","0.42046758719275273","0.7852286585647743","0","","","","","","","",""
"","do_trial","260","1341108","0.0-240.0-0.0","2781","","","","51","0,0,0","4","city","196","probe-77","0.19587091072429552","0.4254803755276202","0.8116376596574202","0","","","","","","","",""
"","do_trial","261","1347163","0.0-241.0-0.0","null","","","","null","0,1,1","4","city","197","probe-91","0.15250551934523474","0.3074636394319916","0.7493946942731842","","","","","","","","",""
"","do_trial","262","1352618","0.0-242.0-0.0","901","","","","50","0,0,1","4","city","198","probe-212","0.08732453519891277","0.23342827596625898","0.7401622377681796","0","","","","","","","",""
"","do_trial","263","1357819","0.0-243.0-0.0","645","","","","51","0,1,0","4","city","199","probe-65","0.14928090847447376","0.3192697841286491","0.6975666520348623","0","","","","","","","",""
"","do_bye","264","1359329","0.0-244.0-0.0","null","","","","null","","","","","","","","","","","","","","","","",""
"","do_travel","265","1365335","0.0-245.0-0.0","null","","","","null","","","","","","","","","","","","","","","","",""
"","do_welcome","266","1366842","0.0-245.0-1.0","null","","","","null","","","","","","","","","","","","","","","","",""
"","do_trial","267","1372185","0.0-246.0-0.0","788","","","","51","0,0,1","5","forest","200","probe-202","0.05528118766500541","0.2540345468530087","1","1","","","","","","","",""
"","do_trial","268","1377049","0.0-247.0-0.0","311","","","","50","1,1,1","5","forest","201","probe-90","0.14461029012720633","0.31003623251711815","1","1","","","","","","","",""
"","do_trial","269","1381980","0.0-248.0-0.0","375","","","","51","0,0,1","5","forest","202","probe-114","0.23045541570819922","0.45207754126352756","1","1","","","","","","","",""
"","do_trial","270","1386849","0.0-249.0-0.0","312","","","","51","0,1,1","5","forest","203","probe-92","0.11152500850007817","0.5874287200630199","1","1","","","","","","","",""
"","do_trial","271","1392371","0.0-250.0-0.0","967.0000000002328","","","","50","0,1,0","5","forest","204","probe-215","0.129751735648878","0.5817487776046752","0.8146953487747607","1","","","","","","","",""
"","do_trial","272","1397449","0.0-251.0-0.0","524","","","","50","0,0,1","5","forest","205","probe-189","0.13071221159379293","0.5729924368875008","0.7807393751159596","0","","","","","","","",""
"","do_trial","273","1403486","0.0-252.0-0.0","1482","","","","49","0,0,0","5","forest","206","probe-234","0.2713329213178896","0.4770317932218022","0.7161802228624938","0","","","","","","","",""
"","do_trial","274","1409016","0.0-253.0-0.0","975","","","","50","0,1,0","5","forest","207","probe-109","0.21881774907263452","0.4596778609277489","0.8074733768503206","1","","","","","","","",""
"","do_trial","275","1414178","0.0-254.0-0.0","606.9999999997672","","","","49","1,0,1","5","forest","208","probe-173","0.16009927742905158","0.43966480384088547","0.8842850368647586","1","","","","","","","",""
"","do_trial","276","1419253","0.0-255.0-0.0","520.0000000002328","","","","49","0,0,0","5","forest","209","probe-132","0.1441309948641756","0.46869841869032924","0.8796006279812103","0","","","","","","","",""
"","do_trial","277","1425309","0.0-256.0-0.0","null","","","","null","0,1,1","5","forest","210","probe-140","0.1635576706117214","0.6069404689791393","0.5350704827077634","","","","","","","","",""
"","do_trial","278","1430513","0.0-257.0-0.0","648","","","","50","0,1,1","5","forest","211","probe-156","0.05871956099481635","0.6860221038110735","0.47712469248406664","1","","","","","","","",""
"","do_trial","279","1435537","0.0-258.0-0.0","469","","","","50","0,0,0","5","forest","212","probe-22","0.1487046862024214","0.6571962652033685","0.4548844496493733","0","","","","","","","",""
"","do_trial","280","1440515","0.0-259.0-0.0","423","","","","50","0,1,0","5","forest","213","probe-19","0.21975427181461482","0.7794630432852964","0.4355679923791354","1","","","","","","","",""
"","do_trial","281","1445469","0.0-260.0-0.0","398","","","","50","0,0,1","5","forest","214","probe-148","0.2256614707500075","0.6794471227756577","0.417719173955943","0","","","","","","","",""
"","do_trial","282","1450470","0.0-261.0-0.0","447","","","","50","0,1,0","5","forest","215","probe-74","0.22222033280758907","0.7055207779416302","0.2480579700184126","1","","","","","","","",""
"","do_trial","283","1455027","0.0-262.0-0.0","1","","","","50","0,1,0","5","forest","216","probe-11","0.08839279951516754","0.8594013229985136","0.2592077574197849","1","","","","","","","",""
"","do_trial","284","1460692","0.0-263.0-0.0","1106","","","","49","0,1,0","5","forest","217","probe-47","0.13752986905937353","0.8365571029731992","0.3168985321131034","0","","","","","","","",""
"","do_trial","285","1465692","0.0-264.0-0.0","438","","","","49","0,1,0","5","forest","218","probe-209","0.20521130526612807","0.7866206173413706","0.32911213840308423","0","","","","","","","",""
"","do_trial","286","1470852","0.0-265.0-0.0","601","","","","50","0,1,1","5","forest","219","probe-36","0.20033692543547257","0.6747232997790445","0.3550212115521926","1","","","","","","","",""
"","do_trial","287","1476132","0.0-266.0-0.0","721","","","","50","0,0,1","5","forest","220","probe-231","0.3542338247477322","0.6419996518809272","0.3753354382981501","0","","","","","","","",""
"","do_trial","288","1481576","0.0-267.0-0.0","884","","","","50","0,1,1","5","forest","221","probe-193","0.2532595573844899","0.6524498241290867","0.3148793190072005","1","","","","","","","",""
"","do_trial","289","1486199","0.0-268.0-0.0","67","","","","50","0,1,1","5","forest","222","probe-206","0.3907371232755842","0.8971369506611703","0.43293750642851775","1","","","","","","","",""
"","do_trial","290","1491216","0.0-269.0-0.0","461","","","","50","0,1,0","5","forest","223","probe-82","0.3088689761150174","0.9072738832707463","0.38263310405432405","1","","","","","","","",""
"","do_trial","291","1496248","0.0-270.0-0.0","476","","","","49","1,1,0","5","forest","224","probe-31","0.20880542390087642","0.9097705351680558","0.23394912643142995","1","","","","","","","",""
"","do_trial","292","1501587","0.0-271.0-0.0","783.9999999997672","","","","49","0,0,0","5","forest","225","probe-26","0.14462667275316976","0.9477364733847368","0.1959101301656019","0","","","","","","","",""
"","do_trial","293","1508397","0.0-272.0-0.0","2254","","","","51","0,1,0","5","forest","226","probe-56","0.1378431322996795","0.7672145196672585","0.3460571013211267","0","","","","","","","",""
"","do_trial","294","1513390","0.0-273.0-0.0","439","","","","50","0,1,0","5","forest","227","probe-131","0.0563537522206694","0.7674319855422597","0.33014260682146934","1","","","","","","","",""
"","do_trial","295","1518673","0.0-274.0-0.0","728","","","","51","0,0,0","5","forest","228","probe-88","0.09442434667645953","0.7381122504765891","0.35159692727541314","0","","","","","","","",""
"","do_trial","296","1524450","0.0-275.0-0.0","1223","","","","49","1,1,0","5","forest","229","probe-230","0.10605593291572171","0.7460539267508223","0.46896941648481844","1","","","","","","","",""
"","do_trial","297","1531538","0.0-276.0-0.0","2539","","","","50","0,1,0","5","forest","230","probe-147","0.17034309947630077","0.8645181453193436","0.6286487150585215","1","","","","","","","",""
"","do_trial","298","1537053","0.0-277.0-0.0","976","","","","49","0,1,0","5","forest","231","probe-84","0.09502063687552666","0.9330233224197241","0.4611708773585949","0","","","","","","","",""
"","do_trial","299","1541995","0.0-278.0-0.0","402","","","","50","0,1,0","5","forest","232","probe-07","0.1539822374846629","0.8024446298109923","0.47574181334008714","1","","","","","","","",""
"","do_trial","300","1546920","0.0-279.0-0.0","384","","","","49","0,1,1","5","forest","233","probe-146","0.16192251604461208","0.6298173367003256","0.546116236774315","0","","","","","","","",""
"","do_trial","301","1552078","0.0-280.0-0.0","617","","","","51","0,1,1","5","forest","234","probe-107","0.22818730354910244","0.654234556615856","0.49079530362134655","1","","","","","","","",""
"","do_trial","302","1558365","0.0-281.0-0.0","1742.9999999997672","","","","50","0,0,0","5","forest","235","probe-205","0.120162252182751","0.6095851684772849","0.37697603379612715","0","","","","","","","",""
"","do_trial","303","1563555","0.0-282.0-0.0","650","","","","50","0,0,0","5","forest","236","probe-52","0.1607228311083979","0.6162519808436525","0.38845472005554754","0","","","","","","","",""
"","do_trial","304","1568489","0.0-283.0-0.0","395","","","","50","0,1,0","5","forest","237","probe-66","0.10292357799755006","0.6113410824907346","0.29645350562066575","1","","","","","","","",""
"","do_trial","305","1574774","0.0-284.0-0.0","1742.0000000002328","","","","50","0,1,1","5","forest","238","probe-24","0.05155097237465646","0.7052725142382638","0.2861080426903187","1","","","","","","","",""
"","do_trial","306","1581143","0.0-285.0-0.0","1826","","","","50","0,0,0","5","forest","239","probe-128","0.13984815153943175","0.6730697977357366","0.324710336584245","0","","","","","","","",""
"","do_bye","307","1582652","0.0-286.0-0.0","null","","","","null","","","","","","","","","","","","","","","","",""
"","html-keyboard-response","308","1594273","0.0-286.0-1.0","11618.999999999767","<div class='center'>You are all done with the first part of the experiment! Thank you for participating. Tomorrow, you will recieve an invite to participate in the next phase of the experiment which you must complete by the end of the day. <p><b>[Press the space bar to end the experiment]</b></p></div>","32","","","","","","","","","","","","0,1,4,2,5,3","44,232,228,93,0,196,48,99,97,110,67,168,94,200,69,60,56,16,95,82,128,175,109,7,169,170,223,149,78,63,199,152,238,37,129,166,8,58,210,183,117,193,102,135,26,150,237,218,112,72,215,50,203,140,15,47,216,11,173,151,36,222,70,153,80,43,71,134,104,136,49,179,198,68,189,86,160,219,182,41,92,165,195,157,226,163,103,57,24,217,154,116,75,142,84,191,207,177,118,231,20,39,115,31,32,180,174,125,220,45,197,221,77,88,107,194,101,61,171,186,121,236,22,114,119,176,19,54,120,53,239,161,148,144,162,181,190,212,202,225,105,17,59,96,100,29,3,209,158,122,14,213,133,28,40,98,206,27,224,74,9,132,79,5,34,33,235,124,42,187,159,2,167,137,123,85,156,143,38,13,234,1,52,184,227,126,138,66,4,111,164,12,62,178,141,185,76,90,211,64,201,89,113,91,214,188,233,108,172,131,139,155,21,18,147,73,10,46,208,35,230,192,205,81,30,25,55,130,87,229,146,83,6,145,106,204,51,65,23,127","7,5,10,17,18,11,3,9,15,1,13,16,8,2,14,12,4,6,0","0.10148420504445552,0.20438494738886973,0.22120199115800054,0.2670754510787424,0.24866624467714157,0.22083359462078442,0.0903449491593995,0.1486697004265346,0.0734013104589915,0.21137030083230016,0.2947570013517157,0.41424712729441027,0.27282883804168095,0.27861915745376914,0.3011399775257816,0.22838153315997717,0.3013564984883538,0.4268204557691396,0.43493936775125464,0.4321426195693983,0.6039487466638667,0.5680202776420289,0.4195883933031396,0.4571963968561106,0.48437735615382066,0.4860941212195279,0.33468316522865094,0.36490318723316534,0.426699026967773,0.5534351524574226,0.271909250058728,0.3411941487679957,0.4401783963046589,0.2806542424819594,0.38163339045025235,0.3595628757011346,0.48902101612753074,0.3888072282680274,0.37707611941468844,0.44222469778643414,0.46009810993003014,0.4575888068427593,0.363050212355535,0.22639886244844998,0.17752542389650505,0.1212173365489686,0.2141670246176917,0.26165682818940106,0.2932682663311212,0.19866871316756476,0.19450339207771233,0.07636989926151952,0.10308159138156757,0.1707429105679706,0.29531006564821083,0.20578626172994594,0.08974580166820176,0.09097128559078346,0.07614175434683404,0.0890068922831834,0.12052237790573639,0.11386548466518112,0.15399896561817125,0.1282650659028634,0.15329275187634442,0.08051617322532038,0.09333262073549568,0.07530539997701129,0.22475293677979644,0.24920128959588414,0.454805486741519,0.5937621610699224,0.6475535530199344,0.7792746936206102,0.9064856658501814,0.8304078812201388,0.9041192647614744,0.816798505253118,0.8868162217611605,0.845477137001775,0.7914316978485826,0.7684474231660188,0.6872616238415568,0.7709061120290893,0.7928912273378735,0.9333531646672699,0.9062268568751446,0.9037263114127229,0.7929920789260418,0.8618088308824899,1,0.8945377036061796,0.8692477505773809,0.827183171196289,0.7967312356496593,0.753237086112906,0.7377596035732366,0.6571329753563439,0.7331438356550547,0.7796180595567818,0.6566623227050075,0.5413599178099087,0.34757862807619055,0.23091924260671184,0.3991239052732607,0.33810400839823546,0.42387052999236297,0.5248692653568964,0.4462936842919561,0.41078679921692285,0.23468913015046997,0.4068260382226388,0.5648647827576546,0.5290298738621305,0.33106316651576634,0.35817420897223945,0.2708885274601164,0.257070678544784,0.36028085457688647,0.22299966893587758,0.14206875647588038,0.09830031848867987,0.18073658745146975,0.16537591211840888,0.2694801560018614,0.15148992386151985,0.29998526391550917,0.26112163506461694,0.22620341999472957,0.3532567819697309,0.3089787797215415,0.3666773179052194,0.32724035263534507,0.37334351824230894,0.2826459336245949,0.41667984380592515,0.47672590566723083,0.4518605049453284,0.38267572481455886,0.5329659490585538,0.7071010603186292,0.793371142758557,0.7329171286613664,0.7312213516216292,0.6754079125398452,0.6662213838455336,0.6990938729006774,0.7061324384252162,0.8682129102481894,0.8574960065927947,1,0.8713710166232832,0.9120500634734423,0.8334516224926142,0.8715159371129214,0.8018299995726043,0.8050172345700224,0.8906466807383373,0.8262461958104801,0.9429980853265884,0.782220928157536,0.799840233268611,0.44843457278020493,0.30797340236333,0.16081921151065093,0.22732460984756572,0.15954776196828316,0.1140896843736992,0.27147081954301555,0.18710709982705565,0.132041075863363,0.12602091087872264,0.059762670818872266,0.07861898274969166,0.05367944389923652,0.26218392786974354,0.2643827417653607,0.32035908193029256,0.22678312161137457,0.20461772709856058","1,0.702657957471655,0.7189766420964878,0.7218206544882854,0.7673445316576775,0.8153048001102695,0.7859740974400181,0.7124371083966472,0.5487676762234639,0.7017785699422247,0.49884418301206696,0.3793548317645249,0.1345869073319451,0.2446991594694721,0.1403642574488946,0.06168743446424845,0.12426379923491229,0.12304894068708558,0.09438888898528447,0.20489367317578278,0.15602560421881578,0.1679040108458358,0.17089602736897072,0.06669254876043061,0.08541938300954868,0.08452270528350347,0.09500984692286057,0.1598619555194478,0.07689388277653102,0.10070932005902167,0.1274312764491079,0.13412298451357071,0.20976018384273695,0.1954311426932521,0.10505745007193969,0.05513672363100272,0.19036646458648676,0.25905360703933833,0.15180234434855983,0.16009716263152574,0.2507021089755448,0.3606455842332061,0.6344356989614037,0.7358081327264975,0.7163385998620979,0.7648294415020231,0.7332210369839021,0.8286758834153427,0.9084396953443024,0.6925993320563245,0.6826095091972175,0.6860215991209501,0.6449688989359733,0.6434081136624651,0.8749429340936373,0.7862196749834617,0.8217868201723586,0.8690020961485797,0.9298402006641783,0.7205118828927094,1,0.9231084816829923,0.8781908109679257,0.8401078622652967,0.8590875592366708,0.9140368019365621,0.9475049395601823,0.7792834759216168,0.9104608015920698,0.7725272530281067,0.5505707177530152,0.5373136874097842,0.3168650456538204,0.22576145414850163,0.2103882442193569,0.23325983076314644,0.10600707110653139,0.17072182363239755,0.16211098500415377,0.11987602321095532,0.29836948110002526,0.26460423281145334,0.13642029235422087,0.06943605220879323,0.07931700240162588,0.07581093014912034,0.1037685548298395,0.14368399933007542,0.16437092227791059,0.21872901420736213,0.12619186923927428,0.1662022596139098,0.06439443991570498,0.09931397125904433,0.18365006980320062,0.2638004046005713,0.17536928514418557,0.12374610286000463,0.1544321605670406,0.06737709752847042,0.44983870115087615,0.5249235726804501,0.6645524524200193,0.7029931266476569,0.8355729117389981,0.8015856280343202,0.747648971234522,0.8023065369560212,0.7115529586221766,0.5875851046493973,0.6358280242482319,0.8126678133536177,0.8044190553622859,0.7301660181939933,0.8137369594108179,0.7509247833935035,0.7678258561363004,0.7593736522656392,0.7599084005824415,0.7545770839198587,1,0.9418504714097826,0.886697265486706,0.9481550250920993,0.9361528991170165,0.7564313885093178,0.7725991091312528,0.7290393539726564,0.7841290074551008,0.7801622955614333,0.863181553953319,0.8378590323929909,0.8151656229868138,0.695270920112448,0.7021036737288046,0.6652044808790376,0.7851038416863785,0.8792204167548401,0.8224005792466811,0.5816300402827047,0.5997084500578831,0.47289496438108025,0.4451578524109537,0.38020344475890455,0.3588726348374785,0.40765604621575385,0.33292191855864334,0.3282891321092689,0.4565605435181693,0.6324232850164603,0.4956799203318125,0.5298169800908391,0.4679129094829464,0.46985170840270535,0.43285978586686163,0.45047048465664946,0.426249434835199,0.349899360238131,0.37418582864756006,0.38582525481798285,0.4398694606200573,0.48488280596142846,0.49941631218058846,0.3767667750462379,0.39178605918556586,0.5033819437495001,0.5025195837923864,0.6058426325053238,0.5491718277941395,0.4312139040541307,0.34679215907441063,0.40824381870015486,0.31037890041315963,0.31735189821660503,0.3436210131919594,0.2503728470177802,0.351718974746487,0.31648657367376565,0.2702617311179071,0.2402564545849379","0.34387466410463174,0.393182832149652,0.4517706463832485,0.36739445602977283,0.34238852567250605,0.350561854970755,0.5119237758308952,0.571517791539225,0.43582398867872907,0.5188236242076458,0.6415168483485806,0.5900124664790883,0.5324556844417824,0.7185196879905563,0.7548226346902311,0.7612259983156918,0.7638890397728454,0.929934186600777,0.749813917086033,0.7846392709075569,0.8411019838817739,0.9365249021602016,0.9367676493078662,0.8851684620170274,0.9001388332030474,0.8398274876027493,0.8754731610880295,0.8502563834902234,0.8832320510463479,0.8070799132890405,1,0.9420638385261241,0.9221562830692999,0.9422820151947303,0.7740906405612898,0.805032765659623,0.7560856669595767,0.8194802119189986,0.8382445595665377,0.8842311783220975,0.788869746394866,0.8130583715511517,0.5399971355961468,0.48881136772501665,0.659121318323553,0.4221583988115053,0.3988350834790495,0.44964951248643686,0.4564897358443411,0.31619522522841365,0.34894343923910326,0.3612525752836458,0.29841752656272824,0.3684061463377357,0.2838160136474853,0.3936965301259155,0.5678661172834375,0.5155876891168721,0.39570359413581396,0.3110400653427897,0.43747819821862677,0.2471851414825487,0.3681548545247192,0.3752502381576288,0.3259331874386344,0.4316853327841612,0.39975585330846963,0.32567316759181253,0.48322973218822507,0.509073370517079,0.5939842968763943,0.5269558632019024,0.5063710356776351,0.45833538482201436,0.4348330475149393,0.4444909760794322,0.3829290450654984,0.41573397526709466,0.3960046649004025,0.419088908401839,0.5631609256744148,0.6146250115164944,0.5130199562898038,0.47778927746314515,0.35445038660953837,0.3511285215584472,0.4473881236647742,0.3896477255049912,0.3938958213463714,0.5324855732493614,0.4924757130743104,0.4711795897818654,0.4603224084311771,0.4725423064985277,0.33721828352661,0.3118656043195257,0.32912579903685646,0.43782965754165903,0.3551942720382589,0.267064206419127,0.21751989626379992,0.22984774842751102,0.15635224096210285,0.09003773137124567,0.18727737584025902,0.16529879615861645,0.09804011915803638,0.0559374298156327,0.051542011744354986,0.059186480114839214,0.10807724580386463,0.1319489052185549,0.2830688499615089,0.1584328603343177,0.13634053152954137,0.13893830909972998,0.19630576941046649,0.20270966338456742,0.1223010450791504,0.15013975788093986,0.18599823890821005,0.2041835185930033,0.09245975331280004,0.05514779963986849,0.13598302084546818,0.10610229828453538,0.10432251160600425,0.15363385404550037,0.21272892867337823,0.0858280393936003,0.16184641475220887,0.051764782527152366,0.10119976644454555,0.07846816847187457,0.1730742553706206,0.18104053796379904,0.11708768199400371,0.1942272652851365,0.14190108857049485,0.10865160141630391,0.1261822354488247,0.17271069463399172,0.08056494213932461,0.093164815002738,0.24765939438154783,0.1328944850325009,0.07702032191628005,0.07799981975366546,0.2093864059804429,0.16746913203968053,0.0679891590503253,0.1914853390644206,0.09009087106936246,0.12926700428663568,0.2369832167859555,0.1393456018146206,0.12522164078361672,0.11758741110996564,0.05346691549859798,0.20352812019746863,0.15110503318212537,0.16039036025655204,0.46056270098424185,0.46207148299924905,0.5731166010468295,0.6377971246167335,0.599327195368899,0.8416275575190757,0.9218941616338571,0.7847927214184917,0.7197769184353228,0.8200685426701786,0.8563873891296714,0.8176225785049193,0.7776434932395364,0.883010094244075,0.8963476276201111,0.8129404548772888,0.7594391504418317,0.8493571777214255","82,200,163,124,42,48,122,46,208,203,201,209,206,83,164,125,41,207,126,88,123,44,166,86,127,43,161,80,169,205,45,128,160,167,129,204,84,87,47,165,89,40,120,85,49,168,202,121","4,3,1,1,5,4,1,1,2,2,6,1,3,1,1,1,4,1,1,1,5,1,1,3,1,1,2,4,1,3,1,1,1,1,4,1,4,1,1,2,1,1,4,1,4,1,1,2,1,5,1,4,1,1,1,1,1,1,3,2"
