"success","trial_type","trial_index","time_elapsed","internal_node_id","interactions","blur_events","focus_events","fullscreenenter_events","fullscreenexit_events","rt","stimulus","key_press","subject_id","participant_id","age","gender","prompt","response","choice_outcomes","context_n","context_img_id","trial_n","probe_img_id","pR_red","pR_white","pR_black","outcome","contextArray_ind","validImageProbes","invalidImageProbes","pRew_Red","pRew_White","pRew_Black","availableForMemProbe","choice_blocks"
"true","fullscreen","0","4365","0.0-0.0","""event"",""trial"",""time""
""fullscreenenter"",""0"",""3664""
","
","
","""event"",""trial"",""time""
""fullscreenenter"",""0"",""3664""
","
","","","","","","","","","","","","","","","","","","","","","","","","","",""
"","pavlovia","1","4372","0.0-1.0","""event"",""trial"",""time""
""fullscreenenter"",""0"",""3664""
","
","
","""event"",""trial"",""time""
""fullscreenenter"",""0"",""3664""
","
","","","","","","","","","","","","","","","","","","","","","","","","","",""
"","instruc1","2","49536","0.0-2.0","""event"",""trial"",""time""
""fullscreenenter"",""0"",""3664""
","
","
","""event"",""trial"",""time""
""fullscreenenter"",""0"",""3664""
","
","null","run_exp/static/audio/clip_1_welcome.m4a","null","626","386","25","Female","<div class='center'><p>Welcome! This is the first part of the study. It will last ~30 minutes. In part 1 and part 2 of the study, you are the head captain of a pirate ship traveling around the world to different islands. You will play a few different games throughout these two parts. Here is an overview of them:</p><br><p>Part 1 (today)</p><p>1. Instructions, practice game, and quiz</p><p>2. Pick a pirate game on 6 different islands</p><br><p>Part 2 (tomorrow)</p><p>3. Pick a pirate game and memory game</p><p>4. Where did you see this ship? </p></div>","","","","","","","","","","","","","","","","","",""
"","html-keyboard-response","3","53214","0.0-3.0","""event"",""trial"",""time""
""fullscreenenter"",""0"",""3664""
","
","
","""event"",""trial"",""time""
""fullscreenenter"",""0"",""3664""
","
","3673.9749999978812","<div class='center'><p>Welcome! This is the first part of the study. It will last ~30 minutes. In part 1 and part 2 of the study, you are the head captain of a pirate ship traveling around the world to different islands. You will play a few different games throughout these two parts. Here is an overview of them:</p><br><p>Part 1 (today)</p><p>1. Instructions, practice game, and quiz</p><p>2. Pick a pirate game on 6 different islands</p><br><p>Part 2 (tomorrow)</p><p>3. Pick a pirate game and memory game</p><p>4. Where did you see this ship? </p><p><b>[Press the space bar to continue]</b></p></div>","32","","","","","","","","","","","","","","","","","","","","","","",""
"","instruc2","4","58544","0.0-4.0","""event"",""trial"",""time""
""fullscreenenter"",""0"",""3664""
","
","
","""event"",""trial"",""time""
""fullscreenenter"",""0"",""3664""
","
","null","run_exp/static/audio/clip_2_different_places.m4a","null","","","","","<div class='center'><p>Today, you’ll visit these 6 islands on your journey. You'll be able to see these islands from your ship.</p><p><img src='run_exp/static/images/contexts/all_contexts.png' height='500'></p></div>","","","","","","","","","","","","","","","","","",""
"","html-keyboard-response","5","59749","0.0-5.0","""event"",""trial"",""time""
""fullscreenenter"",""0"",""3664""
","
","
","""event"",""trial"",""time""
""fullscreenenter"",""0"",""3664""
","
","1201.1550000024727","<div class='center'><p>Today, you’ll visit these 6 islands on your journey. You'll be able to see these islands from your ship.</p><p><img src='run_exp/static/images/contexts/all_contexts.png' height='500'></p><p><b>[Press the space bar to continue]</b></p></div>","32","","","","","","","","","","","","","","","","","","","","","","",""
"","instruc3","6","69480","0.0-6.0","""event"",""trial"",""time""
""fullscreenenter"",""0"",""3664""
","
","
","""event"",""trial"",""time""
""fullscreenenter"",""0"",""3664""
","
","null","run_exp/static/audio/clip_3_goal_of_game_1.m4a","null","","","","","<div class='center'><p> The pirates on your ship will rob other ships as they leave the island.</p> These ships have just sold their goods to the islanders, so they will be filled with lots and lots of gold.</p><p><img src='run_exp/static/images/tutorial/ship_center.png' height='400'></p></div>","","","","","","","","","","","","","","","","","",""
"","html-keyboard-response","7","70323","0.0-7.0","""event"",""trial"",""time""
""fullscreenenter"",""0"",""3664""
","
","
","""event"",""trial"",""time""
""fullscreenenter"",""0"",""3664""
","
","840.6200000026729","<div class='center'><p> The pirates on your ship will rob other ships as they leave the island.</p> These ships have just sold their goods to the islanders, so they will be filled with lots and lots of gold.</p><p><img src='run_exp/static/images/tutorial/ship_center.png' height='400'></p><p><b>[Press the space bar to continue]</b></p></div>","32","","","","","","","","","","","","","","","","","","","","","","",""
"","instruc4","8","98342","0.0-8.0","""event"",""trial"",""time""
""fullscreenenter"",""0"",""3664""
","
","
","""event"",""trial"",""time""
""fullscreenenter"",""0"",""3664""
","
","null","run_exp/static/audio/clip_4_goal_of_game_2.m4a","null","","","","","<div class='center'><p>As the head captain, you do not have to rob any ships yourself. Another pirate will be doing the robbing for you. First, you will choose a pirate to rob the next ship.</p><p><img src='run_exp/static/images/tutorial/pirates_all_crop.png' height='200'></p><p>Then, you'll see if the pirate successfully robbed the ship of their gold. If they were successful, then you'll get a stack of gold coins like this:</p><p><img src='run_exp/static/images/tutorial/reward.png' height='150'></p><p> If they were <b>not</b> successful, then you'll get no gold coins, and you'll see a big red x like this: </p><p><img src='run_exp/static/images/tutorial/reward_no.png' height='150'></p><p> How much bonus money you make is based on how many gold coins you collect.</p><div>","","","","","","","","","","","","","","","","","",""
"","html-keyboard-response","9","108538","0.0-9.0","""event"",""trial"",""time""
""fullscreenenter"",""0"",""3664""
","
","
","""event"",""trial"",""time""
""fullscreenenter"",""0"",""3664""
","
","10193.93499999569","<div class='center'><p>As the head captain, you do not have to rob any ships yourself. Another pirate will be doing the robbing for you. First, you will choose a pirate to rob the next ship.</p><p><img src='run_exp/static/images/tutorial/pirates_all_crop.png' height='200'></p><p>Then, you'll see if the pirate successfully robbed the ship of their gold. If they were successful, then you'll get a stack of gold coins like this:</p><p><img src='run_exp/static/images/tutorial/reward.png' height='150'></p><p> If they were <b>not</b> successful, then you'll get no gold coins, and you'll see a big red x like this: </p><p><img src='run_exp/static/images/tutorial/reward_no.png' height='150'></p><p> How much bonus money you make is based on how many gold coins you collect.</p<p><b>[Press the space bar to continue]</b></p></div>","32","","","","","","","","","","","","","","","","","","","","","","",""
"","instruc5","10","129889","0.0-10.0","""event"",""trial"",""time""
""fullscreenenter"",""0"",""3664""
","
","
","""event"",""trial"",""time""
""fullscreenenter"",""0"",""3664""
","
","21348.630000000412","run_exp/static/audio/clip_5_probabilistic.m4a","49","","","","","<div class='center'><p>Even the most skilled pirate can not rob EVERY ship.</p><p> Some ships will have very strong protections against pirate attacks.</p><p> Blue beard, here, is very, very good at robbing ships, but he won't be successful every time he tries to rob one.</p><p> You can press the <b>‘1’</b> key on the keyboard to choose him.</p><p> Try choosing him 10 times to see how often he succeeds at robbing a ship. </p><p><img src='run_exp/static/images/tutorial/blue.png' height='500'></p></div>","","","","","","","","","","","","","","","","","",""
"","html-keyboard-response","11","131395","0.0-11.0","""event"",""trial"",""time""
""fullscreenenter"",""0"",""3664""
","
","
","""event"",""trial"",""time""
""fullscreenenter"",""0"",""3664""
","
","null","<div class='center'><p><img src='run_exp/static/images/tutorial/blue_win.png' height='500'></p></div>","null","","","","","","","","","","","","","","","","","","","","","","",""
"","html-keyboard-response","12","132579","0.0-12.0","""event"",""trial"",""time""
""fullscreenenter"",""0"",""3664""
","
","
","""event"",""trial"",""time""
""fullscreenenter"",""0"",""3664""
","
","1180.5399999939254","<div class='center'><img src='run_exp/static/images/tutorial/blue.png' height='500'></p></div>","49","","","","","","","","","","","","","","","","","","","","","","",""
"","html-keyboard-response","13","134086","0.0-13.0","""event"",""trial"",""time""
""fullscreenenter"",""0"",""3664""
","
","
","""event"",""trial"",""time""
""fullscreenenter"",""0"",""3664""
","
","null","<div class='center'><p><img src='run_exp/static/images/tutorial/blue_win.png' height='500'></p></div>","null","","","","","","","","","","","","","","","","","","","","","","",""
"","html-keyboard-response","14","134202","0.0-14.0","""event"",""trial"",""time""
""fullscreenenter"",""0"",""3664""
","
","
","""event"",""trial"",""time""
""fullscreenenter"",""0"",""3664""
","
","112.94500000076368","<div class='center'><img src='run_exp/static/images/tutorial/blue.png' height='500'></p></div>","49","","","","","","","","","","","","","","","","","","","","","","",""
"","html-keyboard-response","15","135709","0.0-15.0","""event"",""trial"",""time""
""fullscreenenter"",""0"",""3664""
","
","
","""event"",""trial"",""time""
""fullscreenenter"",""0"",""3664""
","
","null","<div class='center'><p><img src='run_exp/static/images/tutorial/blue_win.png' height='500'></p></div>","null","","","","","","","","","","","","","","","","","","","","","","",""
"","html-keyboard-response","16","136689","0.0-16.0","""event"",""trial"",""time""
""fullscreenenter"",""0"",""3664""
","
","
","""event"",""trial"",""time""
""fullscreenenter"",""0"",""3664""
","
","976.7800000045099","<div class='center'><img src='run_exp/static/images/tutorial/blue.png' height='500'></p></div>","49","","","","","","","","","","","","","","","","","","","","","","",""
"","html-keyboard-response","17","138196","0.0-17.0","""event"",""trial"",""time""
""fullscreenenter"",""0"",""3664""
","
","
","""event"",""trial"",""time""
""fullscreenenter"",""0"",""3664""
","
","null","<div class='center'><p><img src='run_exp/static/images/tutorial/blue_no_win.png' height='500'></p></div>","null","","","","","","","","","","","","","","","","","","","","","","",""
"","html-keyboard-response","18","138506","0.0-18.0","""event"",""trial"",""time""
""fullscreenenter"",""0"",""3664""
","
","
","""event"",""trial"",""time""
""fullscreenenter"",""0"",""3664""
","
","307.2749999992084","<div class='center'><img src='run_exp/static/images/tutorial/blue.png' height='500'></p></div>","49","","","","","","","","","","","","","","","","","","","","","","",""
"","html-keyboard-response","19","140009","0.0-19.0","""event"",""trial"",""time""
""fullscreenenter"",""0"",""3664""
","
","
","""event"",""trial"",""time""
""fullscreenenter"",""0"",""3664""
","
","null","<div class='center'><p><img src='run_exp/static/images/tutorial/blue_win.png' height='500'></p></div>","null","","","","","","","","","","","","","","","","","","","","","","",""
"","html-keyboard-response","20","140282","0.0-20.0","""event"",""trial"",""time""
""fullscreenenter"",""0"",""3664""
","
","
","""event"",""trial"",""time""
""fullscreenenter"",""0"",""3664""
","
","270.6499999985681","<div class='center'><img src='run_exp/static/images/tutorial/blue.png' height='500'></p></div>","49","","","","","","","","","","","","","","","","","","","","","","",""
"","html-keyboard-response","21","141789","0.0-21.0","""event"",""trial"",""time""
""fullscreenenter"",""0"",""3664""
","
","
","""event"",""trial"",""time""
""fullscreenenter"",""0"",""3664""
","
","null","<div class='center'><p><img src='run_exp/static/images/tutorial/blue_win.png' height='500'></p></div>","null","","","","","","","","","","","","","","","","","","","","","","",""
"","html-keyboard-response","22","141930","0.0-22.0","""event"",""trial"",""time""
""fullscreenenter"",""0"",""3664""
","
","
","""event"",""trial"",""time""
""fullscreenenter"",""0"",""3664""
","
","137.43500000418862","<div class='center'><img src='run_exp/static/images/tutorial/blue.png' height='500'></p></div>","49","","","","","","","","","","","","","","","","","","","","","","",""
"","html-keyboard-response","23","143435","0.0-23.0","""event"",""trial"",""time""
""fullscreenenter"",""0"",""3664""
","
","
","""event"",""trial"",""time""
""fullscreenenter"",""0"",""3664""
","
","null","<div class='center'><p><img src='run_exp/static/images/tutorial/blue_win.png' height='500'></p></div>","null","","","","","","","","","","","","","","","","","","","","","","",""
"","html-keyboard-response","24","143730","0.0-24.0","""event"",""trial"",""time""
""fullscreenenter"",""0"",""3664""
","
","
","""event"",""trial"",""time""
""fullscreenenter"",""0"",""3664""
","
","291.9550000005984","<div class='center'><img src='run_exp/static/images/tutorial/blue.png' height='500'></p></div>","49","","","","","","","","","","","","","","","","","","","","","","",""
"","html-keyboard-response","25","145233","0.0-25.0","""event"",""trial"",""time""
""fullscreenenter"",""0"",""3664""
","
","
","""event"",""trial"",""time""
""fullscreenenter"",""0"",""3664""
","
","null","<div class='center'><p><img src='run_exp/static/images/tutorial/blue_no_win.png' height='500'></p></div>","null","","","","","","","","","","","","","","","","","","","","","","",""
"","html-keyboard-response","26","145562","0.0-26.0","""event"",""trial"",""time""
""fullscreenenter"",""0"",""3664""
","
","
","""event"",""trial"",""time""
""fullscreenenter"",""0"",""3664""
","
","325.7500000036089","<div class='center'><img src='run_exp/static/images/tutorial/blue.png' height='500'></p></div>","49","","","","","","","","","","","","","","","","","","","","","","",""
"","html-keyboard-response","27","147065","0.0-27.0","""event"",""trial"",""time""
""fullscreenenter"",""0"",""3664""
","
","
","""event"",""trial"",""time""
""fullscreenenter"",""0"",""3664""
","
","null","<div class='center'><p><img src='run_exp/static/images/tutorial/blue_win.png' height='500'></p></div>","null","","","","","","","","","","","","","","","","","","","","","","",""
"","html-keyboard-response","28","147377","0.0-28.0","""event"",""trial"",""time""
""fullscreenenter"",""0"",""3664""
","
","
","""event"",""trial"",""time""
""fullscreenenter"",""0"",""3664""
","
","309.9099999963073","<div class='center'><img src='run_exp/static/images/tutorial/blue.png' height='500'></p></div>","49","","","","","","","","","","","","","","","","","","","","","","",""
"","html-keyboard-response","29","148880","0.0-29.0","""event"",""trial"",""time""
""fullscreenenter"",""0"",""3664""
","
","
","""event"",""trial"",""time""
""fullscreenenter"",""0"",""3664""
","
","null","<div class='center'><p><img src='run_exp/static/images/tutorial/blue_win.png' height='500'></p></div>","null","","","","","","","","","","","","","","","","","","","","","","",""
"","instruc6","30","154311","0.0-30.0","""event"",""trial"",""time""
""fullscreenenter"",""0"",""3664""
","
","
","""event"",""trial"",""time""
""fullscreenenter"",""0"",""3664""
","
","null","run_exp/static/audio/clip_6_blue_beard_outcome.m4a","null","","","","","<div class='center'><p> See, he succeeded in robbing the ships most of the time but not every time. </p></div>","","","","","","","","","","","","","","","","","",""
"","html-keyboard-response","31","155305","0.0-31.0","""event"",""trial"",""time""
""fullscreenenter"",""0"",""3664""
","
","
","""event"",""trial"",""time""
""fullscreenenter"",""0"",""3664""
","
","992.3200000048382","<div class='center'><p> See, he succeeded in robbing the ships most of the time but not every time. </p><p><b>[Press the space bar to continue]</b></p></div>","32","","","","","","","","","","","","","","","","","","","","","","",""
"","audio-keyboard-response","32","166594","0.0-32.0","""event"",""trial"",""time""
""fullscreenenter"",""0"",""3664""
","
","
","""event"",""trial"",""time""
""fullscreenenter"",""0"",""3664""
","
","11286.980000004405","run_exp/static/audio/clip_7_pick_pirate.m4a","50","","","","","","","","","","","","","","","","","","","","","","",""
"","audio-keyboard-response","33","170497","0.0-33.0-0.0","""event"",""trial"",""time""
""fullscreenenter"",""0"",""3664""
","
","
","""event"",""trial"",""time""
""fullscreenenter"",""0"",""3664""
","
","3899.315000002389","run_exp/static/audio/clip_8_chosen_pirate_win.m4a","32","","","","","","","","","","","","","","","","","","","","","","",""
"","audio-keyboard-response","34","172105","0.0-33.0-1.0","""event"",""trial"",""time""
""fullscreenenter"",""0"",""3664""
","
","
","""event"",""trial"",""time""
""fullscreenenter"",""0"",""3664""
","
","1605.9999999997672","run_exp/static/audio/clip_9_pick_a_pirate_again.m4a","51","","","","","","","","","","","","","","","","","","","","","","",""
"","audio-keyboard-response","35","175313","0.0-34.0-0.0","""event"",""trial"",""time""
""fullscreenenter"",""0"",""3664""
","
","
","""event"",""trial"",""time""
""fullscreenenter"",""0"",""3664""
","
","3204.6599999957834","run_exp/static/audio/clip_10_chosen_pirate_loss.m4a","32","","","","","","","","","","","","","","","","","","","","","","",""
"","instruc9","36","180826","0.0-35.0-0.0","""event"",""trial"",""time""
""fullscreenenter"",""0"",""3664""
","
","
","""event"",""trial"",""time""
""fullscreenenter"",""0"",""3664""
","
","null","run_exp/static/audio/clip_11_time_out.m4a","null","","","","","<div class='center'><p>If you don’t make your choice fast enough, you’ll have to wait a few seconds before you can make another one. </p><p><img src='run_exp/static/images/miscellaneous/hurry_up.png' height='500'></p></div>","","","","","","","","","","","","","","","","","",""
"","html-keyboard-response","37","182511","0.0-35.0-1.0","""event"",""trial"",""time""
""fullscreenenter"",""0"",""3664""
","
","
","""event"",""trial"",""time""
""fullscreenenter"",""0"",""3664""
","
","1681.7450000016834","<div class='center'><p>If you don’t make your choice fast enough, you’ll have to wait a few seconds before you can make another one. </p><p><img src='run_exp/static/images/miscellaneous/hurry_up.png' height='500'></p><p><b>[Press the space bar to continue]</b></p></div>","32","","","","","","","","","","","","","","","","","","","","","","",""
"","instruc10","38","221623","0.0-35.0-2.0","""event"",""trial"",""time""
""fullscreenenter"",""0"",""3664""
","
","
","""event"",""trial"",""time""
""fullscreenenter"",""0"",""3664""
","
","null","run_exp/static/audio/clip_12_probe.m4a","null","","","","","<div class='center'><p>Once you've chosen a pirate, you’ll be shown the ship they are robbing. You will never rob the same ship twice. Ships can be told apart from one another by the image on them. These are the goods that they sell. See, this ship has a travel mug on it. </p><p> You’ll have to remember which island you saw each ship on. You will win more gold coins and hence more bonus money if you remember correctly! To help you remember, you can imagine a story. For example, here, you could imagine a mug full of water in the desert. Or, as another example, if on the forest island, your pirate robbed a ship with an apple on it, you could imagine an apple falling from a tree in the forest. </p><p><img src='run_exp/static/images/tutorial/example_probe.png' height='500'></p></div>","","","","","","","","","","","","","","","","","",""
"","html-keyboard-response","39","226087","0.0-35.0-3.0","""event"",""trial"",""time""
""fullscreenenter"",""0"",""3664""
","
","
","""event"",""trial"",""time""
""fullscreenenter"",""0"",""3664""
","
","4461.380000000645","<div class='center'><p>Once you've chosen a pirate, you’ll be shown the ship they are robbing. You will never rob the same ship twice. Ships can be told apart from one another by the image on them. These are the goods that they sell. See, this ship has a travel mug on it. </p><p> You’ll have to remember which island you saw each ship on. You will win more gold coins and hence more bonus money if you remember correctly! To help you remember, you can imagine a story. For example, here, you could imagine a mug full of water in the desert. Or, as another example, if on the forest island, your pirate robbed a ship with an apple on it, you could imagine an apple falling from a tree in the forest. </p><p><img src='run_exp/static/images/tutorial/example_probe.png' height='500'></p><p><b>[Press the space bar to continue]</b></p></div>","32","","","","","","","","","","","","","","","","","","","","","","",""
"","instruc11","40","242520","0.0-35.0-4.0","""event"",""trial"",""time""
""fullscreenenter"",""0"",""3664""
","
","
","""event"",""trial"",""time""
""fullscreenenter"",""0"",""3664""
","
","null","run_exp/static/audio/clip_13_changepoint.m4a","null","","","","","<div class='center'><p>How successful a pirate is at robbing ships will depend on the island you’re on.</p><p> A pirate may have visited this island many times before and gained a lot of practice robbing ships there.</p><p>So, they’re more likely to be successful than a pirate who has never visited the island before.</p></div>","","","","","","","","","","","","","","","","","",""
"","html-keyboard-response","41","243686","0.0-35.0-5.0","""event"",""trial"",""time""
""fullscreenenter"",""0"",""3664""
","
","
","""event"",""trial"",""time""
""fullscreenenter"",""0"",""3664""
","
","1163.6299999954645","<div class='center'><p>How successful a pirate is at robbing ships will depend on the island you’re on.</p><p> A pirate may have visited this island many times before and gained a lot of practice robbing ships there.</p><p>So, they’re more likely to be successful than a pirate who has never visited the island before.</p><p><b>[Press the space bar to continue]</b></p></div>","32","","","","","","","","","","","","","","","","","","","","","","",""
"","instruc12","42","284802","0.0-35.0-6.0","""event"",""trial"",""time""
""fullscreenenter"",""0"",""3664""
","
","
","""event"",""trial"",""time""
""fullscreenenter"",""0"",""3664""
","
","null","run_exp/static/audio/clip_14_drift.m4a","null","","","","","<div class='center'><p>How successful a pirate is at robbing ships can also change over the time spent on the island. </p><p> Ships may hear from islanders about the pirates coming and will improve their protections against the attack. This may make it harder to rob them.</p><p> Ships may also become lazy and weaken the strength of their protections. This may make it easier to rob them.</p><br><p>Things are always changing on the high seas! So, try your best to pay attention!</p><p><img src='run_exp/static/images/tutorial/contingency.png' height='500'></p></div>","","","","","","","","","","","","","","","","","",""
"","html-keyboard-response","43","294236","0.0-35.0-7.0","""event"",""trial"",""time""
""fullscreenenter"",""0"",""3664""
","
","
","""event"",""trial"",""time""
""fullscreenenter"",""0"",""3664""
","
","9432.059999999183","<div class='center'><p>How successful a pirate is at robbing ships can also change over the time spent on the island. </p><p> Ships may hear from islanders about the pirates coming and will improve their protections against the attack. This may make it harder to rob them.</p><p> Ships may also become lazy and weaken the strength of their protections. This may make it easier to rob them.</p><br><p>Things are always changing on the high seas! So, try your best to pay attention!</p><p><img src='run_exp/static/images/tutorial/contingency.png' height='500'></p><p><b>[Press the space bar to continue]</b></p></div>","32","","","","","","","","","","","","","","","","","","","","","","",""
"","instruc13","44","329452","0.0-35.0-8.0","""event"",""trial"",""time""
""fullscreenenter"",""0"",""3664""
","
","
","""event"",""trial"",""time""
""fullscreenenter"",""0"",""3664""
","
","null","run_exp/static/audio/clip_15_summary.m4a","null","","","","","<div class='center'><p>Let's go over the instructions quickly again. You have two important things to do: </p><b><p> 1. Pick the pirate who is the best at robbing ships on the current island. </p></b><b><p> 2. Remember on which island a ship was robbed.</p> </b><p>The amount of bonus money you can win depends on both.</p><p><br><p>Let’s try a practice game. The game will start by showing you the pirates. First, pick a pirate using the <b> 1, 2, 3 </b> keys on your keyboard. When you are shown a ship, try to remember which island you’re on by making up a story.</p><p>This is just a practice game, so you’re not playing for money. </p><p> Good luck! This game will be very difficult but try your best!</p></div>","","","","","","","","","","","","","","","","","",""
"","html-keyboard-response","45","335890","0.0-35.0-9.0","""event"",""trial"",""time""
""fullscreenenter"",""0"",""3664""
","
","
","""event"",""trial"",""time""
""fullscreenenter"",""0"",""3664""
","
","6435.355000001437","<div class='center'><p>Let's go over the instructions quickly again. You have two important things to do: </p><b><p> 1. Pick the pirate who is the best at robbing ships on the current island. </p></b><b><p> 2. Remember on which island a ship was robbed.</p> </b><p>The amount of bonus money you can win depends on both.</p><p><br><p>Let’s try a practice game. The game will start by showing you the pirates. First, pick a pirate using the <b> 1, 2, 3 </b> keys on your keyboard. When you are shown a ship, try to remember which island you’re on by making up a story.</p><p>This is just a practice game, so you’re not playing for money. </p><p> Good luck! This game will be very difficult but try your best!</p><p><b>[Press the space bar to continue]</b></p></div>","32","","","","","","","","","","","","","","","","","","","","","","",""
"","do_welcome","46","339912","0.0-35.0-10.0","""event"",""trial"",""time""
""fullscreenenter"",""0"",""3664""
","
","
","""event"",""trial"",""time""
""fullscreenenter"",""0"",""3664""
","
","null","","","","","","","","null","","","","","","","","","","","","","","","","",""
"","do_trial","47","345693","0.0-35.0-11.0","""event"",""trial"",""time""
""fullscreenenter"",""0"",""3664""
","
","
","""event"",""trial"",""time""
""fullscreenenter"",""0"",""3664""
","
","1262.190000001283","","","","","","","","49","1,0,0","","","","","","","","","","","","","","","",""
"","html-keyboard-response","48","346701","0.0-36.0-0.0","""event"",""trial"",""time""
""fullscreenenter"",""0"",""3664""
","
","
","""event"",""trial"",""time""
""fullscreenenter"",""0"",""3664""
","
","null","<p></p>","null","","","","","","","","","","","","","","","","","","","","","","",""
"","do_trial","49","353073","0.0-36.0-1.0","""event"",""trial"",""time""
""fullscreenenter"",""0"",""3664""
","
","
","""event"",""trial"",""time""
""fullscreenenter"",""0"",""3664""
","
","1859.8599999968428","","","","","","","","50","1,1,0","","","","","","","","","","","","","","","",""
"","html-keyboard-response","50","354080","0.0-37.0-0.0","""event"",""trial"",""time""
""fullscreenenter"",""0"",""3664""
","
","
","""event"",""trial"",""time""
""fullscreenenter"",""0"",""3664""
","
","null","<p></p>","null","","","","","","","","","","","","","","","","","","","","","","",""
"","do_trial","51","359606","0.0-37.0-1.0","""event"",""trial"",""time""
""fullscreenenter"",""0"",""3664""
","
","
","""event"",""trial"",""time""
""fullscreenenter"",""0"",""3664""
","
","1017.0650000000023","","","","","","","","51","1,0,1","","","","","","","","","","","","","","","",""
"","html-keyboard-response","52","360609","0.0-38.0-0.0","""event"",""trial"",""time""
""fullscreenenter"",""0"",""3664""
","
","
","""event"",""trial"",""time""
""fullscreenenter"",""0"",""3664""
","
","null","<p></p>","null","","","","","","","","","","","","","","","","","","","","","","",""
"","do_trial","53","366288","0.0-38.0-1.0","""event"",""trial"",""time""
""fullscreenenter"",""0"",""3664""
","
","
","""event"",""trial"",""time""
""fullscreenenter"",""0"",""3664""
","
","1166.7099999976926","","","","","","","","49","0,1,0","","","","","","","","","","","","","","","",""
"","html-keyboard-response","54","367297","0.0-39.0-0.0","""event"",""trial"",""time""
""fullscreenenter"",""0"",""3664""
","
","
","""event"",""trial"",""time""
""fullscreenenter"",""0"",""3664""
","
","null","<p></p>","null","","","","","","","","","","","","","","","","","","","","","","",""
"","do_trial","55","373395","0.0-39.0-1.0","""event"",""trial"",""time""
""fullscreenenter"",""0"",""3664""
","
","
","""event"",""trial"",""time""
""fullscreenenter"",""0"",""3664""
","
","1582.620000001043","","","","","","","","50","1,0,0","","","","","","","","","","","","","","","",""
"","do_bye","56","374909","0.0-40.0-0.0","""event"",""trial"",""time""
""fullscreenenter"",""0"",""3664""
","
","
","""event"",""trial"",""time""
""fullscreenenter"",""0"",""3664""
","
","null","","","","","","","","null","","","","","","","","","","","","","","","","",""
"","do_travel","57","383919","0.0-40.0-1.0","""event"",""trial"",""time""
""fullscreenenter"",""0"",""3664""
","
","
","""event"",""trial"",""time""
""fullscreenenter"",""0"",""3664""
","
","null","","","","","","","","null","","","","","","","","","","","","","","","","",""
"","do_welcome","58","387933","0.0-40.0-2.0","""event"",""trial"",""time""
""fullscreenenter"",""0"",""3664""
","
","
","""event"",""trial"",""time""
""fullscreenenter"",""0"",""3664""
","
","null","","","","","","","","null","","","","","","","","","","","","","","","","",""
"","do_trial","59","393712","0.0-40.0-3.0","""event"",""trial"",""time""
""fullscreenenter"",""0"",""3664""
","
","
","""event"",""trial"",""time""
""fullscreenenter"",""0"",""3664""
","
","1264.6800000002258","","","","","","","","49","1,0,0","","","","","","","","","","","","","","","",""
"","html-keyboard-response","60","394717","0.0-41.0-0.0","""event"",""trial"",""time""
""fullscreenenter"",""0"",""3664""
","
","
","""event"",""trial"",""time""
""fullscreenenter"",""0"",""3664""
","
","null","<p></p>","null","","","","","","","","","","","","","","","","","","","","","","",""
"","do_trial","61","400482","0.0-41.0-1.0","""event"",""trial"",""time""
""fullscreenenter"",""0"",""3664""
","
","
","""event"",""trial"",""time""
""fullscreenenter"",""0"",""3664""
","
","1249.3450000038138","","","","","","","","50","1,0,1","","","","","","","","","","","","","","","",""
"","html-keyboard-response","62","401494","0.0-42.0-0.0","""event"",""trial"",""time""
""fullscreenenter"",""0"",""3664""
","
","
","""event"",""trial"",""time""
""fullscreenenter"",""0"",""3664""
","
","null","<p></p>","null","","","","","","","","","","","","","","","","","","","","","","",""
"","do_trial","63","406434","0.0-42.0-1.0","""event"",""trial"",""time""
""fullscreenenter"",""0"",""3664""
","
","
","""event"",""trial"",""time""
""fullscreenenter"",""0"",""3664""
","
","424.8899999947753","","","","","","","","51","1,1,0","","","","","","","","","","","","","","","",""
"","html-keyboard-response","64","407442","0.0-43.0-0.0","""event"",""trial"",""time""
""fullscreenenter"",""0"",""3664""
","
","
","""event"",""trial"",""time""
""fullscreenenter"",""0"",""3664""
","
","null","<p></p>","null","","","","","","","","","","","","","","","","","","","","","","",""
"","do_trial","65","412954","0.0-43.0-1.0","""event"",""trial"",""time""
""fullscreenenter"",""0"",""3664""
","
","
","""event"",""trial"",""time""
""fullscreenenter"",""0"",""3664""
","
","995.4199999992852","","","","","","","","50","0,0,1","","","","","","","","","","","","","","","",""
"","html-keyboard-response","66","413960","0.0-44.0-0.0","""event"",""trial"",""time""
""fullscreenenter"",""0"",""3664""
","
","
","""event"",""trial"",""time""
""fullscreenenter"",""0"",""3664""
","
","null","<p></p>","null","","","","","","","","","","","","","","","","","","","","","","",""
"","do_trial","67","419018","0.0-44.0-1.0","""event"",""trial"",""time""
""fullscreenenter"",""0"",""3664""
","
","
","""event"",""trial"",""time""
""fullscreenenter"",""0"",""3664""
","
","542.1900000001187","","","","","","","","49","1,0,1","","","","","","","","","","","","","","","",""
"","html-keyboard-response","68","424968","0.0-45.0-0.0","""event"",""trial"",""time""
""fullscreenenter"",""0"",""3664""
","
","
","""event"",""trial"",""time""
""fullscreenenter"",""0"",""3664""
","
","5945.705000005546","<div class='center'><p><img src='run_exp/static/images/tutorial/prac_best_pirate.png'  height='500'></p></div>","49","","","","","","","","","","","","","","","","","","","","","","",""
"","html-keyboard-response","69","427479","0.0-46.0-0.0","""event"",""trial"",""time""
""fullscreenenter"",""0"",""3664""
","
","
","""event"",""trial"",""time""
""fullscreenenter"",""0"",""3664""
","
","2509.460000001127","<div class='center'><p>That's correct! Red beard was the best.</p><p><b>[Press the space bar to continue]</b></p></div>","32","","","","","","","","","","","","","","","","","","","","","","",""
"","html-keyboard-response","70","430175","0.0-46.0-1.0","""event"",""trial"",""time""
""fullscreenenter"",""0"",""3664""
","
","
","""event"",""trial"",""time""
""fullscreenenter"",""0"",""3664""
","
","2691.2149999989197","<div class='center'><p><img src='run_exp/static/images/tutorial/prac_source.png'  height='500'></p></div>","50","","","","","","","","","","","","","","","","","","","","","","",""
"","html-keyboard-response","71","431879","0.0-47.0-0.0","""event"",""trial"",""time""
""fullscreenenter"",""0"",""3664""
","
","
","""event"",""trial"",""time""
""fullscreenenter"",""0"",""3664""
","
","1701.2049999975716","<div class='center'><p>That's correct! You saw this ship on the cavern island.</p><p><b>[Press the space bar to continue]</b></p></div>","32","","","","","","","","","","","","","","","","","","","","","","",""
"","quiz_beginning","72","443311","0.0-47.0-1.0","""event"",""trial"",""time""
""fullscreenenter"",""0"",""3664""
","
","
","""event"",""trial"",""time""
""fullscreenenter"",""0"",""3664""
","
","null","run_exp/static/audio/clip_16_quiz_intro.m4a","null","","","","","<div class='center'><p>Good job on the practice game! Now, you will be asked some true or false questions to make sure you really understand the rules of the game.</p><p> Press <b>'1'</b> on the keyboard for true and press <b>'2'</b> for false.</p></div>","","","","","","","","","","","","","","","","","",""
"","audio-keyboard-response","73","447135","0.0-47.0-2.0","""event"",""trial"",""time""
""fullscreenenter"",""0"",""3664""
","
","
","""event"",""trial"",""time""
""fullscreenenter"",""0"",""3664""
","
","3821.4399999997113","run_exp/static/audio/clip_17_q1.m4a","49","","","","","","","","","","","","","","","","","","","","","","",""
"","correct","74","449557","0.0-48.0-0.0","""event"",""trial"",""time""
""fullscreenenter"",""0"",""3664""
","
","
","""event"",""trial"",""time""
""fullscreenenter"",""0"",""3664""
","
","null","run_exp/static/audio/clip_18_correct.m4a","null","","","","","<div class='center'><p>That's correct!</p></div>","","","","","","","","","","","","","","","","","",""
"","html-keyboard-response","75","450687","0.0-48.0-1.0","""event"",""trial"",""time""
""fullscreenenter"",""0"",""3664""
","
","
","""event"",""trial"",""time""
""fullscreenenter"",""0"",""3664""
","
","1127.3050000017975","<div class='center'><p>That's correct!</p><p><b>[Press the space bar to continue]</b></p></div>","32","","","","","","","","","","","","","","","","","","","","","","",""
"","audio-keyboard-response","76","457654","0.0-48.0-2.0","""event"",""trial"",""time""
""fullscreenenter"",""0"",""3664""
","
","
","""event"",""trial"",""time""
""fullscreenenter"",""0"",""3664""
","
","6965.5949999942095","run_exp/static/audio/clip_20_q2.m4a","50","","","","","","","","","","","","","","","","","","","","","","",""
"","correct","77","460052","0.0-49.0-0.0","""event"",""trial"",""time""
""fullscreenenter"",""0"",""3664""
","
","
","""event"",""trial"",""time""
""fullscreenenter"",""0"",""3664""
","
","null","run_exp/static/audio/clip_18_correct.m4a","null","","","","","<div class='center'><p>That's correct!</p></div>","","","","","","","","","","","","","","","","","",""
"","html-keyboard-response","78","460894","0.0-49.0-1.0","""event"",""trial"",""time""
""fullscreenenter"",""0"",""3664""
","
","
","""event"",""trial"",""time""
""fullscreenenter"",""0"",""3664""
","
","840.2150000038091","<div class='center'><p>That's correct!</p><p><b>[Press the space bar to continue]</b></p></div>","32","","","","","","","","","","","","","","","","","","","","","","",""
"","audio-keyboard-response","79","466678","0.0-49.0-2.0","""event"",""trial"",""time""
""fullscreenenter"",""0"",""3664""
","
","
","""event"",""trial"",""time""
""fullscreenenter"",""0"",""3664""
","
","5781.770000001416","run_exp/static/audio/clip_22_q3.m4a","50","","","","","","","","","","","","","","","","","","","","","","",""
"","correct","80","469085","0.0-50.0-0.0","""event"",""trial"",""time""
""fullscreenenter"",""0"",""3664""
","
","
","""event"",""trial"",""time""
""fullscreenenter"",""0"",""3664""
","
","null","run_exp/static/audio/clip_18_correct.m4a","null","","","","","<div class='center'><p>That's correct!</p></div>","","","","","","","","","","","","","","","","","",""
"","html-keyboard-response","81","471142","0.0-50.0-1.0","""event"",""trial"",""time""
""fullscreenenter"",""0"",""3664""
","
","
","""event"",""trial"",""time""
""fullscreenenter"",""0"",""3664""
","
","2055.675000003248","<div class='center'><p>That's correct!</p><p><b>[Press the space bar to continue]</b></p></div>","32","","","","","","","","","","","","","","","","","","","","","","",""
"","audio-keyboard-response","82","475366","0.0-50.0-2.0","""event"",""trial"",""time""
""fullscreenenter"",""0"",""3664""
","
","
","""event"",""trial"",""time""
""fullscreenenter"",""0"",""3664""
","
","4221.919999996317","run_exp/static/audio/clip_24_q4.m4a","49","","","","","","","","","","","","","","","","","","","","","","",""
"","correct","83","477885","0.0-51.0-0.0","""event"",""trial"",""time""
""fullscreenenter"",""0"",""3664""
","
","
","""event"",""trial"",""time""
""fullscreenenter"",""0"",""3664""
","
","null","run_exp/static/audio/clip_18_correct.m4a","null","","","","","<div class='center'><p>That's correct!</p></div>","","","","","","","","","","","","","","","","","",""
"","html-keyboard-response","84","478598","0.0-51.0-1.0","""event"",""trial"",""time""
""fullscreenenter"",""0"",""3664""
","
","
","""event"",""trial"",""time""
""fullscreenenter"",""0"",""3664""
","
","710.720000002766","<div class='center'><p>That's correct!</p><p><b>[Press the space bar to continue]</b></p></div>","32","","","","","","","","","","","","","","","","","","","","","","",""
"","q_all_corr","85","487104","0.0-52.0-0.0","""event"",""trial"",""time""
""fullscreenenter"",""0"",""3664""
","
","
","""event"",""trial"",""time""
""fullscreenenter"",""0"",""3664""
","
","null","run_exp/static/audio/clip_27_quiz_all_correct.m4a","null","","","","","<div class='center'><p>Good job! You’re now ready to move on to the real game! Remember this game will be difficult but don't get discouraged and try your best!</p></div>","","","","","","","","","","","","","","","","","",""
"","html-keyboard-response","86","489589","0.0-52.0-1.0","""event"",""trial"",""time""
""fullscreenenter"",""0"",""3664""
","
","
","""event"",""trial"",""time""
""fullscreenenter"",""0"",""3664""
","
","2483.699999997043","<div class='center'><p>Good job! You’re now ready to move on to the real game! Remember this game will be difficult but don't get discouraged and try your best!</p><p><b>[Press the space bar to continue]</b></p></div>","32","","","","","","","","","","","","","","","","","","","","","","",""
"","do_welcome","87","493600","0.0-53.0-0.0","""event"",""trial"",""time""
""fullscreenenter"",""0"",""3664""
","
","
","""event"",""trial"",""time""
""fullscreenenter"",""0"",""3664""
","
","null","","","","","","","","null","","","","","","","","","","","","","","","","",""
"","do_trial","88","498983","0.0-54.0-0.0","""event"",""trial"",""time""
""fullscreenenter"",""0"",""3664""
","
","
","""event"",""trial"",""time""
""fullscreenenter"",""0"",""3664""
","
","783.6400000014692","","","","","","","","49","1,1,0","0","city","0","probe-193","0.6","0.3","0.1","1","","","","","","","",""
"","html-keyboard-response","89","499993","0.0-54.0-1.0","""event"",""trial"",""time""
""fullscreenenter"",""0"",""3664""
","
","
","""event"",""trial"",""time""
""fullscreenenter"",""0"",""3664""
","
","null","<p></p>","null","","","","","","","","","","","","","","","","","","","","","","",""
"","do_trial","90","505063","0.0-55.0-0.0","""event"",""trial"",""time""
""fullscreenenter"",""0"",""3664""
","
","
","""event"",""trial"",""time""
""fullscreenenter"",""0"",""3664""
","
","474.84000000258675","","","","","","","","50","1,0,0","0","city","1","probe-171","0.6770017988333743","0.25296909488466307","0.11150334887002215","0","","","","","","","",""
"","html-keyboard-response","91","506072","0.0-55.0-1.0","""event"",""trial"",""time""
""fullscreenenter"",""0"",""3664""
","
","
","""event"",""trial"",""time""
""fullscreenenter"",""0"",""3664""
","
","null","<p></p>","null","","","","","","","","","","","","","","","","","","","","","","",""
"","do_trial","92","510969","0.0-56.0-0.0","""event"",""trial"",""time""
""fullscreenenter"",""0"",""3664""
","
","
","""event"",""trial"",""time""
""fullscreenenter"",""0"",""3664""
","
","304.004999998142","","","","","","","","51","1,0,0","0","city","2","probe-183","0.6033458770867176","0.3296477189449282","0.1645865052465518","0","","","","","","","",""
"","html-keyboard-response","93","511976","0.0-56.0-1.0","""event"",""trial"",""time""
""fullscreenenter"",""0"",""3664""
","
","
","""event"",""trial"",""time""
""fullscreenenter"",""0"",""3664""
","
","null","<p></p>","null","","","","","","","","","","","","","","","","","","","","","","",""
"","do_trial","94","516935","0.0-57.0-0.0","""event"",""trial"",""time""
""fullscreenenter"",""0"",""3664""
","
","
","""event"",""trial"",""time""
""fullscreenenter"",""0"",""3664""
","
","356.9900000002235","","","","","","","","49","1,0,0","0","city","3","probe-191","0.45990501991988303","0.43899703670763984","0.14145201156494275","1","","","","","","","",""
"","html-keyboard-response","95","517943","0.0-57.0-1.0","""event"",""trial"",""time""
""fullscreenenter"",""0"",""3664""
","
","
","""event"",""trial"",""time""
""fullscreenenter"",""0"",""3664""
","
","null","<p></p>","null","","","","","","","","","","","","","","","","","","","","","","",""
"","do_trial","96","522865","0.0-58.0-0.0","""event"",""trial"",""time""
""fullscreenenter"",""0"",""3664""
","
","
","""event"",""trial"",""time""
""fullscreenenter"",""0"",""3664""
","
","331.7849999947939","","","","","","","","50","1,1,0","0","city","4","probe-189","0.5048889420287899","0.3089815589563477","0.17571556998033394","1","","","","","","","",""
"","html-keyboard-response","97","523873","0.0-58.0-1.0","""event"",""trial"",""time""
""fullscreenenter"",""0"",""3664""
","
","
","""event"",""trial"",""time""
""fullscreenenter"",""0"",""3664""
","
","null","<p></p>","null","","","","","","","","","","","","","","","","","","","","","","",""
"","do_trial","98","529099","0.0-59.0-0.0","""event"",""trial"",""time""
""fullscreenenter"",""0"",""3664""
","
","
","""event"",""trial"",""time""
""fullscreenenter"",""0"",""3664""
","
","632.0100000011735","","","","","","","","51","1,0,0","0","city","5","probe-20","0.4201613216631096","0.33916704406023035","0.19079871888256325","0","","","","","","","",""
"","html-keyboard-response","99","530103","0.0-59.0-1.0","""event"",""trial"",""time""
""fullscreenenter"",""0"",""3664""
","
","
","""event"",""trial"",""time""
""fullscreenenter"",""0"",""3664""
","
","null","<p></p>","null","","","","","","","","","","","","","","","","","","","","","","",""
"","do_trial","100","535149","0.0-60.0-0.0","""event"",""trial"",""time""
""fullscreenenter"",""0"",""3664""
","
","
","""event"",""trial"",""time""
""fullscreenenter"",""0"",""3664""
","
","453.6650000009686","","","","","","","","49","1,0,0","0","city","6","probe-01","0.624785722266084","0.3222662846183635","0.06645614512829852","1","","","","","","","",""
"","html-keyboard-response","101","536154","0.0-60.0-1.0","""event"",""trial"",""time""
""fullscreenenter"",""0"",""3664""
","
","
","""event"",""trial"",""time""
""fullscreenenter"",""0"",""3664""
","
","null","<p></p>","null","","","","","","","","","","","","","","","","","","","","","","",""
"","do_trial","102","541105","0.0-61.0-0.0","""event"",""trial"",""time""
""fullscreenenter"",""0"",""3664""
","
","
","""event"",""trial"",""time""
""fullscreenenter"",""0"",""3664""
","
","364.6350000053644","","","","","","","","50","1,0,0","0","city","7","probe-169","0.6510405096576792","0.13433024146455985","0.07058677313906543","0","","","","","","","",""
"","html-keyboard-response","103","542113","0.0-61.0-1.0","""event"",""trial"",""time""
""fullscreenenter"",""0"",""3664""
","
","
","""event"",""trial"",""time""
""fullscreenenter"",""0"",""3664""
","
","null","<p></p>","null","","","","","","","","","","","","","","","","","","","","","","",""
"","do_trial","104","547046","0.0-62.0-0.0","""event"",""trial"",""time""
""fullscreenenter"",""0"",""3664""
","
","
","""event"",""trial"",""time""
""fullscreenenter"",""0"",""3664""
","
","335.53000000398606","","","","","","","","51","1,0,0","0","city","8","probe-152","0.6146058909768418","0.21298155092021673","0.10606894232071178","0","","","","","","","",""
"","html-keyboard-response","105","548052","0.0-62.0-1.0","""event"",""trial"",""time""
""fullscreenenter"",""0"",""3664""
","
","
","""event"",""trial"",""time""
""fullscreenenter"",""0"",""3664""
","
","null","<p></p>","null","","","","","","","","","","","","","","","","","","","","","","",""
"","do_trial","106","553414","0.0-63.0-0.0","""event"",""trial"",""time""
""fullscreenenter"",""0"",""3664""
","
","
","""event"",""trial"",""time""
""fullscreenenter"",""0"",""3664""
","
","770.1249999954598","","","","","","","","49","0,0,0","0","city","9","probe-215","0.5208443096398251","0.2518938278028057","0.08153639841959417","0","","","","","","","",""
"","html-keyboard-response","107","554422","0.0-63.0-1.0","""event"",""trial"",""time""
""fullscreenenter"",""0"",""3664""
","
","
","""event"",""trial"",""time""
""fullscreenenter"",""0"",""3664""
","
","null","<p></p>","null","","","","","","","","","","","","","","","","","","","","","","",""
"","do_trial","108","559586","0.0-64.0-0.0","""event"",""trial"",""time""
""fullscreenenter"",""0"",""3664""
","
","
","""event"",""trial"",""time""
""fullscreenenter"",""0"",""3664""
","
","575.6649999966612","","","","","","","","50","0,0,0","0","city","10","probe-131","0.5913107998294375","0.08116658437093953","0.17871376937021843","0","","","","","","","",""
"","html-keyboard-response","109","560592","0.0-64.0-1.0","""event"",""trial"",""time""
""fullscreenenter"",""0"",""3664""
","
","
","""event"",""trial"",""time""
""fullscreenenter"",""0"",""3664""
","
","null","<p></p>","null","","","","","","","","","","","","","","","","","","","","","","",""
"","do_trial","110","565721","0.0-65.0-0.0","""event"",""trial"",""time""
""fullscreenenter"",""0"",""3664""
","
","
","""event"",""trial"",""time""
""fullscreenenter"",""0"",""3664""
","
","537.1200000008103","","","","","","","","51","1,0,1","0","city","11","probe-96","0.6076437792752303","0.15048962067369576","0.10693748495422424","1","","","","","","","",""
"","html-keyboard-response","111","566729","0.0-65.0-1.0","""event"",""trial"",""time""
""fullscreenenter"",""0"",""3664""
","
","
","""event"",""trial"",""time""
""fullscreenenter"",""0"",""3664""
","
","null","<p></p>","null","","","","","","","","","","","","","","","","","","","","","","",""
"","do_trial","112","572762","0.0-66.0-0.0","""event"",""trial"",""time""
""fullscreenenter"",""0"",""3664""
","
","
","""event"",""trial"",""time""
""fullscreenenter"",""0"",""3664""
","
","1443.510000004666","","","","","","","","49","0,0,0","0","city","12","probe-205","0.6049442465867978","0.19360747160769037","0.1405194639745339","0","","","","","","","",""
"","html-keyboard-response","113","573770","0.0-66.0-1.0","""event"",""trial"",""time""
""fullscreenenter"",""0"",""3664""
","
","
","""event"",""trial"",""time""
""fullscreenenter"",""0"",""3664""
","
","null","<p></p>","null","","","","","","","","","","","","","","","","","","","","","","",""
"","do_trial","114","578802","0.0-67.0-0.0","""event"",""trial"",""time""
""fullscreenenter"",""0"",""3664""
","
","
","""event"",""trial"",""time""
""fullscreenenter"",""0"",""3664""
","
","436.8250000042608","","","","","","","","49","1,1,0","0","city","13","probe-43","0.4154970054306473","0.16238164263522303","0.09607784978802747","1","","","","","","","",""
"","html-keyboard-response","115","579808","0.0-67.0-1.0","""event"",""trial"",""time""
""fullscreenenter"",""0"",""3664""
","
","
","""event"",""trial"",""time""
""fullscreenenter"",""0"",""3664""
","
","null","<p></p>","null","","","","","","","","","","","","","","","","","","","","","","",""
"","do_trial","116","585122","0.0-68.0-0.0","""event"",""trial"",""time""
""fullscreenenter"",""0"",""3664""
","
","
","""event"",""trial"",""time""
""fullscreenenter"",""0"",""3664""
","
","718.6399999991991","","","","","","","","50","0,1,0","0","city","14","probe-218","0.6084676156189376","0.26467861798180586","0.12599241353200363","1","","","","","","","",""
"","html-keyboard-response","117","586130","0.0-68.0-1.0","""event"",""trial"",""time""
""fullscreenenter"",""0"",""3664""
","
","
","""event"",""trial"",""time""
""fullscreenenter"",""0"",""3664""
","
","null","<p></p>","null","","","","","","","","","","","","","","","","","","","","","","",""
"","do_trial","118","591595","0.0-69.0-0.0","""event"",""trial"",""time""
""fullscreenenter"",""0"",""3664""
","
","
","""event"",""trial"",""time""
""fullscreenenter"",""0"",""3664""
","
","874.3899999971036","","","","","","","","51","1,0,0","0","city","15","probe-78","0.5908487452077575","0.2710609199429241","0.1265452640244115","0","","","","","","","",""
"","html-keyboard-response","119","592603","0.0-69.0-1.0","""event"",""trial"",""time""
""fullscreenenter"",""0"",""3664""
","
","
","""event"",""trial"",""time""
""fullscreenenter"",""0"",""3664""
","
","null","<p></p>","null","","","","","","","","","","","","","","","","","","","","","","",""
"","do_trial","120","598561","0.0-70.0-0.0","""event"",""trial"",""time""
""fullscreenenter"",""0"",""3664""
","
","
","""event"",""trial"",""time""
""fullscreenenter"",""0"",""3664""
","
","1368.6600000000326","","","","","","","","49","0,0,0","0","city","16","probe-12","0.5163358312273219","0.22426616603203775","0.17010810241739813","0","","","","","","","",""
"","html-keyboard-response","121","599565","0.0-70.0-1.0","""event"",""trial"",""time""
""fullscreenenter"",""0"",""3664""
","
","
","""event"",""trial"",""time""
""fullscreenenter"",""0"",""3664""
","
","null","<p></p>","null","","","","","","","","","","","","","","","","","","","","","","",""
"","do_trial","122","605595","0.0-71.0-0.0","""event"",""trial"",""time""
""fullscreenenter"",""0"",""3664""
","
","
","""event"",""trial"",""time""
""fullscreenenter"",""0"",""3664""
","
","1434.7499999931315","","","","","","","","50","0,0,0","0","city","17","probe-71","0.42251179789851684","0.21460121171710506","0.061934028312531114","0","","","","","","","",""
"","html-keyboard-response","123","606603","0.0-71.0-1.0","""event"",""trial"",""time""
""fullscreenenter"",""0"",""3664""
","
","
","""event"",""trial"",""time""
""fullscreenenter"",""0"",""3664""
","
","null","<p></p>","null","","","","","","","","","","","","","","","","","","","","","","",""
"","do_trial","124","611875","0.0-72.0-0.0","""event"",""trial"",""time""
""fullscreenenter"",""0"",""3664""
","
","
","""event"",""trial"",""time""
""fullscreenenter"",""0"",""3664""
","
","680.8899999960558","","","","","","","","51","1,1,0","0","city","18","probe-166","0.4068535288742086","0.22838058602508576","0.10862817533480407","0","","","","","","","",""
"","html-keyboard-response","125","612882","0.0-72.0-1.0","""event"",""trial"",""time""
""fullscreenenter"",""0"",""3664""
","
","
","""event"",""trial"",""time""
""fullscreenenter"",""0"",""3664""
","
","null","<p></p>","null","","","","","","","","","","","","","","","","","","","","","","",""
"","do_trial","126","617691","0.0-73.0-0.0","""event"",""trial"",""time""
""fullscreenenter"",""0"",""3664""
","
","
","""event"",""trial"",""time""
""fullscreenenter"",""0"",""3664""
","
","215.94500000355765","","","","","","","","49","1,0,0","0","city","19","probe-05","0.419082662261165","0.3832207002451294","0.13218913363715007","1","","","","","","","",""
"","html-keyboard-response","127","618696","0.0-73.0-1.0","""event"",""trial"",""time""
""fullscreenenter"",""0"",""3664""
","
","
","""event"",""trial"",""time""
""fullscreenenter"",""0"",""3664""
","
","null","<p></p>","null","","","","","","","","","","","","","","","","","","","","","","",""
"","do_trial","128","623792","0.0-74.0-0.0","""event"",""trial"",""time""
""fullscreenenter"",""0"",""3664""
","
","
","""event"",""trial"",""time""
""fullscreenenter"",""0"",""3664""
","
","506.4950000013923","","","","","","","","50","0,0,0","0","city","20","probe-209","0.4942237440977846","0.4189440752262519","0.27770475112565884","0","","","","","","","",""
"","html-keyboard-response","129","624798","0.0-74.0-1.0","""event"",""trial"",""time""
""fullscreenenter"",""0"",""3664""
","
","
","""event"",""trial"",""time""
""fullscreenenter"",""0"",""3664""
","
","null","<p></p>","null","","","","","","","","","","","","","","","","","","","","","","",""
"","do_trial","130","629962","0.0-75.0-0.0","""event"",""trial"",""time""
""fullscreenenter"",""0"",""3664""
","
","
","""event"",""trial"",""time""
""fullscreenenter"",""0"",""3664""
","
","573.7799999988638","","","","","","","","51","0,0,1","0","city","21","probe-89","0.460600335594891","0.3888762666775243","0.19477033356024298","1","","","","","","","",""
"","html-keyboard-response","131","630966","0.0-75.0-1.0","""event"",""trial"",""time""
""fullscreenenter"",""0"",""3664""
","
","
","""event"",""trial"",""time""
""fullscreenenter"",""0"",""3664""
","
","null","<p></p>","null","","","","","","","","","","","","","","","","","","","","","","",""
"","do_trial","132","635994","0.0-76.0-0.0","""event"",""trial"",""time""
""fullscreenenter"",""0"",""3664""
","
","
","""event"",""trial"",""time""
""fullscreenenter"",""0"",""3664""
","
","436.47999999660533","","","","","","","","49","0,1,1","0","city","22","probe-229","0.5826351843284515","0.3274568654841374","0.16925896448532218","0","","","","","","","",""
"","html-keyboard-response","133","637002","0.0-76.0-1.0","""event"",""trial"",""time""
""fullscreenenter"",""0"",""3664""
","
","
","""event"",""trial"",""time""
""fullscreenenter"",""0"",""3664""
","
","null","<p></p>","null","","","","","","","","","","","","","","","","","","","","","","",""
"","do_trial","134","641617","0.0-77.0-0.0","""event"",""trial"",""time""
""fullscreenenter"",""0"",""3664""
","
","
","""event"",""trial"",""time""
""fullscreenenter"",""0"",""3664""
","
","19.189999999129213","","","","","","","","50","0,0,0","0","city","23","probe-143","0.5351577143809715","0.4624316270657127","0.07340673936195835","0","","","","","","","",""
"","html-keyboard-response","135","642622","0.0-77.0-1.0","""event"",""trial"",""time""
""fullscreenenter"",""0"",""3664""
","
","
","""event"",""trial"",""time""
""fullscreenenter"",""0"",""3664""
","
","null","<p></p>","null","","","","","","","","","","","","","","","","","","","","","","",""
"","do_trial","136","648082","0.0-78.0-0.0","""event"",""trial"",""time""
""fullscreenenter"",""0"",""3664""
","
","
","""event"",""trial"",""time""
""fullscreenenter"",""0"",""3664""
","
","864.9950000034878","","","","","","","","51","1,1,0","0","city","24","probe-135","0.6461416929754422","0.49604227392513606","0.09364632723844929","0","","","","","","","",""
"","html-keyboard-response","137","649089","0.0-78.0-1.0","""event"",""trial"",""time""
""fullscreenenter"",""0"",""3664""
","
","
","""event"",""trial"",""time""
""fullscreenenter"",""0"",""3664""
","
","null","<p></p>","null","","","","","","","","","","","","","","","","","","","","","","",""
"","do_trial","138","654111","0.0-79.0-0.0","""event"",""trial"",""time""
""fullscreenenter"",""0"",""3664""
","
","
","""event"",""trial"",""time""
""fullscreenenter"",""0"",""3664""
","
","421.9250000023749","","","","","","","","49","1,0,0","0","city","25","probe-210","0.6108219562062468","0.43678686333887035","0.15031131873809064","1","","","","","","","",""
"","html-keyboard-response","139","655119","0.0-79.0-1.0","""event"",""trial"",""time""
""fullscreenenter"",""0"",""3664""
","
","
","""event"",""trial"",""time""
""fullscreenenter"",""0"",""3664""
","
","null","<p></p>","null","","","","","","","","","","","","","","","","","","","","","","",""
"","do_trial","140","660128","0.0-80.0-0.0","""event"",""trial"",""time""
""fullscreenenter"",""0"",""3664""
","
","
","""event"",""trial"",""time""
""fullscreenenter"",""0"",""3664""
","
","419.7700000004843","","","","","","","","50","1,1,0","0","city","26","probe-47","0.7586163238506539","0.5069730561682242","0.18523728627237987","1","","","","","","","",""
"","html-keyboard-response","141","661131","0.0-80.0-1.0","""event"",""trial"",""time""
""fullscreenenter"",""0"",""3664""
","
","
","""event"",""trial"",""time""
""fullscreenenter"",""0"",""3664""
","
","null","<p></p>","null","","","","","","","","","","","","","","","","","","","","","","",""
"","do_trial","142","666129","0.0-81.0-0.0","""event"",""trial"",""time""
""fullscreenenter"",""0"",""3664""
","
","
","""event"",""trial"",""time""
""fullscreenenter"",""0"",""3664""
","
","402.4150000041118","","","","","","","","51","0,1,0","0","city","27","probe-27","0.599319011438202","0.39622216422431","0.16561437958606978","0","","","","","","","",""
"","html-keyboard-response","143","667137","0.0-81.0-1.0","""event"",""trial"",""time""
""fullscreenenter"",""0"",""3664""
","
","
","""event"",""trial"",""time""
""fullscreenenter"",""0"",""3664""
","
","null","<p></p>","null","","","","","","","","","","","","","","","","","","","","","","",""
"","do_trial","144","673599","0.0-82.0-0.0","""event"",""trial"",""time""
""fullscreenenter"",""0"",""3664""
","
","
","""event"",""trial"",""time""
""fullscreenenter"",""0"",""3664""
","
","1867.0349999957252","","","","","","","","49","0,0,0","0","city","28","probe-84","0.5344276871428564","0.28717664001395354","0.226508411781859","0","","","","","","","",""
"","html-keyboard-response","145","674602","0.0-82.0-1.0","""event"",""trial"",""time""
""fullscreenenter"",""0"",""3664""
","
","
","""event"",""trial"",""time""
""fullscreenenter"",""0"",""3664""
","
","null","<p></p>","null","","","","","","","","","","","","","","","","","","","","","","",""
"","do_trial","146","679617","0.0-83.0-0.0","""event"",""trial"",""time""
""fullscreenenter"",""0"",""3664""
","
","
","""event"",""trial"",""time""
""fullscreenenter"",""0"",""3664""
","
","416.73000000452157","","","","","","","","50","1,1,1","0","city","29","probe-33","0.6459115648133968","0.2678232841331632","0.16233755847876316","1","","","","","","","",""
"","html-keyboard-response","147","680622","0.0-83.0-1.0","""event"",""trial"",""time""
""fullscreenenter"",""0"",""3664""
","
","
","""event"",""trial"",""time""
""fullscreenenter"",""0"",""3664""
","
","null","<p></p>","null","","","","","","","","","","","","","","","","","","","","","","",""
"","do_bye","148","682135","0.0-84.0-0.0","""event"",""trial"",""time""
""fullscreenenter"",""0"",""3664""
","
","
","""event"",""trial"",""time""
""fullscreenenter"",""0"",""3664""
","
","null","","","","","","","","null","","","","","","","","","","","","","","","","",""
"","break","149","685503","0.0-84.0-1.0","""event"",""trial"",""time""
""fullscreenenter"",""0"",""3664""
","
","
","""event"",""trial"",""time""
""fullscreenenter"",""0"",""3664""
","
","3365.1249999967404","<div class='center'><p>Time to take a quick break! You have 2 minutes to rest, but you can move on sooner if you'd like.</p><p> Press the <b>space bar</b> to continue.</p></div>","32","","","","","","","","","","","","","","","","","","","","","","",""
"","do_travel","150","694512","0.0-85.0-0.0","""event"",""trial"",""time""
""fullscreenenter"",""0"",""3664""
","
","
","""event"",""trial"",""time""
""fullscreenenter"",""0"",""3664""
","
","null","","","","","","","","null","","","","","","","","","","","","","","","","",""
"","do_welcome","151","698521","0.0-85.0-1.0","""event"",""trial"",""time""
""fullscreenenter"",""0"",""3664""
","
","
","""event"",""trial"",""time""
""fullscreenenter"",""0"",""3664""
","
","null","","","","","","","","null","","","","","","","","","","","","","","","","",""
"","do_trial","152","704165","0.0-86.0-0.0","""event"",""trial"",""time""
""fullscreenenter"",""0"",""3664""
","
","
","""event"",""trial"",""time""
""fullscreenenter"",""0"",""3664""
","
","1050.859999995795","","","","","","","","49","1,1,0","1","highway","30","probe-45","1","0.2530159929327314","0.12139966357625616","1","","","","","","","",""
"","html-keyboard-response","153","705173","0.0-86.0-1.0","""event"",""trial"",""time""
""fullscreenenter"",""0"",""3664""
","
","
","""event"",""trial"",""time""
""fullscreenenter"",""0"",""3664""
","
","null","<p></p>","null","","","","","","","","","","","","","","","","","","","","","","",""
"","do_trial","154","711047","0.0-87.0-0.0","""event"",""trial"",""time""
""fullscreenenter"",""0"",""3664""
","
","
","""event"",""trial"",""time""
""fullscreenenter"",""0"",""3664""
","
","1282.0949999949662","","","","","","","","50","1,0,0","1","highway","31","probe-217","1","0.3637470943849174","0.10299348247603222","0","","","","","","","",""
"","html-keyboard-response","155","712051","0.0-87.0-1.0","""event"",""trial"",""time""
""fullscreenenter"",""0"",""3664""
","
","
","""event"",""trial"",""time""
""fullscreenenter"",""0"",""3664""
","
","null","<p></p>","null","","","","","","","","","","","","","","","","","","","","","","",""
"","do_trial","156","717372","0.0-88.0-0.0","""event"",""trial"",""time""
""fullscreenenter"",""0"",""3664""
","
","
","""event"",""trial"",""time""
""fullscreenenter"",""0"",""3664""
","
","732.8349999951897","","","","","","","","51","1,0,0","1","highway","32","probe-80","1","0.2754554962216497","0.05349595639465294","0","","","","","","","",""
"","html-keyboard-response","157","718380","0.0-88.0-1.0","""event"",""trial"",""time""
""fullscreenenter"",""0"",""3664""
","
","
","""event"",""trial"",""time""
""fullscreenenter"",""0"",""3664""
","
","null","<p></p>","null","","","","","","","","","","","","","","","","","","","","","","",""
"","do_trial","158","723959","0.0-89.0-0.0","""event"",""trial"",""time""
""fullscreenenter"",""0"",""3664""
","
","
","""event"",""trial"",""time""
""fullscreenenter"",""0"",""3664""
","
","983.9050000009593","","","","","","","","49","1,1,1","1","highway","33","probe-79","0.829626459301799","0.4879176118182116","0.14051014828323097","1","","","","","","","",""
"","html-keyboard-response","159","724963","0.0-89.0-1.0","""event"",""trial"",""time""
""fullscreenenter"",""0"",""3664""
","
","
","""event"",""trial"",""time""
""fullscreenenter"",""0"",""3664""
","
","null","<p></p>","null","","","","","","","","","","","","","","","","","","","","","","",""
"","do_trial","160","730266","0.0-90.0-0.0","""event"",""trial"",""time""
""fullscreenenter"",""0"",""3664""
","
","
","""event"",""trial"",""time""
""fullscreenenter"",""0"",""3664""
","
","711.4900000013877","","","","","","","","50","1,1,0","1","highway","34","probe-206","0.8109606809047198","0.28315536972189936","0.14965416742206153","1","","","","","","","",""
"","html-keyboard-response","161","731271","0.0-90.0-1.0","""event"",""trial"",""time""
""fullscreenenter"",""0"",""3664""
","
","
","""event"",""trial"",""time""
""fullscreenenter"",""0"",""3664""
","
","null","<p></p>","null","","","","","","","","","","","","","","","","","","","","","","",""
"","do_trial","162","736199","0.0-91.0-0.0","""event"",""trial"",""time""
""fullscreenenter"",""0"",""3664""
","
","
","""event"",""trial"",""time""
""fullscreenenter"",""0"",""3664""
","
","329.5299999953713","","","","","","","","51","1,0,0","1","highway","35","probe-17","0.8402765933832655","0.25140330555559187","0.1668551473716057","0","","","","","","","",""
"","html-keyboard-response","163","737203","0.0-91.0-1.0","""event"",""trial"",""time""
""fullscreenenter"",""0"",""3664""
","
","
","""event"",""trial"",""time""
""fullscreenenter"",""0"",""3664""
","
","null","<p></p>","null","","","","","","","","","","","","","","","","","","","","","","",""
"","do_trial","164","742271","0.0-92.0-0.0","""event"",""trial"",""time""
""fullscreenenter"",""0"",""3664""
","
","
","""event"",""trial"",""time""
""fullscreenenter"",""0"",""3664""
","
","471.9949999998789","","","","","","","","49","1,1,0","1","highway","36","probe-54","0.7214126424650987","0.2951943047854127","0.20422791472124666","1","","","","","","","",""
"","html-keyboard-response","165","743276","0.0-92.0-1.0","""event"",""trial"",""time""
""fullscreenenter"",""0"",""3664""
","
","
","""event"",""trial"",""time""
""fullscreenenter"",""0"",""3664""
","
","null","<p></p>","null","","","","","","","","","","","","","","","","","","","","","","",""
"","do_trial","166","748598","0.0-93.0-0.0","""event"",""trial"",""time""
""fullscreenenter"",""0"",""3664""
","
","
","""event"",""trial"",""time""
""fullscreenenter"",""0"",""3664""
","
","726.2349999946309","","","","","","","","50","0,0,0","1","highway","37","probe-98","0.8288416421361073","0.37035316052863265","0.18171719685746282","0","","","","","","","",""
"","html-keyboard-response","167","749606","0.0-93.0-1.0","""event"",""trial"",""time""
""fullscreenenter"",""0"",""3664""
","
","
","""event"",""trial"",""time""
""fullscreenenter"",""0"",""3664""
","
","null","<p></p>","null","","","","","","","","","","","","","","","","","","","","","","",""
"","do_trial","168","754962","0.0-94.0-0.0","""event"",""trial"",""time""
""fullscreenenter"",""0"",""3664""
","
","
","""event"",""trial"",""time""
""fullscreenenter"",""0"",""3664""
","
","760.3050000034273","","","","","","","","51","1,0,0","1","highway","38","probe-92","0.7904652064037913","0.469375916041616","0.25583107594583854","0","","","","","","","",""
"","html-keyboard-response","169","755969","0.0-94.0-1.0","""event"",""trial"",""time""
""fullscreenenter"",""0"",""3664""
","
","
","""event"",""trial"",""time""
""fullscreenenter"",""0"",""3664""
","
","null","<p></p>","null","","","","","","","","","","","","","","","","","","","","","","",""
"","do_trial","170","761017","0.0-95.0-0.0","""event"",""trial"",""time""
""fullscreenenter"",""0"",""3664""
","
","
","""event"",""trial"",""time""
""fullscreenenter"",""0"",""3664""
","
","459.8450000048615","","","","","","","","49","1,1,0","1","highway","39","probe-15","0.855693115313499","0.42390728488955787","0.10151694902314189","1","","","","","","","",""
"","html-keyboard-response","171","762024","0.0-95.0-1.0","""event"",""trial"",""time""
""fullscreenenter"",""0"",""3664""
","
","
","""event"",""trial"",""time""
""fullscreenenter"",""0"",""3664""
","
","null","<p></p>","null","","","","","","","","","","","","","","","","","","","","","","",""
"","do_trial","172","766754","0.0-96.0-0.0","""event"",""trial"",""time""
""fullscreenenter"",""0"",""3664""
","
","
","""event"",""trial"",""time""
""fullscreenenter"",""0"",""3664""
","
","142.41000000038184","","","","","","","","50","1,0,0","1","highway","40","probe-130","0.8854236230747636","0.5011656457284273","0.13294373628427647","0","","","","","","","",""
"","html-keyboard-response","173","767762","0.0-96.0-1.0","""event"",""trial"",""time""
""fullscreenenter"",""0"",""3664""
","
","
","""event"",""trial"",""time""
""fullscreenenter"",""0"",""3664""
","
","null","<p></p>","null","","","","","","","","","","","","","","","","","","","","","","",""
"","do_trial","174","772939","0.0-97.0-0.0","""event"",""trial"",""time""
""fullscreenenter"",""0"",""3664""
","
","
","""event"",""trial"",""time""
""fullscreenenter"",""0"",""3664""
","
","588.3899999971036","","","","","","","","51","1,1,0","1","highway","41","probe-31","0.7763586597346039","0.5918290926119163","0.3198848162635129","0","","","","","","","",""
"","html-keyboard-response","175","773947","0.0-97.0-1.0","""event"",""trial"",""time""
""fullscreenenter"",""0"",""3664""
","
","
","""event"",""trial"",""time""
""fullscreenenter"",""0"",""3664""
","
","null","<p></p>","null","","","","","","","","","","","","","","","","","","","","","","",""
"","do_trial","176","778948","0.0-98.0-0.0","""event"",""trial"",""time""
""fullscreenenter"",""0"",""3664""
","
","
","""event"",""trial"",""time""
""fullscreenenter"",""0"",""3664""
","
","410.01999999571126","","","","","","","","49","1,1,1","1","highway","42","probe-21","0.7484273003295813","0.49637236056950484","0.24609021162167943","1","","","","","","","",""
"","html-keyboard-response","177","779953","0.0-98.0-1.0","""event"",""trial"",""time""
""fullscreenenter"",""0"",""3664""
","
","
","""event"",""trial"",""time""
""fullscreenenter"",""0"",""3664""
","
","null","<p></p>","null","","","","","","","","","","","","","","","","","","","","","","",""
"","do_trial","178","785621","0.0-99.0-0.0","""event"",""trial"",""time""
""fullscreenenter"",""0"",""3664""
","
","
","""event"",""trial"",""time""
""fullscreenenter"",""0"",""3664""
","
","1069.6450000032783","","","","","","","","50","1,1,0","1","highway","43","probe-207","0.5755088995370287","0.5221067840679376","0.1425252300311683","1","","","","","","","",""
"","html-keyboard-response","179","786629","0.0-99.0-1.0","""event"",""trial"",""time""
""fullscreenenter"",""0"",""3664""
","
","
","""event"",""trial"",""time""
""fullscreenenter"",""0"",""3664""
","
","null","<p></p>","null","","","","","","","","","","","","","","","","","","","","","","",""
"","do_trial","180","791682","0.0-100.0-0.0","""event"",""trial"",""time""
""fullscreenenter"",""0"",""3664""
","
","
","""event"",""trial"",""time""
""fullscreenenter"",""0"",""3664""
","
","461.41999999969266","","","","","","","","51","1,1,0","1","highway","44","probe-66","0.4415221794408262","0.5960615591015416","0.10278567325496628","0","","","","","","","",""
"","html-keyboard-response","181","792688","0.0-100.0-1.0","""event"",""trial"",""time""
""fullscreenenter"",""0"",""3664""
","
","
","""event"",""trial"",""time""
""fullscreenenter"",""0"",""3664""
","
","null","<p></p>","null","","","","","","","","","","","","","","","","","","","","","","",""
"","do_trial","182","798633","0.0-101.0-0.0","""event"",""trial"",""time""
""fullscreenenter"",""0"",""3664""
","
","
","""event"",""trial"",""time""
""fullscreenenter"",""0"",""3664""
","
","1354.1600000024773","","","","","","","","49","0,0,0","1","highway","45","probe-62","0.37583223900070956","0.7218286677303865","0.08524159314588695","0","","","","","","","",""
"","html-keyboard-response","183","799641","0.0-101.0-1.0","""event"",""trial"",""time""
""fullscreenenter"",""0"",""3664""
","
","
","""event"",""trial"",""time""
""fullscreenenter"",""0"",""3664""
","
","null","<p></p>","null","","","","","","","","","","","","","","","","","","","","","","",""
"","do_trial","184","805300","0.0-102.0-0.0","""event"",""trial"",""time""
""fullscreenenter"",""0"",""3664""
","
","
","""event"",""trial"",""time""
""fullscreenenter"",""0"",""3664""
","
","1068.0500000016764","","","","","","","","50","1,0,1","1","highway","46","probe-122","0.2766337440908584","0.6821560725032129","0.08106507723758882","0","","","","","","","",""
"","html-keyboard-response","185","806305","0.0-102.0-1.0","""event"",""trial"",""time""
""fullscreenenter"",""0"",""3664""
","
","
","""event"",""trial"",""time""
""fullscreenenter"",""0"",""3664""
","
","null","<p></p>","null","","","","","","","","","","","","","","","","","","","","","","",""
"","do_trial","186","811588","0.0-103.0-0.0","""event"",""trial"",""time""
""fullscreenenter"",""0"",""3664""
","
","
","""event"",""trial"",""time""
""fullscreenenter"",""0"",""3664""
","
","686.1900000002934","","","","","","","","51","0,0,0","1","highway","47","probe-176","0.17487225643088145","0.6009526606140143","0.10029192919742891","0","","","","","","","",""
"","html-keyboard-response","187","812595","0.0-103.0-1.0","""event"",""trial"",""time""
""fullscreenenter"",""0"",""3664""
","
","
","""event"",""trial"",""time""
""fullscreenenter"",""0"",""3664""
","
","null","<p></p>","null","","","","","","","","","","","","","","","","","","","","","","",""
"","do_trial","188","817748","0.0-104.0-0.0","""event"",""trial"",""time""
""fullscreenenter"",""0"",""3664""
","
","
","""event"",""trial"",""time""
""fullscreenenter"",""0"",""3664""
","
","558.3299999998417","","","","","","","","49","0,1,0","1","highway","48","probe-24","0.258816202836609","0.536650659178847","0.12208282794330672","0","","","","","","","",""
"","html-keyboard-response","189","818755","0.0-104.0-1.0","""event"",""trial"",""time""
""fullscreenenter"",""0"",""3664""
","
","
","""event"",""trial"",""time""
""fullscreenenter"",""0"",""3664""
","
","null","<p></p>","null","","","","","","","","","","","","","","","","","","","","","","",""
"","do_trial","190","823887","0.0-105.0-0.0","""event"",""trial"",""time""
""fullscreenenter"",""0"",""3664""
","
","
","""event"",""trial"",""time""
""fullscreenenter"",""0"",""3664""
","
","544.7000000057742","","","","","","","","50","0,0,0","1","highway","49","probe-93","0.3552493913864606","0.5394951973811829","0.06888865907743308","0","","","","","","","",""
"","html-keyboard-response","191","824895","0.0-105.0-1.0","""event"",""trial"",""time""
""fullscreenenter"",""0"",""3664""
","
","
","""event"",""trial"",""time""
""fullscreenenter"",""0"",""3664""
","
","null","<p></p>","null","","","","","","","","","","","","","","","","","","","","","","",""
"","do_trial","192","830795","0.0-106.0-0.0","""event"",""trial"",""time""
""fullscreenenter"",""0"",""3664""
","
","
","""event"",""trial"",""time""
""fullscreenenter"",""0"",""3664""
","
","1305.9900000006892","","","","","","","","51","0,0,0","1","highway","50","probe-53","0.2887969489244364","0.4805406515100438","0.08571385984253499","0","","","","","","","",""
"","html-keyboard-response","193","831803","0.0-106.0-1.0","""event"",""trial"",""time""
""fullscreenenter"",""0"",""3664""
","
","
","""event"",""trial"",""time""
""fullscreenenter"",""0"",""3664""
","
","null","<p></p>","null","","","","","","","","","","","","","","","","","","","","","","",""
"","do_trial","194","837915","0.0-107.0-0.0","""event"",""trial"",""time""
""fullscreenenter"",""0"",""3664""
","
","
","""event"",""trial"",""time""
""fullscreenenter"",""0"",""3664""
","
","1519.9049999937415","","","","","","","","49","0,1,0","1","highway","51","probe-117","0.3231442786183533","0.5331052882026911","0.1622752644624418","0","","","","","","","",""
"","html-keyboard-response","195","838922","0.0-107.0-1.0","""event"",""trial"",""time""
""fullscreenenter"",""0"",""3664""
","
","
","""event"",""trial"",""time""
""fullscreenenter"",""0"",""3664""
","
","null","<p></p>","null","","","","","","","","","","","","","","","","","","","","","","",""
"","do_trial","196","846422","0.0-108.0-0.0","""event"",""trial"",""time""
""fullscreenenter"",""0"",""3664""
","
","
","""event"",""trial"",""time""
""fullscreenenter"",""0"",""3664""
","
","2911.6950000023935","","","","","","","","51","0,1,0","1","highway","52","probe-116","0.3490794823615169","0.457217281516553","0.23874145175513697","0","","","","","","","",""
"","html-keyboard-response","197","847430","0.0-108.0-1.0","""event"",""trial"",""time""
""fullscreenenter"",""0"",""3664""
","
","
","""event"",""trial"",""time""
""fullscreenenter"",""0"",""3664""
","
","null","<p></p>","null","","","","","","","","","","","","","","","","","","","","","","",""
"","do_trial","198","852546","0.0-109.0-0.0","""event"",""trial"",""time""
""fullscreenenter"",""0"",""3664""
","
","
","""event"",""trial"",""time""
""fullscreenenter"",""0"",""3664""
","
","519.9050000009593","","","","","","","","49","1,1,0","1","highway","53","probe-139","0.34338344015994954","0.35825673618168397","0.15443337375491964","1","","","","","","","",""
"","html-keyboard-response","199","853554","0.0-109.0-1.0","""event"",""trial"",""time""
""fullscreenenter"",""0"",""3664""
","
","
","""event"",""trial"",""time""
""fullscreenenter"",""0"",""3664""
","
","null","<p></p>","null","","","","","","","","","","","","","","","","","","","","","","",""
"","do_trial","200","858984","0.0-110.0-0.0","""event"",""trial"",""time""
""fullscreenenter"",""0"",""3664""
","
","
","""event"",""trial"",""time""
""fullscreenenter"",""0"",""3664""
","
","835.0900000004331","","","","","","","","50","1,1,0","1","highway","54","probe-123","0.2254167734210767","0.458714592441687","0.19636784431501858","1","","","","","","","",""
"","html-keyboard-response","201","859992","0.0-110.0-1.0","""event"",""trial"",""time""
""fullscreenenter"",""0"",""3664""
","
","
","""event"",""trial"",""time""
""fullscreenenter"",""0"",""3664""
","
","null","<p></p>","null","","","","","","","","","","","","","","","","","","","","","","",""
"","do_trial","202","865313","0.0-111.0-0.0","""event"",""trial"",""time""
""fullscreenenter"",""0"",""3664""
","
","
","""event"",""trial"",""time""
""fullscreenenter"",""0"",""3664""
","
","730.1300000036135","","","","","","","","51","1,1,0","1","highway","55","probe-38","0.20693857269538954","0.5480440807229958","0.17650278047491874","0","","","","","","","",""
"","html-keyboard-response","203","866320","0.0-111.0-1.0","""event"",""trial"",""time""
""fullscreenenter"",""0"",""3664""
","
","
","""event"",""trial"",""time""
""fullscreenenter"",""0"",""3664""
","
","null","<p></p>","null","","","","","","","","","","","","","","","","","","","","","","",""
"","do_trial","204","871798","0.0-112.0-0.0","""event"",""trial"",""time""
""fullscreenenter"",""0"",""3664""
","
","
","""event"",""trial"",""time""
""fullscreenenter"",""0"",""3664""
","
","891.0550000000512","","","","","","","","49","1,0,0","1","highway","56","probe-221","0.31712814920123633","0.5487711377561899","0.059962275917966594","1","","","","","","","",""
"","html-keyboard-response","205","872805","0.0-112.0-1.0","""event"",""trial"",""time""
""fullscreenenter"",""0"",""3664""
","
","
","""event"",""trial"",""time""
""fullscreenenter"",""0"",""3664""
","
","null","<p></p>","null","","","","","","","","","","","","","","","","","","","","","","",""
"","do_trial","206","877593","0.0-113.0-0.0","""event"",""trial"",""time""
""fullscreenenter"",""0"",""3664""
","
","
","""event"",""trial"",""time""
""fullscreenenter"",""0"",""3664""
","
","192.75499999639578","","","","","","","","50","0,1,1","1","highway","57","probe-74","0.3064588903837664","0.5593202288456299","0.19649540310386662","1","","","","","","","",""
"","html-keyboard-response","207","878599","0.0-113.0-1.0","""event"",""trial"",""time""
""fullscreenenter"",""0"",""3664""
","
","
","""event"",""trial"",""time""
""fullscreenenter"",""0"",""3664""
","
","null","<p></p>","null","","","","","","","","","","","","","","","","","","","","","","",""
"","do_trial","208","883193","0.0-114.0-0.0","""event"",""trial"",""time""
""fullscreenenter"",""0"",""3664""
","
","
","""event"",""trial"",""time""
""fullscreenenter"",""0"",""3664""
","
","0.24499999557156116","","","","","","","","51","0,1,0","1","highway","58","probe-211","0.1709210598232212","0.5681258861975392","0.10186255259829548","0","","","","","","","",""
"","html-keyboard-response","209","884201","0.0-114.0-1.0","""event"",""trial"",""time""
""fullscreenenter"",""0"",""3664""
","
","
","""event"",""trial"",""time""
""fullscreenenter"",""0"",""3664""
","
","null","<p></p>","null","","","","","","","","","","","","","","","","","","","","","","",""
"","do_trial","210","889449","0.0-115.0-0.0","""event"",""trial"",""time""
""fullscreenenter"",""0"",""3664""
","
","
","""event"",""trial"",""time""
""fullscreenenter"",""0"",""3664""
","
","656.6149999998743","","","","","","","","49","0,1,1","1","highway","59","probe-164","0.08391835613425061","0.5023006330997231","0.16997099660792753","0","","","","","","","",""
"","html-keyboard-response","211","890453","0.0-115.0-1.0","""event"",""trial"",""time""
""fullscreenenter"",""0"",""3664""
","
","
","""event"",""trial"",""time""
""fullscreenenter"",""0"",""3664""
","
","null","<p></p>","null","","","","","","","","","","","","","","","","","","","","","","",""
"","do_trial","212","895729","0.0-116.0-0.0","""event"",""trial"",""time""
""fullscreenenter"",""0"",""3664""
","
","
","""event"",""trial"",""time""
""fullscreenenter"",""0"",""3664""
","
","680.8349999991478","","","","","","","","50","1,1,1","1","highway","60","probe-14","0.18508375505188285","0.716513328428193","0.23007741458935704","1","","","","","","","",""
"","html-keyboard-response","213","896735","0.0-116.0-1.0","""event"",""trial"",""time""
""fullscreenenter"",""0"",""3664""
","
","
","""event"",""trial"",""time""
""fullscreenenter"",""0"",""3664""
","
","null","<p></p>","null","","","","","","","","","","","","","","","","","","","","","","",""
"","do_trial","214","902191","0.0-117.0-0.0","""event"",""trial"",""time""
""fullscreenenter"",""0"",""3664""
","
","
","""event"",""trial"",""time""
""fullscreenenter"",""0"",""3664""
","
","865.2349999974249","","","","","","","","51","0,1,1","1","highway","61","probe-226","0.1326394394331056","0.6831584929708262","0.3243546971583801","1","","","","","","","",""
"","html-keyboard-response","215","903197","0.0-117.0-1.0","""event"",""trial"",""time""
""fullscreenenter"",""0"",""3664""
","
","
","""event"",""trial"",""time""
""fullscreenenter"",""0"",""3664""
","
","null","<p></p>","null","","","","","","","","","","","","","","","","","","","","","","",""
"","do_trial","216","908190","0.0-118.0-0.0","""event"",""trial"",""time""
""fullscreenenter"",""0"",""3664""
","
","
","""event"",""trial"",""time""
""fullscreenenter"",""0"",""3664""
","
","404.290000005858","","","","","","","","49","0,0,0","1","highway","62","probe-70","0.2863749452332642","0.5813087639675781","0.26380579514727287","0","","","","","","","",""
"","html-keyboard-response","217","909194","0.0-118.0-1.0","""event"",""trial"",""time""
""fullscreenenter"",""0"",""3664""
","
","
","""event"",""trial"",""time""
""fullscreenenter"",""0"",""3664""
","
","null","<p></p>","null","","","","","","","","","","","","","","","","","","","","","","",""
"","do_trial","218","915149","0.0-119.0-0.0","""event"",""trial"",""time""
""fullscreenenter"",""0"",""3664""
","
","
","""event"",""trial"",""time""
""fullscreenenter"",""0"",""3664""
","
","1366.7500000010477","","","","","","","","50","0,0,0","1","highway","63","probe-134","0.4153264957889929","0.4001698778429231","0.20195732421662158","0","","","","","","","",""
"","html-keyboard-response","219","916157","0.0-119.0-1.0","""event"",""trial"",""time""
""fullscreenenter"",""0"",""3664""
","
","
","""event"",""trial"",""time""
""fullscreenenter"",""0"",""3664""
","
","null","<p></p>","null","","","","","","","","","","","","","","","","","","","","","","",""
"","do_trial","220","921784","0.0-120.0-0.0","""event"",""trial"",""time""
""fullscreenenter"",""0"",""3664""
","
","
","""event"",""trial"",""time""
""fullscreenenter"",""0"",""3664""
","
","1035.9099999986356","","","","","","","","51","0,1,0","1","highway","64","probe-223","0.3843864678012335","0.5088103017941232","0.10140959709936205","0","","","","","","","",""
"","html-keyboard-response","221","922791","0.0-120.0-1.0","""event"",""trial"",""time""
""fullscreenenter"",""0"",""3664""
","
","
","""event"",""trial"",""time""
""fullscreenenter"",""0"",""3664""
","
","null","<p></p>","null","","","","","","","","","","","","","","","","","","","","","","",""
"","do_trial","222","929015","0.0-121.0-0.0","""event"",""trial"",""time""
""fullscreenenter"",""0"",""3664""
","
","
","""event"",""trial"",""time""
""fullscreenenter"",""0"",""3664""
","
","1632.3750000010477","","","","","","","","49","0,0,0","1","highway","65","probe-46","0.21570520457390033","0.43933203667123266","0.08977773853655062","0","","","","","","","",""
"","html-keyboard-response","223","930019","0.0-121.0-1.0","""event"",""trial"",""time""
""fullscreenenter"",""0"",""3664""
","
","
","""event"",""trial"",""time""
""fullscreenenter"",""0"",""3664""
","
","null","<p></p>","null","","","","","","","","","","","","","","","","","","","","","","",""
"","do_trial","224","935703","0.0-122.0-0.0","""event"",""trial"",""time""
""fullscreenenter"",""0"",""3664""
","
","
","""event"",""trial"",""time""
""fullscreenenter"",""0"",""3664""
","
","1094.150000004447","","","","","","","","50","0,1,0","1","highway","66","probe-87","0.2948726670210955","0.548604435459307","0.06433030020939218","1","","","","","","","",""
"","html-keyboard-response","225","936711","0.0-122.0-1.0","""event"",""trial"",""time""
""fullscreenenter"",""0"",""3664""
","
","
","""event"",""trial"",""time""
""fullscreenenter"",""0"",""3664""
","
","null","<p></p>","null","","","","","","","","","","","","","","","","","","","","","","",""
"","do_trial","226","941686","0.0-123.0-0.0","""event"",""trial"",""time""
""fullscreenenter"",""0"",""3664""
","
","
","""event"",""trial"",""time""
""fullscreenenter"",""0"",""3664""
","
","380.6899999980815","","","","","","","","51","1,1,0","1","highway","67","probe-13","0.20163103497604304","0.5366976085716154","0.1260368004695957","0","","","","","","","",""
"","html-keyboard-response","227","942694","0.0-123.0-1.0","""event"",""trial"",""time""
""fullscreenenter"",""0"",""3664""
","
","
","""event"",""trial"",""time""
""fullscreenenter"",""0"",""3664""
","
","null","<p></p>","null","","","","","","","","","","","","","","","","","","","","","","",""
"","do_trial","228","947731","0.0-124.0-0.0","""event"",""trial"",""time""
""fullscreenenter"",""0"",""3664""
","
","
","""event"",""trial"",""time""
""fullscreenenter"",""0"",""3664""
","
","440.10500000137836","","","","","","","","49","1,1,0","1","highway","68","probe-51","0.28023418382884907","0.6163091030228143","0.13340152808642988","1","","","","","","","",""
"","html-keyboard-response","229","948739","0.0-124.0-1.0","""event"",""trial"",""time""
""fullscreenenter"",""0"",""3664""
","
","
","""event"",""trial"",""time""
""fullscreenenter"",""0"",""3664""
","
","null","<p></p>","null","","","","","","","","","","","","","","","","","","","","","","",""
"","do_trial","230","953743","0.0-125.0-0.0","""event"",""trial"",""time""
""fullscreenenter"",""0"",""3664""
","
","
","""event"",""trial"",""time""
""fullscreenenter"",""0"",""3664""
","
","408.25000000046566","","","","","","","","50","0,1,0","1","highway","69","probe-157","0.18574729171637688","0.5647327043287886","0.05717442293771751","1","","","","","","","",""
"","html-keyboard-response","231","954751","0.0-125.0-1.0","""event"",""trial"",""time""
""fullscreenenter"",""0"",""3664""
","
","
","""event"",""trial"",""time""
""fullscreenenter"",""0"",""3664""
","
","null","<p></p>","null","","","","","","","","","","","","","","","","","","","","","","",""
"","do_bye","232","956264","0.0-126.0-0.0","""event"",""trial"",""time""
""fullscreenenter"",""0"",""3664""
","
","
","""event"",""trial"",""time""
""fullscreenenter"",""0"",""3664""
","
","null","","","","","","","","null","","","","","","","","","","","","","","","","",""
"","break","233","957758","0.0-126.0-1.0","""event"",""trial"",""time""
""fullscreenenter"",""0"",""3664""
","
","
","""event"",""trial"",""time""
""fullscreenenter"",""0"",""3664""
","
","1491.2650000043213","<div class='center'><p>Time to take a quick break! You have 2 minutes to rest, but you can move on sooner if you'd like.</p><p> Press the <b>space bar</b> to continue.</p></div>","32","","","","","","","","","","","","","","","","","","","","","","",""
"","do_travel","234","966768","0.0-127.0-0.0","""event"",""trial"",""time""
""fullscreenenter"",""0"",""3664""
","
","
","""event"",""trial"",""time""
""fullscreenenter"",""0"",""3664""
","
","null","","","","","","","","null","","","","","","","","","","","","","","","","",""
"","do_welcome","235","970783","0.0-127.0-1.0","""event"",""trial"",""time""
""fullscreenenter"",""0"",""3664""
","
","
","""event"",""trial"",""time""
""fullscreenenter"",""0"",""3664""
","
","null","","","","","","","","null","","","","","","","","","","","","","","","","",""
"","do_trial","236","977350","0.0-128.0-0.0","""event"",""trial"",""time""
""fullscreenenter"",""0"",""3664""
","
","
","""event"",""trial"",""time""
""fullscreenenter"",""0"",""3664""
","
","1974.3850000014063","","","","","","","","49","0,1,0","2","forest","70","probe-57","0.28220362254277365","1","0.06552221898440938","0","","","","","","","",""
"","html-keyboard-response","237","978354","0.0-128.0-1.0","""event"",""trial"",""time""
""fullscreenenter"",""0"",""3664""
","
","
","""event"",""trial"",""time""
""fullscreenenter"",""0"",""3664""
","
","null","<p></p>","null","","","","","","","","","","","","","","","","","","","","","","",""
"","do_trial","238","983677","0.0-129.0-0.0","""event"",""trial"",""time""
""fullscreenenter"",""0"",""3664""
","
","
","""event"",""trial"",""time""
""fullscreenenter"",""0"",""3664""
","
","719.0699999992503","","","","","","","","50","0,1,0","2","forest","71","probe-55","0.28587440516310414","1","0.06865501910490038","1","","","","","","","",""
"","html-keyboard-response","239","984685","0.0-129.0-1.0","""event"",""trial"",""time""
""fullscreenenter"",""0"",""3664""
","
","
","""event"",""trial"",""time""
""fullscreenenter"",""0"",""3664""
","
","null","<p></p>","null","","","","","","","","","","","","","","","","","","","","","","",""
"","do_trial","240","990294","0.0-130.0-0.0","""event"",""trial"",""time""
""fullscreenenter"",""0"",""3664""
","
","
","""event"",""trial"",""time""
""fullscreenenter"",""0"",""3664""
","
","1017.4750000005588","","","","","","","","51","1,1,0","2","forest","72","probe-222","0.3508106941898086","0.829263919346405","0.07293041482043125","0","","","","","","","",""
"","html-keyboard-response","241","991301","0.0-130.0-1.0","""event"",""trial"",""time""
""fullscreenenter"",""0"",""3664""
","
","
","""event"",""trial"",""time""
""fullscreenenter"",""0"",""3664""
","
","null","<p></p>","null","","","","","","","","","","","","","","","","","","","","","","",""
"","do_trial","242","996373","0.0-131.0-0.0","""event"",""trial"",""time""
""fullscreenenter"",""0"",""3664""
","
","
","""event"",""trial"",""time""
""fullscreenenter"",""0"",""3664""
","
","476.2699999992037","","","","","","","","49","1,1,0","2","forest","73","probe-50","0.5970167248915088","0.5766956074443728","0.09591258752971593","1","","","","","","","",""
"","html-keyboard-response","243","997381","0.0-131.0-1.0","""event"",""trial"",""time""
""fullscreenenter"",""0"",""3664""
","
","
","""event"",""trial"",""time""
""fullscreenenter"",""0"",""3664""
","
","null","<p></p>","null","","","","","","","","","","","","","","","","","","","","","","",""
"","do_trial","244","1004061","0.0-132.0-0.0","""event"",""trial"",""time""
""fullscreenenter"",""0"",""3664""
","
","
","""event"",""trial"",""time""
""fullscreenenter"",""0"",""3664""
","
","2080.0000000018626","","","","","","","","50","0,0,1","2","forest","74","probe-112","0.4728861726575211","0.649225739525592","0.08032744049366486","0","","","","","","","",""
"","html-keyboard-response","245","1005068","0.0-132.0-1.0","""event"",""trial"",""time""
""fullscreenenter"",""0"",""3664""
","
","
","""event"",""trial"",""time""
""fullscreenenter"",""0"",""3664""
","
","null","<p></p>","null","","","","","","","","","","","","","","","","","","","","","","",""
"","do_trial","246","1010100","0.0-133.0-0.0","""event"",""trial"",""time""
""fullscreenenter"",""0"",""3664""
","
","
","""event"",""trial"",""time""
""fullscreenenter"",""0"",""3664""
","
","438.43000000191387","","","","","","","","51","0,1,0","2","forest","75","probe-162","0.40847054227851537","0.5270707053727614","0.08281537264050863","0","","","","","","","",""
"","html-keyboard-response","247","1011108","0.0-133.0-1.0","""event"",""trial"",""time""
""fullscreenenter"",""0"",""3664""
","
","
","""event"",""trial"",""time""
""fullscreenenter"",""0"",""3664""
","
","null","<p></p>","null","","","","","","","","","","","","","","","","","","","","","","",""
"","do_trial","248","1016933","0.0-134.0-0.0","""event"",""trial"",""time""
""fullscreenenter"",""0"",""3664""
","
","
","""event"",""trial"",""time""
""fullscreenenter"",""0"",""3664""
","
","1233.360000005574","","","","","","","","49","0,1,0","2","forest","76","probe-142","0.2675545719062846","0.5289384084141676","0.1511163132701749","0","","","","","","","",""
"","html-keyboard-response","249","1017940","0.0-134.0-1.0","""event"",""trial"",""time""
""fullscreenenter"",""0"",""3664""
","
","
","""event"",""trial"",""time""
""fullscreenenter"",""0"",""3664""
","
","null","<p></p>","null","","","","","","","","","","","","","","","","","","","","","","",""
"","do_trial","250","1023059","0.0-135.0-0.0","""event"",""trial"",""time""
""fullscreenenter"",""0"",""3664""
","
","
","""event"",""trial"",""time""
""fullscreenenter"",""0"",""3664""
","
","526.3400000040419","","","","","","","","50","1,1,1","2","forest","77","probe-167","0.2832111675561099","0.4535867102849747","0.08352768136637576","1","","","","","","","",""
"","html-keyboard-response","251","1024064","0.0-135.0-1.0","""event"",""trial"",""time""
""fullscreenenter"",""0"",""3664""
","
","
","""event"",""trial"",""time""
""fullscreenenter"",""0"",""3664""
","
","null","<p></p>","null","","","","","","","","","","","","","","","","","","","","","","",""
"","do_trial","252","1029404","0.0-136.0-0.0","""event"",""trial"",""time""
""fullscreenenter"",""0"",""3664""
","
","
","""event"",""trial"",""time""
""fullscreenenter"",""0"",""3664""
","
","748.6150000039488","","","","","","","","51","0,0,1","2","forest","78","probe-196","0.24675158399468258","0.31671181490351535","0.13740763457352992","1","","","","","","","",""
"","html-keyboard-response","253","1030409","0.0-136.0-1.0","""event"",""trial"",""time""
""fullscreenenter"",""0"",""3664""
","
","
","""event"",""trial"",""time""
""fullscreenenter"",""0"",""3664""
","
","null","<p></p>","null","","","","","","","","","","","","","","","","","","","","","","",""
"","do_trial","254","1035905","0.0-137.0-0.0","""event"",""trial"",""time""
""fullscreenenter"",""0"",""3664""
","
","
","""event"",""trial"",""time""
""fullscreenenter"",""0"",""3664""
","
","905.1700000055134","","","","","","","","49","0,0,0","2","forest","79","probe-147","0.27441871989859634","0.48089635642723055","0.07166244968913096","0","","","","","","","",""
"","html-keyboard-response","255","1036911","0.0-137.0-1.0","""event"",""trial"",""time""
""fullscreenenter"",""0"",""3664""
","
","
","""event"",""trial"",""time""
""fullscreenenter"",""0"",""3664""
","
","null","<p></p>","null","","","","","","","","","","","","","","","","","","","","","","",""
"","do_trial","256","1042100","0.0-138.0-0.0","""event"",""trial"",""time""
""fullscreenenter"",""0"",""3664""
","
","
","""event"",""trial"",""time""
""fullscreenenter"",""0"",""3664""
","
","597.3049999956274","","","","","","","","50","1,1,0","2","forest","80","probe-219","0.29468085951356215","0.6149149739016246","0.06683204597372298","1","","","","","","","",""
"","html-keyboard-response","257","1043108","0.0-138.0-1.0","""event"",""trial"",""time""
""fullscreenenter"",""0"",""3664""
","
","
","""event"",""trial"",""time""
""fullscreenenter"",""0"",""3664""
","
","null","<p></p>","null","","","","","","","","","","","","","","","","","","","","","","",""
"","do_trial","258","1048466","0.0-139.0-0.0","""event"",""trial"",""time""
""fullscreenenter"",""0"",""3664""
","
","
","""event"",""trial"",""time""
""fullscreenenter"",""0"",""3664""
","
","761.9800000030082","","","","","","","","51","0,0,0","2","forest","81","probe-154","0.28361157836670564","0.5801985224235047","0.10657639422248924","0","","","","","","","",""
"","html-keyboard-response","259","1049475","0.0-139.0-1.0","""event"",""trial"",""time""
""fullscreenenter"",""0"",""3664""
","
","
","""event"",""trial"",""time""
""fullscreenenter"",""0"",""3664""
","
","null","<p></p>","null","","","","","","","","","","","","","","","","","","","","","","",""
"","do_trial","260","1055377","0.0-140.0-0.0","""event"",""trial"",""time""
""fullscreenenter"",""0"",""3664""
","
","
","""event"",""trial"",""time""
""fullscreenenter"",""0"",""3664""
","
