"success","trial_type","trial_index","time_elapsed","internal_node_id","interactions","blur_events","focus_events","fullscreenenter_events","fullscreenexit_events","rt","stimulus","key_press","subject_id","participant_id","age","gender","prompt","response","choice_outcomes","context_n","context_img_id","trial_n","probe_img_id","pR_red","pR_white","pR_black","outcome","contextArray_ind","validImageProbes","invalidImageProbes","pRew_Red","pRew_White","pRew_Black","availableForMemProbe","choice_blocks"
"true","fullscreen","0","10896","0.0-0.0","""event"",""trial"",""time""
""focus"",""0"",""0""
""blur"",""0"",""0""
""focus"",""0"",""0""
""blur"",""0"",""0""
""focus"",""0"",""1323""
""fullscreenenter"",""0"",""10121""
","""event"",""trial"",""time""
""blur"",""0"",""0""
""blur"",""0"",""0""
","""event"",""trial"",""time""
""focus"",""0"",""0""
""focus"",""0"",""0""
""focus"",""0"",""1323""
","""event"",""trial"",""time""
""fullscreenenter"",""0"",""10121""
","
","","","","","","","","","","","","","","","","","","","","","","","","","",""
"","pavlovia","1","10899","0.0-1.0","""event"",""trial"",""time""
""focus"",""0"",""0""
""blur"",""0"",""0""
""focus"",""0"",""0""
""blur"",""0"",""0""
""focus"",""0"",""1323""
""fullscreenenter"",""0"",""10121""
""blur"",""2"",""26162""
""focus"",""2"",""29469""
","""event"",""trial"",""time""
""blur"",""0"",""0""
""blur"",""0"",""0""
""blur"",""2"",""26162""
","""event"",""trial"",""time""
""focus"",""0"",""0""
""focus"",""0"",""0""
""focus"",""0"",""1323""
""focus"",""2"",""29469""
","""event"",""trial"",""time""
""fullscreenenter"",""0"",""10121""
","
","","","","","","","","","","","","","","","","","","","","","","","","","",""
"","instruc1","2","56020","0.0-2.0","""event"",""trial"",""time""
""focus"",""0"",""0""
""blur"",""0"",""0""
""focus"",""0"",""0""
""blur"",""0"",""0""
""focus"",""0"",""1323""
""fullscreenenter"",""0"",""10121""
""blur"",""2"",""26162""
""focus"",""2"",""29469""
","""event"",""trial"",""time""
""blur"",""0"",""0""
""blur"",""0"",""0""
""blur"",""2"",""26162""
","""event"",""trial"",""time""
""focus"",""0"",""0""
""focus"",""0"",""0""
""focus"",""0"",""1323""
""focus"",""2"",""29469""
","""event"",""trial"",""time""
""fullscreenenter"",""0"",""10121""
","
","null","run_exp/static/audio/clip_1_welcome.m4a","null","352","736","22","Male","<div class='center'><p>Welcome! This is the first part of the study. It will last ~30 minutes. In part 1 and part 2 of the study, you are the head captain of a pirate ship traveling around the world to different islands. You will play a few different games throughout these two parts. Here is an overview of them:</p><br><p>Part 1 (today)</p><p>1. Instructions, practice game, and quiz</p><p>2. Pick a pirate game on 6 different islands</p><br><p>Part 2 (tomorrow)</p><p>3. Pick a pirate game and memory game</p><p>4. Where did you see this ship? </p></div>","","","","","","","","","","","","","","","","","",""
"","html-keyboard-response","3","56433","0.0-3.0","""event"",""trial"",""time""
""focus"",""0"",""0""
""blur"",""0"",""0""
""focus"",""0"",""0""
""blur"",""0"",""0""
""focus"",""0"",""1323""
""fullscreenenter"",""0"",""10121""
""blur"",""2"",""26162""
""focus"",""2"",""29469""
","""event"",""trial"",""time""
""blur"",""0"",""0""
""blur"",""0"",""0""
""blur"",""2"",""26162""
","""event"",""trial"",""time""
""focus"",""0"",""0""
""focus"",""0"",""0""
""focus"",""0"",""1323""
""focus"",""2"",""29469""
","""event"",""trial"",""time""
""fullscreenenter"",""0"",""10121""
","
","411","<div class='center'><p>Welcome! This is the first part of the study. It will last ~30 minutes. In part 1 and part 2 of the study, you are the head captain of a pirate ship traveling around the world to different islands. You will play a few different games throughout these two parts. Here is an overview of them:</p><br><p>Part 1 (today)</p><p>1. Instructions, practice game, and quiz</p><p>2. Pick a pirate game on 6 different islands</p><br><p>Part 2 (tomorrow)</p><p>3. Pick a pirate game and memory game</p><p>4. Where did you see this ship? </p><p><b>[Press the space bar to continue]</b></p></div>","32","","","","","","","","","","","","","","","","","","","","","","",""
"","instruc2","4","61759","0.0-4.0","""event"",""trial"",""time""
""focus"",""0"",""0""
""blur"",""0"",""0""
""focus"",""0"",""0""
""blur"",""0"",""0""
""focus"",""0"",""1323""
""fullscreenenter"",""0"",""10121""
""blur"",""2"",""26162""
""focus"",""2"",""29469""
","""event"",""trial"",""time""
""blur"",""0"",""0""
""blur"",""0"",""0""
""blur"",""2"",""26162""
","""event"",""trial"",""time""
""focus"",""0"",""0""
""focus"",""0"",""0""
""focus"",""0"",""1323""
""focus"",""2"",""29469""
","""event"",""trial"",""time""
""fullscreenenter"",""0"",""10121""
","
","null","run_exp/static/audio/clip_2_different_places.m4a","null","","","","","<div class='center'><p>Today, you’ll visit these 6 islands on your journey. You'll be able to see these islands from your ship.</p><p><img src='run_exp/static/images/contexts/all_contexts.png' height='500'></p></div>","","","","","","","","","","","","","","","","","",""
"","html-keyboard-response","5","62725","0.0-5.0","""event"",""trial"",""time""
""focus"",""0"",""0""
""blur"",""0"",""0""
""focus"",""0"",""0""
""blur"",""0"",""0""
""focus"",""0"",""1323""
""fullscreenenter"",""0"",""10121""
""blur"",""2"",""26162""
""focus"",""2"",""29469""
","""event"",""trial"",""time""
""blur"",""0"",""0""
""blur"",""0"",""0""
""blur"",""2"",""26162""
","""event"",""trial"",""time""
""focus"",""0"",""0""
""focus"",""0"",""0""
""focus"",""0"",""1323""
""focus"",""2"",""29469""
","""event"",""trial"",""time""
""fullscreenenter"",""0"",""10121""
","
","965","<div class='center'><p>Today, you’ll visit these 6 islands on your journey. You'll be able to see these islands from your ship.</p><p><img src='run_exp/static/images/contexts/all_contexts.png' height='500'></p><p><b>[Press the space bar to continue]</b></p></div>","32","","","","","","","","","","","","","","","","","","","","","","",""
"","instruc3","6","72430","0.0-6.0","""event"",""trial"",""time""
""focus"",""0"",""0""
""blur"",""0"",""0""
""focus"",""0"",""0""
""blur"",""0"",""0""
""focus"",""0"",""1323""
""fullscreenenter"",""0"",""10121""
""blur"",""2"",""26162""
""focus"",""2"",""29469""
","""event"",""trial"",""time""
""blur"",""0"",""0""
""blur"",""0"",""0""
""blur"",""2"",""26162""
","""event"",""trial"",""time""
""focus"",""0"",""0""
""focus"",""0"",""0""
""focus"",""0"",""1323""
""focus"",""2"",""29469""
","""event"",""trial"",""time""
""fullscreenenter"",""0"",""10121""
","
","null","run_exp/static/audio/clip_3_goal_of_game_1.m4a","null","","","","","<div class='center'><p> The pirates on your ship will rob other ships as they leave the island.</p> These ships have just sold their goods to the islanders, so they will be filled with lots and lots of gold.</p><p><img src='run_exp/static/images/tutorial/ship_center.png' height='400'></p></div>","","","","","","","","","","","","","","","","","",""
"","html-keyboard-response","7","73259","0.0-7.0","""event"",""trial"",""time""
""focus"",""0"",""0""
""blur"",""0"",""0""
""focus"",""0"",""0""
""blur"",""0"",""0""
""focus"",""0"",""1323""
""fullscreenenter"",""0"",""10121""
""blur"",""2"",""26162""
""focus"",""2"",""29469""
","""event"",""trial"",""time""
""blur"",""0"",""0""
""blur"",""0"",""0""
""blur"",""2"",""26162""
","""event"",""trial"",""time""
""focus"",""0"",""0""
""focus"",""0"",""0""
""focus"",""0"",""1323""
""focus"",""2"",""29469""
","""event"",""trial"",""time""
""fullscreenenter"",""0"",""10121""
","
","829","<div class='center'><p> The pirates on your ship will rob other ships as they leave the island.</p> These ships have just sold their goods to the islanders, so they will be filled with lots and lots of gold.</p><p><img src='run_exp/static/images/tutorial/ship_center.png' height='400'></p><p><b>[Press the space bar to continue]</b></p></div>","32","","","","","","","","","","","","","","","","","","","","","","",""
"","instruc4","8","101269","0.0-8.0","""event"",""trial"",""time""
""focus"",""0"",""0""
""blur"",""0"",""0""
""focus"",""0"",""0""
""blur"",""0"",""0""
""focus"",""0"",""1323""
""fullscreenenter"",""0"",""10121""
""blur"",""2"",""26162""
""focus"",""2"",""29469""
","""event"",""trial"",""time""
""blur"",""0"",""0""
""blur"",""0"",""0""
""blur"",""2"",""26162""
","""event"",""trial"",""time""
""focus"",""0"",""0""
""focus"",""0"",""0""
""focus"",""0"",""1323""
""focus"",""2"",""29469""
","""event"",""trial"",""time""
""fullscreenenter"",""0"",""10121""
","
","null","run_exp/static/audio/clip_4_goal_of_game_2.m4a","null","","","","","<div class='center'><p>As the head captain, you do not have to rob any ships yourself. Another pirate will be doing the robbing for you. First, you will choose a pirate to rob the next ship.</p><p><img src='run_exp/static/images/tutorial/pirates_all_crop.png' height='200'></p><p>Then, you'll see if the pirate successfully robbed the ship of their gold. If they were successful, then you'll get a stack of gold coins like this:</p><p><img src='run_exp/static/images/tutorial/reward.png' height='150'></p><p> If they were <b>not</b> successful, then you'll get no gold coins, and you'll see a big red x like this: </p><p><img src='run_exp/static/images/tutorial/reward_no.png' height='150'></p><p> How much bonus money you make is based on how many gold coins you collect.</p><div>","","","","","","","","","","","","","","","","","",""
"","html-keyboard-response","9","101552","0.0-9.0","""event"",""trial"",""time""
""focus"",""0"",""0""
""blur"",""0"",""0""
""focus"",""0"",""0""
""blur"",""0"",""0""
""focus"",""0"",""1323""
""fullscreenenter"",""0"",""10121""
""blur"",""2"",""26162""
""focus"",""2"",""29469""
","""event"",""trial"",""time""
""blur"",""0"",""0""
""blur"",""0"",""0""
""blur"",""2"",""26162""
","""event"",""trial"",""time""
""focus"",""0"",""0""
""focus"",""0"",""0""
""focus"",""0"",""1323""
""focus"",""2"",""29469""
","""event"",""trial"",""time""
""fullscreenenter"",""0"",""10121""
","
","282","<div class='center'><p>As the head captain, you do not have to rob any ships yourself. Another pirate will be doing the robbing for you. First, you will choose a pirate to rob the next ship.</p><p><img src='run_exp/static/images/tutorial/pirates_all_crop.png' height='200'></p><p>Then, you'll see if the pirate successfully robbed the ship of their gold. If they were successful, then you'll get a stack of gold coins like this:</p><p><img src='run_exp/static/images/tutorial/reward.png' height='150'></p><p> If they were <b>not</b> successful, then you'll get no gold coins, and you'll see a big red x like this: </p><p><img src='run_exp/static/images/tutorial/reward_no.png' height='150'></p><p> How much bonus money you make is based on how many gold coins you collect.</p<p><b>[Press the space bar to continue]</b></p></div>","32","","","","","","","","","","","","","","","","","","","","","","",""
"","instruc5","10","122279","0.0-10.0","""event"",""trial"",""time""
""focus"",""0"",""0""
""blur"",""0"",""0""
""focus"",""0"",""0""
""blur"",""0"",""0""
""focus"",""0"",""1323""
""fullscreenenter"",""0"",""10121""
""blur"",""2"",""26162""
""focus"",""2"",""29469""
","""event"",""trial"",""time""
""blur"",""0"",""0""
""blur"",""0"",""0""
""blur"",""2"",""26162""
","""event"",""trial"",""time""
""focus"",""0"",""0""
""focus"",""0"",""0""
""focus"",""0"",""1323""
""focus"",""2"",""29469""
","""event"",""trial"",""time""
""fullscreenenter"",""0"",""10121""
","
","20725","run_exp/static/audio/clip_5_probabilistic.m4a","49","","","","","<div class='center'><p>Even the most skilled pirate can not rob EVERY ship.</p><p> Some ships will have very strong protections against pirate attacks.</p><p> Blue beard, here, is very, very good at robbing ships, but he won't be successful every time he tries to rob one.</p><p> You can press the <b>‘1’</b> key on the keyboard to choose him.</p><p> Try choosing him 10 times to see how often he succeeds at robbing a ship. </p><p><img src='run_exp/static/images/tutorial/blue.png' height='500'></p></div>","","","","","","","","","","","","","","","","","",""
"","html-keyboard-response","11","123796","0.0-11.0","""event"",""trial"",""time""
""focus"",""0"",""0""
""blur"",""0"",""0""
""focus"",""0"",""0""
""blur"",""0"",""0""
""focus"",""0"",""1323""
""fullscreenenter"",""0"",""10121""
""blur"",""2"",""26162""
""focus"",""2"",""29469""
","""event"",""trial"",""time""
""blur"",""0"",""0""
""blur"",""0"",""0""
""blur"",""2"",""26162""
","""event"",""trial"",""time""
""focus"",""0"",""0""
""focus"",""0"",""0""
""focus"",""0"",""1323""
""focus"",""2"",""29469""
","""event"",""trial"",""time""
""fullscreenenter"",""0"",""10121""
","
","null","<div class='center'><p><img src='run_exp/static/images/tutorial/blue_win.png' height='500'></p></div>","null","","","","","","","","","","","","","","","","","","","","","","",""
"","html-keyboard-response","12","125235","0.0-12.0","""event"",""trial"",""time""
""focus"",""0"",""0""
""blur"",""0"",""0""
""focus"",""0"",""0""
""blur"",""0"",""0""
""focus"",""0"",""1323""
""fullscreenenter"",""0"",""10121""
""blur"",""2"",""26162""
""focus"",""2"",""29469""
","""event"",""trial"",""time""
""blur"",""0"",""0""
""blur"",""0"",""0""
""blur"",""2"",""26162""
","""event"",""trial"",""time""
""focus"",""0"",""0""
""focus"",""0"",""0""
""focus"",""0"",""1323""
""focus"",""2"",""29469""
","""event"",""trial"",""time""
""fullscreenenter"",""0"",""10121""
","
","1438","<div class='center'><img src='run_exp/static/images/tutorial/blue.png' height='500'></p></div>","49","","","","","","","","","","","","","","","","","","","","","","",""
"","html-keyboard-response","13","126745","0.0-13.0","""event"",""trial"",""time""
""focus"",""0"",""0""
""blur"",""0"",""0""
""focus"",""0"",""0""
""blur"",""0"",""0""
""focus"",""0"",""1323""
""fullscreenenter"",""0"",""10121""
""blur"",""2"",""26162""
""focus"",""2"",""29469""
","""event"",""trial"",""time""
""blur"",""0"",""0""
""blur"",""0"",""0""
""blur"",""2"",""26162""
","""event"",""trial"",""time""
""focus"",""0"",""0""
""focus"",""0"",""0""
""focus"",""0"",""1323""
""focus"",""2"",""29469""
","""event"",""trial"",""time""
""fullscreenenter"",""0"",""10121""
","
","null","<div class='center'><p><img src='run_exp/static/images/tutorial/blue_win.png' height='500'></p></div>","null","","","","","","","","","","","","","","","","","","","","","","",""
"","html-keyboard-response","14","128039","0.0-14.0","""event"",""trial"",""time""
""focus"",""0"",""0""
""blur"",""0"",""0""
""focus"",""0"",""0""
""blur"",""0"",""0""
""focus"",""0"",""1323""
""fullscreenenter"",""0"",""10121""
""blur"",""2"",""26162""
""focus"",""2"",""29469""
","""event"",""trial"",""time""
""blur"",""0"",""0""
""blur"",""0"",""0""
""blur"",""2"",""26162""
","""event"",""trial"",""time""
""focus"",""0"",""0""
""focus"",""0"",""0""
""focus"",""0"",""1323""
""focus"",""2"",""29469""
","""event"",""trial"",""time""
""fullscreenenter"",""0"",""10121""
","
","1291","<div class='center'><img src='run_exp/static/images/tutorial/blue.png' height='500'></p></div>","49","","","","","","","","","","","","","","","","","","","","","","",""
"","html-keyboard-response","15","129555","0.0-15.0","""event"",""trial"",""time""
""focus"",""0"",""0""
""blur"",""0"",""0""
""focus"",""0"",""0""
""blur"",""0"",""0""
""focus"",""0"",""1323""
""fullscreenenter"",""0"",""10121""
""blur"",""2"",""26162""
""focus"",""2"",""29469""
","""event"",""trial"",""time""
""blur"",""0"",""0""
""blur"",""0"",""0""
""blur"",""2"",""26162""
","""event"",""trial"",""time""
""focus"",""0"",""0""
""focus"",""0"",""0""
""focus"",""0"",""1323""
""focus"",""2"",""29469""
","""event"",""trial"",""time""
""fullscreenenter"",""0"",""10121""
","
","null","<div class='center'><p><img src='run_exp/static/images/tutorial/blue_win.png' height='500'></p></div>","null","","","","","","","","","","","","","","","","","","","","","","",""
"","html-keyboard-response","16","130388","0.0-16.0","""event"",""trial"",""time""
""focus"",""0"",""0""
""blur"",""0"",""0""
""focus"",""0"",""0""
""blur"",""0"",""0""
""focus"",""0"",""1323""
""fullscreenenter"",""0"",""10121""
""blur"",""2"",""26162""
""focus"",""2"",""29469""
","""event"",""trial"",""time""
""blur"",""0"",""0""
""blur"",""0"",""0""
""blur"",""2"",""26162""
","""event"",""trial"",""time""
""focus"",""0"",""0""
""focus"",""0"",""0""
""focus"",""0"",""1323""
""focus"",""2"",""29469""
","""event"",""trial"",""time""
""fullscreenenter"",""0"",""10121""
","
","830","<div class='center'><img src='run_exp/static/images/tutorial/blue.png' height='500'></p></div>","49","","","","","","","","","","","","","","","","","","","","","","",""
"","html-keyboard-response","17","131905","0.0-17.0","""event"",""trial"",""time""
""focus"",""0"",""0""
""blur"",""0"",""0""
""focus"",""0"",""0""
""blur"",""0"",""0""
""focus"",""0"",""1323""
""fullscreenenter"",""0"",""10121""
""blur"",""2"",""26162""
""focus"",""2"",""29469""
","""event"",""trial"",""time""
""blur"",""0"",""0""
""blur"",""0"",""0""
""blur"",""2"",""26162""
","""event"",""trial"",""time""
""focus"",""0"",""0""
""focus"",""0"",""0""
""focus"",""0"",""1323""
""focus"",""2"",""29469""
","""event"",""trial"",""time""
""fullscreenenter"",""0"",""10121""
","
","null","<div class='center'><p><img src='run_exp/static/images/tutorial/blue_no_win.png' height='500'></p></div>","null","","","","","","","","","","","","","","","","","","","","","","",""
"","html-keyboard-response","18","132353","0.0-18.0","""event"",""trial"",""time""
""focus"",""0"",""0""
""blur"",""0"",""0""
""focus"",""0"",""0""
""blur"",""0"",""0""
""focus"",""0"",""1323""
""fullscreenenter"",""0"",""10121""
""blur"",""2"",""26162""
""focus"",""2"",""29469""
","""event"",""trial"",""time""
""blur"",""0"",""0""
""blur"",""0"",""0""
""blur"",""2"",""26162""
","""event"",""trial"",""time""
""focus"",""0"",""0""
""focus"",""0"",""0""
""focus"",""0"",""1323""
""focus"",""2"",""29469""
","""event"",""trial"",""time""
""fullscreenenter"",""0"",""10121""
","
","448","<div class='center'><img src='run_exp/static/images/tutorial/blue.png' height='500'></p></div>","49","","","","","","","","","","","","","","","","","","","","","","",""
"","html-keyboard-response","19","133866","0.0-19.0","""event"",""trial"",""time""
""focus"",""0"",""0""
""blur"",""0"",""0""
""focus"",""0"",""0""
""blur"",""0"",""0""
""focus"",""0"",""1323""
""fullscreenenter"",""0"",""10121""
""blur"",""2"",""26162""
""focus"",""2"",""29469""
","""event"",""trial"",""time""
""blur"",""0"",""0""
""blur"",""0"",""0""
""blur"",""2"",""26162""
","""event"",""trial"",""time""
""focus"",""0"",""0""
""focus"",""0"",""0""
""focus"",""0"",""1323""
""focus"",""2"",""29469""
","""event"",""trial"",""time""
""fullscreenenter"",""0"",""10121""
","
","null","<div class='center'><p><img src='run_exp/static/images/tutorial/blue_win.png' height='500'></p></div>","null","","","","","","","","","","","","","","","","","","","","","","",""
"","html-keyboard-response","20","134215","0.0-20.0","""event"",""trial"",""time""
""focus"",""0"",""0""
""blur"",""0"",""0""
""focus"",""0"",""0""
""blur"",""0"",""0""
""focus"",""0"",""1323""
""fullscreenenter"",""0"",""10121""
""blur"",""2"",""26162""
""focus"",""2"",""29469""
","""event"",""trial"",""time""
""blur"",""0"",""0""
""blur"",""0"",""0""
""blur"",""2"",""26162""
","""event"",""trial"",""time""
""focus"",""0"",""0""
""focus"",""0"",""0""
""focus"",""0"",""1323""
""focus"",""2"",""29469""
","""event"",""trial"",""time""
""fullscreenenter"",""0"",""10121""
","
","349","<div class='center'><img src='run_exp/static/images/tutorial/blue.png' height='500'></p></div>","49","","","","","","","","","","","","","","","","","","","","","","",""
"","html-keyboard-response","21","135726","0.0-21.0","""event"",""trial"",""time""
""focus"",""0"",""0""
""blur"",""0"",""0""
""focus"",""0"",""0""
""blur"",""0"",""0""
""focus"",""0"",""1323""
""fullscreenenter"",""0"",""10121""
""blur"",""2"",""26162""
""focus"",""2"",""29469""
","""event"",""trial"",""time""
""blur"",""0"",""0""
""blur"",""0"",""0""
""blur"",""2"",""26162""
","""event"",""trial"",""time""
""focus"",""0"",""0""
""focus"",""0"",""0""
""focus"",""0"",""1323""
""focus"",""2"",""29469""
","""event"",""trial"",""time""
""fullscreenenter"",""0"",""10121""
","
","null","<div class='center'><p><img src='run_exp/static/images/tutorial/blue_win.png' height='500'></p></div>","null","","","","","","","","","","","","","","","","","","","","","","",""
"","html-keyboard-response","22","136014","0.0-22.0","""event"",""trial"",""time""
""focus"",""0"",""0""
""blur"",""0"",""0""
""focus"",""0"",""0""
""blur"",""0"",""0""
""focus"",""0"",""1323""
""fullscreenenter"",""0"",""10121""
""blur"",""2"",""26162""
""focus"",""2"",""29469""
","""event"",""trial"",""time""
""blur"",""0"",""0""
""blur"",""0"",""0""
""blur"",""2"",""26162""
","""event"",""trial"",""time""
""focus"",""0"",""0""
""focus"",""0"",""0""
""focus"",""0"",""1323""
""focus"",""2"",""29469""
","""event"",""trial"",""time""
""fullscreenenter"",""0"",""10121""
","
","288","<div class='center'><img src='run_exp/static/images/tutorial/blue.png' height='500'></p></div>","49","","","","","","","","","","","","","","","","","","","","","","",""
"","html-keyboard-response","23","137525","0.0-23.0","""event"",""trial"",""time""
""focus"",""0"",""0""
""blur"",""0"",""0""
""focus"",""0"",""0""
""blur"",""0"",""0""
""focus"",""0"",""1323""
""fullscreenenter"",""0"",""10121""
""blur"",""2"",""26162""
""focus"",""2"",""29469""
","""event"",""trial"",""time""
""blur"",""0"",""0""
""blur"",""0"",""0""
""blur"",""2"",""26162""
","""event"",""trial"",""time""
""focus"",""0"",""0""
""focus"",""0"",""0""
""focus"",""0"",""1323""
""focus"",""2"",""29469""
","""event"",""trial"",""time""
""fullscreenenter"",""0"",""10121""
","
","null","<div class='center'><p><img src='run_exp/static/images/tutorial/blue_win.png' height='500'></p></div>","null","","","","","","","","","","","","","","","","","","","","","","",""
"","html-keyboard-response","24","138057","0.0-24.0","""event"",""trial"",""time""
""focus"",""0"",""0""
""blur"",""0"",""0""
""focus"",""0"",""0""
""blur"",""0"",""0""
""focus"",""0"",""1323""
""fullscreenenter"",""0"",""10121""
""blur"",""2"",""26162""
""focus"",""2"",""29469""
","""event"",""trial"",""time""
""blur"",""0"",""0""
""blur"",""0"",""0""
""blur"",""2"",""26162""
","""event"",""trial"",""time""
""focus"",""0"",""0""
""focus"",""0"",""0""
""focus"",""0"",""1323""
""focus"",""2"",""29469""
","""event"",""trial"",""time""
""fullscreenenter"",""0"",""10121""
","
","532","<div class='center'><img src='run_exp/static/images/tutorial/blue.png' height='500'></p></div>","49","","","","","","","","","","","","","","","","","","","","","","",""
"","html-keyboard-response","25","139575","0.0-25.0","""event"",""trial"",""time""
""focus"",""0"",""0""
""blur"",""0"",""0""
""focus"",""0"",""0""
""blur"",""0"",""0""
""focus"",""0"",""1323""
""fullscreenenter"",""0"",""10121""
""blur"",""2"",""26162""
""focus"",""2"",""29469""
","""event"",""trial"",""time""
""blur"",""0"",""0""
""blur"",""0"",""0""
""blur"",""2"",""26162""
","""event"",""trial"",""time""
""focus"",""0"",""0""
""focus"",""0"",""0""
""focus"",""0"",""1323""
""focus"",""2"",""29469""
","""event"",""trial"",""time""
""fullscreenenter"",""0"",""10121""
","
","null","<div class='center'><p><img src='run_exp/static/images/tutorial/blue_no_win.png' height='500'></p></div>","null","","","","","","","","","","","","","","","","","","","","","","",""
"","html-keyboard-response","26","140133","0.0-26.0","""event"",""trial"",""time""
""focus"",""0"",""0""
""blur"",""0"",""0""
""focus"",""0"",""0""
""blur"",""0"",""0""
""focus"",""0"",""1323""
""fullscreenenter"",""0"",""10121""
""blur"",""2"",""26162""
""focus"",""2"",""29469""
","""event"",""trial"",""time""
""blur"",""0"",""0""
""blur"",""0"",""0""
""blur"",""2"",""26162""
","""event"",""trial"",""time""
""focus"",""0"",""0""
""focus"",""0"",""0""
""focus"",""0"",""1323""
""focus"",""2"",""29469""
","""event"",""trial"",""time""
""fullscreenenter"",""0"",""10121""
","
","556","<div class='center'><img src='run_exp/static/images/tutorial/blue.png' height='500'></p></div>","49","","","","","","","","","","","","","","","","","","","","","","",""
"","html-keyboard-response","27","141635","0.0-27.0","""event"",""trial"",""time""
""focus"",""0"",""0""
""blur"",""0"",""0""
""focus"",""0"",""0""
""blur"",""0"",""0""
""focus"",""0"",""1323""
""fullscreenenter"",""0"",""10121""
""blur"",""2"",""26162""
""focus"",""2"",""29469""
","""event"",""trial"",""time""
""blur"",""0"",""0""
""blur"",""0"",""0""
""blur"",""2"",""26162""
","""event"",""trial"",""time""
""focus"",""0"",""0""
""focus"",""0"",""0""
""focus"",""0"",""1323""
""focus"",""2"",""29469""
","""event"",""trial"",""time""
""fullscreenenter"",""0"",""10121""
","
","null","<div class='center'><p><img src='run_exp/static/images/tutorial/blue_win.png' height='500'></p></div>","null","","","","","","","","","","","","","","","","","","","","","","",""
"","html-keyboard-response","28","142101","0.0-28.0","""event"",""trial"",""time""
""focus"",""0"",""0""
""blur"",""0"",""0""
""focus"",""0"",""0""
""blur"",""0"",""0""
""focus"",""0"",""1323""
""fullscreenenter"",""0"",""10121""
""blur"",""2"",""26162""
""focus"",""2"",""29469""
","""event"",""trial"",""time""
""blur"",""0"",""0""
""blur"",""0"",""0""
""blur"",""2"",""26162""
","""event"",""trial"",""time""
""focus"",""0"",""0""
""focus"",""0"",""0""
""focus"",""0"",""1323""
""focus"",""2"",""29469""
","""event"",""trial"",""time""
""fullscreenenter"",""0"",""10121""
","
","464","<div class='center'><img src='run_exp/static/images/tutorial/blue.png' height='500'></p></div>","49","","","","","","","","","","","","","","","","","","","","","","",""
"","html-keyboard-response","29","143605","0.0-29.0","""event"",""trial"",""time""
""focus"",""0"",""0""
""blur"",""0"",""0""
""focus"",""0"",""0""
""blur"",""0"",""0""
""focus"",""0"",""1323""
""fullscreenenter"",""0"",""10121""
""blur"",""2"",""26162""
""focus"",""2"",""29469""
","""event"",""trial"",""time""
""blur"",""0"",""0""
""blur"",""0"",""0""
""blur"",""2"",""26162""
","""event"",""trial"",""time""
""focus"",""0"",""0""
""focus"",""0"",""0""
""focus"",""0"",""1323""
""focus"",""2"",""29469""
","""event"",""trial"",""time""
""fullscreenenter"",""0"",""10121""
","
","null","<div class='center'><p><img src='run_exp/static/images/tutorial/blue_win.png' height='500'></p></div>","null","","","","","","","","","","","","","","","","","","","","","","",""
"","instruc6","30","149020","0.0-30.0","""event"",""trial"",""time""
""focus"",""0"",""0""
""blur"",""0"",""0""
""focus"",""0"",""0""
""blur"",""0"",""0""
""focus"",""0"",""1323""
""fullscreenenter"",""0"",""10121""
""blur"",""2"",""26162""
""focus"",""2"",""29469""
","""event"",""trial"",""time""
""blur"",""0"",""0""
""blur"",""0"",""0""
""blur"",""2"",""26162""
","""event"",""trial"",""time""
""focus"",""0"",""0""
""focus"",""0"",""0""
""focus"",""0"",""1323""
""focus"",""2"",""29469""
","""event"",""trial"",""time""
""fullscreenenter"",""0"",""10121""
","
","null","run_exp/static/audio/clip_6_blue_beard_outcome.m4a","null","","","","","<div class='center'><p> See, he succeeded in robbing the ships most of the time but not every time. </p></div>","","","","","","","","","","","","","","","","","",""
"","html-keyboard-response","31","150110","0.0-31.0","""event"",""trial"",""time""
""focus"",""0"",""0""
""blur"",""0"",""0""
""focus"",""0"",""0""
""blur"",""0"",""0""
""focus"",""0"",""1323""
""fullscreenenter"",""0"",""10121""
""blur"",""2"",""26162""
""focus"",""2"",""29469""
","""event"",""trial"",""time""
""blur"",""0"",""0""
""blur"",""0"",""0""
""blur"",""2"",""26162""
","""event"",""trial"",""time""
""focus"",""0"",""0""
""focus"",""0"",""0""
""focus"",""0"",""1323""
""focus"",""2"",""29469""
","""event"",""trial"",""time""
""fullscreenenter"",""0"",""10121""
","
","1089","<div class='center'><p> See, he succeeded in robbing the ships most of the time but not every time. </p><p><b>[Press the space bar to continue]</b></p></div>","32","","","","","","","","","","","","","","","","","","","","","","",""
"","audio-keyboard-response","32","166650","0.0-32.0","""event"",""trial"",""time""
""focus"",""0"",""0""
""blur"",""0"",""0""
""focus"",""0"",""0""
""blur"",""0"",""0""
""focus"",""0"",""1323""
""fullscreenenter"",""0"",""10121""
""blur"",""2"",""26162""
""focus"",""2"",""29469""
","""event"",""trial"",""time""
""blur"",""0"",""0""
""blur"",""0"",""0""
""blur"",""2"",""26162""
","""event"",""trial"",""time""
""focus"",""0"",""0""
""focus"",""0"",""0""
""focus"",""0"",""1323""
""focus"",""2"",""29469""
","""event"",""trial"",""time""
""fullscreenenter"",""0"",""10121""
","
","16540","run_exp/static/audio/clip_7_pick_pirate.m4a","51","","","","","","","","","","","","","","","","","","","","","","",""
"","audio-keyboard-response","33","170074","0.0-33.0-0.0","""event"",""trial"",""time""
""focus"",""0"",""0""
""blur"",""0"",""0""
""focus"",""0"",""0""
""blur"",""0"",""0""
""focus"",""0"",""1323""
""fullscreenenter"",""0"",""10121""
""blur"",""2"",""26162""
""focus"",""2"",""29469""
","""event"",""trial"",""time""
""blur"",""0"",""0""
""blur"",""0"",""0""
""blur"",""2"",""26162""
","""event"",""trial"",""time""
""focus"",""0"",""0""
""focus"",""0"",""0""
""focus"",""0"",""1323""
""focus"",""2"",""29469""
","""event"",""trial"",""time""
""fullscreenenter"",""0"",""10121""
","
","3424","run_exp/static/audio/clip_8_chosen_pirate_win.m4a","32","","","","","","","","","","","","","","","","","","","","","","",""
"","audio-keyboard-response","34","171584","0.0-33.0-1.0","""event"",""trial"",""time""
""focus"",""0"",""0""
""blur"",""0"",""0""
""focus"",""0"",""0""
""blur"",""0"",""0""
""focus"",""0"",""1323""
""fullscreenenter"",""0"",""10121""
""blur"",""2"",""26162""
""focus"",""2"",""29469""
","""event"",""trial"",""time""
""blur"",""0"",""0""
""blur"",""0"",""0""
""blur"",""2"",""26162""
","""event"",""trial"",""time""
""focus"",""0"",""0""
""focus"",""0"",""0""
""focus"",""0"",""1323""
""focus"",""2"",""29469""
","""event"",""trial"",""time""
""fullscreenenter"",""0"",""10121""
","
","1509","run_exp/static/audio/clip_9_pick_a_pirate_again.m4a","50","","","","","","","","","","","","","","","","","","","","","","",""
"","audio-keyboard-response","35","172862","0.0-34.0-0.0","""event"",""trial"",""time""
""focus"",""0"",""0""
""blur"",""0"",""0""
""focus"",""0"",""0""
""blur"",""0"",""0""
""focus"",""0"",""1323""
""fullscreenenter"",""0"",""10121""
""blur"",""2"",""26162""
""focus"",""2"",""29469""
","""event"",""trial"",""time""
""blur"",""0"",""0""
""blur"",""0"",""0""
""blur"",""2"",""26162""
","""event"",""trial"",""time""
""focus"",""0"",""0""
""focus"",""0"",""0""
""focus"",""0"",""1323""
""focus"",""2"",""29469""
","""event"",""trial"",""time""
""fullscreenenter"",""0"",""10121""
","
","1276","run_exp/static/audio/clip_10_chosen_pirate_loss.m4a","32","","","","","","","","","","","","","","","","","","","","","","",""
"","instruc9","36","178369","0.0-35.0-0.0","""event"",""trial"",""time""
""focus"",""0"",""0""
""blur"",""0"",""0""
""focus"",""0"",""0""
""blur"",""0"",""0""
""focus"",""0"",""1323""
""fullscreenenter"",""0"",""10121""
""blur"",""2"",""26162""
""focus"",""2"",""29469""
","""event"",""trial"",""time""
""blur"",""0"",""0""
""blur"",""0"",""0""
""blur"",""2"",""26162""
","""event"",""trial"",""time""
""focus"",""0"",""0""
""focus"",""0"",""0""
""focus"",""0"",""1323""
""focus"",""2"",""29469""
","""event"",""trial"",""time""
""fullscreenenter"",""0"",""10121""
","
","null","run_exp/static/audio/clip_11_time_out.m4a","null","","","","","<div class='center'><p>If you don’t make your choice fast enough, you’ll have to wait a few seconds before you can make another one. </p><p><img src='run_exp/static/images/miscellaneous/hurry_up.png' height='500'></p></div>","","","","","","","","","","","","","","","","","",""
"","html-keyboard-response","37","179442","0.0-35.0-1.0","""event"",""trial"",""time""
""focus"",""0"",""0""
""blur"",""0"",""0""
""focus"",""0"",""0""
""blur"",""0"",""0""
""focus"",""0"",""1323""
""fullscreenenter"",""0"",""10121""
""blur"",""2"",""26162""
""focus"",""2"",""29469""
","""event"",""trial"",""time""
""blur"",""0"",""0""
""blur"",""0"",""0""
""blur"",""2"",""26162""
","""event"",""trial"",""time""
""focus"",""0"",""0""
""focus"",""0"",""0""
""focus"",""0"",""1323""
""focus"",""2"",""29469""
","""event"",""trial"",""time""
""fullscreenenter"",""0"",""10121""
","
","1073","<div class='center'><p>If you don’t make your choice fast enough, you’ll have to wait a few seconds before you can make another one. </p><p><img src='run_exp/static/images/miscellaneous/hurry_up.png' height='500'></p><p><b>[Press the space bar to continue]</b></p></div>","32","","","","","","","","","","","","","","","","","","","","","","",""
"","instruc10","38","218549","0.0-35.0-2.0","""event"",""trial"",""time""
""focus"",""0"",""0""
""blur"",""0"",""0""
""focus"",""0"",""0""
""blur"",""0"",""0""
""focus"",""0"",""1323""
""fullscreenenter"",""0"",""10121""
""blur"",""2"",""26162""
""focus"",""2"",""29469""
","""event"",""trial"",""time""
""blur"",""0"",""0""
""blur"",""0"",""0""
""blur"",""2"",""26162""
","""event"",""trial"",""time""
""focus"",""0"",""0""
""focus"",""0"",""0""
""focus"",""0"",""1323""
""focus"",""2"",""29469""
","""event"",""trial"",""time""
""fullscreenenter"",""0"",""10121""
","
","null","run_exp/static/audio/clip_12_probe.m4a","null","","","","","<div class='center'><p>Once you've chosen a pirate, you’ll be shown the ship they are robbing. You will never rob the same ship twice. Ships can be told apart from one another by the image on them. These are the goods that they sell. See, this ship has a travel mug on it. </p><p> You’ll have to remember which island you saw each ship on. You will win more gold coins and hence more bonus money if you remember correctly! To help you remember, you can imagine a story. For example, here, you could imagine a mug full of water in the desert. Or, as another example, if on the forest island, your pirate robbed a ship with an apple on it, you could imagine an apple falling from a tree in the forest. </p><p><img src='run_exp/static/images/tutorial/example_probe.png' height='500'></p></div>","","","","","","","","","","","","","","","","","",""
"","html-keyboard-response","39","219417","0.0-35.0-3.0","""event"",""trial"",""time""
""focus"",""0"",""0""
""blur"",""0"",""0""
""focus"",""0"",""0""
""blur"",""0"",""0""
""focus"",""0"",""1323""
""fullscreenenter"",""0"",""10121""
""blur"",""2"",""26162""
""focus"",""2"",""29469""
","""event"",""trial"",""time""
""blur"",""0"",""0""
""blur"",""0"",""0""
""blur"",""2"",""26162""
","""event"",""trial"",""time""
""focus"",""0"",""0""
""focus"",""0"",""0""
""focus"",""0"",""1323""
""focus"",""2"",""29469""
","""event"",""trial"",""time""
""fullscreenenter"",""0"",""10121""
","
","869","<div class='center'><p>Once you've chosen a pirate, you’ll be shown the ship they are robbing. You will never rob the same ship twice. Ships can be told apart from one another by the image on them. These are the goods that they sell. See, this ship has a travel mug on it. </p><p> You’ll have to remember which island you saw each ship on. You will win more gold coins and hence more bonus money if you remember correctly! To help you remember, you can imagine a story. For example, here, you could imagine a mug full of water in the desert. Or, as another example, if on the forest island, your pirate robbed a ship with an apple on it, you could imagine an apple falling from a tree in the forest. </p><p><img src='run_exp/static/images/tutorial/example_probe.png' height='500'></p><p><b>[Press the space bar to continue]</b></p></div>","32","","","","","","","","","","","","","","","","","","","","","","",""
"","instruc11","40","235849","0.0-35.0-4.0","""event"",""trial"",""time""
""focus"",""0"",""0""
""blur"",""0"",""0""
""focus"",""0"",""0""
""blur"",""0"",""0""
""focus"",""0"",""1323""
""fullscreenenter"",""0"",""10121""
""blur"",""2"",""26162""
""focus"",""2"",""29469""
","""event"",""trial"",""time""
""blur"",""0"",""0""
""blur"",""0"",""0""
""blur"",""2"",""26162""
","""event"",""trial"",""time""
""focus"",""0"",""0""
""focus"",""0"",""0""
""focus"",""0"",""1323""
""focus"",""2"",""29469""
","""event"",""trial"",""time""
""fullscreenenter"",""0"",""10121""
","
","null","run_exp/static/audio/clip_13_changepoint.m4a","null","","","","","<div class='center'><p>How successful a pirate is at robbing ships will depend on the island you’re on.</p><p> A pirate may have visited this island many times before and gained a lot of practice robbing ships there.</p><p>So, they’re more likely to be successful than a pirate who has never visited the island before.</p></div>","","","","","","","","","","","","","","","","","",""
"","html-keyboard-response","41","237192","0.0-35.0-5.0","""event"",""trial"",""time""
""focus"",""0"",""0""
""blur"",""0"",""0""
""focus"",""0"",""0""
""blur"",""0"",""0""
""focus"",""0"",""1323""
""fullscreenenter"",""0"",""10121""
""blur"",""2"",""26162""
""focus"",""2"",""29469""
","""event"",""trial"",""time""
""blur"",""0"",""0""
""blur"",""0"",""0""
""blur"",""2"",""26162""
","""event"",""trial"",""time""
""focus"",""0"",""0""
""focus"",""0"",""0""
""focus"",""0"",""1323""
""focus"",""2"",""29469""
","""event"",""trial"",""time""
""fullscreenenter"",""0"",""10121""
","
","1343","<div class='center'><p>How successful a pirate is at robbing ships will depend on the island you’re on.</p><p> A pirate may have visited this island many times before and gained a lot of practice robbing ships there.</p><p>So, they’re more likely to be successful than a pirate who has never visited the island before.</p><p><b>[Press the space bar to continue]</b></p></div>","32","","","","","","","","","","","","","","","","","","","","","","",""
"","instruc12","42","278299","0.0-35.0-6.0","""event"",""trial"",""time""
""focus"",""0"",""0""
""blur"",""0"",""0""
""focus"",""0"",""0""
""blur"",""0"",""0""
""focus"",""0"",""1323""
""fullscreenenter"",""0"",""10121""
""blur"",""2"",""26162""
""focus"",""2"",""29469""
","""event"",""trial"",""time""
""blur"",""0"",""0""
""blur"",""0"",""0""
""blur"",""2"",""26162""
","""event"",""trial"",""time""
""focus"",""0"",""0""
""focus"",""0"",""0""
""focus"",""0"",""1323""
""focus"",""2"",""29469""
","""event"",""trial"",""time""
""fullscreenenter"",""0"",""10121""
","
","null","run_exp/static/audio/clip_14_drift.m4a","null","","","","","<div class='center'><p>How successful a pirate is at robbing ships can also change over the time spent on the island. </p><p> Ships may hear from islanders about the pirates coming and will improve their protections against the attack. This may make it harder to rob them.</p><p> Ships may also become lazy and weaken the strength of their protections. This may make it easier to rob them.</p><br><p>Things are always changing on the high seas! So, try your best to pay attention!</p><p><img src='run_exp/static/images/tutorial/contingency.png' height='500'></p></div>","","","","","","","","","","","","","","","","","",""
"","html-keyboard-response","43","280219","0.0-35.0-7.0","""event"",""trial"",""time""
""focus"",""0"",""0""
""blur"",""0"",""0""
""focus"",""0"",""0""
""blur"",""0"",""0""
""focus"",""0"",""1323""
""fullscreenenter"",""0"",""10121""
""blur"",""2"",""26162""
""focus"",""2"",""29469""
","""event"",""trial"",""time""
""blur"",""0"",""0""
""blur"",""0"",""0""
""blur"",""2"",""26162""
","""event"",""trial"",""time""
""focus"",""0"",""0""
""focus"",""0"",""0""
""focus"",""0"",""1323""
""focus"",""2"",""29469""
","""event"",""trial"",""time""
""fullscreenenter"",""0"",""10121""
","
","1919","<div class='center'><p>How successful a pirate is at robbing ships can also change over the time spent on the island. </p><p> Ships may hear from islanders about the pirates coming and will improve their protections against the attack. This may make it harder to rob them.</p><p> Ships may also become lazy and weaken the strength of their protections. This may make it easier to rob them.</p><br><p>Things are always changing on the high seas! So, try your best to pay attention!</p><p><img src='run_exp/static/images/tutorial/contingency.png' height='500'></p><p><b>[Press the space bar to continue]</b></p></div>","32","","","","","","","","","","","","","","","","","","","","","","",""
"","instruc13","44","315429","0.0-35.0-8.0","""event"",""trial"",""time""
""focus"",""0"",""0""
""blur"",""0"",""0""
""focus"",""0"",""0""
""blur"",""0"",""0""
""focus"",""0"",""1323""
""fullscreenenter"",""0"",""10121""
""blur"",""2"",""26162""
""focus"",""2"",""29469""
","""event"",""trial"",""time""
""blur"",""0"",""0""
""blur"",""0"",""0""
""blur"",""2"",""26162""
","""event"",""trial"",""time""
""focus"",""0"",""0""
""focus"",""0"",""0""
""focus"",""0"",""1323""
""focus"",""2"",""29469""
","""event"",""trial"",""time""
""fullscreenenter"",""0"",""10121""
","
","null","run_exp/static/audio/clip_15_summary.m4a","null","","","","","<div class='center'><p>Let's go over the instructions quickly again. You have two important things to do: </p><b><p> 1. Pick the pirate who is the best at robbing ships on the current island. </p></b><b><p> 2. Remember on which island a ship was robbed.</p> </b><p>The amount of bonus money you can win depends on both.</p><p><br><p>Let’s try a practice game. The game will start by showing you the pirates. First, pick a pirate using the <b> 1, 2, 3 </b> keys on your keyboard. When you are shown a ship, try to remember which island you’re on by making up a story.</p><p>This is just a practice game, so you’re not playing for money. </p><p> Good luck! This game will be very difficult but try your best!</p></div>","","","","","","","","","","","","","","","","","",""
"","html-keyboard-response","45","315910","0.0-35.0-9.0","""event"",""trial"",""time""
""focus"",""0"",""0""
""blur"",""0"",""0""
""focus"",""0"",""0""
""blur"",""0"",""0""
""focus"",""0"",""1323""
""fullscreenenter"",""0"",""10121""
""blur"",""2"",""26162""
""focus"",""2"",""29469""
","""event"",""trial"",""time""
""blur"",""0"",""0""
""blur"",""0"",""0""
""blur"",""2"",""26162""
","""event"",""trial"",""time""
""focus"",""0"",""0""
""focus"",""0"",""0""
""focus"",""0"",""1323""
""focus"",""2"",""29469""
","""event"",""trial"",""time""
""fullscreenenter"",""0"",""10121""
","
","481","<div class='center'><p>Let's go over the instructions quickly again. You have two important things to do: </p><b><p> 1. Pick the pirate who is the best at robbing ships on the current island. </p></b><b><p> 2. Remember on which island a ship was robbed.</p> </b><p>The amount of bonus money you can win depends on both.</p><p><br><p>Let’s try a practice game. The game will start by showing you the pirates. First, pick a pirate using the <b> 1, 2, 3 </b> keys on your keyboard. When you are shown a ship, try to remember which island you’re on by making up a story.</p><p>This is just a practice game, so you’re not playing for money. </p><p> Good luck! This game will be very difficult but try your best!</p><p><b>[Press the space bar to continue]</b></p></div>","32","","","","","","","","","","","","","","","","","","","","","","",""
"","do_welcome","46","319947","0.0-35.0-10.0","""event"",""trial"",""time""
""focus"",""0"",""0""
""blur"",""0"",""0""
""focus"",""0"",""0""
""blur"",""0"",""0""
""focus"",""0"",""1323""
""fullscreenenter"",""0"",""10121""
""blur"",""2"",""26162""
""focus"",""2"",""29469""
""blur"",""47"",""326160""
","""event"",""trial"",""time""
""blur"",""0"",""0""
""blur"",""0"",""0""
""blur"",""2"",""26162""
""blur"",""47"",""326160""
","""event"",""trial"",""time""
""focus"",""0"",""0""
""focus"",""0"",""0""
""focus"",""0"",""1323""
""focus"",""2"",""29469""
","""event"",""trial"",""time""
""fullscreenenter"",""0"",""10121""
","
","null","","","","","","","","null","","","","","","","","","","","","","","","","",""
"","do_trial","47","326936","0.0-35.0-11.0","""event"",""trial"",""time""
""focus"",""0"",""0""
""blur"",""0"",""0""
""focus"",""0"",""0""
""blur"",""0"",""0""
""focus"",""0"",""1323""
""fullscreenenter"",""0"",""10121""
""blur"",""2"",""26162""
""focus"",""2"",""29469""
""blur"",""47"",""326160""
","""event"",""trial"",""time""
""blur"",""0"",""0""
""blur"",""0"",""0""
""blur"",""2"",""26162""
""blur"",""47"",""326160""
","""event"",""trial"",""time""
""focus"",""0"",""0""
""focus"",""0"",""0""
""focus"",""0"",""1323""
""focus"",""2"",""29469""
","""event"",""trial"",""time""
""fullscreenenter"",""0"",""10121""
","
","2468","","","","","","","","50","1,0,0","","","","","","","","","","","","","","","",""
"","html-keyboard-response","48","327946","0.0-36.0-0.0","""event"",""trial"",""time""
""focus"",""0"",""0""
""blur"",""0"",""0""
""focus"",""0"",""0""
""blur"",""0"",""0""
""focus"",""0"",""1323""
""fullscreenenter"",""0"",""10121""
""blur"",""2"",""26162""
""focus"",""2"",""29469""
""blur"",""47"",""326160""
""focus"",""49"",""329650""
","""event"",""trial"",""time""
""blur"",""0"",""0""
""blur"",""0"",""0""
""blur"",""2"",""26162""
""blur"",""47"",""326160""
","""event"",""trial"",""time""
""focus"",""0"",""0""
""focus"",""0"",""0""
""focus"",""0"",""1323""
""focus"",""2"",""29469""
""focus"",""49"",""329650""
","""event"",""trial"",""time""
""fullscreenenter"",""0"",""10121""
","
","null","<p></p>","null","","","","","","","","","","","","","","","","","","","","","","",""
"","do_trial","49","334905","0.0-36.0-1.0","""event"",""trial"",""time""
""focus"",""0"",""0""
""blur"",""0"",""0""
""focus"",""0"",""0""
""blur"",""0"",""0""
""focus"",""0"",""1323""
""fullscreenenter"",""0"",""10121""
""blur"",""2"",""26162""
""focus"",""2"",""29469""
""blur"",""47"",""326160""
""focus"",""49"",""329650""
","""event"",""trial"",""time""
""blur"",""0"",""0""
""blur"",""0"",""0""
""blur"",""2"",""26162""
""blur"",""47"",""326160""
","""event"",""trial"",""time""
""focus"",""0"",""0""
""focus"",""0"",""0""
""focus"",""0"",""1323""
""focus"",""2"",""29469""
""focus"",""49"",""329650""
","""event"",""trial"",""time""
""fullscreenenter"",""0"",""10121""
","
","2449","","","","","","","","49","1,1,0","","","","","","","","","","","","","","","",""
"","html-keyboard-response","50","335925","0.0-37.0-0.0","""event"",""trial"",""time""
""focus"",""0"",""0""
""blur"",""0"",""0""
""focus"",""0"",""0""
""blur"",""0"",""0""
""focus"",""0"",""1323""
""fullscreenenter"",""0"",""10121""
""blur"",""2"",""26162""
""focus"",""2"",""29469""
""blur"",""47"",""326160""
""focus"",""49"",""329650""
","""event"",""trial"",""time""
""blur"",""0"",""0""
""blur"",""0"",""0""
""blur"",""2"",""26162""
""blur"",""47"",""326160""
","""event"",""trial"",""time""
""focus"",""0"",""0""
""focus"",""0"",""0""
""focus"",""0"",""1323""
""focus"",""2"",""29469""
""focus"",""49"",""329650""
","""event"",""trial"",""time""
""fullscreenenter"",""0"",""10121""
","
","null","<p></p>","null","","","","","","","","","","","","","","","","","","","","","","",""
"","do_trial","51","341125","0.0-37.0-1.0","""event"",""trial"",""time""
""focus"",""0"",""0""
""blur"",""0"",""0""
""focus"",""0"",""0""
""blur"",""0"",""0""
""focus"",""0"",""1323""
""fullscreenenter"",""0"",""10121""
""blur"",""2"",""26162""
""focus"",""2"",""29469""
""blur"",""47"",""326160""
""focus"",""49"",""329650""
","""event"",""trial"",""time""
""blur"",""0"",""0""
""blur"",""0"",""0""
""blur"",""2"",""26162""
""blur"",""47"",""326160""
","""event"",""trial"",""time""
""focus"",""0"",""0""
""focus"",""0"",""0""
""focus"",""0"",""1323""
""focus"",""2"",""29469""
""focus"",""49"",""329650""
","""event"",""trial"",""time""
""fullscreenenter"",""0"",""10121""
","
","696","","","","","","","","51","1,0,1","","","","","","","","","","","","","","","",""
"","html-keyboard-response","52","342145","0.0-38.0-0.0","""event"",""trial"",""time""
""focus"",""0"",""0""
""blur"",""0"",""0""
""focus"",""0"",""0""
""blur"",""0"",""0""
""focus"",""0"",""1323""
""fullscreenenter"",""0"",""10121""
""blur"",""2"",""26162""
""focus"",""2"",""29469""
""blur"",""47"",""326160""
""focus"",""49"",""329650""
","""event"",""trial"",""time""
""blur"",""0"",""0""
""blur"",""0"",""0""
""blur"",""2"",""26162""
""blur"",""47"",""326160""
","""event"",""trial"",""time""
""focus"",""0"",""0""
""focus"",""0"",""0""
""focus"",""0"",""1323""
""focus"",""2"",""29469""
""focus"",""49"",""329650""
","""event"",""trial"",""time""
""fullscreenenter"",""0"",""10121""
","
","null","<p></p>","null","","","","","","","","","","","","","","","","","","","","","","",""
"","do_trial","53","347055","0.0-38.0-1.0","""event"",""trial"",""time""
""focus"",""0"",""0""
""blur"",""0"",""0""
""focus"",""0"",""0""
""blur"",""0"",""0""
""focus"",""0"",""1323""
""fullscreenenter"",""0"",""10121""
""blur"",""2"",""26162""
""focus"",""2"",""29469""
""blur"",""47"",""326160""
""focus"",""49"",""329650""
","""event"",""trial"",""time""
""blur"",""0"",""0""
""blur"",""0"",""0""
""blur"",""2"",""26162""
""blur"",""47"",""326160""
","""event"",""trial"",""time""
""focus"",""0"",""0""
""focus"",""0"",""0""
""focus"",""0"",""1323""
""focus"",""2"",""29469""
""focus"",""49"",""329650""
","""event"",""trial"",""time""
""fullscreenenter"",""0"",""10121""
","
","400","","","","","","","","51","0,1,0","","","","","","","","","","","","","","","",""
"","html-keyboard-response","54","348065","0.0-39.0-0.0","""event"",""trial"",""time""
""focus"",""0"",""0""
""blur"",""0"",""0""
""focus"",""0"",""0""
""blur"",""0"",""0""
""focus"",""0"",""1323""
""fullscreenenter"",""0"",""10121""
""blur"",""2"",""26162""
""focus"",""2"",""29469""
""blur"",""47"",""326160""
""focus"",""49"",""329650""
","""event"",""trial"",""time""
""blur"",""0"",""0""
""blur"",""0"",""0""
""blur"",""2"",""26162""
""blur"",""47"",""326160""
","""event"",""trial"",""time""
""focus"",""0"",""0""
""focus"",""0"",""0""
""focus"",""0"",""1323""
""focus"",""2"",""29469""
""focus"",""49"",""329650""
","""event"",""trial"",""time""
""fullscreenenter"",""0"",""10121""
","
","null","<p></p>","null","","","","","","","","","","","","","","","","","","","","","","",""
"","do_trial","55","353476","0.0-39.0-1.0","""event"",""trial"",""time""
""focus"",""0"",""0""
""blur"",""0"",""0""
""focus"",""0"",""0""
""blur"",""0"",""0""
""focus"",""0"",""1323""
""fullscreenenter"",""0"",""10121""
""blur"",""2"",""26162""
""focus"",""2"",""29469""
""blur"",""47"",""326160""
""focus"",""49"",""329650""
","""event"",""trial"",""time""
""blur"",""0"",""0""
""blur"",""0"",""0""
""blur"",""2"",""26162""
""blur"",""47"",""326160""
","""event"",""trial"",""time""
""focus"",""0"",""0""
""focus"",""0"",""0""
""focus"",""0"",""1323""
""focus"",""2"",""29469""
""focus"",""49"",""329650""
","""event"",""trial"",""time""
""fullscreenenter"",""0"",""10121""
","
","898","","","","","","","","49","1,0,0","","","","","","","","","","","","","","","",""
"","do_bye","56","354986","0.0-40.0-0.0","""event"",""trial"",""time""
""focus"",""0"",""0""
""blur"",""0"",""0""
""focus"",""0"",""0""
""blur"",""0"",""0""
""focus"",""0"",""1323""
""fullscreenenter"",""0"",""10121""
""blur"",""2"",""26162""
""focus"",""2"",""29469""
""blur"",""47"",""326160""
""focus"",""49"",""329650""
","""event"",""trial"",""time""
""blur"",""0"",""0""
""blur"",""0"",""0""
""blur"",""2"",""26162""
""blur"",""47"",""326160""
","""event"",""trial"",""time""
""focus"",""0"",""0""
""focus"",""0"",""0""
""focus"",""0"",""1323""
""focus"",""2"",""29469""
""focus"",""49"",""329650""
","""event"",""trial"",""time""
""fullscreenenter"",""0"",""10121""
","
","null","","","","","","","","null","","","","","","","","","","","","","","","","",""
"","do_travel","57","363995","0.0-40.0-1.0","""event"",""trial"",""time""
""focus"",""0"",""0""
""blur"",""0"",""0""
""focus"",""0"",""0""
""blur"",""0"",""0""
""focus"",""0"",""1323""
""fullscreenenter"",""0"",""10121""
""blur"",""2"",""26162""
""focus"",""2"",""29469""
""blur"",""47"",""326160""
""focus"",""49"",""329650""
","""event"",""trial"",""time""
""blur"",""0"",""0""
""blur"",""0"",""0""
""blur"",""2"",""26162""
""blur"",""47"",""326160""
","""event"",""trial"",""time""
""focus"",""0"",""0""
""focus"",""0"",""0""
""focus"",""0"",""1323""
""focus"",""2"",""29469""
""focus"",""49"",""329650""
","""event"",""trial"",""time""
""fullscreenenter"",""0"",""10121""
","
","null","","","","","","","","null","","","","","","","","","","","","","","","","",""
"","do_welcome","58","368006","0.0-40.0-2.0","""event"",""trial"",""time""
""focus"",""0"",""0""
""blur"",""0"",""0""
""focus"",""0"",""0""
""blur"",""0"",""0""
""focus"",""0"",""1323""
""fullscreenenter"",""0"",""10121""
""blur"",""2"",""26162""
""focus"",""2"",""29469""
""blur"",""47"",""326160""
""focus"",""49"",""329650""
","""event"",""trial"",""time""
""blur"",""0"",""0""
""blur"",""0"",""0""
""blur"",""2"",""26162""
""blur"",""47"",""326160""
","""event"",""trial"",""time""
""focus"",""0"",""0""
""focus"",""0"",""0""
""focus"",""0"",""1323""
""focus"",""2"",""29469""
""focus"",""49"",""329650""
","""event"",""trial"",""time""
""fullscreenenter"",""0"",""10121""
","
","null","","","","","","","","null","","","","","","","","","","","","","","","","",""
"","do_trial","59","373826","0.0-40.0-3.0","""event"",""trial"",""time""
""focus"",""0"",""0""
""blur"",""0"",""0""
""focus"",""0"",""0""
""blur"",""0"",""0""
""focus"",""0"",""1323""
""fullscreenenter"",""0"",""10121""
""blur"",""2"",""26162""
""focus"",""2"",""29469""
""blur"",""47"",""326160""
""focus"",""49"",""329650""
","""event"",""trial"",""time""
""blur"",""0"",""0""
""blur"",""0"",""0""
""blur"",""2"",""26162""
""blur"",""47"",""326160""
","""event"",""trial"",""time""
""focus"",""0"",""0""
""focus"",""0"",""0""
""focus"",""0"",""1323""
""focus"",""2"",""29469""
""focus"",""49"",""329650""
","""event"",""trial"",""time""
""fullscreenenter"",""0"",""10121""
","
","1316","","","","","","","","50","1,0,0","","","","","","","","","","","","","","","",""
"","html-keyboard-response","60","374845","0.0-41.0-0.0","""event"",""trial"",""time""
""focus"",""0"",""0""
""blur"",""0"",""0""
""focus"",""0"",""0""
""blur"",""0"",""0""
""focus"",""0"",""1323""
""fullscreenenter"",""0"",""10121""
""blur"",""2"",""26162""
""focus"",""2"",""29469""
""blur"",""47"",""326160""
""focus"",""49"",""329650""
","""event"",""trial"",""time""
""blur"",""0"",""0""
""blur"",""0"",""0""
""blur"",""2"",""26162""
""blur"",""47"",""326160""
","""event"",""trial"",""time""
""focus"",""0"",""0""
""focus"",""0"",""0""
""focus"",""0"",""1323""
""focus"",""2"",""29469""
""focus"",""49"",""329650""
","""event"",""trial"",""time""
""fullscreenenter"",""0"",""10121""
","
","null","<p></p>","null","","","","","","","","","","","","","","","","","","","","","","",""
"","do_trial","61","380056","0.0-41.0-1.0","""event"",""trial"",""time""
""focus"",""0"",""0""
""blur"",""0"",""0""
""focus"",""0"",""0""
""blur"",""0"",""0""
""focus"",""0"",""1323""
""fullscreenenter"",""0"",""10121""
""blur"",""2"",""26162""
""focus"",""2"",""29469""
""blur"",""47"",""326160""
""focus"",""49"",""329650""
","""event"",""trial"",""time""
""blur"",""0"",""0""
""blur"",""0"",""0""
""blur"",""2"",""26162""
""blur"",""47"",""326160""
","""event"",""trial"",""time""
""focus"",""0"",""0""
""focus"",""0"",""0""
""focus"",""0"",""1323""
""focus"",""2"",""29469""
""focus"",""49"",""329650""
","""event"",""trial"",""time""
""fullscreenenter"",""0"",""10121""
","
","694","","","","","","","","49","1,0,1","","","","","","","","","","","","","","","",""
"","html-keyboard-response","62","381075","0.0-42.0-0.0","""event"",""trial"",""time""
""focus"",""0"",""0""
""blur"",""0"",""0""
""focus"",""0"",""0""
""blur"",""0"",""0""
""focus"",""0"",""1323""
""fullscreenenter"",""0"",""10121""
""blur"",""2"",""26162""
""focus"",""2"",""29469""
""blur"",""47"",""326160""
""focus"",""49"",""329650""
","""event"",""trial"",""time""
""blur"",""0"",""0""
""blur"",""0"",""0""
""blur"",""2"",""26162""
""blur"",""47"",""326160""
","""event"",""trial"",""time""
""focus"",""0"",""0""
""focus"",""0"",""0""
""focus"",""0"",""1323""
""focus"",""2"",""29469""
""focus"",""49"",""329650""
","""event"",""trial"",""time""
""fullscreenenter"",""0"",""10121""
","
","null","<p></p>","null","","","","","","","","","","","","","","","","","","","","","","",""
"","do_trial","63","385955","0.0-42.0-1.0","""event"",""trial"",""time""
""focus"",""0"",""0""
""blur"",""0"",""0""
""focus"",""0"",""0""
""blur"",""0"",""0""
""focus"",""0"",""1323""
""fullscreenenter"",""0"",""10121""
""blur"",""2"",""26162""
""focus"",""2"",""29469""
""blur"",""47"",""326160""
""focus"",""49"",""329650""
","""event"",""trial"",""time""
""blur"",""0"",""0""
""blur"",""0"",""0""
""blur"",""2"",""26162""
""blur"",""47"",""326160""
","""event"",""trial"",""time""
""focus"",""0"",""0""
""focus"",""0"",""0""
""focus"",""0"",""1323""
""focus"",""2"",""29469""
""focus"",""49"",""329650""
","""event"",""trial"",""time""
""fullscreenenter"",""0"",""10121""
","
","368","","","","","","","","49","1,1,0","","","","","","","","","","","","","","","",""
"","html-keyboard-response","64","386976","0.0-43.0-0.0","""event"",""trial"",""time""
""focus"",""0"",""0""
""blur"",""0"",""0""
""focus"",""0"",""0""
""blur"",""0"",""0""
""focus"",""0"",""1323""
""fullscreenenter"",""0"",""10121""
""blur"",""2"",""26162""
""focus"",""2"",""29469""
""blur"",""47"",""326160""
""focus"",""49"",""329650""
","""event"",""trial"",""time""
""blur"",""0"",""0""
""blur"",""0"",""0""
""blur"",""2"",""26162""
""blur"",""47"",""326160""
","""event"",""trial"",""time""
""focus"",""0"",""0""
""focus"",""0"",""0""
""focus"",""0"",""1323""
""focus"",""2"",""29469""
""focus"",""49"",""329650""
","""event"",""trial"",""time""
""fullscreenenter"",""0"",""10121""
","
","null","<p></p>","null","","","","","","","","","","","","","","","","","","","","","","",""
"","do_trial","65","391745","0.0-43.0-1.0","""event"",""trial"",""time""
""focus"",""0"",""0""
""blur"",""0"",""0""
""focus"",""0"",""0""
""blur"",""0"",""0""
""focus"",""0"",""1323""
""fullscreenenter"",""0"",""10121""
""blur"",""2"",""26162""
""focus"",""2"",""29469""
""blur"",""47"",""326160""
""focus"",""49"",""329650""
","""event"",""trial"",""time""
""blur"",""0"",""0""
""blur"",""0"",""0""
""blur"",""2"",""26162""
""blur"",""47"",""326160""
","""event"",""trial"",""time""
""focus"",""0"",""0""
""focus"",""0"",""0""
""focus"",""0"",""1323""
""focus"",""2"",""29469""
""focus"",""49"",""329650""
","""event"",""trial"",""time""
""fullscreenenter"",""0"",""10121""
","
","257","","","","","","","","49","0,0,1","","","","","","","","","","","","","","","",""
"","html-keyboard-response","66","392756","0.0-44.0-0.0","""event"",""trial"",""time""
""focus"",""0"",""0""
""blur"",""0"",""0""
""focus"",""0"",""0""
""blur"",""0"",""0""
""focus"",""0"",""1323""
""fullscreenenter"",""0"",""10121""
""blur"",""2"",""26162""
""focus"",""2"",""29469""
""blur"",""47"",""326160""
""focus"",""49"",""329650""
","""event"",""trial"",""time""
""blur"",""0"",""0""
""blur"",""0"",""0""
""blur"",""2"",""26162""
""blur"",""47"",""326160""
","""event"",""trial"",""time""
""focus"",""0"",""0""
""focus"",""0"",""0""
""focus"",""0"",""1323""
""focus"",""2"",""29469""
""focus"",""49"",""329650""
","""event"",""trial"",""time""
""fullscreenenter"",""0"",""10121""
","
","null","<p></p>","null","","","","","","","","","","","","","","","","","","","","","","",""
"","do_trial","67","398776","0.0-44.0-1.0","""event"",""trial"",""time""
""focus"",""0"",""0""
""blur"",""0"",""0""
""focus"",""0"",""0""
""blur"",""0"",""0""
""focus"",""0"",""1323""
""fullscreenenter"",""0"",""10121""
""blur"",""2"",""26162""
""focus"",""2"",""29469""
""blur"",""47"",""326160""
""focus"",""49"",""329650""
","""event"",""trial"",""time""
""blur"",""0"",""0""
""blur"",""0"",""0""
""blur"",""2"",""26162""
""blur"",""47"",""326160""
","""event"",""trial"",""time""
""focus"",""0"",""0""
""focus"",""0"",""0""
""focus"",""0"",""1323""
""focus"",""2"",""29469""
""focus"",""49"",""329650""
","""event"",""trial"",""time""
""fullscreenenter"",""0"",""10121""
","
","null","","","","","","","","null","1,0,1","","","","","","","","","","","","","","","",""
"","html-keyboard-response","68","399786","0.0-45.0-0.0","""event"",""trial"",""time""
""focus"",""0"",""0""
""blur"",""0"",""0""
""focus"",""0"",""0""
""blur"",""0"",""0""
""focus"",""0"",""1323""
""fullscreenenter"",""0"",""10121""
""blur"",""2"",""26162""
""focus"",""2"",""29469""
""blur"",""47"",""326160""
""focus"",""49"",""329650""
","""event"",""trial"",""time""
""blur"",""0"",""0""
""blur"",""0"",""0""
""blur"",""2"",""26162""
""blur"",""47"",""326160""
","""event"",""trial"",""time""
""focus"",""0"",""0""
""focus"",""0"",""0""
""focus"",""0"",""1323""
""focus"",""2"",""29469""
""focus"",""49"",""329650""
","""event"",""trial"",""time""
""fullscreenenter"",""0"",""10121""
","
","null","<p></p>","null","","","","","","","","","","","","","","","","","","","","","","",""
"","do_trial","69","405096","0.0-45.0-1.0","""event"",""trial"",""time""
""focus"",""0"",""0""
""blur"",""0"",""0""
""focus"",""0"",""0""
""blur"",""0"",""0""
""focus"",""0"",""1323""
""fullscreenenter"",""0"",""10121""
""blur"",""2"",""26162""
""focus"",""2"",""29469""
""blur"",""47"",""326160""
""focus"",""49"",""329650""
","""event"",""trial"",""time""
""blur"",""0"",""0""
""blur"",""0"",""0""
""blur"",""2"",""26162""
""blur"",""47"",""326160""
","""event"",""trial"",""time""
""focus"",""0"",""0""
""focus"",""0"",""0""
""focus"",""0"",""1323""
""focus"",""2"",""29469""
""focus"",""49"",""329650""
","""event"",""trial"",""time""
""fullscreenenter"",""0"",""10121""
","
","796","","","","","","","","49","1,0,1","","","","","","","","","","","","","","","",""
"","html-keyboard-response","70","407564","0.0-46.0-0.0","""event"",""trial"",""time""
""focus"",""0"",""0""
""blur"",""0"",""0""
""focus"",""0"",""0""
""blur"",""0"",""0""
""focus"",""0"",""1323""
""fullscreenenter"",""0"",""10121""
""blur"",""2"",""26162""
""focus"",""2"",""29469""
""blur"",""47"",""326160""
""focus"",""49"",""329650""
","""event"",""trial"",""time""
""blur"",""0"",""0""
""blur"",""0"",""0""
""blur"",""2"",""26162""
""blur"",""47"",""326160""
","""event"",""trial"",""time""
""focus"",""0"",""0""
""focus"",""0"",""0""
""focus"",""0"",""1323""
""focus"",""2"",""29469""
""focus"",""49"",""329650""
","""event"",""trial"",""time""
""fullscreenenter"",""0"",""10121""
","
","2467","<div class='center'><p><img src='run_exp/static/images/tutorial/prac_best_pirate.png'  height='500'></p></div>","49","","","","","","","","","","","","","","","","","","","","","","",""
"","html-keyboard-response","71","409937","0.0-47.0-0.0","""event"",""trial"",""time""
""focus"",""0"",""0""
""blur"",""0"",""0""
""focus"",""0"",""0""
""blur"",""0"",""0""
""focus"",""0"",""1323""
""fullscreenenter"",""0"",""10121""
""blur"",""2"",""26162""
""focus"",""2"",""29469""
""blur"",""47"",""326160""
""focus"",""49"",""329650""
","""event"",""trial"",""time""
""blur"",""0"",""0""
""blur"",""0"",""0""
""blur"",""2"",""26162""
""blur"",""47"",""326160""
","""event"",""trial"",""time""
""focus"",""0"",""0""
""focus"",""0"",""0""
""focus"",""0"",""1323""
""focus"",""2"",""29469""
""focus"",""49"",""329650""
","""event"",""trial"",""time""
""fullscreenenter"",""0"",""10121""
","
","2373","<div class='center'><p>That's correct! Red beard was the best.</p><p><b>[Press the space bar to continue]</b></p></div>","32","","","","","","","","","","","","","","","","","","","","","","",""
"","html-keyboard-response","72","412807","0.0-47.0-1.0","""event"",""trial"",""time""
""focus"",""0"",""0""
""blur"",""0"",""0""
""focus"",""0"",""0""
""blur"",""0"",""0""
""focus"",""0"",""1323""
""fullscreenenter"",""0"",""10121""
""blur"",""2"",""26162""
""focus"",""2"",""29469""
""blur"",""47"",""326160""
""focus"",""49"",""329650""
","""event"",""trial"",""time""
""blur"",""0"",""0""
""blur"",""0"",""0""
""blur"",""2"",""26162""
""blur"",""47"",""326160""
","""event"",""trial"",""time""
""focus"",""0"",""0""
""focus"",""0"",""0""
""focus"",""0"",""1323""
""focus"",""2"",""29469""
""focus"",""49"",""329650""
","""event"",""trial"",""time""
""fullscreenenter"",""0"",""10121""
","
","2870","<div class='center'><p><img src='run_exp/static/images/tutorial/prac_source.png'  height='500'></p></div>","50","","","","","","","","","","","","","","","","","","","","","","",""
"","html-keyboard-response","73","413952","0.0-48.0-0.0","""event"",""trial"",""time""
""focus"",""0"",""0""
""blur"",""0"",""0""
""focus"",""0"",""0""
""blur"",""0"",""0""
""focus"",""0"",""1323""
""fullscreenenter"",""0"",""10121""
""blur"",""2"",""26162""
""focus"",""2"",""29469""
""blur"",""47"",""326160""
""focus"",""49"",""329650""
","""event"",""trial"",""time""
""blur"",""0"",""0""
""blur"",""0"",""0""
""blur"",""2"",""26162""
""blur"",""47"",""326160""
","""event"",""trial"",""time""
""focus"",""0"",""0""
""focus"",""0"",""0""
""focus"",""0"",""1323""
""focus"",""2"",""29469""
""focus"",""49"",""329650""
","""event"",""trial"",""time""
""fullscreenenter"",""0"",""10121""
","
","1145","<div class='center'><p>That's correct! You saw this ship on the cavern island.</p><p><b>[Press the space bar to continue]</b></p></div>","32","","","","","","","","","","","","","","","","","","","","","","",""
"","quiz_beginning","74","425169","0.0-48.0-1.0","""event"",""trial"",""time""
""focus"",""0"",""0""
""blur"",""0"",""0""
""focus"",""0"",""0""
""blur"",""0"",""0""
""focus"",""0"",""1323""
""fullscreenenter"",""0"",""10121""
""blur"",""2"",""26162""
""focus"",""2"",""29469""
""blur"",""47"",""326160""
""focus"",""49"",""329650""
","""event"",""trial"",""time""
""blur"",""0"",""0""
""blur"",""0"",""0""
""blur"",""2"",""26162""
""blur"",""47"",""326160""
","""event"",""trial"",""time""
""focus"",""0"",""0""
""focus"",""0"",""0""
""focus"",""0"",""1323""
""focus"",""2"",""29469""
""focus"",""49"",""329650""
","""event"",""trial"",""time""
""fullscreenenter"",""0"",""10121""
","
","null","run_exp/static/audio/clip_16_quiz_intro.m4a","null","","","","","<div class='center'><p>Good job on the practice game! Now, you will be asked some true or false questions to make sure you really understand the rules of the game.</p><p> Press <b>'1'</b> on the keyboard for true and press <b>'2'</b> for false.</p></div>","","","","","","","","","","","","","","","","","",""
"","audio-keyboard-response","75","428406","0.0-48.0-2.0","""event"",""trial"",""time""
""focus"",""0"",""0""
""blur"",""0"",""0""
""focus"",""0"",""0""
""blur"",""0"",""0""
""focus"",""0"",""1323""
""fullscreenenter"",""0"",""10121""
""blur"",""2"",""26162""
""focus"",""2"",""29469""
""blur"",""47"",""326160""
""focus"",""49"",""329650""
","""event"",""trial"",""time""
""blur"",""0"",""0""
""blur"",""0"",""0""
""blur"",""2"",""26162""
""blur"",""47"",""326160""
","""event"",""trial"",""time""
""focus"",""0"",""0""
""focus"",""0"",""0""
""focus"",""0"",""1323""
""focus"",""2"",""29469""
""focus"",""49"",""329650""
","""event"",""trial"",""time""
""fullscreenenter"",""0"",""10121""
","
","3236","run_exp/static/audio/clip_17_q1.m4a","49","","","","","","","","","","","","","","","","","","","","","","",""
"","correct","76","430819","0.0-49.0-0.0","""event"",""trial"",""time""
""focus"",""0"",""0""
""blur"",""0"",""0""
""focus"",""0"",""0""
""blur"",""0"",""0""
""focus"",""0"",""1323""
""fullscreenenter"",""0"",""10121""
""blur"",""2"",""26162""
""focus"",""2"",""29469""
""blur"",""47"",""326160""
""focus"",""49"",""329650""
","""event"",""trial"",""time""
""blur"",""0"",""0""
""blur"",""0"",""0""
""blur"",""2"",""26162""
""blur"",""47"",""326160""
","""event"",""trial"",""time""
""focus"",""0"",""0""
""focus"",""0"",""0""
""focus"",""0"",""1323""
""focus"",""2"",""29469""
""focus"",""49"",""329650""
","""event"",""trial"",""time""
""fullscreenenter"",""0"",""10121""
","
","null","run_exp/static/audio/clip_18_correct.m4a","null","","","","","<div class='center'><p>That's correct!</p></div>","","","","","","","","","","","","","","","","","",""
"","html-keyboard-response","77","431392","0.0-49.0-1.0","""event"",""trial"",""time""
""focus"",""0"",""0""
""blur"",""0"",""0""
""focus"",""0"",""0""
""blur"",""0"",""0""
""focus"",""0"",""1323""
""fullscreenenter"",""0"",""10121""
""blur"",""2"",""26162""
""focus"",""2"",""29469""
""blur"",""47"",""326160""
""focus"",""49"",""329650""
","""event"",""trial"",""time""
""blur"",""0"",""0""
""blur"",""0"",""0""
""blur"",""2"",""26162""
""blur"",""47"",""326160""
","""event"",""trial"",""time""
""focus"",""0"",""0""
""focus"",""0"",""0""
""focus"",""0"",""1323""
""focus"",""2"",""29469""
""focus"",""49"",""329650""
","""event"",""trial"",""time""
""fullscreenenter"",""0"",""10121""
","
","573","<div class='center'><p>That's correct!</p><p><b>[Press the space bar to continue]</b></p></div>","32","","","","","","","","","","","","","","","","","","","","","","",""
"","audio-keyboard-response","78","436265","0.0-49.0-2.0","""event"",""trial"",""time""
""focus"",""0"",""0""
""blur"",""0"",""0""
""focus"",""0"",""0""
""blur"",""0"",""0""
""focus"",""0"",""1323""
""fullscreenenter"",""0"",""10121""
""blur"",""2"",""26162""
""focus"",""2"",""29469""
""blur"",""47"",""326160""
""focus"",""49"",""329650""
","""event"",""trial"",""time""
""blur"",""0"",""0""
""blur"",""0"",""0""
""blur"",""2"",""26162""
""blur"",""47"",""326160""
","""event"",""trial"",""time""
""focus"",""0"",""0""
""focus"",""0"",""0""
""focus"",""0"",""1323""
""focus"",""2"",""29469""
""focus"",""49"",""329650""
","""event"",""trial"",""time""
""fullscreenenter"",""0"",""10121""
","
","4872","run_exp/static/audio/clip_20_q2.m4a","50","","","","","","","","","","","","","","","","","","","","","","",""
"","correct","79","438679","0.0-50.0-0.0","""event"",""trial"",""time""
""focus"",""0"",""0""
""blur"",""0"",""0""
""focus"",""0"",""0""
""blur"",""0"",""0""
""focus"",""0"",""1323""
""fullscreenenter"",""0"",""10121""
""blur"",""2"",""26162""
""focus"",""2"",""29469""
""blur"",""47"",""326160""
""focus"",""49"",""329650""
","""event"",""trial"",""time""
""blur"",""0"",""0""
""blur"",""0"",""0""
""blur"",""2"",""26162""
""blur"",""47"",""326160""
","""event"",""trial"",""time""
""focus"",""0"",""0""
""focus"",""0"",""0""
""focus"",""0"",""1323""
""focus"",""2"",""29469""
""focus"",""49"",""329650""
","""event"",""trial"",""time""
""fullscreenenter"",""0"",""10121""
","
","null","run_exp/static/audio/clip_18_correct.m4a","null","","","","","<div class='center'><p>That's correct!</p></div>","","","","","","","","","","","","","","","","","",""
"","html-keyboard-response","80","439132","0.0-50.0-1.0","""event"",""trial"",""time""
""focus"",""0"",""0""
""blur"",""0"",""0""
""focus"",""0"",""0""
""blur"",""0"",""0""
""focus"",""0"",""1323""
""fullscreenenter"",""0"",""10121""
""blur"",""2"",""26162""
""focus"",""2"",""29469""
""blur"",""47"",""326160""
""focus"",""49"",""329650""
","""event"",""trial"",""time""
""blur"",""0"",""0""
""blur"",""0"",""0""
""blur"",""2"",""26162""
""blur"",""47"",""326160""
","""event"",""trial"",""time""
""focus"",""0"",""0""
""focus"",""0"",""0""
""focus"",""0"",""1323""
""focus"",""2"",""29469""
""focus"",""49"",""329650""
","""event"",""trial"",""time""
""fullscreenenter"",""0"",""10121""
","
","453","<div class='center'><p>That's correct!</p><p><b>[Press the space bar to continue]</b></p></div>","32","","","","","","","","","","","","","","","","","","","","","","",""
"","audio-keyboard-response","81","445736","0.0-50.0-2.0","""event"",""trial"",""time""
""focus"",""0"",""0""
""blur"",""0"",""0""
""focus"",""0"",""0""
""blur"",""0"",""0""
""focus"",""0"",""1323""
""fullscreenenter"",""0"",""10121""
""blur"",""2"",""26162""
""focus"",""2"",""29469""
""blur"",""47"",""326160""
""focus"",""49"",""329650""
","""event"",""trial"",""time""
""blur"",""0"",""0""
""blur"",""0"",""0""
""blur"",""2"",""26162""
""blur"",""47"",""326160""
","""event"",""trial"",""time""
""focus"",""0"",""0""
""focus"",""0"",""0""
""focus"",""0"",""1323""
""focus"",""2"",""29469""
""focus"",""49"",""329650""
","""event"",""trial"",""time""
""fullscreenenter"",""0"",""10121""
","
","6604","run_exp/static/audio/clip_22_q3.m4a","50","","","","","","","","","","","","","","","","","","","","","","",""
"","correct","82","448149","0.0-51.0-0.0","""event"",""trial"",""time""
""focus"",""0"",""0""
""blur"",""0"",""0""
""focus"",""0"",""0""
""blur"",""0"",""0""
""focus"",""0"",""1323""
""fullscreenenter"",""0"",""10121""
""blur"",""2"",""26162""
""focus"",""2"",""29469""
""blur"",""47"",""326160""
""focus"",""49"",""329650""
","""event"",""trial"",""time""
""blur"",""0"",""0""
""blur"",""0"",""0""
""blur"",""2"",""26162""
""blur"",""47"",""326160""
","""event"",""trial"",""time""
""focus"",""0"",""0""
""focus"",""0"",""0""
""focus"",""0"",""1323""
""focus"",""2"",""29469""
""focus"",""49"",""329650""
","""event"",""trial"",""time""
""fullscreenenter"",""0"",""10121""
","
","null","run_exp/static/audio/clip_18_correct.m4a","null","","","","","<div class='center'><p>That's correct!</p></div>","","","","","","","","","","","","","","","","","",""
"","html-keyboard-response","83","448545","0.0-51.0-1.0","""event"",""trial"",""time""
""focus"",""0"",""0""
""blur"",""0"",""0""
""focus"",""0"",""0""
""blur"",""0"",""0""
""focus"",""0"",""1323""
""fullscreenenter"",""0"",""10121""
""blur"",""2"",""26162""
""focus"",""2"",""29469""
""blur"",""47"",""326160""
""focus"",""49"",""329650""
","""event"",""trial"",""time""
""blur"",""0"",""0""
""blur"",""0"",""0""
""blur"",""2"",""26162""
""blur"",""47"",""326160""
","""event"",""trial"",""time""
""focus"",""0"",""0""
""focus"",""0"",""0""
""focus"",""0"",""1323""
""focus"",""2"",""29469""
""focus"",""49"",""329650""
","""event"",""trial"",""time""
""fullscreenenter"",""0"",""10121""
","
","395","<div class='center'><p>That's correct!</p><p><b>[Press the space bar to continue]</b></p></div>","32","","","","","","","","","","","","","","","","","","","","","","",""
"","audio-keyboard-response","84","452607","0.0-51.0-2.0","""event"",""trial"",""time""
""focus"",""0"",""0""
""blur"",""0"",""0""
""focus"",""0"",""0""
""blur"",""0"",""0""
""focus"",""0"",""1323""
""fullscreenenter"",""0"",""10121""
""blur"",""2"",""26162""
""focus"",""2"",""29469""
""blur"",""47"",""326160""
""focus"",""49"",""329650""
","""event"",""trial"",""time""
""blur"",""0"",""0""
""blur"",""0"",""0""
""blur"",""2"",""26162""
""blur"",""47"",""326160""
","""event"",""trial"",""time""
""focus"",""0"",""0""
""focus"",""0"",""0""
""focus"",""0"",""1323""
""focus"",""2"",""29469""
""focus"",""49"",""329650""
","""event"",""trial"",""time""
""fullscreenenter"",""0"",""10121""
","
","4062","run_exp/static/audio/clip_24_q4.m4a","49","","","","","","","","","","","","","","","","","","","","","","",""
"","correct","85","455072","0.0-52.0-0.0","""event"",""trial"",""time""
""focus"",""0"",""0""
""blur"",""0"",""0""
""focus"",""0"",""0""
""blur"",""0"",""0""
""focus"",""0"",""1323""
""fullscreenenter"",""0"",""10121""
""blur"",""2"",""26162""
""focus"",""2"",""29469""
""blur"",""47"",""326160""
""focus"",""49"",""329650""
","""event"",""trial"",""time""
""blur"",""0"",""0""
""blur"",""0"",""0""
""blur"",""2"",""26162""
""blur"",""47"",""326160""
","""event"",""trial"",""time""
""focus"",""0"",""0""
""focus"",""0"",""0""
""focus"",""0"",""1323""
""focus"",""2"",""29469""
""focus"",""49"",""329650""
","""event"",""trial"",""time""
""fullscreenenter"",""0"",""10121""
","
","null","run_exp/static/audio/clip_18_correct.m4a","null","","","","","<div class='center'><p>That's correct!</p></div>","","","","","","","","","","","","","","","","","",""
"","html-keyboard-response","86","455292","0.0-52.0-1.0","""event"",""trial"",""time""
""focus"",""0"",""0""
""blur"",""0"",""0""
""focus"",""0"",""0""
""blur"",""0"",""0""
""focus"",""0"",""1323""
""fullscreenenter"",""0"",""10121""
""blur"",""2"",""26162""
""focus"",""2"",""29469""
""blur"",""47"",""326160""
""focus"",""49"",""329650""
","""event"",""trial"",""time""
""blur"",""0"",""0""
""blur"",""0"",""0""
""blur"",""2"",""26162""
""blur"",""47"",""326160""
","""event"",""trial"",""time""
""focus"",""0"",""0""
""focus"",""0"",""0""
""focus"",""0"",""1323""
""focus"",""2"",""29469""
""focus"",""49"",""329650""
","""event"",""trial"",""time""
""fullscreenenter"",""0"",""10121""
","
","219","<div class='center'><p>That's correct!</p><p><b>[Press the space bar to continue]</b></p></div>","32","","","","","","","","","","","","","","","","","","","","","","",""
"","q_all_corr","87","463799","0.0-53.0-0.0","""event"",""trial"",""time""
""focus"",""0"",""0""
""blur"",""0"",""0""
""focus"",""0"",""0""
""blur"",""0"",""0""
""focus"",""0"",""1323""
""fullscreenenter"",""0"",""10121""
""blur"",""2"",""26162""
""focus"",""2"",""29469""
""blur"",""47"",""326160""
""focus"",""49"",""329650""
","""event"",""trial"",""time""
""blur"",""0"",""0""
""blur"",""0"",""0""
""blur"",""2"",""26162""
""blur"",""47"",""326160""
","""event"",""trial"",""time""
""focus"",""0"",""0""
""focus"",""0"",""0""
""focus"",""0"",""1323""
""focus"",""2"",""29469""
""focus"",""49"",""329650""
","""event"",""trial"",""time""
""fullscreenenter"",""0"",""10121""
","
","null","run_exp/static/audio/clip_27_quiz_all_correct.m4a","null","","","","","<div class='center'><p>Good job! You’re now ready to move on to the real game! Remember this game will be difficult but don't get discouraged and try your best!</p></div>","","","","","","","","","","","","","","","","","",""
"","html-keyboard-response","88","464014","0.0-53.0-1.0","""event"",""trial"",""time""
""focus"",""0"",""0""
""blur"",""0"",""0""
""focus"",""0"",""0""
""blur"",""0"",""0""
""focus"",""0"",""1323""
""fullscreenenter"",""0"",""10121""
""blur"",""2"",""26162""
""focus"",""2"",""29469""
""blur"",""47"",""326160""
""focus"",""49"",""329650""
","""event"",""trial"",""time""
""blur"",""0"",""0""
""blur"",""0"",""0""
""blur"",""2"",""26162""
""blur"",""47"",""326160""
","""event"",""trial"",""time""
""focus"",""0"",""0""
""focus"",""0"",""0""
""focus"",""0"",""1323""
""focus"",""2"",""29469""
""focus"",""49"",""329650""
","""event"",""trial"",""time""
""fullscreenenter"",""0"",""10121""
","
","214","<div class='center'><p>Good job! You’re now ready to move on to the real game! Remember this game will be difficult but don't get discouraged and try your best!</p><p><b>[Press the space bar to continue]</b></p></div>","32","","","","","","","","","","","","","","","","","","","","","","",""
"","do_welcome","89","468026","0.0-54.0-0.0","""event"",""trial"",""time""
""focus"",""0"",""0""
""blur"",""0"",""0""
""focus"",""0"",""0""
""blur"",""0"",""0""
""focus"",""0"",""1323""
""fullscreenenter"",""0"",""10121""
""blur"",""2"",""26162""
""focus"",""2"",""29469""
""blur"",""47"",""326160""
""focus"",""49"",""329650""
","""event"",""trial"",""time""
""blur"",""0"",""0""
""blur"",""0"",""0""
""blur"",""2"",""26162""
""blur"",""47"",""326160""
","""event"",""trial"",""time""
""focus"",""0"",""0""
""focus"",""0"",""0""
""focus"",""0"",""1323""
""focus"",""2"",""29469""
""focus"",""49"",""329650""
","""event"",""trial"",""time""
""fullscreenenter"",""0"",""10121""
","
","null","","","","","","","","null","","","","","","","","","","","","","","","","",""
"","do_trial","90","474146","0.0-55.0-0.0","""event"",""trial"",""time""
""focus"",""0"",""0""
""blur"",""0"",""0""
""focus"",""0"",""0""
""blur"",""0"",""0""
""focus"",""0"",""1323""
""fullscreenenter"",""0"",""10121""
""blur"",""2"",""26162""
""focus"",""2"",""29469""
""blur"",""47"",""326160""
""focus"",""49"",""329650""
","""event"",""trial"",""time""
""blur"",""0"",""0""
""blur"",""0"",""0""
""blur"",""2"",""26162""
""blur"",""47"",""326160""
","""event"",""trial"",""time""
""focus"",""0"",""0""
""focus"",""0"",""0""
""focus"",""0"",""1323""
""focus"",""2"",""29469""
""focus"",""49"",""329650""
","""event"",""trial"",""time""
""fullscreenenter"",""0"",""10121""
","
","1595","","","","","","","","51","0,0,0","0","countryside","0","probe-59","0.6","0.3","0.1","0","","","","","","","",""
"","html-keyboard-response","91","475156","0.0-55.0-1.0","""event"",""trial"",""time""
""focus"",""0"",""0""
""blur"",""0"",""0""
""focus"",""0"",""0""
""blur"",""0"",""0""
""focus"",""0"",""1323""
""fullscreenenter"",""0"",""10121""
""blur"",""2"",""26162""
""focus"",""2"",""29469""
""blur"",""47"",""326160""
""focus"",""49"",""329650""
","""event"",""trial"",""time""
""blur"",""0"",""0""
""blur"",""0"",""0""
""blur"",""2"",""26162""
""blur"",""47"",""326160""
","""event"",""trial"",""time""
""focus"",""0"",""0""
""focus"",""0"",""0""
""focus"",""0"",""1323""
""focus"",""2"",""29469""
""focus"",""49"",""329650""
","""event"",""trial"",""time""
""fullscreenenter"",""0"",""10121""
","
","null","<p></p>","null","","","","","","","","","","","","","","","","","","","","","","",""
"","do_trial","92","480306","0.0-56.0-0.0","""event"",""trial"",""time""
""focus"",""0"",""0""
""blur"",""0"",""0""
""focus"",""0"",""0""
""blur"",""0"",""0""
""focus"",""0"",""1323""
""fullscreenenter"",""0"",""10121""
""blur"",""2"",""26162""
""focus"",""2"",""29469""
""blur"",""47"",""326160""
""focus"",""49"",""329650""
","""event"",""trial"",""time""
""blur"",""0"",""0""
""blur"",""0"",""0""
""blur"",""2"",""26162""
""blur"",""47"",""326160""
","""event"",""trial"",""time""
""focus"",""0"",""0""
""focus"",""0"",""0""
""focus"",""0"",""1323""
""focus"",""2"",""29469""
""focus"",""49"",""329650""
","""event"",""trial"",""time""
""fullscreenenter"",""0"",""10121""
","
","613","","","","","","","","50","1,0,0","0","countryside","1","probe-142","0.5190248694826299","0.3435355824263672","0.1418628301332704","0","","","","","","","",""
"","html-keyboard-response","93","481326","0.0-56.0-1.0","""event"",""trial"",""time""
""focus"",""0"",""0""
""blur"",""0"",""0""
""focus"",""0"",""0""
""blur"",""0"",""0""
""focus"",""0"",""1323""
""fullscreenenter"",""0"",""10121""
""blur"",""2"",""26162""
""focus"",""2"",""29469""
""blur"",""47"",""326160""
""focus"",""49"",""329650""
","""event"",""trial"",""time""
""blur"",""0"",""0""
""blur"",""0"",""0""
""blur"",""2"",""26162""
""blur"",""47"",""326160""
","""event"",""trial"",""time""
""focus"",""0"",""0""
""focus"",""0"",""0""
""focus"",""0"",""1323""
""focus"",""2"",""29469""
""focus"",""49"",""329650""
","""event"",""trial"",""time""
""fullscreenenter"",""0"",""10121""
","
","null","<p></p>","null","","","","","","","","","","","","","","","","","","","","","","",""
"","do_trial","94","486126","0.0-57.0-0.0","""event"",""trial"",""time""
""focus"",""0"",""0""
""blur"",""0"",""0""
""focus"",""0"",""0""
""blur"",""0"",""0""
""focus"",""0"",""1323""
""fullscreenenter"",""0"",""10121""
""blur"",""2"",""26162""
""focus"",""2"",""29469""
""blur"",""47"",""326160""
""focus"",""49"",""329650""
","""event"",""trial"",""time""
""blur"",""0"",""0""
""blur"",""0"",""0""
""blur"",""2"",""26162""
""blur"",""47"",""326160""
","""event"",""trial"",""time""
""focus"",""0"",""0""
""focus"",""0"",""0""
""focus"",""0"",""1323""
""focus"",""2"",""29469""
""focus"",""49"",""329650""
","""event"",""trial"",""time""
""fullscreenenter"",""0"",""10121""
","
","269","","","","","","","","49","0,0,0","0","countryside","2","probe-18","0.6391344649355941","0.26167468102044444","0.08768519660290876","0","","","","","","","",""
"","html-keyboard-response","95","487145","0.0-57.0-1.0","""event"",""trial"",""time""
""focus"",""0"",""0""
""blur"",""0"",""0""
""focus"",""0"",""0""
""blur"",""0"",""0""
""focus"",""0"",""1323""
""fullscreenenter"",""0"",""10121""
""blur"",""2"",""26162""
""focus"",""2"",""29469""
""blur"",""47"",""326160""
""focus"",""49"",""329650""
","""event"",""trial"",""time""
""blur"",""0"",""0""
""blur"",""0"",""0""
""blur"",""2"",""26162""
""blur"",""47"",""326160""
","""event"",""trial"",""time""
""focus"",""0"",""0""
""focus"",""0"",""0""
""focus"",""0"",""1323""
""focus"",""2"",""29469""
""focus"",""49"",""329650""
","""event"",""trial"",""time""
""fullscreenenter"",""0"",""10121""
","
","null","<p></p>","null","","","","","","","","","","","","","","","","","","","","","","",""
"","do_trial","96","492096","0.0-58.0-0.0","""event"",""trial"",""time""
""focus"",""0"",""0""
""blur"",""0"",""0""
""focus"",""0"",""0""
""blur"",""0"",""0""
""focus"",""0"",""1323""
""fullscreenenter"",""0"",""10121""
""blur"",""2"",""26162""
""focus"",""2"",""29469""
""blur"",""47"",""326160""
""focus"",""49"",""329650""
","""event"",""trial"",""time""
""blur"",""0"",""0""
""blur"",""0"",""0""
""blur"",""2"",""26162""
""blur"",""47"",""326160""
","""event"",""trial"",""time""
""focus"",""0"",""0""
""focus"",""0"",""0""
""focus"",""0"",""1323""
""focus"",""2"",""29469""
""focus"",""49"",""329650""
","""event"",""trial"",""time""
""fullscreenenter"",""0"",""10121""
","
","426","","","","","","","","51","1,1,0","0","countryside","3","probe-96","0.6808926040914354","0.4050332994696265","0.0582660339978197","0","","","","","","","",""
"","html-keyboard-response","97","493116","0.0-58.0-1.0","""event"",""trial"",""time""
""focus"",""0"",""0""
""blur"",""0"",""0""
""focus"",""0"",""0""
""blur"",""0"",""0""
""focus"",""0"",""1323""
""fullscreenenter"",""0"",""10121""
""blur"",""2"",""26162""
""focus"",""2"",""29469""
""blur"",""47"",""326160""
""focus"",""49"",""329650""
","""event"",""trial"",""time""
""blur"",""0"",""0""
""blur"",""0"",""0""
""blur"",""2"",""26162""
""blur"",""47"",""326160""
","""event"",""trial"",""time""
""focus"",""0"",""0""
""focus"",""0"",""0""
""focus"",""0"",""1323""
""focus"",""2"",""29469""
""focus"",""49"",""329650""
","""event"",""trial"",""time""
""fullscreenenter"",""0"",""10121""
","
","null","<p></p>","null","","","","","","","","","","","","","","","","","","","","","","",""
"","do_trial","98","498295","0.0-59.0-0.0","""event"",""trial"",""time""
""focus"",""0"",""0""
""blur"",""0"",""0""
""focus"",""0"",""0""
""blur"",""0"",""0""
""focus"",""0"",""1323""
""fullscreenenter"",""0"",""10121""
""blur"",""2"",""26162""
""focus"",""2"",""29469""
""blur"",""47"",""326160""
""focus"",""49"",""329650""
","""event"",""trial"",""time""
""blur"",""0"",""0""
""blur"",""0"",""0""
""blur"",""2"",""26162""
""blur"",""47"",""326160""
","""event"",""trial"",""time""
""focus"",""0"",""0""
""focus"",""0"",""0""
""focus"",""0"",""1323""
""focus"",""2"",""29469""
""focus"",""49"",""329650""
","""event"",""trial"",""time""
""fullscreenenter"",""0"",""10121""
","
","650","","","","","","","","51","0,1,0","0","countryside","4","probe-23","0.6849016231997596","0.24348958064749734","0.06420262146181888","0","","","","","","","",""
"","html-keyboard-response","99","499316","0.0-59.0-1.0","""event"",""trial"",""time""
""focus"",""0"",""0""
""blur"",""0"",""0""
""focus"",""0"",""0""
""blur"",""0"",""0""
""focus"",""0"",""1323""
""fullscreenenter"",""0"",""10121""
""blur"",""2"",""26162""
""focus"",""2"",""29469""
""blur"",""47"",""326160""
""focus"",""49"",""329650""
","""event"",""trial"",""time""
""blur"",""0"",""0""
""blur"",""0"",""0""
""blur"",""2"",""26162""
""blur"",""47"",""326160""
","""event"",""trial"",""time""
""focus"",""0"",""0""
""focus"",""0"",""0""
""focus"",""0"",""1323""
""focus"",""2"",""29469""
""focus"",""49"",""329650""
","""event"",""trial"",""time""
""fullscreenenter"",""0"",""10121""
","
","null","<p></p>","null","","","","","","","","","","","","","","","","","","","","","","",""
"","do_trial","100","504166","0.0-60.0-0.0","""event"",""trial"",""time""
""focus"",""0"",""0""
""blur"",""0"",""0""
""focus"",""0"",""0""
""blur"",""0"",""0""
""focus"",""0"",""1323""
""fullscreenenter"",""0"",""10121""
""blur"",""2"",""26162""
""focus"",""2"",""29469""
""blur"",""47"",""326160""
""focus"",""49"",""329650""
","""event"",""trial"",""time""
""blur"",""0"",""0""
""blur"",""0"",""0""
""blur"",""2"",""26162""
""blur"",""47"",""326160""
","""event"",""trial"",""time""
""focus"",""0"",""0""
""focus"",""0"",""0""
""focus"",""0"",""1323""
""focus"",""2"",""29469""
""focus"",""49"",""329650""
","""event"",""trial"",""time""
""fullscreenenter"",""0"",""10121""
","
","328","","","","","","","","50","0,1,0","0","countryside","5","probe-131","0.8298206080754529","0.38909094185220805","0.06194137615953116","1","","","","","","","",""
"","html-keyboard-response","101","505186","0.0-60.0-1.0","""event"",""trial"",""time""
""focus"",""0"",""0""
""blur"",""0"",""0""
""focus"",""0"",""0""
""blur"",""0"",""0""
""focus"",""0"",""1323""
""fullscreenenter"",""0"",""10121""
""blur"",""2"",""26162""
""focus"",""2"",""29469""
""blur"",""47"",""326160""
""focus"",""49"",""329650""
","""event"",""trial"",""time""
""blur"",""0"",""0""
""blur"",""0"",""0""
""blur"",""2"",""26162""
""blur"",""47"",""326160""
","""event"",""trial"",""time""
""focus"",""0"",""0""
""focus"",""0"",""0""
""focus"",""0"",""1323""
""focus"",""2"",""29469""
""focus"",""49"",""329650""
","""event"",""trial"",""time""
""fullscreenenter"",""0"",""10121""
","
","null","<p></p>","null","","","","","","","","","","","","","","","","","","","","","","",""
"","do_trial","102","509956","0.0-61.0-0.0","""event"",""trial"",""time""
""focus"",""0"",""0""
""blur"",""0"",""0""
""focus"",""0"",""0""
""blur"",""0"",""0""
""focus"",""0"",""1323""
""fullscreenenter"",""0"",""10121""
""blur"",""2"",""26162""
""focus"",""2"",""29469""
""blur"",""47"",""326160""
""focus"",""49"",""329650""
","""event"",""trial"",""time""
""blur"",""0"",""0""
""blur"",""0"",""0""
""blur"",""2"",""26162""
""blur"",""47"",""326160""
","""event"",""trial"",""time""
""focus"",""0"",""0""
""focus"",""0"",""0""
""focus"",""0"",""1323""
""focus"",""2"",""29469""
""focus"",""49"",""329650""
","""event"",""trial"",""time""
""fullscreenenter"",""0"",""10121""
","
","237","","","","","","","","50","1,0,0","0","countryside","6","probe-114","0.6847608102138003","0.49428866234494695","0.11356201104152586","0","","","","","","","",""
"","html-keyboard-response","103","510976","0.0-61.0-1.0","""event"",""trial"",""time""
""focus"",""0"",""0""
""blur"",""0"",""0""
""focus"",""0"",""0""
""blur"",""0"",""0""
""focus"",""0"",""1323""
""fullscreenenter"",""0"",""10121""
""blur"",""2"",""26162""
""focus"",""2"",""29469""
""blur"",""47"",""326160""
""focus"",""49"",""329650""
","""event"",""trial"",""time""
""blur"",""0"",""0""
""blur"",""0"",""0""
""blur"",""2"",""26162""
""blur"",""47"",""326160""
","""event"",""trial"",""time""
""focus"",""0"",""0""
""focus"",""0"",""0""
""focus"",""0"",""1323""
""focus"",""2"",""29469""
""focus"",""49"",""329650""
","""event"",""trial"",""time""
""fullscreenenter"",""0"",""10121""
","
","null","<p></p>","null","","","","","","","","","","","","","","","","","","","","","","",""
"","do_trial","104","515996","0.0-62.0-0.0","""event"",""trial"",""time""
""focus"",""0"",""0""
""blur"",""0"",""0""
""focus"",""0"",""0""
""blur"",""0"",""0""
""focus"",""0"",""1323""
""fullscreenenter"",""0"",""10121""
""blur"",""2"",""26162""
""focus"",""2"",""29469""
""blur"",""47"",""326160""
""focus"",""49"",""329650""
","""event"",""trial"",""time""
""blur"",""0"",""0""
""blur"",""0"",""0""
""blur"",""2"",""26162""
""blur"",""47"",""326160""
","""event"",""trial"",""time""
""focus"",""0"",""0""
""focus"",""0"",""0""
""focus"",""0"",""1323""
""focus"",""2"",""29469""
""focus"",""49"",""329650""
","""event"",""trial"",""time""
""fullscreenenter"",""0"",""10121""
","
","501","","","","","","","","50","1,0,0","0","countryside","7","probe-211","0.6576444188045215","0.43962324912514145","0.17258582857109403","0","","","","","","","",""
"","html-keyboard-response","105","517016","0.0-62.0-1.0","""event"",""trial"",""time""
""focus"",""0"",""0""
""blur"",""0"",""0""
""focus"",""0"",""0""
""blur"",""0"",""0""
""focus"",""0"",""1323""
""fullscreenenter"",""0"",""10121""
""blur"",""2"",""26162""
""focus"",""2"",""29469""
""blur"",""47"",""326160""
""focus"",""49"",""329650""
","""event"",""trial"",""time""
""blur"",""0"",""0""
""blur"",""0"",""0""
""blur"",""2"",""26162""
""blur"",""47"",""326160""
","""event"",""trial"",""time""
""focus"",""0"",""0""
""focus"",""0"",""0""
""focus"",""0"",""1323""
""focus"",""2"",""29469""
""focus"",""49"",""329650""
","""event"",""trial"",""time""
""fullscreenenter"",""0"",""10121""
","
","null","<p></p>","null","","","","","","","","","","","","","","","","","","","","","","",""
"","do_trial","106","521867","0.0-63.0-0.0","""event"",""trial"",""time""
""focus"",""0"",""0""
""blur"",""0"",""0""
""focus"",""0"",""0""
""blur"",""0"",""0""
""focus"",""0"",""1323""
""fullscreenenter"",""0"",""10121""
""blur"",""2"",""26162""
""focus"",""2"",""29469""
""blur"",""47"",""326160""
""focus"",""49"",""329650""
","""event"",""trial"",""time""
""blur"",""0"",""0""
""blur"",""0"",""0""
""blur"",""2"",""26162""
""blur"",""47"",""326160""
","""event"",""trial"",""time""
""focus"",""0"",""0""
""focus"",""0"",""0""
""focus"",""0"",""1323""
""focus"",""2"",""29469""
""focus"",""49"",""329650""
","""event"",""trial"",""time""
""fullscreenenter"",""0"",""10121""
","
","326","","","","","","","","49","1,0,0","0","countryside","8","probe-64","0.7010784250553654","0.46598905886019787","0.14074071663222337","1","","","","","","","",""
"","html-keyboard-response","107","522886","0.0-63.0-1.0","""event"",""trial"",""time""
""focus"",""0"",""0""
""blur"",""0"",""0""
""focus"",""0"",""0""
""blur"",""0"",""0""
""focus"",""0"",""1323""
""fullscreenenter"",""0"",""10121""
""blur"",""2"",""26162""
""focus"",""2"",""29469""
""blur"",""47"",""326160""
""focus"",""49"",""329650""
","""event"",""trial"",""time""
""blur"",""0"",""0""
""blur"",""0"",""0""
""blur"",""2"",""26162""
""blur"",""47"",""326160""
","""event"",""trial"",""time""
""focus"",""0"",""0""
""focus"",""0"",""0""
""focus"",""0"",""1323""
""focus"",""2"",""29469""
""focus"",""49"",""329650""
","""event"",""trial"",""time""
""fullscreenenter"",""0"",""10121""
","
","null","<p></p>","null","","","","","","","","","","","","","","","","","","","","","","",""
"","do_trial","108","527675","0.0-64.0-0.0","""event"",""trial"",""time""
""focus"",""0"",""0""
""blur"",""0"",""0""
""focus"",""0"",""0""
""blur"",""0"",""0""
""focus"",""0"",""1323""
""fullscreenenter"",""0"",""10121""
""blur"",""2"",""26162""
""focus"",""2"",""29469""
""blur"",""47"",""326160""
""focus"",""49"",""329650""
","""event"",""trial"",""time""
""blur"",""0"",""0""
""blur"",""0"",""0""
""blur"",""2"",""26162""
""blur"",""47"",""326160""
","""event"",""trial"",""time""
""focus"",""0"",""0""
""focus"",""0"",""0""
""focus"",""0"",""1323""
""focus"",""2"",""29469""
""focus"",""49"",""329650""
","""event"",""trial"",""time""
""fullscreenenter"",""0"",""10121""
","
","268","","","","","","","","49","1,0,1","0","countryside","9","probe-199","0.6777093344278289","0.42667648366494776","0.12203846756134328","1","","","","","","","",""
"","html-keyboard-response","109","528696","0.0-64.0-1.0","""event"",""trial"",""time""
""focus"",""0"",""0""
""blur"",""0"",""0""
""focus"",""0"",""0""
""blur"",""0"",""0""
""focus"",""0"",""1323""
""fullscreenenter"",""0"",""10121""
""blur"",""2"",""26162""
""focus"",""2"",""29469""
""blur"",""47"",""326160""
""focus"",""49"",""329650""
","""event"",""trial"",""time""
""blur"",""0"",""0""
""blur"",""0"",""0""
""blur"",""2"",""26162""
""blur"",""47"",""326160""
","""event"",""trial"",""time""
""focus"",""0"",""0""
""focus"",""0"",""0""
""focus"",""0"",""1323""
""focus"",""2"",""29469""
""focus"",""49"",""329650""
","""event"",""trial"",""time""
""fullscreenenter"",""0"",""10121""
","
","null","<p></p>","null","","","","","","","","","","","","","","","","","","","","","","",""
"","do_trial","110","533536","0.0-65.0-0.0","""event"",""trial"",""time""
""focus"",""0"",""0""
""blur"",""0"",""0""
""focus"",""0"",""0""
""blur"",""0"",""0""
""focus"",""0"",""1323""
""fullscreenenter"",""0"",""10121""
""blur"",""2"",""26162""
""focus"",""2"",""29469""
""blur"",""47"",""326160""
""focus"",""49"",""329650""
","""event"",""trial"",""time""
""blur"",""0"",""0""
""blur"",""0"",""0""
""blur"",""2"",""26162""
""blur"",""47"",""326160""
","""event"",""trial"",""time""
""focus"",""0"",""0""
""focus"",""0"",""0""
""focus"",""0"",""1323""
""focus"",""2"",""29469""
""focus"",""49"",""329650""
","""event"",""trial"",""time""
""fullscreenenter"",""0"",""10121""
","
","319","","","","","","","","49","1,0,0","0","countryside","10","probe-167","0.6537037019216053","0.3473119090879242","0.07088880532254922","1","","","","","","","",""
"","html-keyboard-response","111","534556","0.0-65.0-1.0","""event"",""trial"",""time""
""focus"",""0"",""0""
""blur"",""0"",""0""
""focus"",""0"",""0""
""blur"",""0"",""0""
""focus"",""0"",""1323""
""fullscreenenter"",""0"",""10121""
""blur"",""2"",""26162""
""focus"",""2"",""29469""
""blur"",""47"",""326160""
""focus"",""49"",""329650""
","""event"",""trial"",""time""
""blur"",""0"",""0""
""blur"",""0"",""0""
""blur"",""2"",""26162""
""blur"",""47"",""326160""
