"success","trial_type","trial_index","time_elapsed","internal_node_id","rt","stimulus","key_press","subject_id","response","choice_outcomes","context_n","context_img_id","trial_n","probe_img_id","pR_red","pR_white","pR_black","outcome","contextArray_ind","validImageProbes","invalidImageProbes","pRew_Red","pRew_White","pRew_Black","availableForMemProbe","choice_blocks"
"true","fullscreen","0","2987","0.0-0.0","","","","","","","","","","","","","","","","","","","","","",""
"","pavlovia","1","3001","0.0-1.0","","","","","","","","","","","","","","","","","","","","","",""
"","html-keyboard-response","2","5279","0.0-2.0","2273.899999976158","<div class='center'><p>Welcome! This is the first day of the experiment which will last ~30 minutes. In this experiment, you are the head captain of a pirate ship traveling around the world to different places. You will complete several different tasks during this experiment. Here is an overview of these tasks:</p><br><p>Day 1</p><p>1. Tutorial and quiz</p><p>2. Pick a pirate game in 6 different places</p><br><p>Day 2</p><p>3. Pick a pirate game and memory game</p><p>4. Final questions and payment</p><br><p>If you complete the entire experiment, you will receive $15 and a possible bonus payment.</p><p><b>[Press the space bar to begin the tutorial]</b></p></div>","32","610050b6632452bbe365315c","","","","","","","","","","","","","","","","","",""
"","html-keyboard-response","3","6082","0.0-3.0","800","<div class='center'><p>You are the head captain of a pirate ship.</p><p> Your pirates rob other ships as they leave the marketplace port.</p> These ships have just sold all their goods at the marketplace, so they have lots and lots of gold on them.</p><p><img src='run_exp/static/images/ship_center.png' height='400'></p><p><b>[Press the space bar to continue]</b></p></div>","32","","","","","","","","","","","","","","","","","","",""
"","html-keyboard-response","4","6621","0.0-4.0","535.3999999761581","<div class='center'><p>As the head captain, you do not have to rob any ships yourself.</p><p>You get to choose which pirate you want to rob the next ship. </p><p>If they are successful at robbing the ship, then you will get gold coins.</p><p> If they are not successful, then you will get no gold coins.</p><p> The more coins you collect, the more bonus money you will win. So, choose your pirate wisely.</p><p><img src='run_exp/static/images/goal.png' height='400'></p><p><b>[Press the space bar to continue]</b></p><div>","32","","","","","","","","","","","","","","","","","","",""
"","html-keyboard-response","5","9071","0.0-5.0","2447.7000000476837","<div class='center'><p>Even the most skilled pirate will not be able to rob EVERY ship.</p><p> Some ships will have very strong defenses against attacks.</p><p> For example, blue beard, here,  is very good at robbing ships.</p><p> You can press the <b>‘1’</b> button on the keyboard to choose him.</p><p> Try choosing him 10 times to see how often he is successful at robbing ships. </p><p><img src='run_exp/static/images/blue.png' height='500'></p></div>","49","","","","","","","","","","","","","","","","","","",""
"","html-keyboard-response","6","10575","0.0-6.0","null","<br><br><br><br><p><img src='run_exp/static/images/blue_win.png' height='500'></p>","null","","","","","","","","","","","","","","","","","","",""
"","html-keyboard-response","7","10946","0.0-7.0","369","<br><br><br><br><p><img src='run_exp/static/images/blue.png' height='500'></p>","49","","","","","","","","","","","","","","","","","","",""
"","html-keyboard-response","8","12448","0.0-8.0","null","<br><br><br><br><p><img src='run_exp/static/images/blue_win.png' height='500'></p>","null","","","","","","","","","","","","","","","","","","",""
"","html-keyboard-response","9","12538","0.0-9.0","87.39999997615814","<br><br><br><br><p><img src='run_exp/static/images/blue.png' height='500'></p>","49","","","","","","","","","","","","","","","","","","",""
"","html-keyboard-response","10","14040","0.0-10.0","null","<br><br><br><br><p><img src='run_exp/static/images/blue_win.png' height='500'></p>","null","","","","","","","","","","","","","","","","","","",""
"","html-keyboard-response","11","14345","0.0-11.0","301.2999999523163","<br><br><br><br><p><img src='run_exp/static/images/blue.png' height='500'></p>","49","","","","","","","","","","","","","","","","","","",""
"","html-keyboard-response","12","15847","0.0-12.0","null","<br><br><br><br><p><img src='run_exp/static/images/blue_no_win.png' height='500'></p>","null","","","","","","","","","","","","","","","","","","",""
"","html-keyboard-response","13","16319","0.0-13.0","468.3000000715256","<br><br><br><br><p><img src='run_exp/static/images/blue.png' height='500'></p>","49","","","","","","","","","","","","","","","","","","",""
"","html-keyboard-response","14","17821","0.0-14.0","null","<br><br><br><br><p><img src='run_exp/static/images/blue_win.png' height='500'></p>","null","","","","","","","","","","","","","","","","","","",""
"","html-keyboard-response","15","18068","0.0-15.0","242.29999995231628","<br><br><br><br><p><img src='run_exp/static/images/blue.png' height='500'></p>","49","","","","","","","","","","","","","","","","","","",""
"","html-keyboard-response","16","19570","0.0-16.0","null","<br><br><br><br><p><img src='run_exp/static/images/blue_win.png' height='500'></p>","null","","","","","","","","","","","","","","","","","","",""
"","html-keyboard-response","17","20158","0.0-17.0","583.7000000476837","<br><br><br><br><p><img src='run_exp/static/images/blue.png' height='500'></p>","49","","","","","","","","","","","","","","","","","","",""
"","html-keyboard-response","18","21661","0.0-18.0","null","<br><br><br><br><p><img src='run_exp/static/images/blue_win.png' height='500'></p>","null","","","","","","","","","","","","","","","","","","",""
"","html-keyboard-response","19","21906","0.0-19.0","242.10000002384186","<br><br><br><br><p><img src='run_exp/static/images/blue.png' height='500'></p>","49","","","","","","","","","","","","","","","","","","",""
"","html-keyboard-response","20","23409","0.0-20.0","null","<br><br><br><br><p><img src='run_exp/static/images/blue_no_win.png' height='500'></p>","null","","","","","","","","","","","","","","","","","","",""
"","html-keyboard-response","21","23862","0.0-21.0","451.39999997615814","<br><br><br><br><p><img src='run_exp/static/images/blue.png' height='500'></p>","49","","","","","","","","","","","","","","","","","","",""
"","html-keyboard-response","22","25365","0.0-22.0","null","<br><br><br><br><p><img src='run_exp/static/images/blue_win.png' height='500'></p>","null","","","","","","","","","","","","","","","","","","",""
"","html-keyboard-response","23","25846","0.0-23.0","478.5","<br><br><br><br><p><img src='run_exp/static/images/blue.png' height='500'></p>","49","","","","","","","","","","","","","","","","","","",""
"","html-keyboard-response","24","27350","0.0-24.0","null","<br><br><br><br><p><img src='run_exp/static/images/blue_win.png' height='500'></p>","null","","","","","","","","","","","","","","","","","","",""
"","html-keyboard-response","25","28948","0.0-25.0","1596","<div class='center'><p> See, he was successful at robbing the ships most of the time but not every time. </p><p><b>[Press the space bar to continue]</b></p></div>","32","","","","","","","","","","","","","","","","","","",""
"","html-keyboard-response","26","30974","0.0-26.0","2019.3999999761581","<div class='center'><p>In the game, you will get to choose which of three pirates you want to rob the next ship. <p>Press the <b>‘1’</b> button on your keyboard to pick the pirate with the red beard.</p><p> Press <b>‘2’</b> to pick the pirate with the white beard.</p><p> Press <b>‘3’</b> to pick the pirate with the black beard.</p><p>Try picking a pirate now!</p><p><img src='run_exp/static/images/all_pirates.png' height='500'></p></div>","50","","","","","","","","","","","","","","","","","","",""
"","html-keyboard-response","27","33447","0.0-27.0-0.0","2468.100000023842","<div class='center'><p>This pirate was successful at robbing the ship!</p><p><img src='run_exp/static/images/white_win.png' height='500'></p><p><b>[Press the space bar to continue]</b></p></div>","32","","","","","","","","","","","","","","","","","","",""
"","html-keyboard-response","28","33814","0.0-27.0-1.0","363.5","<div class='center'><p>Now try choosing another</p><p><img src='run_exp/static/images/all_pirates.png' height='500'></p></div>","51","","","","","","","","","","","","","","","","","","",""
"","html-keyboard-response","29","36698","0.0-28.0-0.0","2880.899999976158","<div class='center'><p>This pirate was not successful at robbing the ship!</p><p><img src='run_exp/static/images/black_no_win.png' height='500'></p><p><b>[Press the space bar to continue]</b></p></div>","32","","","","","","","","","","","","","","","","","","",""
"","html-keyboard-response","30","37743","0.0-29.0-0.0","1042.6000000238419","<div class='center'><p>You’ll stop at these 6 places on your journey.</p><p><img src='run_exp/static/images/all_contexts.png' height='500'></p><p><b>[Press the space bar to continue]</b></p></div>","32","","","","","","","","","","","","","","","","","","",""
"","html-keyboard-response","31","38527","0.0-29.0-1.0","780.6999999284744","<div class='center'><p>How good a pirate is at robbing ships will depend on the current place.</p><p> Some pirates will have been to the place before, and will have more experience robbing ships there.</p><p>So, they will be more successful at stealing gold and bringing it back to you.</p><p><b>[Press the space bar to continue]</b></p></div>","32","","","","","","","","","","","","","","","","","","",""
"","html-keyboard-response","32","39686","0.0-29.0-2.0","1155.5","<div class='center'><p>How successful a pirate is at robbing ships can also change in a place.<p> Ships may hear about the pirates coming and will improve their defenses. This may make it more difficult to rob them.</p><p> Ships may also grow lazy and lower their defenses. This may make it easier to rob them.</p><br><p>Things are always changing on the high seas! So, try your best to pay attention!</p><p><img src='run_exp/static/images/contingency.png' height='500'></p><p><b>[Press the space bar to continue]</b></p></div>","32","","","","","","","","","","","","","","","","","","",""
"","html-keyboard-response","33","40732","0.0-29.0-3.0","1041.5","<div class='center'><p>Once you choose a pirate to rob a ship, you’ll be shown the ship they are robbing.</p><p>The ship will have a picture of the item they sold at the marketplace.</p><p> Try your best to remember the ship and where you saw the ship.</p><p> You’ll have to remember this for later, and remembering this correctly will help you win more bonus money!</p><p>You can remember the ship by remembering the item they sold at the marketplace</p><p>A helpful strategy is to try to come up with a story of the chosen pirate and ship’s item interacting with the scene.</p><p> For example, a ship might have sold travel mugs and you could imagine red beard walking through the city with a travel mug. </p><p>Or imagine an apple falling from a tree into white beard's hands in the forest.</p><p><img src='run_exp/static/images/example_probe.png' height='500'></p><p><b>[Press the space bar to continue]</b></p></div>","32","","","","","","","","","","","","","","","","","","",""
"","html-keyboard-response","34","41520","0.0-29.0-4.0","785.2999999523163","<div class='center'><p>If you don’t make your choice fast enough, you’ll have to wait a few seconds before you can make another one. </p><p>You can’t win more gold. You just have to sit and wait.</p><p><img src='run_exp/static/images/hurry_up.png' height='500'></p><p><b>[Press the space bar to continue]</b></p></div>","32","","","","","","","","","","","","","","","","","","",""
"","html-keyboard-response","35","51931","0.0-29.0-5.0","10408.799999952316","<div class='center'><p>Again, you have two important things to do: </p><b><p> 1. Pick the pirate who you think will be most successful at robbing the next ship.</p></b><b><p> 2. Remember where a pirate robbed a ship.</p> </b><p>Both are important in determining how much bonus money you’ll win.</p><br><p>Let’s try a practice game. The game will start by showing you the pirates. First pick a pirate using the <b> 1, 2, 3 </b> buttons on your keyboard. When you are shown a ship, try to remember the place you’re in by making up a story.</p><p> You only have 3 seconds to pick a pirate, so please make a choice quickly! If you are too slow, you’ll have to wait a bit during the time out.</p><p> Don’t feel rushed, but please do try to make a choice every time.</p><p>How good a pirate is at robbing a ship will change depending on the place they are in and how good the defenses are of the ship.</p> <p>This is just a practice game, so you’re not playing for money. </p><p>You’ll receive a bag which may or may not contain gold coins.</p><p> In the real game, though, you’ll be able to see whether or not you received the gold coins.</p><p> Good luck, remember press <b>'1'</b> to choose red beard, <b>'2'</b> to choose white beard, and <b>'3'</b> to choose black beard</p><p><b>[Press the space bar to begin the practice game]</b></p></div>","32","","","","","","","","","","","","","","","","","","",""
"","do_trial_prac","36","58401","0.0-29.0-6.0","1942.5","","","","50","","","","","","","","","","","","","","","","",""
"","do_trial_prac","37","63510","0.0-29.0-7.0","591.7999999523163","","","","50","","","","","","","","","","","","","","","","",""
"","do_trial_prac","38","68975","0.0-29.0-8.0","945.8000000715256","","","","51","","","","","","","","","","","","","","","","",""
"","do_trial_prac","39","74471","0.0-29.0-9.0","980.6000000238419","","","","51","","","","","","","","","","","","","","","","",""
"","do_trial_prac","40","79653","0.0-29.0-10.0","666.7000000476837","","","","50","","","","","","","","","","","","","","","","",""
"","html-keyboard-response","41","82961","0.0-29.0-11.0","3304.9000000953674","<div class='center'><p>Great job on the practice game!</p><p> Now, you will be asked you some true or false questions to make sure you really understand the rules of the game.</p><p> Press <b>'1'</b> on the keyboard for true and press <b>'2'</b> for false.</p><p><b>[Press the space bar to begin the quiz]</b></p></div>","32","","","","","","","","","","","","","","","","","","",""
"","html-keyboard-response","42","88533","0.0-29.0-12.0","5568","<div class='center'><p>You win bonus money by making choices as fast as possible.</p><p>Press 1 for true and press  2 for false.</p></div>","50","","","","","","","","","","","","","","","","","","",""
"","html-keyboard-response","43","89692","0.0-30.0-0.0","1155.2999999523163","<br><br><br><br><p>That's correct!</p> <p><b>[press the space bar to continue with the quiz]</b></p>","32","","","","","","","","","","","","","","","","","","",""
"","html-keyboard-response","44","94859","0.0-30.0-1.0","5163.699999928474","<div class='center'><p>You press the <b>‘3’</b> button on the keyboard to choose the red bearded pirate? </p><p>Press 1 for true and press  2 for false.</p></div>","50","","","","","","","","","","","","","","","","","","",""
"","html-keyboard-response","45","95840","0.0-31.0-0.0","978.8000000715256","<br><br><br><br><p>That's correct!</p> <p><b>[press the space bar to continue with the quiz]</b></p>","32","","","","","","","","","","","","","","","","","","",""
"","html-keyboard-response","46","98904","0.0-31.0-1.0","3061","<div class='center'><p>A pirate will always be equally successful at robbing ships in each place</p><p>Press 1 for true and press  2 for false.</p></div>","50","","","","","","","","","","","","","","","","","","",""
"","html-keyboard-response","47","99531","0.0-32.0-0.0","624.2999999523163","<br><br><br><br><p>That's correct!</p> <p><b>[press the space bar to continue with the quiz]</b></p>","32","","","","","","","","","","","","","","","","","","",""
"","html-keyboard-response","48","104730","0.0-32.0-1.0","5196.300000071526","<div class='center'><p>You should remember the place where a pirate robbed a ship.</p><p>Press 1 for true and press  2 for false.</p></div>","49","","","","","","","","","","","","","","","","","","",""
"","html-keyboard-response","49","105370","0.0-33.0-0.0","615.3000000715256","<br><br><br><br><p>That's correct!</p> <p><b>[press the space bar to continue with the quiz]</b></p>","32","","","","","","","","","","","","","","","","","","",""
"","html-keyboard-response","50","106667","0.0-34.0-0.0","1294","<br><br><br><br><p>Good job! You’re now ready to move on to the real game!</p> <p><br>[press the space bar to begin!]</br></p>","32","","","","","","","","","","","","","","","","","","",""
"","do_welcome","51","108181","0.0-35.0-0.0","null","","","","null","","","","","","","","","","","","","","","","",""
"","do_trial","52","114350","0.0-36.0-0.0","1580.4000000953674","","","","50","1,0,0","0","highway","0","probe-72","1","0.4","0.1","0","","","","","","","",""
"","do_trial","53","120649","0.0-37.0-0.0","1718.6999999284744","","","","51","1,1,0","0","highway","1","probe-08","1","0.3687902368446459","0.07840237198887608","0","","","","","","","",""
"","do_trial","54","126166","0.0-38.0-0.0","942.7000000476837","","","","50","1,0,0","0","highway","2","probe-126","1","0.3294600263679085","0.05238431177377699","0","","","","","","","",""
"","do_trial","55","132055","0.0-39.0-0.0","1309.3999999761581","","","","51","1,1,0","0","highway","3","probe-64","1","0.19475715417083245","0.13917043053742112","0","","","","","","","",""
"","do_trial","56","137413","0.0-40.0-0.0","779.3999999761581","","","","49","1,0,0","0","highway","4","probe-188","0.9429783149858428","0.2413741342521584","0.11943755446411387","1","","","","","","","",""
"","do_trial","57","142468","0.0-41.0-0.0","478.6999999284744","","","","50","1,1,0","0","highway","5","probe-75","0.8161916554146502","0.222826953013569","0.08786917242133704","1","","","","","","","",""
"","do_trial","58","147771","0.0-42.0-0.0","724.4000000953674","","","","50","1,1,0","0","highway","6","probe-221","0.9387301093577496","0.27515765082305976","0.17043339891493298","1","","","","","","","",""
"","do_trial","59","152940","0.0-43.0-0.0","585","","","","51","1,0,0","0","highway","7","probe-169","0.8123831844592748","0.3912719432561514","0.24764273261132835","0","","","","","","","",""
"","do_trial","60","157884","0.0-44.0-0.0","369","","","","51","1,1,0","0","highway","8","probe-219","0.8695929221270964","0.3070417775456929","0.3582811695179285","0","","","","","","","",""
"","do_trial","61","162882","0.0-45.0-0.0","418.1999999284744","","","","51","1,0,0","0","highway","9","probe-90","0.7480430683619063","0.1783753603315556","0.2884543444188473","0","","","","","","","",""
"","do_trial","62","167932","0.0-46.0-0.0","475.7000000476837","","","","50","0,0,0","0","highway","10","probe-172","0.4723450456262174","0.45911529339420853","0.4117751292878565","0","","","","","","","",""
"","do_trial","63","172800","0.0-47.0-0.0","294.2000000476837","","","","50","0,1,0","0","highway","11","probe-108","0.28298790804501917","0.5749898695207339","0.4000260005087431","1","","","","","","","",""
"","do_trial","64","177752","0.0-48.0-0.0","380.10000002384186","","","","50","0,1,0","0","highway","12","probe-157","0.2009012775426839","0.8094668964964958","0.35614927634394283","1","","","","","","","",""
"","do_trial","65","182899","0.0-49.0-0.0","570.1000000238419","","","","50","1,0,0","0","highway","13","probe-110","0.18122892502610038","0.6914520594470339","0.2847344403963505","0","","","","","","","",""
"","do_trial","66","187836","0.0-50.0-0.0","360","","","","50","0,1,0","0","highway","14","probe-117","0.11810189885496639","0.723962135167988","0.21249382055599086","1","","","","","","","",""
"","do_trial","67","192736","0.0-51.0-0.0","321.8000000715256","","","","50","0,1,1","0","highway","15","probe-237","0.1696181417873351","0.7777661286947155","0.43982568954460805","1","","","","","","","",""
"","do_trial","68","198199","0.0-52.0-0.0","886.7999999523163","","","","49","0,1,0","0","highway","16","probe-106","0.18230083407735972","0.7348041594032312","0.3479708129910934","0","","","","","","","",""
"","do_trial","69","203082","0.0-53.0-0.0","304.89999997615814","","","","50","0,1,1","0","highway","17","probe-116","0.11628694662255576","0.9083370130169526","0.3910855551910903","1","","","","","","","",""
"","do_trial","70","208909","0.0-54.0-0.0","1245","","","","51","0,1,0","0","highway","18","probe-210","0.10074468655792566","0.8670513688729233","0.3736919504680721","0","","","","","","","",""
"","do_trial","71","213863","0.0-55.0-0.0","378.60000002384186","","","","50","0,1,1","0","highway","19","probe-122","0.0689601896877723","0.6745744254524962","0.5429147931600395","1","","","","","","","",""
"","do_trial","72","218976","0.0-56.0-0.0","537.2999999523163","","","","49","0,0,0","0","highway","20","probe-231","0.13715255377752356","0.6348289599167033","0.3399929101590023","0","","","","","","","",""
"","do_trial","73","223575","0.0-57.0-0.0","20.199999928474426","","","","50","0,0,1","0","highway","21","probe-201","0.08088918601708503","0.6382167642371959","0.3479388091772768","0","","","","","","","",""
"","do_trial","74","228532","0.0-58.0-0.0","384.2000000476837","","","","51","0,0,0","0","highway","22","probe-06","0.12920347418825467","0.6474113293523507","0.3402805231744058","0","","","","","","","",""
"","do_trial","75","233511","0.0-59.0-0.0","399.39999997615814","","","","50","0,1,0","0","highway","23","probe-171","0.12307773204457444","0.7945606216315418","0.38059153363792825","1","","","","","","","",""
"","do_trial","76","238314","0.0-60.0-0.0","222.40000009536743","","","","49","0,1,1","0","highway","24","probe-209","0.09606491001232179","0.8966346737157939","0.5400201846311942","0","","","","","","","",""
"","do_trial","77","243161","0.0-61.0-0.0","269.39999997615814","","","","50","0,0,1","0","highway","25","probe-93","0.07971632440330009","0.944748520638465","0.47609033612818896","0","","","","","","","",""
"","do_trial","78","248309","0.0-62.0-0.0","572","","","","51","0,0,0","0","highway","26","probe-147","0.1864788162051711","0.7806934911827801","0.5287872979916435","0","","","","","","","",""
"","do_trial","79","252934","0.0-63.0-0.0","40.10000002384186","","","","50","0,1,0","0","highway","27","probe-214","0.0891788696157553","0.886033982838679","0.5672597979385998","1","","","","","","","",""
"","do_trial","80","257927","0.0-64.0-0.0","414.2000000476837","","","","50","0,1,1","0","highway","28","probe-39","0.1439609559010936","0.8098698004059667","0.49301805311883357","1","","","","","","","",""
"","do_trial","81","262766","0.0-65.0-0.0","260.2000000476837","","","","50","0,1,0","0","highway","29","probe-55","0.06996697700314286","0.7654016444148567","0.37740905033395455","1","","","","","","","",""
"","do_trial","82","267696","0.0-66.0-0.0","347.8000000715256","","","","51","0,1,0","0","highway","30","probe-190","0.23170242589184814","0.8484309039823478","0.3347879629196818","0","","","","","","","",""
"","do_trial","83","272706","0.0-67.0-0.0","429.7000000476837","","","","51","1,1,0","0","highway","31","probe-42","0.13310473834551584","0.8298432895206831","0.33285810074751376","0","","","","","","","",""
"","do_trial","84","277709","0.0-68.0-0.0","425.8000000715256","","","","51","0,1,1","0","highway","32","probe-128","0.17078611051162795","0.8180630748810424","0.3893337540769728","1","","","","","","","",""
"","do_trial","85","282941","0.0-69.0-0.0","658.1999999284744","","","","51","0,1,0","0","highway","33","probe-62","0.21737714510804387","0.8274864460750666","0.4402204458243124","0","","","","","","","",""
"","do_trial","86","288519","0.0-70.0-0.0","1003.8999999761581","","","","50","0,1,0","0","highway","34","probe-77","0.08269441492921946","0.7532427924736429","0.29345705167340436","1","","","","","","","",""
"","do_trial","87","293692","0.0-71.0-0.0","590.3999999761581","","","","49","0,1,1","0","highway","35","probe-199","0.06077534981866081","0.7799088321410279","0.32156882714039137","0","","","","","","","",""
"","do_trial","88","298728","0.0-72.0-0.0","439","","","","50","0,1,0","0","highway","36","probe-43","0.0864002467799316","0.8326785328015225","0.2485852252907265","1","","","","","","","",""
"","do_trial","89","303734","0.0-73.0-0.0","428.90000009536743","","","","51","1,1,1","0","highway","37","probe-41","0.11160495625166197","0.8111611997162225","0.17540907972469008","1","","","","","","","",""
"","do_trial","90","308914","0.0-74.0-0.0","631.1000000238419","","","","50","0,1,0","0","highway","38","probe-56","0.09172643801742039","0.8458483591549141","0.24599246438933065","1","","","","","","","",""
"","do_trial","91","315073","0.0-75.0-0.0","1580.1000000238419","","","","50","0,1,1","0","highway","39","probe-66","0.12441242546690248","0.8648590698035251","0.2307434814422581","1","","","","","","","",""
"","do_bye","92","316587","0.0-76.0-0.0","null","","","","null","","","","","","","","","","","","","","","","",""
"","do_travel","93","322592","0.0-77.0-0.0","null","","","","null","","","","","","","","","","","","","","","","",""
"","do_welcome","94","324104","0.0-77.0-1.0","null","","","","null","","","","","","","","","","","","","","","","",""
"","do_trial","95","330075","0.0-78.0-0.0","1396.2000000476837","","","","50","0,1,0","1","countryside","40","probe-136","0.09535282016923922","1","0.2178239992369103","1","","","","","","","",""
"","do_trial","96","335208","0.0-79.0-0.0","558.3999999761581","","","","51","0,1,0","1","countryside","41","probe-202","0.05428968016362449","1","0.20994537292379825","0","","","","","","","",""
"","do_trial","97","340974","0.0-80.0-0.0","1191.3999999761581","","","","49","0,1,1","1","countryside","42","probe-216","0.10041049244845823","1","0.358362331582904","0","","","","","","","",""
"","do_trial","98","345954","0.0-81.0-0.0","404.6999999284744","","","","50","0,1,1","1","countryside","43","probe-68","0.08511505118182991","1","0.3948552855596761","1","","","","","","","",""
"","do_trial","99","351247","0.0-82.0-0.0","697.2000000476837","","","","51","0,1,0","1","countryside","44","probe-150","0.1177454151779272","0.8805331743067116","0.33501517771236294","0","","","","","","","",""
"","do_trial","100","356110","0.0-83.0-0.0","283.39999997615814","","","","50","1,1,0","1","countryside","45","probe-19","0.10664458398402457","0.8005519808521051","0.3043326476203644","1","","","","","","","",""
"","do_trial","101","361132","0.0-84.0-0.0","438.10000002384186","","","","50","0,1,0","1","countryside","46","probe-34","0.0638872651590134","0.8433983803267766","0.11619250392391091","1","","","","","","","",""
"","do_trial","102","366520","0.0-85.0-0.0","803.2000000476837","","","","50","1,1,0","1","countryside","47","probe-189","0.06272329335512927","0.794365868385412","0.2635416472032003","1","","","","","","","",""
"","do_trial","103","371623","0.0-86.0-0.0","523","","","","50","1,1,0","1","countryside","48","probe-131","0.24236492441887492","0.8135911461936084","0.2747737818440119","1","","","","","","","",""
"","do_trial","104","376463","0.0-87.0-0.0","266.7000000476837","","","","50","1,1,1","1","countryside","49","probe-40","0.10668021905278026","0.9164342478159799","0.35833644950009297","1","","","","","","","",""
"","do_trial","105","381238","0.0-88.0-0.0","196.5","","","","50","1,0,0","1","countryside","50","probe-206","0.24559618247755372","0.587335501540911","0.5564495566251426","0","","","","","","","",""
"","do_trial","106","386093","0.0-89.0-0.0","285.10000002384186","","","","50","0,0,1","1","countryside","51","probe-127","0.3098456270433636","0.27162855530353375","0.6873220211773253","0","","","","","","","",""
"","do_trial","107","390906","0.0-90.0-0.0","233.30000007152557","","","","50","0,0,1","1","countryside","52","probe-81","0.43886324541867333","0.18369632604363598","0.7569732169846803","0","","","","","","","",""
"","do_trial","108","395981","0.0-91.0-0.0","479.7000000476837","","","","50","0,1,0","1","countryside","53","probe-10","0.4619622917872006","0.3752375185114138","0.7251852388727024","1","","","","","","","",""
"","do_trial","109","400859","0.0-92.0-0.0","299.6999999284744","","","","50","0,0,1","1","countryside","54","probe-228","0.39347234195995306","0.24187874631518164","0.9142983534463154","0","","","","","","","",""
"","do_trial","110","406173","0.0-93.0-0.0","739.5","","","","50","1,0,1","1","countryside","55","probe-142","0.4837183787533222","0.18705559040633735","0.9218269854677567","0","","","","","","","",""
"","do_trial","111","411850","0.0-94.0-0.0","1089.8999999761581","","","","50","0,0,1","1","countryside","56","probe-79","0.46864099656652713","0.09983344843875208","0.8601113865970649","0","","","","","","","",""
"","do_trial","112","416940","0.0-95.0-0.0","512.2000000476837","","","","50","0,0,1","1","countryside","57","probe-15","0.39375206366443916","0.11828373154044503","0.8892175863551544","0","","","","","","","",""
"","do_trial","113","423523","0.0-96.0-0.0","2007.7999999523163","","","","50","1,0,0","1","countryside","58","probe-156","0.41998589926404395","0.100073258796602","0.7895609134843617","0","","","","","","","",""
"","do_trial","114","429599","0.0-97.0-0.0","null","","","","null","1,0,1","1","countryside","59","probe-121","0.39716619569814515","0.08341295125643207","0.7297559804283649","","","","","","","","",""
"","do_trial","115","434556","0.0-98.0-0.0","371.2000000476837","","","","50","1,0,1","1","countryside","60","probe-170","0.35516795890499914","0.16785178577650262","0.8822464000910084","0","","","","","","","",""
"","do_trial","116","439513","0.0-99.0-0.0","380","","","","51","0,0,1","1","countryside","61","probe-76","0.29904356640119484","0.23470120113386764","0.8290145273103297","1","","","","","","","",""
"","do_trial","117","444682","0.0-100.0-0.0","588.2999999523163","","","","50","1,0,1","1","countryside","62","probe-152","0.4548313843552132","0.1500760769555103","0.8676472929215396","0","","","","","","","",""
"","do_trial","118","449257","0.0-101.0-0.0","0.10000002384185791","","","","49","0,0,1","1","countryside","63","probe-97","0.4878830251400539","0.06800359057269832","0.94898414321559","0","","","","","","","",""
"","do_trial","119","455833","0.0-102.0-0.0","2003.2000000476837","","","","50","1,0,1","1","countryside","64","probe-166","0.42674571598067235","0.09039439372726854","0.7332451661915408","0","","","","","","","",""
"","do_trial","120","461078","0.0-103.0-0.0","668.5","","","","50","0,0,1","1","countryside","65","probe-25","0.3654105302983782","0.12636656257238355","0.8482575869942562","0","","","","","","","",""
"","do_trial","121","466050","0.0-104.0-0.0","399.10000002384186","","","","50","0,0,1","1","countryside","66","probe-215","0.3149096780932102","0.12158934969235953","0.9475151065227384","0","","","","","","","",""
"","do_trial","122","471231","0.0-105.0-0.0","590.3000000715256","","","","51","0,0,1","1","countryside","67","probe-180","0.3393605423910325","0.15119655275445293","0.9488492190929334","1","","","","","","","",""
"","do_trial","123","476137","0.0-106.0-0.0","332.3000000715256","","","","50","0,1,1","1","countryside","68","probe-158","0.28834130841640987","0.07838460685334372","0.9441577779028539","1","","","","","","","",""
"","do_trial","124","481015","0.0-107.0-0.0","299.2000000476837","","","","50","1,0,1","1","countryside","69","probe-193","0.23641169871187298","0.1304724401945593","0.8895360352778627","0","","","","","","","",""
"","do_trial","125","486215","0.0-108.0-0.0","622.3999999761581","","","","49","0,0,1","1","countryside","70","probe-203","0.2163134002440893","0.12992892743918244","0.9063282779962198","0","","","","","","","",""
"","do_trial","126","491169","0.0-109.0-0.0","377.89999997615814","","","","49","1,0,1","1","countryside","71","probe-84","0.4928571831642961","0.0514517918313836","0.8513920054599327","1","","","","","","","",""
"","do_trial","127","496128","0.0-110.0-0.0","380.39999997615814","","","","50","1,0,0","1","countryside","72","probe-63","0.49268379234608584","0.06690811522621737","0.8430427614184356","0","","","","","","","",""
"","do_trial","128","500931","0.0-111.0-0.0","218.69999992847443","","","","50","0,0,1","1","countryside","73","probe-222","0.4377323654102038","0.10655299112988599","0.8238069255646473","0","","","","","","","",""
"","do_trial","129","505823","0.0-112.0-0.0","314.40000009536743","","","","50","0,0,1","1","countryside","74","probe-22","0.3936404980778554","0.28758027976122924","0.9369166991804935","0","","","","","","","",""
"","do_trial","130","510673","0.0-113.0-0.0","285.10000002384186","","","","50","1,0,1","1","countryside","75","probe-112","0.379030301516052","0.35363942512729085","0.8467654977491877","0","","","","","","","",""
"","do_trial","131","515583","0.0-114.0-0.0","332.7000000476837","","","","51","1,0,0","1","countryside","76","probe-13","0.4128042317115139","0.17123259735940585","0.6851954142535941","0","","","","","","","",""
"","do_trial","132","520634","0.0-115.0-0.0","476.7999999523163","","","","50","1,0,0","1","countryside","77","probe-149","0.33822785042612474","0.10357004596081126","0.5504500346829143","0","","","","","","","",""
"","do_trial","133","525686","0.0-116.0-0.0","480.60000002384186","","","","50","1,1,1","1","countryside","78","probe-175","0.426771748058695","0.11065017111322484","0.6852025075654483","1","","","","","","","",""
"","do_trial","134","530699","0.0-117.0-0.0","440.89999997615814","","","","50","0,0,0","1","countryside","79","probe-230","0.4974208226009084","0.07030692510493408","0.7696605596505419","0","","","","","","","",""
"","do_bye","135","532212","0.0-118.0-0.0","null","","","","null","","","","","","","","","","","","","","","","",""
"","do_travel","136","538217","0.0-119.0-0.0","null","","","","null","","","","","","","","","","","","","","","","",""
"","do_welcome","137","539727","0.0-119.0-1.0","null","","","","null","","","","","","","","","","","","","","","","",""
"","do_trial","138","544308","0.0-120.0-0.0","0.10000002384185791","","","","50","1,0,1","2","forest","80","probe-115","0.61034964404375","0.07414914084916747","1","0","","","","","","","",""
"","do_trial","139","549185","0.0-121.0-0.0","301.3000000715256","","","","50","1,0,1","2","forest","81","probe-82","0.6244225157526441","0.07223895526283068","1","0","","","","","","","",""
"","do_trial","140","554138","0.0-122.0-0.0","378.90000009536743","","","","50","1,0,1","2","forest","82","probe-225","0.40665788955608123","0.05197542791603141","1","0","","","","","","","",""
"","do_trial","141","559122","0.0-123.0-0.0","410.39999997615814","","","","50","0,1,1","2","forest","83","probe-200","0.3142441754952619","0.12979943522628237","1","1","","","","","","","",""
"","do_trial","142","564154","0.0-124.0-0.0","453","","","","50","0,0,0","2","forest","84","probe-70","0.3486198430003365","0.10504202051198608","0.8542236838507711","0","","","","","","","",""
"","do_trial","143","568825","0.0-125.0-0.0","95.09999990463257","","","","50","1,1,1","2","forest","85","probe-163","0.3727343699922617","0.07218686843778178","0.9264907257509856","1","","","","","","","",""
"","do_trial","144","573608","0.0-126.0-0.0","201.20000004768372","","","","50","0,0,1","2","forest","86","probe-232","0.45139969672815855","0.05111191089771465","0.8480912736529095","0","","","","","","","",""
"","do_trial","145","578467","0.0-127.0-0.0","283.90000009536743","","","","50","1,0,1","2","forest","87","probe-186","0.3697129800120699","0.06588264855944327","0.8526207446000321","0","","","","","","","",""
"","do_trial","146","583374","0.0-128.0-0.0","326.6999999284744","","","","50","1,0,1","2","forest","88","probe-165","0.409199486263548","0.12259033956228503","0.7969981520766369","0","","","","","","","",""
"","do_trial","147","588406","0.0-129.0-0.0","479.6999999284744","","","","50","1,0,1","2","forest","89","probe-83","0.46014785980740835","0.126740071265005","0.7436313500167532","0","","","","","","","",""
"","do_trial","148","593290","0.0-130.0-0.0","301.3000000715256","","","","50","0,1,1","2","forest","90","probe-120","0.49706827672790094","0.37146102954037913","0.6516202450450022","1","","","","","","","",""
"","do_trial","149","598108","0.0-131.0-0.0","255.19999992847443","","","","50","0,1,1","2","forest","91","probe-236","0.611510569877725","0.5784184606194921","0.47141107683945044","1","","","","","","","",""
"","do_trial","150","603050","0.0-132.0-0.0","363.10000002384186","","","","50","0,1,1","2","forest","92","probe-87","0.4895907285751788","0.6562770897946892","0.31794555954488907","1","","","","","","","",""
"","do_trial","151","607835","0.0-133.0-0.0","208.20000004768372","","","","50","0,1,0","2","forest","93","probe-85","0.5458594276732179","0.6600814613028705","0.3314601721876014","1","","","","","","","",""
"","do_trial","152","613154","0.0-134.0-0.0","735.7999999523163","","","","50","1,1,0","2","forest","94","probe-229","0.3921006632706335","0.6841537290029954","0.2284272722313081","1","","","","","","","",""
"","do_trial","153","618142","0.0-135.0-0.0","415","","","","50","0,1,0","2","forest","95","probe-37","0.3139826509794066","0.8221880674309443","0.09154445458566485","1","","","","","","","",""
"","do_trial","154","625074","0.0-136.0-0.0","2360.3000000715256","","","","50","0,1,0","2","forest","96","probe-184","0.2775343590442488","0.7828433776369034","0.11385697260254361","1","","","","","","","",""
"","do_trial","155","630100","0.0-137.0-0.0","450.60000002384186","","","","50","0,1,0","2","forest","97","probe-98","0.37310498896843386","0.7758054871904926","0.1053416129114564","1","","","","","","","",""
"","do_trial","156","635743","0.0-138.0-0.0","1066.6000000238419","","","","50","1,1,0","2","forest","98","probe-135","0.27085566766725194","0.9425720465340033","0.12059440540629685","1","","","","","","","",""
"","do_trial","157","640967","0.0-139.0-0.0","647.2000000476837","","","","50","1,1,0","2","forest","99","probe-09","0.38560115008205365","0.8976896829750568","0.05511455449013106","1","","","","","","","",""
"","do_trial","158","645547","0.0-140.0-0.0","0.10000002384185791","","","","50","0,1,0","2","forest","100","probe-140","0.37702840772192003","0.7729845433281917","0.07743649692252016","1","","","","","","","",""
"","do_trial","159","650437","0.0-141.0-0.0","317.10000002384186","","","","50","0,1,0","2","forest","101","probe-160","0.31322565320724377","0.7689136169178924","0.062063258632728754","1","","","","","","","",""
"","do_trial","160","657858","0.0-142.0-0.0","2832.6999999284744","","","","50","0,1,1","2","forest","102","probe-57","0.21284770854675814","0.7351900514701323","0.17464070508810345","1","","","","","","","",""
"","do_trial","161","663087","0.0-143.0-0.0","653.7000000476837","","","","50","0,1,0","2","forest","103","probe-218","0.19234199922674045","0.8509916089769015","0.11356814641053774","1","","","","","","","",""
"","do_trial","162","668174","0.0-144.0-0.0","509.7000000476837","","","","50","0,1,0","2","forest","104","probe-226","0.4648576300581098","0.7664796985615923","0.1624194592788302","1","","","","","","","",""
"","do_trial","163","672809","0.0-145.0-0.0","57.5","","","","50","0,0,0","2","forest","105","probe-162","0.4348902999004707","0.854904260122798","0.1477435369732495","0","","","","","","","",""
"","do_trial","164","677672","0.0-146.0-0.0","288.7000000476837","","","","50","1,1,0","2","forest","106","probe-51","0.25477102317020184","0.734310016206473","0.1714194279726359","1","","","","","","","",""
"","do_trial","165","682365","0.0-147.0-0.0","115.29999995231628","","","","50","1,1,1","2","forest","107","probe-100","0.3233833038177456","0.7355642509822344","0.20340864559625021","1","","","","","","","",""
"","do_trial","166","686960","0.0-148.0-0.0","41.60000002384186","","","","50","1,1,0","2","forest","108","probe-192","0.37521919835946355","0.7172359375470293","0.08817562826858744","1","","","","","","","",""
"","do_trial","167","691535","0.0-149.0-0.0","0.10000002384185791","","","","50","0,0,0","2","forest","109","probe-195","0.3591621523040156","0.7828696417387444","0.11951319106338475","0","","","","","","","",""
"","do_trial","168","696602","0.0-150.0-0.0","489.3000000715256","","","","50","1,0,1","2","forest","110","probe-167","0.40958271976277","0.7941704526825327","0.10624656913330897","0","","","","","","","",""
"","do_trial","169","701340","0.0-151.0-0.0","164.89999997615814","","","","50","0,1,0","2","forest","111","probe-103","0.3686458116243264","0.8601920607476811","0.09299726498379216","1","","","","","","","",""
"","do_trial","170","706138","0.0-152.0-0.0","223.10000002384186","","","","50","1,1,0","2","forest","112","probe-146","0.32585662030067325","0.7807338285084059","0.07132023770045928","1","","","","","","","",""
"","do_trial","171","711285","0.0-153.0-0.0","582.6000000238419","","","","50","0,1,1","2","forest","113","probe-179","0.46291649332810886","0.8437927322705698","0.0980528942536191","1","","","","","","","",""
"","do_trial","172","716441","0.0-154.0-0.0","578.5","","","","50","1,0,0","2","forest","114","probe-91","0.4197185200864977","0.7080757790273846","0.06709142841764536","0","","","","","","","",""
"","do_trial","173","721066","0.0-155.0-0.0","37.39999997615814","","","","50","0,0,0","2","forest","115","probe-07","0.47896974666570286","0.5317816951691305","0.11873992856153757","0","","","","","","","",""
"","do_trial","174","726363","0.0-156.0-0.0","721.5","","","","50","1,1,0","2","forest","116","probe-111","0.3315426540078203","0.6891185875398285","0.19221714535180393","1","","","","","","","",""
"","do_trial","175","731026","0.0-157.0-0.0","74.69999992847443","","","","50","1,1,0","2","forest","117","probe-53","0.4347789338260276","0.849558341284028","0.09012342087549902","1","","","","","","","",""
"","do_trial","176","735630","0.0-158.0-0.0","29.59999990463257","","","","50","0,1,0","2","forest","118","probe-33","0.4988333488893968","0.7801203097370752","0.08529206669358975","1","","","","","","","",""
"","do_trial","177","740244","0.0-159.0-0.0","35.90000009536743","","","","50","1,1,0","2","forest","119","probe-47","0.39909365405119723","0.8266560204642869","0.1516367380086349","1","","","","","","","",""
"","do_bye","178","741758","0.0-160.0-0.0","null","","","","null","","","","","","","","","","","","","","","","",""
"","do_travel","179","747762","0.0-161.0-0.0","null","","","","null","","","","","","","","","","","","","","","","",""
"","do_welcome","180","749275","0.0-161.0-1.0","null","","","","null","","","","","","","","","","","","","","","","",""
"","do_trial","181","754688","0.0-162.0-0.0","833.5","","","","51","0,1,0","3","mountain","120","probe-96","0.29995003492525757","1","0.2501118345572746","0","","","","","","","",""
"","do_trial","182","759537","0.0-163.0-0.0","272.89999997615814","","","","51","0,1,1","3","mountain","121","probe-123","0.29478697714106733","1","0.3236721844707581","1","","","","","","","",""
"","do_trial","183","764496","0.0-164.0-0.0","379.40000009536743","","","","51","1,1,0","3","mountain","122","probe-130","0.4995571847351847","1","0.33042231052452326","0","","","","","","","",""
"","do_trial","184","769553","0.0-165.0-0.0","470.39999997615814","","","","51","1,1,0","3","mountain","123","probe-52","0.41826608612275706","1","0.28667219120432935","0","","","","","","","",""
"","do_trial","185","774529","0.0-166.0-0.0","398.2000000476837","","","","51","1,1,0","3","mountain","124","probe-99","0.2296894208765149","0.8390047688779524","0.11404191402814785","0","","","","","","","",""
"","do_trial","186","779104","0.0-167.0-0.0","0.19999992847442627","","","","51","0,0,0","3","mountain","125","probe-114","0.27826492124247565","0.7684008003448703","0.051371164575176244","0","","","","","","","",""
"","do_trial","187","783718","0.0-168.0-0.0","35.39999997615814","","","","51","1,1,0","3","mountain","126","probe-73","0.32011161076267775","0.8521947078590332","0.0789336051940365","0","","","","","","","",""
"","do_trial","188","788493","0.0-169.0-0.0","216.89999997615814","","","","51","1,0,0","3","mountain","127","probe-159","0.33734694809590854","0.7043153431681948","0.10848808141016006","0","","","","","","","",""
"","do_trial","189","793691","0.0-170.0-0.0","622.6000000238419","","","","51","1,0,0","3","mountain","128","probe-05","0.38366427635181083","0.6502483470906337","0.14634120398499056","0","","","","","","","",""
"","do_trial","190","798384","0.0-171.0-0.0","96.70000004768372","","","","51","1,0,0","3","mountain","129","probe-223","0.4138243729834454","0.6747747295245554","0.13372093989486664","0","","","","","","","",""
"","do_trial","191","804767","0.0-172.0-0.0","1807.3000000715256","","","","51","1,1,0","3","mountain","130","probe-49","0.6105406538193785","0.40765454273815066","0.17162103532119488","0","","","","","","","",""
"","do_trial","192","810846","0.0-173.0-0.0","null","","","","null","0,0,0","3","mountain","131","probe-46","0.6757021596508642","0.3396842448453473","0.27995210090198586","","","","","","","","",""
"","do_trial","193","815492","0.0-174.0-0.0","63.10000002384186","","","","51","1,1,0","3","mountain","132","probe-176","0.6222835803051625","0.17608076087243998","0.40330230661287525","0","","","","","","","",""
"","do_trial","194","820067","0.0-175.0-0.0","0.19999992847442627","","","","51","1,0,1","3","mountain","133","probe-183","0.6444591147644831","0.12173705160093976","0.275260576546125","1","","","","","","","",""
"","do_trial","195","824883","0.0-176.0-0.0","236.5","","","","51","1,0,0","3","mountain","134","probe-109","0.7570075600728788","0.10067348577967784","0.35090845821433386","0","","","","","","","",""
"","do_trial","196","830142","0.0-177.0-0.0","665.2000000476837","","","","51","1,0,0","3","mountain","135","probe-03","0.8712246926175929","0.07305823262742187","0.253144959105009","0","","","","","","","",""
"","do_trial","197","835182","0.0-178.0-0.0","465.5","","","","51","1,0,0","3","mountain","136","probe-38","0.9403740644942998","0.07416687028651793","0.28967225872144636","0","","","","","","","",""
"","do_trial","198","840646","0.0-179.0-0.0","886.8000000715256","","","","51","1,1,0","3","mountain","137","probe-182","0.9080003762387046","0.1334709597428725","0.4223775703809522","0","","","","","","","",""
"","do_trial","199","845503","0.0-180.0-0.0","278.39999997615814","","","","51","1,0,0","3","mountain","138","probe-104","0.7442999430835141","0.08189869667657439","0.3393994334586967","0","","","","","","","",""
"","do_trial","200","850161","0.0-181.0-0.0","69.89999997615814","","","","51","1,0,1","3","mountain","139","probe-67","0.8387325076588666","0.1590326302400956","0.3264560044241225","1","","","","","","","",""
"","do_trial","201","857338","0.0-182.0-0.0","2598.899999976158","","","","51","1,0,0","3","mountain","140","probe-207","0.7631845236070607","0.10745529214136579","0.3005820652686732","0","","","","","","","",""
"","do_trial","202","862075","0.0-183.0-0.0","160.59999990463257","","","","51","1,0,0","3","mountain","141","probe-154","0.8651551811066753","0.10609408449711955","0.22210329380133068","0","","","","","","","",""
"","do_trial","203","866670","0.0-184.0-0.0","16","","","","51","1,0,0","3","mountain","142","probe-240","0.8661062562536183","0.09831947003602012","0.2187607300338514","0","","","","","","","",""
"","do_trial","204","871486","0.0-185.0-0.0","237.19999992847443","","","","51","1,0,0","3","mountain","143","probe-132","0.7818783135165199","0.09966579331055415","0.21874649175759042","0","","","","","","","",""
"","do_trial","205","876068","0.0-186.0-0.0","0.10000002384185791","","","","51","1,1,0","3","mountain","144","probe-89","0.8079266985896898","0.09249502170640518","0.20834289468144604","0","","","","","","","",""
"","do_trial","206","881105","0.0-187.0-0.0","464.1999999284744","","","","51","0,0,1","3","mountain","145","probe-129","0.81017180535627","0.06305485091543883","0.32600689684709067","1","","","","","","","",""
"","do_trial","207","886125","0.0-188.0-0.0","443.2999999523163","","","","51","1,1,1","3","mountain","146","probe-177","0.7496214319068528","0.07551013832636015","0.4189953694719035","1","","","","","","","",""
"","do_trial","208","892055","0.0-189.0-0.0","1362.6999999284744","","","","51","1,0,1","3","mountain","147","probe-14","0.6636614622888644","0.22347787767688126","0.36249121836981857","1","","","","","","","",""
"","do_trial","209","897898","0.0-190.0-0.0","1266.1000000238419","","","","51","0,0,0","3","mountain","148","probe-151","0.7743484834274021","0.07796981728930032","0.3945883170274118","0","","","","","","","",""
"","do_trial","210","902496","0.0-191.0-0.0","8.5","","","","51","1,0,0","3","mountain","149","probe-54","0.8395360315234547","0.11920207504259497","0.3771395972829701","0","","","","","","","",""
"","do_trial","211","907564","0.0-192.0-0.0","491.60000002384186","","","","51","1,0,1","3","mountain","150","probe-153","0.8133023073797788","0.09887400901868733","0.3058807713487934","1","","","","","","","",""
"","do_trial","212","913392","0.0-193.0-0.0","1249.6000000238419","","","","51","1,0,0","3","mountain","151","probe-48","0.8583541360853814","0.20179104720542274","0.13661815548098535","0","","","","","","","",""
"","do_trial","213","919558","0.0-194.0-0.0","1593.5","","","","51","1,0,0","3","mountain","152","probe-29","0.9166387607479141","0.21882911139449643","0.1939237197181847","0","","","","","","","",""
"","do_trial","214","924785","0.0-195.0-0.0","651.3000000715256","","","","51","1,0,1","3","mountain","153","probe-32","0.7975737390470558","0.21838072362184646","0.2327149801207556","1","","","","","","","",""
"","do_trial","215","929850","0.0-196.0-0.0","487.89999997615814","","","","51","1,0,1","3","mountain","154","probe-141","0.7933302577071244","0.05048899266133148","0.15711264157610066","1","","","","","","","",""
"","do_trial","216","934922","0.0-197.0-0.0","494.60000002384186","","","","51","1,0,0","3","mountain","155","probe-86","0.8197395348570037","0.17936642875488887","0.31598793382553975","0","","","","","","","",""
"","do_trial","217","940118","0.0-198.0-0.0","628.6000000238419","","","","51","1,1,0","3","mountain","156","probe-224","0.9430788458719865","0.2335004053815186","0.3842648997484956","0","","","","","","","",""
"","do_trial","218","944751","0.0-199.0-0.0","55.700000047683716","","","","51","1,0,1","3","mountain","157","probe-118","0.8452117862128087","0.20869943167082552","0.2742214316938889","1","","","","","","","",""
"","do_trial","219","949544","0.0-200.0-0.0","215.19999992847443","","","","51","0,1,1","3","mountain","158","probe-105","0.814214050309405","0.05217747718457627","0.3555442763451172","1","","","","","","","",""
"","do_trial","220","954419","0.0-201.0-0.0","299.39999997615814","","","","51","1,0,0","3","mountain","159","probe-164","0.8348030783692102","0.07394267200990436","0.37586089481860036","0","","","","","","","",""
"","do_bye","221","955932","0.0-202.0-0.0","null","","","","null","","","","","","","","","","","","","","","","",""
"","do_travel","222","961936","0.0-203.0-0.0","null","","","","null","","","","","","","","","","","","","","","","",""
"","do_welcome","223","963450","0.0-203.0-1.0","null","","","","null","","","","","","","","","","","","","","","","",""
"","do_trial","224","968514","0.0-204.0-0.0","472.5","","","","49","1,0,1","4","coast","160","probe-95","1","0.0792191195654917","0.4399526259165283","1","","","","","","","",""
"","do_trial","225","973465","0.0-205.0-0.0","373.5","","","","49","1,1,0","4","coast","161","probe-11","1","0.05407217531673478","0.4288320613938565","1","","","","","","","",""
"","do_trial","226","978904","0.0-206.0-0.0","860.1999999284744","","","","49","1,1,1","4","coast","162","probe-26","1","0.09375141130553165","0.5081296921080763","1","","","","","","","",""
"","do_trial","227","984024","0.0-207.0-0.0","540.6000000238419","","","","49","1,0,0","4","coast","163","probe-185","1","0.14029586232194693","0.553361668299365","1","","","","","","","",""
"","do_trial","228","988838","0.0-208.0-0.0","241.5","","","","49","1,1,1","4","coast","164","probe-69","0.9192230073296487","0.19184536895050877","0.517455487350237","1","","","","","","","",""
"","do_trial","229","993796","0.0-209.0-0.0","381.5","","","","49","1,0,0","4","coast","165","probe-234","0.7575805749923581","0.13678174090305809","0.49645535184733575","1","","","","","","","",""
"","do_trial","230","998677","0.0-210.0-0.0","331","","","","49","0,0,1","4","coast","166","probe-20","0.7242102854812451","0.1786537739747824","0.4982648625333945","0","","","","","","","",""
"","do_trial","231","1003889","0.0-211.0-0.0","637.6000000238419","","","","49","1,0,0","4","coast","167","probe-50","0.6874129285490106","0.32158396150230706","0.5207557748891384","1","","","","","","","",""
"","do_trial","232","1009027","0.0-212.0-0.0","560.1999999284744","","","","49","0,1,0","4","coast","168","probe-161","0.6458627170519032","0.40635620528911065","0.47880426547348814","0","","","","","","","",""
"","do_trial","233","1013929","0.0-213.0-0.0","328.89999997615814","","","","50","1,0,0","4","coast","169","probe-137","0.7487711963797675","0.30015401028939265","0.32037954254386175","0","","","","","","","",""
"","do_trial","234","1018788","0.0-214.0-0.0","280","","","","49","0,1,1","4","coast","170","probe-213","0.611261604587462","0.4095704047326603","0.3442502229409423","0","","","","","","","",""
"","do_trial","235","1024125","0.0-215.0-0.0","756.1999999284744","","","","49","1,1,1","4","coast","171","probe-196","0.49885834958627007","0.4877348243017787","0.40195261743455346","1","","","","","","","",""
"","do_trial","236","1029083","0.0-216.0-0.0","382.89999997615814","","","","49","1,1,1","4","coast","172","probe-235","0.4288589361940109","0.5319721183416345","0.3663701035023833","1","","","","","","","",""
"","do_trial","237","1034078","0.0-217.0-0.0","402.8000000715256","","","","49","0,0,0","4","coast","173","probe-45","0.37077779165108865","0.61732586418998","0.28713951257777004","0","","","","","","","",""
"","do_trial","238","1038655","0.0-218.0-0.0","0.20000004768371582","","","","49","0,1,0","4","coast","174","probe-30","0.3179519933563011","0.5833392112105239","0.23523550410066627","0","","","","","","","",""
"","do_trial","239","1043215","0.0-219.0-0.0","0.20000004768371582","","","","49","1,0,0","4","coast","175","probe-168","0.20969944757290898","0.4652275331325985","0.36942826551118546","1","","","","","","","",""
"","do_trial","240","1048283","0.0-220.0-0.0","491.5","","","","49","0,1,0","4","coast","176","probe-113","0.27307009706541996","0.679690538171741","0.38829667095541154","0","","","","","","","",""
"","do_trial","241","1052861","0.0-221.0-0.0","0.09999990463256836","","","","49","0,0,1","4","coast","177","probe-59","0.16694569872523168","0.702914369014763","0.5066422521940745","0","","","","","","","",""
"","do_trial","242","1057693","0.0-222.0-0.0","259.40000009536743","","","","49","0,1,1","4","coast","178","probe-36","0.15396460886197574","0.8342947830132892","0.3581326360292597","0","","","","","","","",""
"","do_trial","243","1063740","0.0-223.0-0.0","1468.2000000476837","","","","49","0,0,0","4","coast","179","probe-01","0.13331319939903855","0.6753675721185768","0.2910063275254423","0","","","","","","","",""
"","do_trial","244","1068914","0.0-224.0-0.0","594.3999999761581","","","","49","0,1,0","4","coast","180","probe-80","0.1339755718405103","0.8669534602614175","0.39913642441117675","0","","","","","","","",""
"","do_trial","245","1073774","0.0-225.0-0.0","280.5","","","","49","0,1,1","4","coast","181","probe-227","0.051435388140130205","0.9397861387767038","0.45836659097340376","0","","","","","","","",""
"","do_trial","246","1078772","0.0-226.0-0.0","420.10000002384186","","","","49","0,1,0","4","coast","182","probe-181","0.15338245331123188","0.764776930826844","0.4162438055229927","0","","","","","","","",""
"","do_trial","247","1083643","0.0-227.0-0.0","295","","","","49","0,1,0","4","coast","183","probe-17","0.30770994045497996","0.7460129329120686","0.35284970499602","0","","","","","","","",""
"","do_trial","248","1088738","0.0-228.0-0.0","524","","","","49","0,1,1","4","coast","184","probe-107","0.2638968324064981","0.874360545593512","0.38794308165543423","0","","","","","","","",""
"","do_trial","249","1093779","0.0-229.0-0.0","464.60000002384186","","","","49","0,1,1","4","coast","185","probe-65","0.05144404760578532","0.9242334620550989","0.4213039649393992","0","","","","","","","",""
"","do_trial","250","1099064","0.0-230.0-0.0","710.4000000953674","","","","49","1,0,1","4","coast","186","probe-138","0.2502379392784348","0.8934514221820625","0.3333976839406093","1","","","","","","","",""
"","do_trial","251","1104247","0.0-231.0-0.0","601.5999999046326","","","","49","0,1,1","4","coast","187","probe-148","0.22705018929822202","0.674137931096318","0.45209209342595663","0","","","","","","","",""
"","do_trial","252","1109015","0.0-232.0-0.0","190.80000007152557","","","","49","0,1,0","4","coast","188","probe-155","0.15623197990763746","0.7995875340605794","0.35730502284485455","0","","","","","","","",""
"","do_trial","253","1114413","0.0-233.0-0.0","821","","","","49","0,0,0","4","coast","189","probe-124","0.2639054956177467","0.8786762904839855","0.5085142917287317","0","","","","","","","",""
"","do_trial","254","1119503","0.0-234.0-0.0","506.2000000476837","","","","49","1,0,0","4","coast","190","probe-71","0.215962588386529","0.7866331534847737","0.35995088341377407","1","","","","","","","",""
"","do_trial","255","1124453","0.0-235.0-0.0","369","","","","49","0,1,0","4","coast","191","probe-145","0.12827958795785338","0.831863797683517","0.4342809923281849","0","","","","","","","",""
"","do_trial","256","1130577","0.0-236.0-0.0","1546.7999999523163","","","","49","0,0,0","4","coast","192","probe-102","0.11320592452995452","0.810191149713479","0.5619763348799804","0","","","","","","","",""
"","do_trial","257","1135832","0.0-237.0-0.0","678.6000000238419","","","","49","0,1,1","4","coast","193","probe-35","0.06499328033722546","0.7065022765404908","0.6113688029838016","0","","","","","","","",""
"","do_trial","258","1141946","0.0-238.0-0.0","1519.7999999523163","","","","49","0,1,0","4","coast","194","probe-92","0.1447712600404153","0.8657088925849735","0.4269943647828719","0","","","","","","","",""
"","do_trial","259","1147032","0.0-239.0-0.0","507.89999997615814","","","","49","0,0,1","4","coast","195","probe-27","0.20543740691979115","0.8115560062534357","0.590755296983434","0","","","","","","","",""
"","do_trial","260","1152148","0.0-240.0-0.0","545.6999999284744","","","","49","0,0,0","4","coast","196","probe-187","0.13900347208300134","0.7578975038155376","0.6737962895993671","0","","","","","","","",""
"","do_trial","261","1157498","0.0-241.0-0.0","759.5","","","","49","1,1,1","4","coast","197","probe-220","0.1967156984827318","0.7636382270018554","0.5656314347674214","1","","","","","","","",""
"","do_trial","262","1163805","0.0-242.0-0.0","1731.8999999761581","","","","49","0,1,0","4","coast","198","probe-197","0.1618126521038773","0.6451086787522965","0.5372634727445746","0","","","","","","","",""
"","do_trial","263","1168361","0.0-243.0-0.0","0.19999992847442627","","","","49","0,0,0","4","coast","199","probe-144","0.06362278658203571","0.6474710335644259","0.42111619074555784","0","","","","","","","",""
"","do_bye","264","1169875","0.0-244.0-0.0","null","","","","null","","","","","","","","","","","","","","","","",""
"","do_travel","265","1175880","0.0-245.0-0.0","null","","","","null","","","","","","","","","","","","","","","","",""
"","do_welcome","266","1177393","0.0-245.0-1.0","null","","","","null","","","","","","","","","","","","","","","","",""
"","do_trial","267","1182330","0.0-246.0-0.0","363.5","","","","50","0,1,0","5","city","200","probe-23","0.11014677991917893","1","0.4496712375439064","1","","","","","","","",""
"","do_trial","268","1187330","0.0-247.0-0.0","393.60000002384186","","","","50","0,1,0","5","city","201","probe-02","0.09394054165595861","1","0.3981203684906923","1","","","","","","","",""
"","do_trial","269","1192089","0.0-248.0-0.0","182","","","","50","0,1,1","5","city","202","probe-217","0.12126174876079077","1","0.34218037100475196","1","","","","","","","",""
"","do_trial","270","1197250","0.0-249.0-0.0","586.6000000238419","","","","50","0,1,0","5","city","203","probe-125","0.21087955489311397","1","0.33684364609324213","1","","","","","","","",""
"","do_trial","271","1202252","0.0-250.0-0.0","423.60000002384186","","","","50","0,1,0","5","city","204","probe-44","0.13052318208430422","0.9391781476363926","0.3693464742126054","1","","","","","","","",""
"","do_trial","272","1207796","0.0-251.0-0.0","972.1000000238419","","","","50","0,0,1","5","city","205","probe-239","0.15493221704193177","0.8055051528035785","0.27438107947280704","0","","","","","","","",""
"","do_trial","273","1213436","0.0-252.0-0.0","1081.2000000476837","","","","50","0,1,1","5","city","206","probe-04","0.16572114184745904","0.9291526734396436","0.3484667660472138","1","","","","","","","",""
"","do_trial","274","1218530","0.0-253.0-0.0","507.39999997615814","","","","50","0,1,1","5","city","207","probe-208","0.14249665278798238","0.8404694579330823","0.3522775224899457","1","","","","","","","",""
"","do_trial","275","1223560","0.0-254.0-0.0","452.7000000476837","","","","50","0,1,0","5","city","208","probe-139","0.0943881352336471","0.669226599226702","0.5194773344466359","1","","","","","","","",""
"","do_trial","276","1228831","0.0-255.0-0.0","696.8000000715256","","","","50","0,0,0","5","city","209","probe-119","0.17889202231480625","0.697093492373996","0.44335931954325775","0","","","","","","","",""
"","do_trial","277","1235275","0.0-256.0-0.0","1868.7000000476837","","","","50","1,1,0","5","city","210","probe-173","0.4820714367857869","0.640862411247016","0.46167612301782407","1","","","","","","","",""
"","do_trial","278","1240053","0.0-257.0-0.0","199.60000002384186","","","","50","0,0,0","5","city","211","probe-143","0.6180820962164145","0.5906970907912215","0.25575706089424477","0","","","","","","","",""
"","do_trial","279","1244961","0.0-258.0-0.0","333.89999997615814","","","","50","0,1,1","5","city","212","probe-238","0.6842163840855945","0.4889543528707984","0.17523127978499733","1","","","","","","","",""
"","do_trial","280","1250051","0.0-259.0-0.0","513.6999999284744","","","","50","1,0,0","5","city","213","probe-18","0.6626976933570353","0.47879813480815664","0.11298978711165517","0","","","","","","","",""
"","do_trial","281","1255054","0.0-260.0-0.0","425.59999990463257","","","","50","1,1,0","5","city","214","probe-21","0.647360348817566","0.5204302529518718","0.15289509945567684","1","","","","","","","",""
"","do_trial","282","1260093","0.0-261.0-0.0","482.7000000476837","","","","50","1,1,0","5","city","215","probe-12","0.6972669199100255","0.5684655225502124","0.055850038208823706","1","","","","","","","",""
"","do_trial","283","1264735","0.0-262.0-0.0","70","","","","50","1,0,0","5","city","216","probe-28","0.5854702458141848","0.5060402918975949","0.07002884282594884","0","","","","","","","",""
"","do_trial","284","1269313","0.0-263.0-0.0","0.10000002384185791","","","","50","1,1,0","5","city","217","probe-24","0.661329533030473","0.5533686746177517","0.12906108141094527","1","","","","","","","",""
"","do_trial","285","1274494","0.0-264.0-0.0","602.8000000715256","","","","50","1,1,0","5","city","218","probe-88","0.7470645957561932","0.5217812922776738","0.29513449297609684","1","","","","","","","",""
"","do_trial","286","1279277","0.0-265.0-0.0","203.10000002384186","","","","50","1,1,1","5","city","219","probe-191","0.8337996181387702","0.5059149449841084","0.24038331606446423","1","","","","","","","",""
"","do_trial","287","1285723","0.0-266.0-0.0","1866.8999999761581","","","","50","1,1,0","5","city","220","probe-205","0.6622198354869641","0.38770532681238307","0.06049998937544327","1","","","","","","","",""
"","do_trial","288","1290563","0.0-267.0-0.0","268.2999999523163","","","","50","0,0,0","5","city","221","probe-60","0.7497758973316916","0.38100149781866083","0.08216288713878667","0","","","","","","","",""
"","do_trial","289","1295144","0.0-268.0-0.0","0.10000002384185791","","","","50","1,0,0","5","city","222","probe-61","0.8102184005645674","0.19647303607378427","0.14401026641250206","0","","","","","","","",""
"","do_trial","290","1300029","0.0-269.0-0.0","305","","","","50","1,0,0","5","city","223","probe-94","0.8097151350988545","0.14016186877164624","0.24930963719549962","0","","","","","","","",""
"","do_trial","291","1304949","0.0-270.0-0.0","344.2999999523163","","","","50","1,0,0","5","city","224","probe-178","0.9139885606258693","0.24959979133830373","0.05482929574000833","0","","","","","","","",""
"","do_trial","292","1310097","0.0-271.0-0.0","568.2999999523163","","","","50","0,1,1","5","city","225","probe-233","0.7748274731945318","0.39918255614154435","0.1465882481787746","1","","","","","","","",""
"","do_trial","293","1315002","0.0-272.0-0.0","334.10000002384186","","","","50","0,1,0","5","city","226","probe-133","0.8265685756565785","0.19637029062117145","0.07570669830543232","1","","","","","","","",""
"","do_trial","294","1319892","0.0-273.0-0.0","313.7000000476837","","","","50","0,1,0","5","city","227","probe-174","0.7587985442689528","0.3652288328367064","0.07180635609268463","1","","","","","","","",""
"","do_trial","295","1324871","0.0-274.0-0.0","402.10000002384186","","","","50","0,1,0","5","city","228","probe-31","0.7338636193497026","0.46546063647524605","0.0756442539119987","1","","","","","","","",""
"","do_trial","296","1330043","0.0-275.0-0.0","597.5","","","","50","1,0,0","5","city","229","probe-134","0.6883035782795806","0.44068229288730565","0.06871143040412103","0","","","","","","","",""
"","do_trial","297","1335192","0.0-276.0-0.0","571.4000000953674","","","","50","1,0,0","5","city","230","probe-74","0.7404923764991621","0.4914200126408879","0.08160558489305675","0","","","","","","","",""
"","do_trial","298","1340751","0.0-277.0-0.0","985","","","","50","1,0,0","5","city","231","probe-212","0.8004254410723437","0.43144234550760074","0.11648055923533007","0","","","","","","","",""
"","do_trial","299","1345795","0.0-278.0-0.0","467.7000000476837","","","","50","1,1,0","5","city","232","probe-194","0.8431011240347166","0.5032730952475162","0.15575433904435199","1","","","","","","","",""
"","do_trial","300","1351419","0.0-279.0-0.0","1048.3000000715256","","","","50","1,0,0","5","city","233","probe-78","0.8523064654084251","0.5320967301641004","0.06999751101023007","0","","","","","","","",""
"","do_trial","301","1356253","0.0-280.0-0.0","259.60000002384186","","","","50","1,1,0","5","city","234","probe-198","0.881774629405409","0.5156831293124337","0.15271108805368735","1","","","","","","","",""
"","do_trial","302","1362055","0.0-281.0-0.0","1229","","","","50","1,1,0","5","city","235","probe-211","0.8903372491051428","0.45867334471464355","0.16868955628771728","1","","","","","","","",""
"","do_trial","303","1367642","0.0-282.0-0.0","1011.6000000238419","","","","50","1,0,0","5","city","236","probe-16","0.8268195429120293","0.4451811197877633","0.23723502491364654","0","","","","","","","",""
"","do_trial","304","1372847","0.0-283.0-0.0","627.6000000238419","","","","50","0,1,1","5","city","237","probe-101","0.7678918807684372","0.4434360758590229","0.41503365789739916","1","","","","","","","",""
"","do_trial","305","1377485","0.0-284.0-0.0","58.89999997615814","","","","50","1,1,0","5","city","238","probe-204","0.8583743612932224","0.42360369805024894","0.2729769090263611","1","","","","","","","",""
"","do_trial","306","1382681","0.0-285.0-0.0","611.1000000238419","","","","50","0,1,0","5","city","239","probe-58","0.7762937646294933","0.47629964897510546","0.21404558574183397","1","","","","","","","",""
"","do_bye","307","1384196","0.0-286.0-0.0","null","","","","null","","","","","","","","","","","","","","","","",""
"","html-keyboard-response","308","1388912","0.0-286.0-1.0","4712","<div class='center'>You are all done with the first part of the experiment! Thank you for participating. Tomorrow, you will recieve an invite to participate in the next phase of the experiment which you must complete by the end of the day. <p><b>[Press the space bar to end the experiment]</b></p></div>","32","","","","","","","","","","","","4,1,3,2,0,5","71,7,125,63,187,74,220,168,218,89,171,107,156,109,116,236,105,115,209,121,230,200,5,170,208,92,146,213,38,54,189,41,127,61,76,198,42,40,55,65,135,201,215,67,149,18,33,188,130,39,205,126,80,9,227,141,78,14,155,120,169,75,151,96,165,24,214,179,157,192,202,83,62,221,21,111,12,148,174,229,114,81,224,199,69,162,231,185,164,82,119,235,86,84,228,36,183,97,134,8,139,159,56,217,225,161,50,99,191,194,166,102,145,178,90,6,110,52,32,46,95,122,129,51,98,113,72,158,4,222,48,45,175,182,108,2,37,181,103,66,206,153,239,131,88,128,176,13,150,53,152,47,28,31,140,85,223,117,104,163,94,10,25,184,68,233,19,49,160,136,212,195,234,44,29,167,112,58,35,0,79,226,180,16,106,64,137,147,154,123,70,144,101,34,91,26,186,219,196,143,22,1,216,124,43,238,3,207,138,118,172,142,237,17,20,11,27,23,87,190,204,59,60,93,177,232,132,173,30,133,73,211,193,77,197,210,15,100,203,57","2,0,10,12,4,13,17,6,15,7,5,14,9,1,8,3,18,11,16","1,0.8939475792971163,0.8881666931022809,0.9136082035829517,0.8827135485238811,0.8596431761690935,0.8156378172754107,0.7765641989975065,0.8072077525043574,0.94799237715214,0.7258352725065303,0.4116968563353595,0.20349833624205005,0.16579715641969686,0.06175915604550127,0.07694851854335859,0.1327584422210328,0.07605352747800695,0.09090010279965023,0.12197538651786753,0.0997550462976751,0.05216431503183763,0.16550021588689656,0.11847649405717842,0.14601268906441087,0.07375500391892675,0.14066736087834186,0.0879999598137419,0.16224966620401232,0.08717129696247707,0.24037086768581795,0.11637765831945679,0.19653939823368163,0.17629422468885964,0.09139876806271598,0.15094580684187567,0.15946628524316536,0.22308467746070426,0.16166417563619387,0.17877173678111594,0.10309713599278078,0.30775971689171394,0.1651333272622871,0.17081407899215,0.16131391578948545,0.18601716595307166,0.1345270659655745,0.17922224388152072,0.24520258168219244,0.20221785189172278,0.21017942165034523,0.3602209283501256,0.26037643932688026,0.2757159156215739,0.17969074522220907,0.16385967469276685,0.07150737412445261,0.06234666133779133,0.1452931149181914,0.21129289390716635,0.25288268162243477,0.15096768026329918,0.08846126617097298,0.12639724306746364,0.09088688921222567,0.15488956586963828,0.16495262728558174,0.1465808506835452,0.17011438613853513,0.32171758631848535,0.4918820174911329,0.6233883017123234,0.669108383364179,0.6902418953532232,0.7058077249131922,0.7599053624367548,0.7914375097859973,0.7656421522751395,0.7624952344274581,0.9008188102786565,0.873525399012106,0.9252332072552801,0.8162168193064225,0.7500402848568968,0.6315681105067836,0.6819927667089712,0.7042358686282547,0.6652519189737822,0.8994099588631713,0.8242578233141116,1,0.8806160599196072,0.8197512497913099,0.8615324816711691,0.8605843852326928,0.8540023345863973,0.9240087511552291,0.8672954218371524,0.9450953487539961,0.8957934899089776,0.4584212736768052,0.2770446251755726,0.21931292713596462,0.1756375118253824,0.19593052922468346,0.12931559083091312,0.09001160809341464,0.07873642717799015,0.16093849623589296,0.07571459984620253,0.06901754869768949,0.05925237322025927,0.0781296993530066,0.0698535303777726,0.07353145453776637,0.1140262305297038,0.07900306474072238,0.18431957228015583,0.2698865854182503,0.18058007556568023,0.30342511443825937,0.2859911242920339,0.29940137475942363,0.09741495948643271,0.0713470248468164,0.19112444033789047,0.18263205265731336,0.21805329182234168,0.14982222243784307,0.1827864872618622,0.07447931714183914,0.08308042829288206,0.1457004910868039,0.08947437651325313,0.2494098904402991,0.11821194743183341,0.05600261917574108,0.1737672994309304,0.26243258300946076,0.5076446292368215,0.5920047133730869,0.5876019890843641,0.7289776616978055,0.7100541213815745,0.7725704420712168,0.746194945797848,0.6139980928189712,0.697547552325849,0.6468925708632882,0.8221354271893878,1,0.8428710943608665,0.779708066202984,0.9014244613903242,0.9002042603938931,0.7353114955022388,0.7964169888142278,0.7803490764463357,0.7626391361065974,0.7637480248651092,0.784844013299979,0.7801260366886706,0.7753142585282237,0.5750520956596651,0.3766721290029545,0.3647269086284124,0.3861740600537703,0.4507828437551559,0.3899926020778786,0.384950557345454,0.408532074735595,0.3244090685194106,0.2859907520001127,0.3409514996979696,0.3880748113766686,0.3268550830403778,0.37773309668855404,0.28639841226290275,0.2693091819643488,0.40847736703141346","0.4848933815718738,0.5086324406430364,0.5009280601336329,0.4190705271185582,0.5356472457015865,0.4254873484124507,0.3886670277463366,0.3189258953880794,0.3800805541741182,0.2710009656875262,0.1867171874648141,0.2761633448938175,0.509560396437718,0.6167854451939786,0.6509834234107658,0.5540847979508565,0.5256060248005766,0.49092744508527736,0.5507118364470235,0.4088775749491266,0.38280072620079686,0.4752019253097183,0.5176010854769973,0.5295358583374961,0.32645373568954045,0.5022876575549887,0.5506967710991477,0.33753647906586165,0.5065874975477602,0.3450531070563643,0.3835068793614842,0.30609209190159165,0.4517749219276053,0.5280467460671392,0.4722856822113611,0.42258115114719036,0.2784071726470393,0.4684475913447617,0.31679371462634676,0.25652680646288173,0.37657016492174367,0.48618816603367976,0.6491492054539627,0.7351569401748451,0.5678356785379596,0.5493611441419906,0.6753007528828071,0.7322711003151678,0.6910266775916758,0.7230549612214171,0.8084920625606905,0.8595196118789997,0.874637181192761,0.822038069505359,0.8907822596021922,0.9050213431885824,0.8876043105716435,0.8577142291111649,0.8341132588864538,0.6990623493173383,1,0.8587313124296081,0.8278243284564042,0.943383977746626,0.899598981053331,0.8545060610063279,0.7516360611600703,0.8102296131941052,0.8353515624413824,0.8656515931240631,0.5963835748544252,0.6279950246115622,0.5679463942727311,0.5621594558885383,0.6195381143037564,0.47982301570934505,0.36331611588460133,0.3098388959904397,0.24399206193808268,0.4576086022180329,0.3359961724638685,0.31935249464941484,0.28361380440112166,0.43818377675281994,0.5397785597513777,0.48955289297062116,0.2935127190790583,0.4736462075435772,0.42357794292547163,0.44573274170358246,0.3971231185582896,0.41913754672874426,0.3829420324944814,0.3568013298904532,0.42743707819537446,0.4803175017677969,0.5160253122627241,0.46581954345801335,0.5511928258893876,0.5687344753045322,0.5396624431294849,0.5026106948483521,0.4783745520447198,0.43017832590494204,0.31950763605786786,0.3529788003994982,0.2714696745791584,0.3151230026385509,0.12580614923995662,0.057930404379181545,0.33453354765946747,0.41415522975379954,0.25562917294920445,0.33602538750725897,0.42909625686688285,0.4072749296032594,0.43131476473715824,0.32457239175556296,0.4170300765176008,0.22362343304567892,0.2564262394436857,0.22147145670121568,0.32112417845663865,0.2911945628104675,0.31839052206501983,0.5827784322791861,0.5067825635997762,0.5283912447261687,0.3891027835082656,0.4360006439145295,0.30532693965522856,0.3385512805727464,0.40229280352556096,0.18531994261207793,0.2935345212287635,0.2829555019342036,0.32497388476989025,0.21975731192400524,0.17240017254570775,0.2538512956855372,0.22072979445580174,0.3643335627564712,0.28315781883397867,0.2965518757025337,0.35833801289436906,0.4048186057286873,0.4899004883240123,0.4120919384873443,0.5150996366175142,0.3779825838211819,0.3176551432880649,0.3505378446064895,0.3713499708683838,0.2522812714391217,0.3850746352760479,0.325756703113131,0.38137175647500554,0.4180537456005488,0.26329298339879337,0.31449802191336934,0.4977724548676639,0.49437925707511327,0.7011402201352867,0.8723433098549666,0.8376636248845749,0.7713509450333794,0.7998603998267741,0.8881049025639767,0.8312413007996317,0.7623381526212822,0.7615618781797183,0.9489138254403975,0.8248787158313247,0.8270251689608326,0.7826992181347179,0.7869967699337035,0.8015845211870303,0.6909992508286501,0.9263576547709127,0.8956089386623175","0.1918723093733129,0.2810957363321541,0.190050030596292,0.2478654984771584,0.19294966766243438,0.2190961923317069,0.2804637146460182,0.24628601009385834,0.19996089808526296,0.20967144364685594,0.3931579350127223,0.49148977335918076,0.7525409541393974,0.6741889346657074,0.5832669546839439,0.47429448463732754,0.6233406773506291,0.8331817364359541,0.7921811879557045,0.8368173036906272,0.8016101155333687,0.6010649286137322,0.6614888223446732,0.5640238926874711,0.6943155947528835,0.8658873849698023,0.8628338133177945,0.7829029230181459,0.8271851250521391,0.7891211826949278,1,0.8758914904155991,0.7868304833576711,0.8134494821819407,0.8688910769645186,0.8339183058581938,0.650489686140482,0.7209509711632508,0.8400313720089695,0.8815293184917272,0.8200618353828302,0.7725171231032666,0.69212952493618,0.4956156338286982,0.3632314688411384,0.5263922580748226,0.455686107263367,0.2659516295195214,0.21405150261495576,0.30047933867526316,0.5248254767604303,0.396680932472133,0.48603415483139756,0.4733912156622364,0.4611108788192776,0.4247001607838031,0.399906373366889,0.34146072599211025,0.450541046499278,0.42841701237777813,0.48612571076164074,0.4806271164617176,0.2851548637170167,0.3465491454376019,0.2033514767639047,0.21666572078016685,0.2112924052977904,0.1749969868604973,0.28228122547633083,0.4974689218292587,0.4345602204805256,0.277114964112723,0.26428441837237127,0.15329959413779565,0.1808907460368296,0.11852518334789562,0.09813528624277802,0.21821237482081074,0.08683335528091857,0.0660249286393551,0.19268488000623252,0.07317408232805725,0.07115341664725237,0.12190032138931776,0.08285142156475146,0.18300373533896808,0.17639405838280997,0.2533710491773019,0.25809979070399997,0.20122868631374932,0.1146126158630571,0.08174775175177276,0.11328986252702067,0.10534562338389684,0.17471180157009522,0.1873268466838012,0.17051203485613467,0.25932105562307006,0.15971739537714458,0.26919718435513595,0.41468015659174695,0.6839905866814503,0.8167518463084821,0.7390087223676584,0.7274292425679777,0.6748036867318237,0.7045509651311455,0.6514929919016603,0.6711361181780805,0.7251614700751746,0.6266223823996102,0.6617511928290165,0.691407083613868,0.6769549011343431,0.7474577278389006,0.8250484075031806,0.7833686537991209,0.6295047804699792,0.6267929615069292,0.5835004876867694,1,0.9218615195374696,0.8810571470301061,0.912950287227469,0.9371867602895531,0.9022809995525161,0.892881839734553,0.7454219936634864,0.7239282428997477,0.793671300008823,0.7228165111801579,0.7051726672054069,0.7307438445488308,0.7445302521517462,0.7487044430103394,0.8033775091657125,0.9171072390928622,0.8925451095519951,0.9064489475942625,0.5321482770697885,0.4034979539922381,0.22460268597647035,0.07684851242481675,0.1632321064500774,0.05734280376039885,0.12914456296687019,0.1274891423639725,0.10701633090902243,0.09727892966493785,0.06508006178804779,0.17181081194276285,0.10083405761033647,0.06243009538939357,0.07399386917111409,0.1510170350429745,0.15826775531700768,0.19988775905942965,0.10777720414871286,0.09115971443741154,0.14546064938054618,0.05581575998026415,0.06403215938430504,0.11979600562210614,0.08384059505688976,0.32543173707869716,0.22659633043187888,0.2069094263404721,0.19662951501968573,0.2428613261242668,0.11974360826460377,0.0728311472227486,0.24218508641089834,0.15017308626371587,0.08015297052360125,0.12126081194375848,0.09892882458416326,0.07965055888367163,0.12825953420437586,0.12968532961339857,0.16236337101830234","206,87,46,203,207,202,40,208,41,83,123,125,84,48,88,80,129,122,86,121,81,82,200,165,168,127,166,205,49,201,47,120,43,128,161,124,162,85,209,44,163,126,45,167,160,169,164,204,89,42","1,1,1,1,5,3,5,1,3,3,1,2,1,2,1,1,5,1,1,1,1,1,5,1,2,3,2,1,1,1,1,3,5,2,1,1,1,3,1,4,1,3,1,1,1,4,1,1,1,5,6,1,1,4,1,1,2,1,3,1"
