"success","trial_type","trial_index","time_elapsed","internal_node_id","rt","stimulus","key_press","subject_id","response","choice_outcomes","context_n","context_img_id","trial_n","probe_img_id","pR_red","pR_white","pR_black","outcome","contextArray_ind","validImageProbes","invalidImageProbes","pRew_Red","pRew_White","pRew_Black","availableForMemProbe","choice_blocks"
"true","fullscreen","0","2893","0.0-0.0","","","","","","","","","","","","","","","","","","","","","",""
"","pavlovia","1","2899","0.0-1.0","","","","","","","","","","","","","","","","","","","","","",""
"","html-keyboard-response","2","14754","0.0-2.0","11849.299999952316","<div class='center'><p>Welcome! This is the first day of the experiment which will last ~30 minutes. In this experiment, you are the head captain of a pirate ship traveling around the world to different places. You will complete several different tasks during this experiment. Here is an overview of these tasks:</p><br><p>Day 1</p><p>1. Tutorial and quiz</p><p>2. Pick a pirate game in 6 different places</p><br><p>Day 2</p><p>3. Pick a pirate game and memory game</p><p>4. Final questions and payment</p><br><p>If you complete the entire experiment, you will receive $15 and a possible bonus payment.</p><p><b>[Press the space bar to begin the tutorial]</b></p></div>","32","615237946418da243413ef37","","","","","","","","","","","","","","","","","",""
"","html-keyboard-response","3","22278","0.0-3.0","7522.5","<div class='center'><p>You’ll stop at these 6 islands on your journey. You'll be able to see them in the distance from your ship.</p><p><img src='run_exp/static/images/contexts/all_contexts.png' height='500'></p><p><b>[Press the space bar to continue]</b></p></div>","32","","","","","","","","","","","","","","","","","","",""
"","html-keyboard-response","4","31923","0.0-4.0","9642.700000047684","<div class='center'><p> The pirates on your ship will rob other ships as they leave island</p> These ships have just sold their things to the people living on the island, so they will have lots and lots of gold on them.</p><p><img src='run_exp/static/images/tutorial/ship_center.png' height='400'></p><p><b>[Press the space bar to continue]</b></p></div>","32","","","","","","","","","","","","","","","","","","",""
"","html-keyboard-response","5","43384","0.0-5.0","11458.799999952316","<div class='center'><p>As the head captain, you do not have to rob any ships yourself.</p><p>Another pirate will be doing the robbing for you. </p><p><img src='run_exp/static/images/tutorial/pirates_all_crop.png' height='200'></p><p>If they could rob the ship, then you will get a stack of gold coins like this:</p><p><img src='run_exp/static/images/tutorial/reward.png' height='150'></p><p> If they couldn't rob the ship, then you will get no gold coins and you'll see a big red x like this: </p><p><img src='run_exp/static/images/tutorial/reward_no.png' height='150'></p><p> How much bonus money you make is based on how many gold coins you collect.</p><p><b>[Press the space bar to continue]</b></p><div>","32","","","","","","","","","","","","","","","","","","",""
"","html-keyboard-response","6","57922","0.0-6.0","14535.700000047684","<div class='center'><p>Even the most skilled pirate can not rob EVERY ship.</p><p> Some ships will have very strong defenses against pirate attacks.</p><p> For example, blue beard, here, is very, very good at robbing ships.</p><p> You can press the <b>‘1’</b> button on the keyboard to choose him.</p><p> Try choosing him 10 times to see how often he can rob a ship. </p><p><img src='run_exp/static/images/tutorial/blue.png' height='500'></p></div>","49","","","","","","","","","","","","","","","","","","",""
"","html-keyboard-response","7","59431","0.0-7.0","null","<div class='center'><p><img src='run_exp/static/images/tutorial/blue_win.png' height='500'></p></div>","null","","","","","","","","","","","","","","","","","","",""
"","html-keyboard-response","8","59469","0.0-8.0","36.60000002384186","<div class='center'><img src='run_exp/static/images/tutorial/blue.png' height='500'></p></div>","49","","","","","","","","","","","","","","","","","","",""
"","html-keyboard-response","9","60977","0.0-9.0","null","<div class='center'><p><img src='run_exp/static/images/tutorial/blue_win.png' height='500'></p></div>","null","","","","","","","","","","","","","","","","","","",""
"","html-keyboard-response","10","61783","0.0-10.0","804.2000000476837","<div class='center'><img src='run_exp/static/images/tutorial/blue.png' height='500'></p></div>","49","","","","","","","","","","","","","","","","","","",""
"","html-keyboard-response","11","63292","0.0-11.0","null","<div class='center'><p><img src='run_exp/static/images/tutorial/blue_win.png' height='500'></p></div>","null","","","","","","","","","","","","","","","","","","",""
"","html-keyboard-response","12","63554","0.0-12.0","260.5","<div class='center'><img src='run_exp/static/images/tutorial/blue.png' height='500'></p></div>","49","","","","","","","","","","","","","","","","","","",""
"","html-keyboard-response","13","65057","0.0-13.0","null","<div class='center'><p><img src='run_exp/static/images/tutorial/blue_no_win.png' height='500'></p></div>","null","","","","","","","","","","","","","","","","","","",""
"","html-keyboard-response","14","65300","0.0-14.0","241.89999997615814","<div class='center'><img src='run_exp/static/images/tutorial/blue.png' height='500'></p></div>","49","","","","","","","","","","","","","","","","","","",""
"","html-keyboard-response","15","66806","0.0-15.0","null","<div class='center'><p><img src='run_exp/static/images/tutorial/blue_win.png' height='500'></p></div>","null","","","","","","","","","","","","","","","","","","",""
"","html-keyboard-response","16","66954","0.0-16.0","145.79999995231628","<div class='center'><img src='run_exp/static/images/tutorial/blue.png' height='500'></p></div>","49","","","","","","","","","","","","","","","","","","",""
"","html-keyboard-response","17","68465","0.0-17.0","null","<div class='center'><p><img src='run_exp/static/images/tutorial/blue_win.png' height='500'></p></div>","null","","","","","","","","","","","","","","","","","","",""
"","html-keyboard-response","18","68627","0.0-18.0","160.80000007152557","<div class='center'><img src='run_exp/static/images/tutorial/blue.png' height='500'></p></div>","49","","","","","","","","","","","","","","","","","","",""
"","html-keyboard-response","19","70140","0.0-19.0","null","<div class='center'><p><img src='run_exp/static/images/tutorial/blue_win.png' height='500'></p></div>","null","","","","","","","","","","","","","","","","","","",""
"","html-keyboard-response","20","70289","0.0-20.0","148.10000002384186","<div class='center'><img src='run_exp/static/images/tutorial/blue.png' height='500'></p></div>","49","","","","","","","","","","","","","","","","","","",""
"","html-keyboard-response","21","71798","0.0-21.0","null","<div class='center'><p><img src='run_exp/static/images/tutorial/blue_no_win.png' height='500'></p></div>","null","","","","","","","","","","","","","","","","","","",""
"","html-keyboard-response","22","71879","0.0-22.0","79.70000004768372","<div class='center'><img src='run_exp/static/images/tutorial/blue.png' height='500'></p></div>","49","","","","","","","","","","","","","","","","","","",""
"","html-keyboard-response","23","73383","0.0-23.0","null","<div class='center'><p><img src='run_exp/static/images/tutorial/blue_win.png' height='500'></p></div>","null","","","","","","","","","","","","","","","","","","",""
"","html-keyboard-response","24","73618","0.0-24.0","234.5","<div class='center'><img src='run_exp/static/images/tutorial/blue.png' height='500'></p></div>","49","","","","","","","","","","","","","","","","","","",""
"","html-keyboard-response","25","75121","0.0-25.0","null","<div class='center'><p><img src='run_exp/static/images/tutorial/blue_win.png' height='500'></p></div>","null","","","","","","","","","","","","","","","","","","",""
"","html-keyboard-response","26","77413","0.0-26.0","2290.899999976158","<div class='center'><p> See, he could rob the ships most of the time but not every time. </p><p><b>[Press the space bar to continue]</b></p></div>","32","","","","","","","","","","","","","","","","","","",""
"","html-keyboard-response","27","86101","0.0-27.0","8686.399999976158","<div class='center'><p>You will get to choose which of three pirates you want to rob the next ship. <p>Press the <b>‘1’</b> button on your keyboard to pick the pirate with the red beard.</p><p> Press <b>‘2’</b> to pick the pirate with the white beard.</p><p> Press <b>‘3’</b> to pick the pirate with the black beard.</p><p>Try picking a pirate now!</p><p><img src='run_exp/static/images/tutorial/all_pirates.png' height='500'></p></div>","51","","","","","","","","","","","","","","","","","","",""
"","html-keyboard-response","28","90288","0.0-28.0-0.0","4184.600000023842","<div class='center'><p>This pirate could rob the ship!</p><p><img src='run_exp/static/images/tutorial/black_win.png' height='500'></p><p><b>[Press the space bar to continue]</b></p></div>","32","","","","","","","","","","","","","","","","","","",""
"","html-keyboard-response","29","91902","0.0-28.0-1.0","1612.5999999046326","<div class='center'><p>Now try choosing another</p><p><img src='run_exp/static/images/tutorial/all_pirates.png' height='500'></p></div>","50","","","","","","","","","","","","","","","","","","",""
"","html-keyboard-response","30","92885","0.0-29.0-0.0","980.7000000476837","<div class='center'><p>This pirate could not rob the ship!</p><p><img src='run_exp/static/images/tutorial/white_no_win.png' height='500'></p><p><b>[Press the space bar to continue]</b></p></div>","32","","","","","","","","","","","","","","","","","","",""
"","html-keyboard-response","31","98435","0.0-30.0-0.0","5549.099999904633","<div class='center'><p>If you don’t make your choice fast enough, you’ll have to wait a few seconds before you can make another one. </p><p>You can’t collect more gold coins. You just have to sit and wait.</p><p><img src='run_exp/static/images/miscellaneous/hurry_up.png' height='500'></p><p><b>[Press the space bar to continue]</b></p></div>","32","","","","","","","","","","","","","","","","","","",""
"","html-keyboard-response","32","140750","0.0-30.0-1.0","42321.299999952316","<div class='center'><p>Once you choose a pirate, you’ll be shown the ship they are robbing.</p><p>You will never rob the same ship twice.</p><p>Ships can be told apart from one another by the image on them.</p><p> Every time you see a ship, you will have to remember on which island you saw it.</p><p> Remembering correctly will help you win more bonus money!</p><p>A helpful strategy is to try to come up with a story of the object on the ship interacting with the current island scene.</p><p> For example, here, you could imagine a mug full of water in the desert. </p><p>For a ship with an apple on it on the forest island, you could imagine an apple falling from a tree in the forest.</p><p><img src='run_exp/static/images/tutorial/example_probe.png' height='500'></p><p><b>[Press the space bar to continue]</b></p></div>","32","","","","","","","","","","","","","","","","","","",""
"","html-keyboard-response","33","150052","0.0-30.0-2.0","9300.600000023842","<div class='center'><p>How good a pirate is at robbing ships will depend on the current island.</p><p> A pirate may have visited the island many times before and gained a lot of practice robbing ships there.</p><p>So, they're more likely to bring back gold coins than a pirate who has never visited this island before. </p><p><b>[Press the space bar to continue]</b></p></div>","32","","","","","","","","","","","","","","","","","","",""
"","html-keyboard-response","34","165048","0.0-30.0-3.0","14994.899999976158","<div class='center'><p>How good a pirate is at robbing ships can also change over the time spent on the island<p> Ships may hear from islanders about the pirates coming and will improve their protection against the attack. This may make it harder to rob them.</p><p> Ships may also become lazy and lower their protection. This may make it easier to rob them.</p><br><p>Things are always changing on the high seas! So, try your best to pay attention!</p><p><img src='run_exp/static/images/tutorial/contingency.png' height='500'></p><p><b>[Press the space bar to continue]</b></p></div>","32","","","","","","","","","","","","","","","","","","",""
"","html-keyboard-response","35","184269","0.0-30.0-4.0","19220.299999952316","<div class='center'><p>Let's go over the instructions quickly again.You have two important things to do: </p><b><p> 1. Pick the pirate who is the best at robbing ships on the current island.</p></b><b><p> 2. Remember on which island a ship was robbed.</p> </b><p>How much bonus money you make is based on both. </p><br><p>Let’s try a practice game. The game will start by showing you the pirates. First pick a pirate using the <b> 1, 2, 3 </b> buttons on your keyboard. When you are shown a ship, try to remember the island you’re on by making up a story.</p><p> You only have 3 seconds to pick a pirate, so please make a choice quickly! If you are too slow, you’ll have to wait a bit during the time out.</p><p> Don’t feel rushed, but please do try to make a choice every time.</p><p>This is just a practice game, so you’re not playing for money. </p><p> Good luck, remember press <b>'1'</b> to choose red beard, <b>'2'</b> to choose white beard, and <b>'3'</b> to choose black beard</p><p><b>[Press the space bar to begin the practice game]</b></p></div>","32","","","","","","","","","","","","","","","","","","",""
"","do_welcome","36","185784","0.0-30.0-5.0","null","","","","null","","","","","","","","","","","","","","","","",""
"","do_trial","37","191248","0.0-30.0-6.0","939.8999999761581","","","","50","1,0,0","","","","","","","","","","","","","","","",""
"","html-keyboard-response","38","192262","0.0-31.0-0.0","null","<p></p>","null","","","","","","","","","","","","","","","","","","",""
"","do_trial","39","198277","0.0-31.0-1.0","null","","","","null","1,1,0","","","","","","","","","","","","","","","",""
"","html-keyboard-response","40","199280","0.0-32.0-0.0","null","<p></p>","null","","","","","","","","","","","","","","","","","","",""
"","do_trial","41","204315","0.0-32.0-1.0","525.7999999523163","","","","49","1,1,0","","","","","","","","","","","","","","","",""
"","html-keyboard-response","42","205328","0.0-33.0-0.0","null","<p></p>","null","","","","","","","","","","","","","","","","","","",""
"","do_trial","43","210843","0.0-33.0-1.0","999.3999999761581","","","","51","1,0,1","","","","","","","","","","","","","","","",""
"","html-keyboard-response","44","211845","0.0-34.0-0.0","null","<p></p>","null","","","","","","","","","","","","","","","","","","",""
"","do_trial","45","217744","0.0-34.0-1.0","1382.8000000715256","","","","51","0,1,0","","","","","","","","","","","","","","","",""
"","html-keyboard-response","46","218747","0.0-35.0-0.0","null","<p></p>","null","","","","","","","","","","","","","","","","","","",""
"","do_trial","47","224091","0.0-35.0-1.0","825.1000000238419","","","","50","1,0,0","","","","","","","","","","","","","","","",""
"","do_bye","48","225605","0.0-36.0-0.0","null","","","","null","","","","","","","","","","","","","","","","",""
"","do_travel","49","231611","0.0-36.0-1.0","null","","","","null","","","","","","","","","","","","","","","","",""
"","do_welcome","50","233125","0.0-36.0-2.0","null","","","","null","","","","","","","","","","","","","","","","",""
"","do_trial","51","239322","0.0-36.0-3.0","1678.0999999046326","","","","50","1,0,0","","","","","","","","","","","","","","","",""
"","html-keyboard-response","52","240325","0.0-37.0-0.0","null","<p></p>","null","","","","","","","","","","","","","","","","","","",""
"","do_trial","53","245252","0.0-37.0-1.0","413","","","","51","1,0,1","","","","","","","","","","","","","","","",""
"","html-keyboard-response","54","246256","0.0-38.0-0.0","null","<p></p>","null","","","","","","","","","","","","","","","","","","",""
"","do_trial","55","251333","0.0-38.0-1.0","561.3999999761581","","","","49","1,1,0","","","","","","","","","","","","","","","",""
"","html-keyboard-response","56","252336","0.0-39.0-0.0","null","<p></p>","null","","","","","","","","","","","","","","","","","","",""
"","do_trial","57","257936","0.0-39.0-1.0","1087.3999999761581","","","","50","0,0,1","","","","","","","","","","","","","","","",""
"","html-keyboard-response","58","258944","0.0-40.0-0.0","null","<p></p>","null","","","","","","","","","","","","","","","","","","",""
"","do_trial","59","263813","0.0-40.0-1.0","360.5","","","","51","1,0,1","","","","","","","","","","","","","","","",""
"","html-keyboard-response","60","266144","0.0-41.0-0.0","2328.2000000476837","<div class='center'><p><img src='run_exp/static/images/tutorial/prac_best_pirate.png'  height='500'></p></div>","51","","","","","","","","","","","","","","","","","","",""
"","html-keyboard-response","61","268630","0.0-42.0-0.0","2483.899999976158","<div class='center'><p>That's incorrect! Red beard was the best.</p><p><b>[Press the space bar to continue]</b></p></div>","32","","","","","","","","","","","","","","","","","","",""
"","html-keyboard-response","62","274381","0.0-42.0-1.0","5750.5","<div class='center'><p><img src='run_exp/static/images/tutorial/prac_source.png'  height='500'></p></div>","50","","","","","","","","","","","","","","","","","","",""
"","html-keyboard-response","63","275716","0.0-43.0-0.0","1333.3999999761581","<div class='center'><p>That's correct! You saw this ship on the cavern island.</p><p><b>[Press the space bar to continue]</b></p></div>","32","","","","","","","","","","","","","","","","","","",""
"","html-keyboard-response","64","279634","0.0-43.0-1.0","3917.2000000476837","<div class='center'><p>Good job on the practice game! Now, you will be asked you some true or false questions to make sure you really understand the rules of the game.</p><p> Press <b>'1'</b> on the keyboard for true and press <b>'2'</b> for false.</p><p><b>[Press the space bar to begin the quiz]</b></p></div>","32","","","","","","","","","","","","","","","","","","",""
"","html-keyboard-response","65","282962","0.0-43.0-2.0","3327.2999999523163","<div class='center'><p>You win bonus money by making choices as fast as possible.</p><p>Press 1 for true and press  2 for false.</p></div>","50","","","","","","","","","","","","","","","","","","",""
"","html-keyboard-response","66","284314","0.0-44.0-0.0","1350.2000000476837","<div class='center'><p>That's correct!</p> <p><b>[press the space bar to continue with the quiz]</b></p></div>","32","","","","","","","","","","","","","","","","","","",""
"","html-keyboard-response","67","290954","0.0-44.0-1.0","6639.199999928474","<div class='center'><p>You press the <b>‘3’</b> button on the keyboard to choose the red bearded pirate. </p><p>Press 1 for true and press  2 for false.</p></div>","50","","","","","","","","","","","","","","","","","","",""
"","html-keyboard-response","68","291826","0.0-45.0-0.0","870.6999999284744","<div class='center'><p>That's correct!</p> <p><b>[press the space bar to continue with the quiz]</b></p></div>","32","","","","","","","","","","","","","","","","","","",""
"","html-keyboard-response","69","295960","0.0-45.0-1.0","4133.100000023842","<div class='center'><p>The pirate who is the best at robbing ships on the first island will be the best on every other island.</p><p>Press 1 for true and press  2 for false.</p></div>","50","","","","","","","","","","","","","","","","","","",""
"","html-keyboard-response","70","296734","0.0-46.0-0.0","771.1000000238419","<div class='center'><p>That's correct!</p> <p><b>[press the space bar to continue with the quiz]</b></p></div>","32","","","","","","","","","","","","","","","","","","",""
"","html-keyboard-response","71","299666","0.0-46.0-1.0","2930.899999976158","<div class='center'><p>You should remember the island where a pirate robbed a ship.</p><p>Press 1 for true and press  2 for false.</p></div>","49","","","","","","","","","","","","","","","","","","",""
"","html-keyboard-response","72","300249","0.0-47.0-0.0","570.8999999761581","<div class='center'><p>That's correct!</p> <p><b>[press the space bar to continue with the quiz]</b></p></div>","32","","","","","","","","","","","","","","","","","","",""
"","html-keyboard-response","73","301728","0.0-48.0-0.0","1477.3999999761581","<div class='center'><p>Good job! You’re now ready to move on to the real game!</p> <p><br>[press the space bar to begin!]</br></p></div>","32","","","","","","","","","","","","","","","","","","",""
"","do_welcome","74","303235","0.0-49.0-0.0","null","","","","null","","","","","","","","","","","","","","","","",""
"","do_trial","75","308624","0.0-50.0-0.0","825.1000000238419","","","","49","0,1,0","0","city","0","probe-30","0.6","0.3","0.1","0","","","","","","","",""
"","html-keyboard-response","76","309627","0.0-50.0-1.0","null","<p></p>","null","","","","","","","","","","","","","","","","","","",""
"","do_trial","77","315089","0.0-51.0-0.0","863.6000000238419","","","","50","1,1,0","0","city","1","probe-159","0.5121468759151782","0.33335924607268963","0.11310516036747668","1","","","","","","","",""
"","html-keyboard-response","78","316091","0.0-51.0-1.0","null","<p></p>","null","","","","","","","","","","","","","","","","","","",""
"","do_trial","79","322310","0.0-52.0-0.0","1652.1999999284744","","","","51","0,0,0","0","city","2","probe-196","0.5218598954137322","0.30483456255400637","0.05398375227578971","0","","","","","","","",""
"","html-keyboard-response","80","323312","0.0-52.0-1.0","null","<p></p>","null","","","","","","","","","","","","","","","","","","",""
"","do_trial","81","328166","0.0-53.0-0.0","276.7999999523163","","","","49","0,0,0","0","city","3","probe-53","0.42906074908797975","0.3877711040693336","0.09900978664962473","0","","","","","","","",""
"","html-keyboard-response","82","329179","0.0-53.0-1.0","null","<p></p>","null","","","","","","","","","","","","","","","","","","",""
"","do_trial","83","334075","0.0-54.0-0.0","313.60000002384186","","","","50","1,0,0","0","city","4","probe-224","0.5512253781738484","0.35498737687056436","0.06295871410657723","0","","","","","","","",""
"","html-keyboard-response","84","335078","0.0-54.0-1.0","null","<p></p>","null","","","","","","","","","","","","","","","","","","",""
"","do_trial","85","339974","0.0-55.0-0.0","309.3000000715256","","","","51","0,1,1","0","city","5","probe-19","0.5871910034519565","0.24848376741945075","0.07604305597505713","1","","","","","","","",""
"","html-keyboard-response","86","340988","0.0-55.0-1.0","null","<p></p>","null","","","","","","","","","","","","","","","","","","",""
"","do_trial","87","345915","0.0-56.0-0.0","361.60000002384186","","","","51","0,0,0","0","city","6","probe-190","0.5284397437895878","0.291958038243826","0.14462443061612146","0","","","","","","","",""
"","html-keyboard-response","88","346918","0.0-56.0-1.0","null","<p></p>","null","","","","","","","","","","","","","","","","","","",""
"","do_trial","89","352432","0.0-57.0-0.0","930.8999999761581","","","","51","1,1,0","0","city","7","probe-184","0.5531960064085131","0.20716859453811728","0.3284609683532213","0","","","","","","","",""
"","html-keyboard-response","90","353434","0.0-57.0-1.0","null","<p></p>","null","","","","","","","","","","","","","","","","","","",""
"","do_trial","91","358630","0.0-58.0-0.0","622","","","","49","1,1,0","0","city","8","probe-120","0.5303254039063827","0.23897130701544164","0.2748271488096672","1","","","","","","","",""
"","html-keyboard-response","92","359643","0.0-58.0-1.0","null","<p></p>","null","","","","","","","","","","","","","","","","","","",""
"","do_trial","93","364507","0.0-59.0-0.0","284","","","","49","0,0,0","0","city","9","probe-113","0.6401269374552088","0.33141312830348535","0.09822407367194497","0","","","","","","","",""
"","html-keyboard-response","94","365520","0.0-59.0-1.0","null","<p></p>","null","","","","","","","","","","","","","","","","","","",""
"","do_trial","95","370523","0.0-60.0-0.0","429.2000000476837","","","","50","1,1,0","0","city","10","probe-46","0.5969835527271387","0.21682773153051277","0.0520152921779946","1","","","","","","","",""
"","html-keyboard-response","96","371526","0.0-60.0-1.0","null","<p></p>","null","","","","","","","","","","","","","","","","","","",""
"","do_trial","97","376411","0.0-61.0-0.0","313.39999997615814","","","","50","1,1,0","0","city","11","probe-83","0.610884560374578","0.34700739175741774","0.11203729961751975","1","","","","","","","",""
"","html-keyboard-response","98","377414","0.0-61.0-1.0","null","<p></p>","null","","","","","","","","","","","","","","","","","","",""
"","do_trial","99","382683","0.0-62.0-0.0","697.5","","","","50","1,0,0","0","city","12","probe-201","0.6667294866545684","0.3453651366544753","0.10217733609238272","0","","","","","","","",""
"","html-keyboard-response","100","383686","0.0-62.0-1.0","null","<p></p>","null","","","","","","","","","","","","","","","","","","",""
"","do_trial","101","390139","0.0-63.0-0.0","1865.2999999523163","","","","50","1,1,0","0","city","13","probe-121","0.6633769776620518","0.20034287049051142","0.19228566776374678","1","","","","","","","",""
"","html-keyboard-response","102","391142","0.0-63.0-1.0","null","<p></p>","null","","","","","","","","","","","","","","","","","","",""
"","do_trial","103","396411","0.0-64.0-0.0","689.7999999523163","","","","50","1,0,0","0","city","14","probe-177","0.519043082767422","0.28885336057447286","0.14907740250762572","0","","","","","","","",""
"","html-keyboard-response","104","397421","0.0-64.0-1.0","null","<p></p>","null","","","","","","","","","","","","","","","","","","",""
"","do_trial","105","402470","0.0-65.0-0.0","470.10000002384186","","","","49","0,1,0","0","city","15","probe-137","0.5665736592830933","0.18942756399104077","0.08556474044201505","0","","","","","","","",""
"","html-keyboard-response","106","403473","0.0-65.0-1.0","null","<p></p>","null","","","","","","","","","","","","","","","","","","",""
"","do_trial","107","408369","0.0-66.0-0.0","315","","","","51","0,0,0","0","city","16","probe-170","0.6352100266676602","0.2023296702772392","0.06469441793045064","0","","","","","","","",""
"","html-keyboard-response","108","409382","0.0-66.0-1.0","null","<p></p>","null","","","","","","","","","","","","","","","","","","",""
"","do_trial","109","414171","0.0-67.0-0.0","213","","","","50","1,0,0","0","city","17","probe-209","0.5657710366769697","0.17893488380931818","0.09104662472440063","0","","","","","","","",""
"","html-keyboard-response","110","415174","0.0-67.0-1.0","null","<p></p>","null","","","","","","","","","","","","","","","","","","",""
"","do_trial","111","419963","0.0-68.0-0.0","198.19999992847443","","","","50","0,0,0","0","city","18","probe-204","0.6389777897980169","0.2023078977616306","0.25876460920997074","0","","","","","","","",""
"","html-keyboard-response","112","420966","0.0-68.0-1.0","null","<p></p>","null","","","","","","","","","","","","","","","","","","",""
"","do_trial","113","425851","0.0-69.0-0.0","311.60000002384186","","","","51","1,1,0","0","city","19","probe-203","0.6503508623119189","0.21976208459603486","0.14096666719393375","0","","","","","","","",""
"","html-keyboard-response","114","426854","0.0-69.0-1.0","null","<p></p>","null","","","","","","","","","","","","","","","","","","",""
"","do_trial","115","431644","0.0-70.0-0.0","215.60000002384186","","","","51","1,1,0","0","city","20","probe-191","0.665584038997017","0.3208822297424841","0.19155223013212644","0","","","","","","","",""
"","html-keyboard-response","116","432647","0.0-70.0-1.0","null","<p></p>","null","","","","","","","","","","","","","","","","","","",""
"","do_trial","117","437468","0.0-71.0-0.0","234.39999997615814","","","","49","1,1,0","0","city","21","probe-173","0.6547776438465366","0.32769013745005005","0.24413719027314806","1","","","","","","","",""
"","html-keyboard-response","118","438470","0.0-71.0-1.0","null","<p></p>","null","","","","","","","","","","","","","","","","","","",""
"","do_trial","119","443441","0.0-72.0-0.0","395.89999997615814","","","","49","1,1,0","0","city","22","probe-11","0.6216936703801794","0.3906407472143952","0.14246692824170926","1","","","","","","","",""
"","html-keyboard-response","120","444444","0.0-72.0-1.0","null","<p></p>","null","","","","","","","","","","","","","","","","","","",""
"","do_trial","121","449276","0.0-73.0-0.0","253.69999992847443","","","","49","0,0,0","0","city","23","probe-17","0.6639415722304828","0.3023428560251738","0.14604000938243483","0","","","","","","","",""
"","html-keyboard-response","122","450282","0.0-73.0-1.0","null","<p></p>","null","","","","","","","","","","","","","","","","","","",""
"","do_trial","123","455153","0.0-74.0-0.0","291.89999997615814","","","","49","1,0,0","0","city","24","probe-35","0.6201720139057137","0.35321441593893504","0.29278558356599454","1","","","","","","","",""
"","html-keyboard-response","124","456156","0.0-74.0-1.0","null","<p></p>","null","","","","","","","","","","","","","","","","","","",""
"","do_trial","125","461766","0.0-75.0-0.0","1036.6000000238419","","","","49","1,0,0","0","city","25","probe-81","0.5537483375056408","0.29072137214962307","0.16920798584030589","1","","","","","","","",""
"","html-keyboard-response","126","462779","0.0-75.0-1.0","null","<p></p>","null","","","","","","","","","","","","","","","","","","",""
"","do_trial","127","467889","0.0-76.0-0.0","530.3999999761581","","","","49","0,1,0","0","city","26","probe-82","0.5356874987225482","0.2252448789792211","0.20244195532716144","0","","","","","","","",""
"","html-keyboard-response","128","468892","0.0-76.0-1.0","null","<p></p>","null","","","","","","","","","","","","","","","","","","",""
"","do_trial","129","473905","0.0-77.0-0.0","431.2999999523163","","","","49","1,0,0","0","city","27","probe-14","0.5447891583767741","0.2219879024181994","0.22443227357703527","1","","","","","","","",""
"","html-keyboard-response","130","474908","0.0-77.0-1.0","null","<p></p>","null","","","","","","","","","","","","","","","","","","",""
"","do_trial","131","479878","0.0-78.0-0.0","400.39999997615814","","","","49","1,0,0","0","city","28","probe-162","0.5808977592840392","0.21521594666236535","0.17933209432285768","1","","","","","","","",""
"","html-keyboard-response","132","480881","0.0-78.0-1.0","null","<p></p>","null","","","","","","","","","","","","","","","","","","",""
"","do_trial","133","486139","0.0-79.0-0.0","655.5","","","","49","0,0,0","0","city","29","probe-172","0.5699639675645185","0.12467069907692137","0.07120765206235807","0","","","","","","","",""
"","html-keyboard-response","134","487142","0.0-79.0-1.0","null","<p></p>","null","","","","","","","","","","","","","","","","","","",""
"","do_bye","135","488657","0.0-80.0-0.0","null","","","","null","","","","","","","","","","","","","","","","",""
"","do_travel","136","494661","0.0-81.0-0.0","null","","","","null","","","","","","","","","","","","","","","","",""
"","do_welcome","137","496176","0.0-81.0-1.0","null","","","","null","","","","","","","","","","","","","","","","",""
"","do_trial","138","501701","0.0-82.0-0.0","938.5","","","","49","1,0,0","1","coast","30","probe-74","1","0.25897417670156264","0.19692401548234564","1","","","","","","","",""
"","html-keyboard-response","139","502704","0.0-82.0-1.0","null","<p></p>","null","","","","","","","","","","","","","","","","","","",""
"","do_trial","140","507589","0.0-83.0-0.0","315.60000002384186","","","","49","1,1,0","1","coast","31","probe-114","1","0.12192541252882787","0.2011713037846809","1","","","","","","","",""
"","html-keyboard-response","141","508592","0.0-83.0-1.0","null","<p></p>","null","","","","","","","","","","","","","","","","","","",""
"","do_trial","142","513563","0.0-84.0-0.0","390.89999997615814","","","","49","1,0,0","1","coast","32","probe-95","1","0.05598261275925145","0.17124234869043353","1","","","","","","","",""
"","html-keyboard-response","143","514576","0.0-84.0-1.0","null","<p></p>","null","","","","","","","","","","","","","","","","","","",""
"","do_trial","144","519813","0.0-85.0-0.0","643.3999999761581","","","","49","1,0,0","1","coast","33","probe-64","0.712342576288192","0.25627930865192916","0.1389355507572681","1","","","","","","","",""
"","html-keyboard-response","145","520815","0.0-85.0-1.0","null","<p></p>","null","","","","","","","","","","","","","","","","","","",""
"","do_trial","146","525893","0.0-86.0-0.0","494.60000002384186","","","","49","0,1,1","1","coast","34","probe-124","0.6534470303933579","0.3469147873117101","0.2616016096626147","0","","","","","","","",""
"","html-keyboard-response","147","526896","0.0-86.0-1.0","null","<p></p>","null","","","","","","","","","","","","","","","","","","",""
"","do_trial","148","531813","0.0-87.0-0.0","347.5","","","","49","1,0,0","1","coast","35","probe-79","0.5841513577238999","0.3662427668233552","0.20179710985427438","1","","","","","","","",""
"","html-keyboard-response","149","532821","0.0-87.0-1.0","null","<p></p>","null","","","","","","","","","","","","","","","","","","",""
"","do_trial","150","537733","0.0-88.0-0.0","328.7000000476837","","","","49","1,0,0","1","coast","36","probe-166","0.5513158327586057","0.3353296641481855","0.2155970616697929","1","","","","","","","",""
"","html-keyboard-response","151","538736","0.0-88.0-1.0","null","<p></p>","null","","","","","","","","","","","","","","","","","","",""
"","do_trial","152","544058","0.0-89.0-0.0","731.1999999284744","","","","49","0,1,0","1","coast","37","probe-156","0.6383663802672109","0.48933299600448626","0.09457050128455957","0","","","","","","","",""
"","html-keyboard-response","153","545072","0.0-89.0-1.0","null","<p></p>","null","","","","","","","","","","","","","","","","","","",""
"","do_trial","154","550171","0.0-90.0-0.0","528.7999999523163","","","","49","1,0,0","1","coast","38","probe-63","0.7616347505057957","0.440845613289541","0.10648937447611494","1","","","","","","","",""
"","html-keyboard-response","155","551184","0.0-90.0-1.0","null","<p></p>","null","","","","","","","","","","","","","","","","","","",""
"","do_trial","156","555994","0.0-91.0-0.0","234.19999992847443","","","","49","1,0,1","1","coast","39","probe-134","0.7150376355803871","0.2070894218575741","0.25429443727012563","1","","","","","","","",""
"","html-keyboard-response","157","556997","0.0-91.0-1.0","null","<p></p>","null","","","","","","","","","","","","","","","","","","",""
"","do_trial","158","561925","0.0-92.0-0.0","340","","","","49","1,0,0","1","coast","40","probe-36","0.6532493545437168","0.1256488086081331","0.176630315744609","1","","","","","","","",""
"","html-keyboard-response","159","562928","0.0-92.0-1.0","null","<p></p>","null","","","","","","","","","","","","","","","","","","",""
"","do_trial","160","567728","0.0-93.0-0.0","219","","","","49","0,0,0","1","coast","41","probe-04","0.6401989020594021","0.2935260149874004","0.32775345863928296","0","","","","","","","",""
"","html-keyboard-response","161","568730","0.0-93.0-1.0","null","<p></p>","null","","","","","","","","","","","","","","","","","","",""
"","do_trial","162","573893","0.0-94.0-0.0","569.8999999761581","","","","49","0,0,0","1","coast","42","probe-96","0.4382270756783185","0.4071964935767498","0.26350069637226414","0","","","","","","","",""
"","html-keyboard-response","163","574896","0.0-94.0-1.0","null","<p></p>","null","","","","","","","","","","","","","","","","","","",""
"","do_trial","164","580037","0.0-95.0-0.0","572.2999999523163","","","","49","1,0,0","1","coast","43","probe-130","0.4659871827207718","0.5905071677684438","0.28154466758225155","1","","","","","","","",""
"","html-keyboard-response","165","581050","0.0-95.0-1.0","null","<p></p>","null","","","","","","","","","","","","","","","","","","",""
"","do_trial","166","585941","0.0-96.0-0.0","325.7999999523163","","","","49","0,0,1","1","coast","44","probe-84","0.47011315233394835","0.6082857314414143","0.07589737752500268","0","","","","","","","",""
"","html-keyboard-response","167","586948","0.0-96.0-1.0","null","<p></p>","null","","","","","","","","","","","","","","","","","","",""
"","do_trial","168","591888","0.0-97.0-0.0","357.8000000715256","","","","49","1,1,0","1","coast","45","probe-226","0.5028776660138918","0.6523484880864071","0.0825539478200474","1","","","","","","","",""
"","html-keyboard-response","169","592890","0.0-97.0-1.0","null","<p></p>","null","","","","","","","","","","","","","","","","","","",""
"","do_trial","170","597925","0.0-98.0-0.0","461.39999997615814","","","","49","1,0,0","1","coast","46","probe-28","0.48425287382998705","0.5677464708765454","0.05713856023412417","1","","","","","","","",""
"","html-keyboard-response","171","598928","0.0-98.0-1.0","null","<p></p>","null","","","","","","","","","","","","","","","","","","",""
"","do_trial","172","603791","0.0-99.0-0.0","294","","","","49","0,0,0","1","coast","47","probe-39","0.303593809176173","0.5792572672781533","0.21461744402656632","0","","","","","","","",""
"","html-keyboard-response","173","604805","0.0-99.0-1.0","null","<p></p>","null","","","","","","","","","","","","","","","","","","",""
"","do_trial","174","609722","0.0-100.0-0.0","340.8000000715256","","","","49","0,1,0","1","coast","48","probe-20","0.402900678834505","0.7211679472882604","0.11162138475185426","0","","","","","","","",""
"","html-keyboard-response","175","610725","0.0-100.0-1.0","null","<p></p>","null","","","","","","","","","","","","","","","","","","",""
"","do_trial","176","615536","0.0-101.0-0.0","229.39999997615814","","","","49","1,0,0","1","coast","49","probe-154","0.3525478446321843","0.8602293893492586","0.14755579768611454","1","","","","","","","",""
"","html-keyboard-response","177","616538","0.0-101.0-1.0","null","<p></p>","null","","","","","","","","","","","","","","","","","","",""
"","do_trial","178","621371","0.0-102.0-0.0","249.89999997615814","","","","49","1,1,0","1","coast","50","probe-215","0.2698089164821165","0.9463860973615549","0.17317306377789338","1","","","","","","","",""
"","html-keyboard-response","179","622373","0.0-102.0-1.0","null","<p></p>","null","","","","","","","","","","","","","","","","","","",""
"","do_trial","180","627237","0.0-103.0-0.0","287.7999999523163","","","","49","0,1,0","1","coast","51","probe-112","0.36801867916518577","0.7972043091173915","0.10834134249446034","0","","","","","","","",""
"","html-keyboard-response","181","628250","0.0-103.0-1.0","null","<p></p>","null","","","","","","","","","","","","","","","","","","",""
"","do_trial","182","633488","0.0-104.0-0.0","654.5","","","","49","0,1,0","1","coast","52","probe-125","0.21050317102157295","0.8038845020762574","0.18959905452737114","0","","","","","","","",""
"","html-keyboard-response","183","634495","0.0-104.0-1.0","null","<p></p>","null","","","","","","","","","","","","","","","","","","",""
"","do_trial","184","639685","0.0-105.0-0.0","615.7999999523163","","","","49","0,1,0","1","coast","53","probe-222","0.3035530274465756","0.7467607351871338","0.07482223044239064","0","","","","","","","",""
"","html-keyboard-response","185","640687","0.0-105.0-1.0","null","<p></p>","null","","","","","","","","","","","","","","","","","","",""
"","do_trial","186","645562","0.0-106.0-0.0","293.60000002384186","","","","49","0,0,0","1","coast","54","probe-01","0.23566375949659066","0.6126780809083716","0.11429567439888655","0","","","","","","","",""
"","html-keyboard-response","187","646565","0.0-106.0-1.0","null","<p></p>","null","","","","","","","","","","","","","","","","","","",""
"","do_trial","188","651673","0.0-107.0-0.0","537.6000000238419","","","","49","0,1,0","1","coast","55","probe-73","0.3232646515506194","0.8854161404955104","0.06412366261706116","0","","","","","","","",""
"","html-keyboard-response","189","652677","0.0-107.0-1.0","null","<p></p>","null","","","","","","","","","","","","","","","","","","",""
"","do_trial","190","657509","0.0-108.0-0.0","255.89999997615814","","","","49","0,0,0","1","coast","56","probe-13","0.3119621306556163","0.8115621575308732","0.10241380503617649","0","","","","","","","",""
"","html-keyboard-response","191","658512","0.0-108.0-1.0","null","<p></p>","null","","","","","","","","","","","","","","","","","","",""
"","do_trial","192","663386","0.0-109.0-0.0","304.5","","","","49","1,1,0","1","coast","57","probe-135","0.3719095191979412","0.6860485484965433","0.0773224943579041","1","","","","","","","",""
"","html-keyboard-response","193","664389","0.0-109.0-1.0","null","<p></p>","null","","","","","","","","","","","","","","","","","","",""
"","do_trial","194","669264","0.0-110.0-0.0","306.2000000476837","","","","49","1,0,0","1","coast","58","probe-138","0.2724470230641746","0.6227675280241682","0.0957468615924196","1","","","","","","","",""
"","html-keyboard-response","195","670267","0.0-110.0-1.0","null","<p></p>","null","","","","","","","","","","","","","","","","","","",""
"","do_trial","196","675696","0.0-111.0-0.0","861.9000000953674","","","","49","1,0,1","1","coast","59","probe-193","0.3573717635940843","0.6091210458154636","0.12223266482183441","1","","","","","","","",""
"","html-keyboard-response","197","676698","0.0-111.0-1.0","null","<p></p>","null","","","","","","","","","","","","","","","","","","",""
"","do_trial","198","681488","0.0-112.0-0.0","211.60000002384186","","","","49","1,1,0","1","coast","60","probe-168","0.2148634015063337","0.5360060062714195","0.1438076946075066","1","","","","","","","",""
"","html-keyboard-response","199","682490","0.0-112.0-1.0","null","<p></p>","null","","","","","","","","","","","","","","","","","","",""
"","do_trial","200","687546","0.0-113.0-0.0","478.2000000476837","","","","49","1,1,0","1","coast","61","probe-52","0.24784650678855122","0.6220563180754957","0.20465555379301223","1","","","","","","","",""
"","html-keyboard-response","201","688560","0.0-113.0-1.0","null","<p></p>","null","","","","","","","","","","","","","","","","","","",""
"","do_trial","202","693392","0.0-114.0-0.0","253.60000002384186","","","","49","0,1,1","1","coast","62","probe-34","0.18712478302704483","0.6980257989710947","0.14011386384366925","0","","","","","","","",""
"","html-keyboard-response","203","694394","0.0-114.0-1.0","null","<p></p>","null","","","","","","","","","","","","","","","","","","",""
"","do_trial","204","699232","0.0-115.0-0.0","261.5","","","","51","1,1,0","1","coast","63","probe-136","0.2399812721902472","0.657536152992811","0.12303319206811228","0","","","","","","","",""
"","html-keyboard-response","205","700240","0.0-115.0-1.0","null","<p></p>","null","","","","","","","","","","","","","","","","","","",""
"","do_trial","206","705114","0.0-116.0-0.0","276.7999999523163","","","","50","0,0,1","1","coast","64","probe-227","0.30757444946871265","0.5925873745429574","0.19904542976954653","0","","","","","","","",""
"","html-keyboard-response","207","706117","0.0-116.0-1.0","null","<p></p>","null","","","","","","","","","","","","","","","","","","",""
"","do_trial","208","710746","0.0-117.0-0.0","44.90000009536743","","","","49","0,1,0","1","coast","65","probe-116","0.33435503933353516","0.685760729171867","0.08260696243510429","0","","","","","","","",""
"","html-keyboard-response","209","711759","0.0-117.0-1.0","null","<p></p>","null","","","","","","","","","","","","","","","","","","",""
"","do_trial","210","716570","0.0-118.0-0.0","244.39999997615814","","","","49","0,1,0","1","coast","66","probe-56","0.17650369990379325","0.639025218185769","0.07777178131783512","0","","","","","","","",""
"","html-keyboard-response","211","717578","0.0-118.0-1.0","null","<p></p>","null","","","","","","","","","","","","","","","","","","",""
"","do_trial","212","722394","0.0-119.0-0.0","238.60000002384186","","","","49","0,1,0","1","coast","67","probe-58","0.28779706267184274","0.6369943220627344","0.13198831260369834","0","","","","","","","",""
"","html-keyboard-response","213","723397","0.0-119.0-1.0","null","<p></p>","null","","","","","","","","","","","","","","","","","","",""
"","do_trial","214","728122","0.0-120.0-0.0","153.39999997615814","","","","49","0,1,0","1","coast","68","probe-223","0.25433620946415825","0.5860734829700129","0.18289649714786677","0","","","","","","","",""
"","html-keyboard-response","215","729130","0.0-120.0-1.0","null","<p></p>","null","","","","","","","","","","","","","","","","","","",""
"","do_trial","216","734246","0.0-121.0-0.0","531.9000000953674","","","","50","0,0,0","1","coast","69","probe-16","0.260131049176908","0.5015685817379998","0.27845503056448434","0","","","","","","","",""
"","html-keyboard-response","217","735248","0.0-121.0-1.0","null","<p></p>","null","","","","","","","","","","","","","","","","","","",""
"","do_bye","218","736763","0.0-122.0-0.0","null","","","","null","","","","","","","","","","","","","","","","",""
"","do_travel","219","742768","0.0-123.0-0.0","null","","","","null","","","","","","","","","","","","","","","","",""
"","do_welcome","220","744283","0.0-123.0-1.0","null","","","","null","","","","","","","","","","","","","","","","",""
"","do_trial","221","749467","0.0-124.0-0.0","612.3999999761581","","","","50","1,1,1","2","mountain","70","probe-174","0.25569165218308393","1","0.28871442449892537","1","","","","","","","",""
"","html-keyboard-response","222","750469","0.0-124.0-1.0","null","<p></p>","null","","","","","","","","","","","","","","","","","","",""
"","do_trial","223","755494","0.0-125.0-0.0","434.3000000715256","","","","50","0,1,1","2","mountain","71","probe-88","0.10319324867552915","1","0.2189500980374905","1","","","","","","","",""
"","html-keyboard-response","224","756507","0.0-125.0-1.0","null","<p></p>","null","","","","","","","","","","","","","","","","","","",""
"","do_trial","225","761094","0.0-126.0-0.0","0.20000004768371582","","","","50","0,1,1","2","mountain","72","probe-149","0.1479109102918275","0.861830878859772","0.15564888073855818","1","","","","","","","",""
"","html-keyboard-response","226","762107","0.0-126.0-1.0","null","<p></p>","null","","","","","","","","","","","","","","","","","","",""
"","do_trial","227","766854","0.0-127.0-0.0","162.39999997615814","","","","50","0,0,0","2","mountain","73","probe-22","0.1864108142924782","0.7612408058514794","0.11514025122669443","0","","","","","","","",""
"","html-keyboard-response","228","767856","0.0-127.0-1.0","null","<p></p>","null","","","","","","","","","","","","","","","","","","",""
"","do_trial","229","772795","0.0-128.0-0.0","358.60000002384186","","","","50","0,1,0","2","mountain","74","probe-202","0.22006731795322726","0.7336494261309038","0.0857637194566815","1","","","","","","","",""
"","html-keyboard-response","230","773798","0.0-128.0-1.0","null","<p></p>","null","","","","","","","","","","","","","","","","","","",""
"","do_trial","231","778906","0.0-129.0-0.0","525.9000000953674","","","","50","0,0,0","2","mountain","75","probe-220","0.375293521725383","0.6725021211854193","0.13264334769842706","0","","","","","","","",""
"","html-keyboard-response","232","779908","0.0-129.0-1.0","null","<p></p>","null","","","","","","","","","","","","","","","","","","",""
"","do_trial","233","784757","0.0-130.0-0.0","273.2000000476837","","","","50","0,0,0","2","mountain","76","probe-171","0.2695937654910517","0.6287914423107795","0.13844075418869703","0","","","","","","","",""
"","html-keyboard-response","234","785765","0.0-130.0-1.0","null","<p></p>","null","","","","","","","","","","","","","","","","","","",""
"","do_trial","235","790651","0.0-131.0-0.0","311.1999999284744","","","","50","0,1,0","2","mountain","77","probe-150","0.16842140393246205","0.40763893517717464","0.06766535592374995","1","","","","","","","",""
"","html-keyboard-response","236","791664","0.0-131.0-1.0","null","<p></p>","null","","","","","","","","","","","","","","","","","","",""
"","do_trial","237","796580","0.0-132.0-0.0","340.1999999284744","","","","50","0,1,0","2","mountain","78","probe-230","0.28749064751446407","0.4618834899131277","0.0997952885113589","1","","","","","","","",""
"","html-keyboard-response","238","797584","0.0-132.0-1.0","null","<p></p>","null","","","","","","","","","","","","","","","","","","",""
"","do_trial","239","802501","0.0-133.0-0.0","344.10000002384186","","","","50","0,0,0","2","mountain","79","probe-146","0.414507155749243","0.5864507209386524","0.20555252961192963","0","","","","","","","",""
"","html-keyboard-response","240","803514","0.0-133.0-1.0","null","<p></p>","null","","","","","","","","","","","","","","","","","","",""
"","do_trial","241","809168","0.0-134.0-0.0","1077.0999999046326","","","","50","1,1,0","2","mountain","80","probe-49","0.5748239874018388","0.6214829414680065","0.24830140409611187","1","","","","","","","",""
"","html-keyboard-response","242","810180","0.0-134.0-1.0","null","<p></p>","null","","","","","","","","","","","","","","","","","","",""
"","do_trial","243","815088","0.0-135.0-0.0","348.89999997615814","","","","50","0,1,0","2","mountain","81","probe-155","0.5477788974932999","0.7389671412696892","0.16228990915652602","1","","","","","","","",""
"","html-keyboard-response","244","816101","0.0-135.0-1.0","null","<p></p>","null","","","","","","","","","","","","","","","","","","",""
"","do_trial","245","820698","0.0-136.0-0.0","0.2999999523162842","","","","50","0,1,1","2","mountain","82","probe-07","0.659157908955887","0.5241806695428233","0.3236577781934631","1","","","","","","","",""
"","html-keyboard-response","246","821701","0.0-136.0-1.0","null","<p></p>","null","","","","","","","","","","","","","","","","","","",""
"","do_trial","247","826640","0.0-137.0-0.0","372.60000002384186","","","","50","0,0,1","2","mountain","83","probe-228","0.5471764518101336","0.22334109413629244","0.3343409293614171","0","","","","","","","",""
"","html-keyboard-response","248","827642","0.0-137.0-1.0","null","<p></p>","null","","","","","","","","","","","","","","","","","","",""
"","do_trial","249","832783","0.0-138.0-0.0","567.1000000238419","","","","50","1,0,1","2","mountain","84","probe-178","0.48518013306968577","0.19193039481855984","0.2680717858254475","0","","","","","","","",""
"","html-keyboard-response","250","833791","0.0-138.0-1.0","null","<p></p>","null","","","","","","","","","","","","","","","","","","",""
"","do_trial","251","838607","0.0-139.0-0.0","221.60000002384186","","","","50","1,0,0","2","mountain","85","probe-163","0.3985962875298332","0.21124653594519668","0.18428293376389196","0","","","","","","","",""
"","html-keyboard-response","252","839610","0.0-139.0-1.0","null","<p></p>","null","","","","","","","","","","","","","","","","","","",""
"","do_trial","253","844399","0.0-140.0-0.0","205.19999992847443","","","","50","0,0,0","2","mountain","86","probe-122","0.6465175214723641","0.14138707081699528","0.25648096847043783","0","","","","","","","",""
"","html-keyboard-response","254","845402","0.0-140.0-1.0","null","<p></p>","null","","","","","","","","","","","","","","","","","","",""
"","do_trial","255","850266","0.0-141.0-0.0","285.39999997615814","","","","51","0,0,0","2","mountain","87","probe-158","0.7668718794473816","0.16852645717551756","0.15732789575086614","0","","","","","","","",""
"","html-keyboard-response","256","851269","0.0-141.0-1.0","null","<p></p>","null","","","","","","","","","","","","","","","","","","",""
"","do_trial","257","856101","0.0-142.0-0.0","238.89999997615814","","","","51","1,0,0","2","mountain","88","probe-66","0.6721936280759923","0.07045629065697581","0.2358223885568295","0","","","","","","","",""
"","html-keyboard-response","258","857104","0.0-142.0-1.0","null","<p></p>","null","","","","","","","","","","","","","","","","","","",""
"","do_trial","259","862608","0.0-143.0-0.0","934.1000000238419","","","","49","1,0,0","2","mountain","89","probe-42","0.6526889393846241","0.1645643034550919","0.48508788434949596","1","","","","","","","",""
"","html-keyboard-response","260","863611","0.0-143.0-1.0","null","<p></p>","null","","","","","","","","","","","","","","","","","","",""
"","do_trial","261","868763","0.0-144.0-0.0","560.6000000238419","","","","49","1,0,1","2","mountain","90","probe-186","0.7184962346227683","0.11384236193964237","0.41737153132083427","1","","","","","","","",""
"","html-keyboard-response","262","869776","0.0-144.0-1.0","null","<p></p>","null","","","","","","","","","","","","","","","","","","",""
"","do_trial","263","875323","0.0-145.0-0.0","968.6999999284744","","","","49","1,0,0","2","mountain","91","probe-12","0.7910421239382569","0.05446489114581818","0.35694060154470836","1","","","","","","","",""
"","html-keyboard-response","264","876335","0.0-145.0-1.0","null","<p></p>","null","","","","","","","","","","","","","","","","","","",""
"","do_trial","265","881339","0.0-146.0-0.0","411.2999999523163","","","","49","1,0,0","2","mountain","92","probe-10","0.7949772491105196","0.05356169805231928","0.4511829831346018","1","","","","","","","",""
"","html-keyboard-response","266","882341","0.0-146.0-1.0","null","<p></p>","null","","","","","","","","","","","","","","","","","","",""
"","do_trial","267","887333","0.0-147.0-0.0","411.8000000715256","","","","49","1,1,0","2","mountain","93","probe-183","0.790015330188558","0.14947651610279952","0.3870757078657657","1","","","","","","","",""
"","html-keyboard-response","268","888336","0.0-147.0-1.0","null","<p></p>","null","","","","","","","","","","","","","","","","","","",""
"","do_trial","269","893275","0.0-148.0-0.0","369.90000009536743","","","","49","1,0,1","2","mountain","94","probe-65","0.633439019136823","0.08771266918144026","0.33932272293284726","1","","","","","","","",""
"","html-keyboard-response","270","894277","0.0-148.0-1.0","null","<p></p>","null","","","","","","","","","","","","","","","","","","",""
"","do_trial","271","899279","0.0-149.0-0.0","425.90000009536743","","","","49","0,0,1","2","mountain","95","probe-41","0.6207559411923161","0.10972916600404384","0.42145588066799394","0","","","","","","","",""
"","html-keyboard-response","272","900293","0.0-149.0-1.0","null","<p></p>","null","","","","","","","","","","","","","","","","","","",""
"","do_trial","273","905104","0.0-150.0-0.0","231.80000007152557","","","","49","0,0,0","2","mountain","96","probe-188","0.686699297613146","0.07819160942722646","0.43401498921401543","0","","","","","","","",""
"","html-keyboard-response","274","906117","0.0-150.0-1.0","null","<p></p>","null","","","","","","","","","","","","","","","","","","",""
"","do_trial","275","911856","0.0-151.0-0.0","1158.5999999046326","","","","49","0,1,0","2","mountain","97","probe-59","0.5167747338400177","0.0669305297762615","0.43044507011341426","0","","","","","","","",""
"","html-keyboard-response","276","912859","0.0-151.0-1.0","null","<p></p>","null","","","","","","","","","","","","","","","","","","",""
"","do_trial","277","918479","0.0-152.0-0.0","1038.2000000476837","","","","49","0,0,0","2","mountain","98","probe-25","0.522467198045138","0.06281117316735266","0.3417626618456688","0","","","","","","","",""
"","html-keyboard-response","278","919482","0.0-152.0-1.0","null","<p></p>","null","","","","","","","","","","","","","","","","","","",""
"","do_trial","279","924506","0.0-153.0-0.0","454.5","","","","49","0,0,0","2","mountain","99","probe-198","0.5712384002017273","0.2037535884298859","0.39588924720173596","0","","","","","","","",""
"","html-keyboard-response","280","925509","0.0-153.0-1.0","null","<p></p>","null","","","","","","","","","","","","","","","","","","",""
"","do_trial","281","930437","0.0-154.0-0.0","361","","","","49","1,0,1","2","mountain","100","probe-115","0.5622354957878798","0.08857004623036142","0.4052635018221016","1","","","","","","","",""
"","html-keyboard-response","282","931439","0.0-154.0-1.0","null","<p></p>","null","","","","","","","","","","","","","","","","","","",""
"","do_trial","283","936431","0.0-155.0-0.0","415.5","","","","49","0,0,0","2","mountain","101","probe-131","0.5818088904931856","0.139877611265134","0.34843764477883904","0","","","","","","","",""
"","html-keyboard-response","284","937434","0.0-155.0-1.0","null","<p></p>","null","","","","","","","","","","","","","","","","","","",""
"","do_trial","285","942244","0.0-156.0-0.0","225.79999995231628","","","","49","1,1,1","2","mountain","102","probe-55","0.6266607160805967","0.2084111614884039","0.2940956292849701","1","","","","","","","",""
"","html-keyboard-response","286","943252","0.0-156.0-1.0","null","<p></p>","null","","","","","","","","","","","","","","","","","","",""
"","do_trial","287","948031","0.0-157.0-0.0","200.20000004768372","","","","49","1,0,0","2","mountain","103","probe-217","0.6622726315047048","0.2970958173683138","0.2016626341917938","1","","","","","","","",""
"","html-keyboard-response","288","949039","0.0-157.0-1.0","null","<p></p>","null","","","","","","","","","","","","","","","","","","",""
"","do_trial","289","953871","0.0-158.0-0.0","251.39999997615814","","","","49","0,1,1","2","mountain","104","probe-205","0.5611034129818943","0.1831568289610479","0.2514346912321218","0","","","","","","","",""
"","html-keyboard-response","290","954874","0.0-158.0-1.0","null","<p></p>","null","","","","","","","","","","","","","","","","","","",""
"","do_trial","291","959599","0.0-159.0-0.0","128.09999990463257","","","","49","1,0,0","2","mountain","105","probe-229","0.6889784331915785","0.10083813091654405","0.15457805614465017","1","","","","","","","",""
"","html-keyboard-response","292","960602","0.0-159.0-1.0","null","<p></p>","null","","","","","","","","","","","","","","","","","","",""
"","do_trial","293","965445","0.0-160.0-0.0","265.10000002384186","","","","49","1,0,1","2","mountain","106","probe-110","0.7102273373550184","0.08326951029664455","0.21953581256407925","1","","","","","","","",""
"","html-keyboard-response","294","966447","0.0-160.0-1.0","null","<p></p>","null","","","","","","","","","","","","","","","","","","",""
"","do_trial","295","971898","0.0-161.0-0.0","861.7000000476837","","","","49","0,1,1","2","mountain","107","probe-62","0.5677176918885841","0.0939425715034037","0.2236686825489312","0","","","","","","","",""
"","html-keyboard-response","296","972901","0.0-161.0-1.0","null","<p></p>","null","","","","","","","","","","","","","","","","","","",""
"","do_trial","297","977723","0.0-162.0-0.0","249","","","","49","1,0,0","2","mountain","108","probe-18","0.5422597891190438","0.16788466303511995","0.3207206750718683","1","","","","","","","",""
"","html-keyboard-response","298","978726","0.0-162.0-1.0","null","<p></p>","null","","","","","","","","","","","","","","","","","","",""
"","do_trial","299","983603","0.0-163.0-0.0","298.1999999284744","","","","49","1,0,0","2","mountain","109","probe-50","0.7150567236061198","0.10638357777839222","0.30362675118668664","1","","","","","","","",""
"","html-keyboard-response","300","984609","0.0-163.0-1.0","null","<p></p>","null","","","","","","","","","","","","","","","","","","",""
"","do_bye","301","986118","0.0-164.0-0.0","null","","","","null","","","","","","","","","","","","","","","","",""
"","do_travel","302","992123","0.0-165.0-0.0","null","","","","null","","","","","","","","","","","","","","","","",""
"","do_welcome","303","993638","0.0-165.0-1.0","null","","","","null","","","","","","","","","","","","","","","","",""
"","do_trial","304","998603","0.0-166.0-0.0","395.8000000715256","","","","49","1,0,0","3","countryside","110","probe-47","1","0.16019543282575988","0.4329839616894769","1","","","","","","","",""
"","html-keyboard-response","305","999611","0.0-166.0-1.0","null","<p></p>","null","","","","","","","","","","","","","","","","","","",""
"","do_trial","306","1005275","0.0-167.0-0.0","1090","","","","49","1,1,0","3","countryside","111","probe-153","1","0.1819078312007758","0.4414501756283407","1","","","","","","","",""
"","html-keyboard-response","307","1006288","0.0-167.0-1.0","null","<p></p>","null","","","","","","","","","","","","","","","","","","",""
"","do_trial","308","1011227","0.0-168.0-0.0","362","","","","49","1,1,1","3","countryside","112","probe-09","0.8579797123497278","0.2965286757168289","0.3782650745135254","1","","","","","","","",""
"","html-keyboard-response","309","1012230","0.0-168.0-1.0","null","<p></p>","null","","","","","","","","","","","","","","","","","","",""
"","do_trial","310","1017019","0.0-169.0-0.0","196","","","","49","1,0,0","3","countryside","113","probe-108","0.7103819094266843","0.33057420547668004","0.3308170250261868","1","","","","","","","",""
"","html-keyboard-response","311","1018032","0.0-169.0-1.0","null","<p></p>","null","","","","","","","","","","","","","","","","","","",""
"","do_trial","312","1022832","0.0-170.0-0.0","211","","","","49","0,0,1","3","countryside","114","probe-185","0.6537258851551784","0.41178608704489905","0.3699842434695166","0","","","","","","","",""
"","html-keyboard-response","313","1023835","0.0-170.0-1.0","null","<p></p>","null","","","","","","","","","","","","","","","","","","",""
"","do_trial","314","1028859","0.0-171.0-0.0","454.2999999523163","","","","49","0,1,0","3","countryside","115","probe-57","0.462603813802478","0.3396977876800137","0.3903020150664386","0","","","","","","","",""
"","html-keyboard-response","315","1029870","0.0-171.0-1.0","null","<p></p>","null","","","","","","","","","","","","","","","","","","",""
"","do_trial","316","1035120","0.0-172.0-0.0","653","","","","49","0,0,0","3","countryside","116","probe-144","0.6777310702221021","0.11076078855198505","0.3330525390573025","0","","","","","","","",""
"","html-keyboard-response","317","1036123","0.0-172.0-1.0","null","<p></p>","null","","","","","","","","","","","","","","","","","","",""
"","do_trial","318","1041336","0.0-173.0-0.0","625.8000000715256","","","","49","0,1,0","3","countryside","117","probe-181","0.6154882263131928","0.19383094943953455","0.4260848934257659","0","","","","","","","",""
"","html-keyboard-response","319","1042351","0.0-173.0-1.0","null","<p></p>","null","","","","","","","","","","","","","","","","","","",""
"","do_trial","320","1047290","0.0-174.0-0.0","359.2999999523163","","","","49","1,0,0","3","countryside","118","probe-127","0.5925809220810149","0.20400459515242708","0.3426323822856303","1","","","","","","","",""
"","html-keyboard-response","321","1048292","0.0-174.0-1.0","null","<p></p>","null","","","","","","","","","","","","","","","","","","",""
"","do_trial","322","1053348","0.0-175.0-0.0","489.60000002384186","","","","49","1,1,0","3","countryside","119","probe-194","0.606184260970623","0.21620045112054206","0.23290949004345288","1","","","","","","","",""
"","html-keyboard-response","323","1054362","0.0-175.0-1.0","null","<p></p>","null","","","","","","","","","","","","","","","","","","",""
"","do_trial","324","1059983","0.0-176.0-0.0","1041.8999999761581","","","","49","1,0,0","3","countryside","120","probe-126","0.5734579484809788","0.19636676706023573","0.10194154700198228","1","","","","","","","",""
"","html-keyboard-response","325","1060986","0.0-176.0-1.0","null","<p></p>","null","","","","","","","","","","","","","","","","","","",""
"","do_trial","326","1065967","0.0-177.0-0.0","409","","","","49","0,0,0","3","countryside","121","probe-03","0.626624471377855","0.25010644118121156","0.05684821382601316","0","","","","","","","",""
"","html-keyboard-response","327","1066980","0.0-177.0-1.0","null","<p></p>","null","","","","","","","","","","","","","","","","","","",""
"","do_trial","328","1072207","0.0-178.0-0.0","657.5","","","","49","0,0,0","3","countryside","122","probe-187","0.4776820176577972","0.476514689402606","0.2077098959097768","0","","","","","","","",""
"","html-keyboard-response","329","1073210","0.0-178.0-1.0","null","<p></p>","null","","","","","","","","","","","","","","","","","","",""
"","do_trial","330","1078010","0.0-179.0-0.0","222.59999990463257","","","","50","0,0,1","3","countryside","123","probe-139","0.3460008972894322","0.42075072479053965","0.21367554673749245","0","","","","","","","",""
"","html-keyboard-response","331","1079012","0.0-179.0-1.0","null","<p></p>","null","","","","","","","","","","","","","","","","","","",""
"","do_trial","332","1083652","0.0-180.0-0.0","41.299999952316284","","","","50","1,1,0","3","countryside","124","probe-86","0.440446848495167","0.42321831767427837","0.25904014819824406","1","","","","","","","",""
"","html-keyboard-response","333","1084655","0.0-180.0-1.0","null","<p></p>","null","","","","","","","","","","","","","","","","","","",""
"","do_trial","334","1089454","0.0-181.0-0.0","229.89999997615814","","","","50","0,0,0","3","countryside","125","probe-207","0.3398061265069117","0.44476407583962013","0.24723355157288793","0","","","","","","","",""
"","html-keyboard-response","335","1090458","0.0-181.0-1.0","null","<p></p>","null","","","","","","","","","","","","","","","","","","",""
"","do_trial","336","1095268","0.0-182.0-0.0","216.39999997615814","","","","50","0,0,0","3","countryside","126","probe-141","0.34696065052744357","0.4776486271328757","0.22883398934854537","0","","","","","","","",""
"","html-keyboard-response","337","1096271","0.0-182.0-1.0","null","<p></p>","null","","","","","","","","","","","","","","","","","","",""
"","do_trial","338","1101721","0.0-183.0-0.0","883.7000000476837","","","","50","0,1,0","3","countryside","127","probe-118","0.27959113848696676","0.5782952542176093","0.274650738436356","1","","","","","","","",""
"","html-keyboard-response","339","1102735","0.0-183.0-1.0","null","<p></p>","null","","","","","","","","","","","","","","","","","","",""
"","do_trial","340","1108239","0.0-184.0-0.0","922.2999999523163","","","","51","1,1,0","3","countryside","128","probe-67","0.29152457135750437","0.5345318770547915","0.07115806343290507","0","","","","","","","",""
"","html-keyboard-response","341","1109242","0.0-184.0-1.0","null","<p></p>","null","","","","","","","","","","","","","","","","","","",""
"","do_trial","342","1114415","0.0-185.0-0.0","603.3999999761581","","","","51","1,1,0","3","countryside","129","probe-200","0.33585840847569054","0.6061638982176342","0.0572267675365812","0","","","","","","","",""
"","html-keyboard-response","343","1115428","0.0-185.0-1.0","null","<p></p>","null","","","","","","","","","","","","","","","","","","",""
"","do_trial","344","1120388","0.0-186.0-0.0","381","","","","51","0,1,0","3","countryside","130","probe-54","0.4129585867360139","0.6481318289969852","0.083742686076107","0","","","","","","","",""
"","html-keyboard-response","345","1121391","0.0-186.0-1.0","null","<p></p>","null","","","","","","","","","","","","","","","","","","",""
"","do_trial","346","1126191","0.0-187.0-0.0","219.89999997615814","","","","49","1,1,0","3","countryside","131","probe-76","0.3283534277968216","0.5962854095855604","0.2205686401718758","1","","","","","","","",""
"","html-keyboard-response","347","1127194","0.0-187.0-1.0","null","<p></p>","null","","","","","","","","","","","","","","","","","","",""
"","do_trial","348","1132409","0.0-188.0-0.0","625.5","","","","49","0,0,0","3","countryside","132","probe-87","0.29834425233300504","0.46698021253533756","0.1404003253287364","0","","","","","","","",""
"","html-keyboard-response","349","1133412","0.0-188.0-1.0","null","<p></p>","null","","","","","","","","","","","","","","","","","","",""
"","do_trial","350","1138137","0.0-189.0-0.0","155","","","","49","0,1,0","3","countryside","133","probe-70","0.26652858011068625","0.58018943124802","0.08513725070022109","0","","","","","","","",""
"","html-keyboard-response","351","1139140","0.0-189.0-1.0","null","<p></p>","null","","","","","","","","","","","","","","","","","","",""
"","do_trial","352","1143962","0.0-190.0-0.0","253.79999995231628","","","","49","0,1,0","3","countryside","134","probe-195","0.21319311695586102","0.5399484966444729","0.1402621108595131","0","","","","","","","",""
"","html-keyboard-response","353","1144964","0.0-190.0-1.0","null","<p></p>","null","","","","","","","","","","","","","","","","","","",""
"","do_trial","354","1150010","0.0-191.0-0.0","468.6999999284744","","","","50","0,0,0","3","countryside","135","probe-23","0.2603760088955043","0.5172248707270283","0.10196014674575402","0","","","","","","","",""
"","html-keyboard-response","355","1151012","0.0-191.0-1.0","null","<p></p>","null","","","","","","","","","","","","","","","","","","",""
"","do_trial","356","1155801","0.0-192.0-0.0","212.39999997615814","","","","50","0,1,0","3","countryside","136","probe-24","0.1734224772999029","0.6356000277299273","0.1225107973132268","1","","","","","","","",""
"","html-keyboard-response","357","1156804","0.0-192.0-1.0","null","<p></p>","null","","","","","","","","","","","","","","","","","","",""
"","do_trial","358","1161647","0.0-193.0-0.0","264.10000002384186","","","","50","0,1,0","3","countryside","137","probe-78","0.19660819833525905","0.4849668148804077","0.07877066474039753","1","","","","","","","",""
"","html-keyboard-response","359","1162649","0.0-193.0-1.0","null","<p></p>","null","","","","","","","","","","","","","","","","","","",""
"","do_trial","360","1167460","0.0-194.0-0.0","235.60000002384186","","","","50","0,0,0","3","countryside","138","probe-145","0.2594387474984685","0.5835782281430186","0.1282931142561513","0","","","","","","","",""
"","html-keyboard-response","361","1168463","0.0-194.0-1.0","null","<p></p>","null","","","","","","","","","","","","","","","","","","",""
"","do_trial","362","1173156","0.0-195.0-0.0","118.69999992847443","","","","50","0,1,0","3","countryside","139","probe-176","0.21041408588720292","0.6089954433640213","0.1962504347703203","1","","","","","","","",""
"","html-keyboard-response","363","1174169","0.0-195.0-1.0","null","<p></p>","null","","","","","","","","","","","","","","","","","","",""
"","do_trial","364","1178884","0.0-196.0-0.0","131.29999995231628","","","","50","0,0,0","3","countryside","140","probe-48","0.22097822243866425","0.6504822787144136","0.2802619399761048","0","","","","","","","",""
"","html-keyboard-response","365","1179887","0.0-196.0-1.0","null","<p></p>","null","","","","","","","","","","","","","","","","","","",""
"","do_trial","366","1184772","0.0-197.0-0.0","295.39999997615814","","","","50","1,1,0","3","countryside","141","probe-179","0.19910606147354196","0.6284473819808349","0.11968667142996112","1","","","","","","","",""
"","html-keyboard-response","367","1185775","0.0-197.0-1.0","null","<p></p>","null","","","","","","","","","","","","","","","","","","",""
"","do_trial","368","1190916","0.0-198.0-0.0","565.3000000715256","","","","50","0,0,0","3","countryside","142","probe-212","0.12139477236806631","0.5187211394698589","0.056201129774649264","0","","","","","","","",""
"","html-keyboard-response","369","1191919","0.0-198.0-1.0","null","<p></p>","null","","","","","","","","","","","","","","","","","","",""
"","do_trial","370","1196745","0.0-199.0-0.0","241","","","","50","0,1,0","3","countryside","143","probe-140","0.18794793134177437","0.6484934277581273","0.1143739732045037","1","","","","","","","",""
"","html-keyboard-response","371","1197753","0.0-199.0-1.0","null","<p></p>","null","","","","","","","","","","","","","","","","","","",""
"","do_trial","372","1203001","0.0-200.0-0.0","674.4000000953674","","","","50","0,1,0","3","countryside","144","probe-15","0.3020606431605572","0.587951279009775","0.06154280738522668","1","","","","","","","",""
"","html-keyboard-response","373","1204015","0.0-200.0-1.0","null","<p></p>","null","","","","","","","","","","","","","","","","","","",""
"","do_trial","374","1208612","0.0-201.0-0.0","0.19999992847442627","","","","50","1,1,1","3","countryside","145","probe-69","0.3528046624598492","0.6045778659008253","0.2005294396905866","1","","","","","","","",""
"","html-keyboard-response","375","1209615","0.0-201.0-1.0","null","<p></p>","null","","","","","","","","","","","","","","","","","","",""
"","do_trial","376","1214724","0.0-202.0-0.0","518.3000000715256","","","","50","1,0,0","3","countryside","146","probe-37","0.3422586546010213","0.5770824253838016","0.1947500859730287","0","","","","","","","",""
"","html-keyboard-response","377","1215727","0.0-202.0-1.0","null","<p></p>","null","","","","","","","","","","","","","","","","","","",""
"","do_trial","378","1221114","0.0-203.0-0.0","815.2000000476837","","","","50","1,1,0","3","countryside","147","probe-32","0.46752488375015744","0.5991450923029993","0.21100705650236745","1","","","","","","","",""
"","html-keyboard-response","379","1222117","0.0-203.0-1.0","null","<p></p>","null","","","","","","","","","","","","","","","","","","",""
"","do_trial","380","1226901","0.0-204.0-0.0","217.30000007152557","","","","50","0,0,0","3","countryside","148","probe-33","0.5819878432113633","0.4954929761506696","0.260456015348887","0","","","","","","","",""
"","html-keyboard-response","381","1227909","0.0-204.0-1.0","null","<p></p>","null","","","","","","","","","","","","","","","","","","",""
"","do_trial","382","1233322","0.0-205.0-0.0","841.2000000476837","","","","50","0,0,0","3","countryside","149","probe-175","0.49488852958437135","0.47998090983536656","0.27044206716480385","0","","","","","","","",""
"","html-keyboard-response","383","1234330","0.0-205.0-1.0","null","<p></p>","null","","","","","","","","","","","","","","","","","","",""
"","do_bye","384","1235845","0.0-206.0-0.0","null","","","","null","","","","","","","","","","","","","","","","",""
"","do_travel","385","1241855","0.0-207.0-0.0","null","","","","null","","","","","","","","","","","","","","","","",""
"","do_welcome","386","1243364","0.0-207.0-1.0","null","","","","null","","","","","","","","","","","","","","","","",""
"","do_trial","387","1249114","0.0-208.0-0.0","1151.1000000238419","","","","50","0,1,0","4","forest","150","probe-80","0.1896853417001927","1","0.06431882887796135","1","","","","","","","",""
"","html-keyboard-response","388","1250117","0.0-208.0-1.0","null","<p></p>","null","","","","","","","","","","","","","","","","","","",""
"","do_trial","389","1255802","0.0-209.0-0.0","1102.2999999523163","","","","50","0,1,0","4","forest","151","probe-211","0.2852064855554353","1","0.1721531902850733","1","","","","","","","",""
"","html-keyboard-response","390","1256816","0.0-209.0-1.0","null","<p></p>","null","","","","","","","","","","","","","","","","","","",""
"","do_trial","391","1261781","0.0-210.0-0.0","384.8000000715256","","","","50","0,1,0","4","forest","152","probe-218","0.26199921162790935","0.9417554552369979","0.08264442366374224","1","","","","","","","",""
"","html-keyboard-response","392","1262789","0.0-210.0-1.0","null","<p></p>","null","","","","","","","","","","","","","","","","","","",""
"","do_trial","393","1267759","0.0-211.0-0.0","380.60000002384186","","","","50","0,1,1","4","forest","153","probe-06","0.34020665452672044","0.8803831537485018","0.1730224377104895","1","","","","","","","",""
"","html-keyboard-response","394","1268762","0.0-211.0-1.0","null","<p></p>","null","","","","","","","","","","","","","","","","","","",""
"","do_trial","395","1273914","0.0-212.0-0.0","576.2999999523163","","","","50","0,1,0","4","forest","154","probe-75","0.27824719712755436","0.6794303917809219","0.2703620306725954","1","","","","","","","",""
"","html-keyboard-response","396","1274917","0.0-212.0-1.0","null","<p></p>","null","","","","","","","","","","","","","","","","","","",""
"","do_trial","397","1280165","0.0-213.0-0.0","672.2999999523163","","","","50","1,0,0","4","forest","155","probe-27","0.35145535057865623","0.5013268717868283","0.19791010611385645","0","","","","","","","",""
"","html-keyboard-response","398","1281167","0.0-213.0-1.0","null","<p></p>","null","","","","","","","","","","","","","","","","","","",""
"","do_trial","399","1286554","0.0-214.0-0.0","800.4000000953674","","","","50","0,0,0","4","forest","156","probe-214","0.36539755889853653","0.5276563413602872","0.1986469896793147","0","","","","","","","",""
"","html-keyboard-response","400","1287557","0.0-214.0-1.0","null","<p></p>","null","","","","","","","","","","","","","","","","","","",""
"","do_trial","401","1292239","0.0-215.0-0.0","104.70000004768372","","","","50","1,1,0","4","forest","157","probe-98","0.34292417978175266","0.6682042127792818","0.14452756970262867","1","","","","","","","",""
"","html-keyboard-response","402","1293253","0.0-215.0-1.0","null","<p></p>","null","","","","","","","","","","","","","","","","","","",""
"","do_trial","403","1298341","0.0-216.0-0.0","521.7999999523163","","","","50","1,0,0","4","forest","158","probe-02","0.34870545701502126","0.5644186714466001","0.10082196538181575","0","","","","","","","",""
"","html-keyboard-response","404","1299354","0.0-216.0-1.0","null","<p></p>","null","","","","","","","","","","","","","","","","","","",""
"","do_trial","405","1304437","0.0-217.0-0.0","508.90000009536743","","","","49","0,1,0","4","forest","159","probe-129","0.3901429127364585","0.4563134315015242","0.2229172285678208","0","","","","","","","",""
"","html-keyboard-response","406","1305444","0.0-217.0-1.0","null","<p></p>","null","","","","","","","","","","","","","","","","","","",""
"","do_trial","407","1310682","0.0-218.0-0.0","656.5","","","","49","1,0,0","4","forest","160","probe-97","0.5563729276135494","0.34586922793307057","0.22059367733956126","1","","","","","","","",""
"","html-keyboard-response","408","1311685","0.0-218.0-1.0","null","<p></p>","null","","","","","","","","","","","","","","","","","","",""
"","do_trial","409","1316645","0.0-219.0-0.0","380.10000002384186","","","","49","1,0,0","4","forest","161","probe-68","0.397415737805853","0.38874921094094683","0.22638671473625568","1","","","","","","","",""
"","html-keyboard-response","410","1317647","0.0-219.0-1.0","null","<p></p>","null","","","","","","","","","","","","","","","","","","",""
"","do_trial","411","1322789","0.0-220.0-0.0","555.8999999761581","","","","49","0,0,0","4","forest","162","probe-38","0.2902271512079913","0.30202355184705143","0.385588606325504","0","","","","","","","",""
"","html-keyboard-response","412","1323791","0.0-220.0-1.0","null","<p></p>","null","","","","","","","","","","","","","","","","","","",""
"","do_trial","413","1328602","0.0-221.0-0.0","217.79999995231628","","","","49","0,1,0","4","forest","163","probe-106","0.23768493948316344","0.2774536390255115","0.3629796268491951","0","","","","","","","",""
"","html-keyboard-response","414","1329605","0.0-221.0-1.0","null","<p></p>","null","","","","","","","","","","","","","","","","","","",""
"","do_trial","415","1335162","0.0-222.0-0.0","984.7000000476837","","","","49","1,0,1","4","forest","164","probe-157","0.22475782778097864","0.1776235670954879","0.4768978553444669","1","","","","","","","",""
"","html-keyboard-response","416","1336175","0.0-222.0-1.0","null","<p></p>","null","","","","","","","","","","","","","","","","","","",""
"","do_trial","417","1341253","0.0-223.0-0.0","509","","","","49","0,1,1","4","forest","165","probe-77","0.20718972608882766","0.2290755106195226","0.5085137403090245","0","","","","","","","",""
"","html-keyboard-response","418","1342255","0.0-223.0-1.0","null","<p></p>","null","","","","","","","","","","","","","","","","","","",""
"","do_trial","419","1347909","0.0-224.0-0.0","1077","","","","49","0,0,1","4","forest","166","probe-93","0.14498858543764512","0.20118733724743773","0.4730900858908625","0","","","","","","","",""
"","html-keyboard-response","420","1348911","0.0-224.0-1.0","null","<p></p>","null","","","","","","","","","","","","","","","","","","",""
"","do_trial","421","1353701","0.0-225.0-0.0","215.39999997615814","","","","51","0,0,1","4","forest","167","probe-143","0.25733580224306235","0.07310746174586134","0.49946785663022875","1","","","","","","","",""
"","html-keyboard-response","422","1354703","0.0-225.0-1.0","null","<p></p>","null","","","","","","","","","","","","","","","","","","",""
"","do_trial","423","1359952","0.0-226.0-0.0","673.6999999284744","","","","51","0,1,0","4","forest","168","probe-206","0.2653955193061191","0.11201310515851563","0.4603917704816417","0","","","","","","","",""
"","html-keyboard-response","424","1360954","0.0-226.0-1.0","null","<p></p>","null","","","","","","","","","","","","","","","","","","",""
"","do_trial","425","1365701","0.0-227.0-0.0","153.5","","","","51","1,0,1","4","forest","169","probe-147","0.3598043229829298","0.15572946614474834","0.6318899771188639","1","","","","","","","",""
"","html-keyboard-response","426","1366703","0.0-227.0-1.0","null","<p></p>","null","","","","","","","","","","","","","","","","","","",""
"","do_trial","427","1372442","0.0-228.0-0.0","1157.4000000953674","","","","51","0,1,1","4","forest","170","probe-91","0.31326156969643765","0.060092752753387726","0.6493522649199811","1","","","","","","","",""
"","html-keyboard-response","428","1373445","0.0-228.0-1.0","null","<p></p>","null","","","","","","","","","","","","","","","","","","",""
"","do_trial","429","1378447","0.0-229.0-0.0","423.2000000476837","","","","51","0,0,0","4","forest","171","probe-40","0.3444152887517939","0.09507696332643673","0.5335417559615341","0","","","","","","","",""
"","html-keyboard-response","430","1379461","0.0-229.0-1.0","null","<p></p>","null","","","","","","","","","","","","","","","","","","",""
"","do_trial","431","1384292","0.0-230.0-0.0","262.10000002384186","","","","51","0,0,0","4","forest","172","probe-128","0.2842631816140995","0.09367745351775753","0.46159501444470663","0","","","","","","","",""
"","html-keyboard-response","432","1385295","0.0-230.0-1.0","null","<p></p>","null","","","","","","","","","","","","","","","","","","",""
"","do_trial","433","1390362","0.0-231.0-0.0","490.3000000715256","","","","51","0,1,1","4","forest","173","probe-180","0.23220365419872027","0.05395395777172384","0.5531001561948395","1","","","","","","","",""
"","html-keyboard-response","434","1391365","0.0-231.0-1.0","null","<p></p>","null","","","","","","","","","","","","","","","","","","",""
"","do_trial","435","1396281","0.0-232.0-0.0","342","","","","51","1,0,1","4","forest","174","probe-44","0.2277418503606168","0.10311213352217749","0.5563679669224261","1","","","","","","","",""
"","html-keyboard-response","436","1397295","0.0-232.0-1.0","null","<p></p>","null","","","","","","","","","","","","","","","","","","",""
"","do_trial","437","1402628","0.0-233.0-0.0","748","","","","50","0,1,1","4","forest","175","probe-43","0.2426411216135564","0.2679054884338888","0.6598056340039297","1","","","","","","","",""
"","html-keyboard-response","438","1403631","0.0-233.0-1.0","null","<p></p>","null","","","","","","","","","","","","","","","","","","",""
"","do_trial","439","1408756","0.0-234.0-0.0","546.2999999523163","","","","51","0,1,1","4","forest","176","probe-101","0.29403597810093013","0.13597723820533875","0.45214650201920675","1","","","","","","","",""
"","html-keyboard-response","440","1409764","0.0-234.0-1.0","null","<p></p>","null","","","","","","","","","","","","","","","","","","",""
"","do_trial","441","1415834","0.0-235.0-0.0","1497.5","","","","50","0,0,1","4","forest","177","probe-216","0.22197747511584148","0.07851030812255283","0.3788630197245344","0","","","","","","","",""
"","html-keyboard-response","442","1416847","0.0-235.0-1.0","null","<p></p>","null","","","","","","","","","","","","","","","","","","",""
"","do_trial","443","1421903","0.0-236.0-0.0","490.2999999523163","","","","50","0,0,0","4","forest","178","probe-111","0.18884372059000037","0.16159443461578119","0.32264061353388435","0","","","","","","","",""
"","html-keyboard-response","444","1422906","0.0-236.0-1.0","null","<p></p>","null","","","","","","","","","","","","","","","","","","",""
"","do_trial","445","1428580","0.0-237.0-0.0","1097.5","","","","49","0,0,1","4","forest","179","probe-99","0.31471655978418467","0.06344600924204251","0.5176233166962683","0","","","","","","","",""
"","html-keyboard-response","446","1429583","0.0-237.0-1.0","null","<p></p>","null","","","","","","","","","","","","","","","","","","",""
"","do_trial","447","1434447","0.0-238.0-0.0","282","","","","49","0,1,0","4","forest","180","probe-142","0.24851750398347963","0.13141452148280025","0.4509664829379534","0","","","","","","","",""
"","html-keyboard-response","448","1435450","0.0-238.0-1.0","null","<p></p>","null","","","","","","","","","","","","","","","","","","",""
"","do_trial","449","1440254","0.0-239.0-0.0","232.10000002384186","","","","49","0,0,0","4","forest","181","probe-119","0.23956438556498186","0.05284099834384657","0.48442385152802586","0","","","","","","","",""
"","html-keyboard-response","450","1441262","0.0-239.0-1.0","null","<p></p>","null","","","","","","","","","","","","","","","","","","",""
"","do_trial","451","1446074","0.0-240.0-0.0","240.09999990463257","","","","51","0,0,0","4","forest","182","probe-182","0.3269012493410645","0.179645426775395","0.5807210864934809","0","","","","","","","",""
"","html-keyboard-response","452","1447076","0.0-240.0-1.0","null","<p></p>","null","","","","","","","","","","","","","","","","","","",""
"","do_trial","453","1452324","0.0-241.0-0.0","669.7000000476837","","","","51","0,1,1","4","forest","183","probe-219","0.321566206254574","0.2153130162623316","0.5344054015725564","1","","","","","","","",""
"","html-keyboard-response","454","1453338","0.0-241.0-1.0","null","<p></p>","null","","","","","","","","","","","","","","","","","","",""
"","do_trial","455","1458191","0.0-242.0-0.0","274.10000002384186","","","","51","1,0,1","4","forest","184","probe-225","0.21651485107978746","0.153078408428922","0.5709758760541321","1","","","","","","","",""
"","html-keyboard-response","456","1459194","0.0-242.0-1.0","null","<p></p>","null","","","","","","","","","","","","","","","","","","",""
"","do_trial","457","1464243","0.0-243.0-0.0","472.10000002384186","","","","51","0,0,1","4","forest","185","probe-45","0.10054836252798711","0.343687417563836","0.5298040545153256","1","","","","","","","",""
"","html-keyboard-response","458","1465251","0.0-243.0-1.0","null","<p></p>","null","","","","","","","","","","","","","","","","","","",""
"","do_trial","459","1470094","0.0-244.0-0.0","272.60000002384186","","","","51","1,0,0","4","forest","186","probe-107","0.2101792103629633","0.3411266848341355","0.5784662542173387","0","","","","","","","",""
"","html-keyboard-response","460","1471107","0.0-244.0-1.0","null","<p></p>","null","","","","","","","","","","","","","","","","","","",""
"","do_trial","461","1475886","0.0-245.0-0.0","200.10000002384186","","","","51","0,1,1","4","forest","187","probe-105","0.13095584378625483","0.23736918302493248","0.6770910815386267","1","","","","","","","",""
"","html-keyboard-response","462","1476889","0.0-245.0-1.0","null","<p></p>","null","","","","","","","","","","","","","","","","","","",""
"","do_trial","463","1481763","0.0-246.0-0.0","282.60000002384186","","","","51","0,1,1","4","forest","188","probe-161","0.1776200157288323","0.19855719046157105","0.46792083804256196","1","","","","","","","",""
"","html-keyboard-response","464","1482766","0.0-246.0-1.0","null","<p></p>","null","","","","","","","","","","","","","","","","","","",""
"","do_trial","465","1487587","0.0-247.0-0.0","243.5","","","","51","0,0,0","4","forest","189","probe-104","0.37377616072949144","0.118917055942653","0.5197324099181376","0","","","","","","","",""
"","html-keyboard-response","466","1488590","0.0-247.0-1.0","null","<p></p>","null","","","","","","","","","","","","","","","","","","",""
"","do_bye","467","1490105","0.0-248.0-0.0","null","","","","null","","","","","","","","","","","","","","","","",""
"","do_travel","468","1496110","0.0-249.0-0.0","null","","","","null","","","","","","","","","","","","","","","","",""
"","do_welcome","469","1497625","0.0-249.0-1.0","null","","","","null","","","","","","","","","","","","","","","","",""
"","do_trial","470","1504899","0.0-250.0-0.0","2695.7999999523163","","","","51","0,1,1","5","highway","190","probe-167","0.22638517960552446","0.2115151147676864","1","1","","","","","","","",""
"","html-keyboard-response","471","1505902","0.0-250.0-1.0","null","<p></p>","null","","","","","","","","","","","","","","","","","","",""
"","do_trial","472","1511726","0.0-251.0-0.0","1233","","","","51","0,0,1","5","highway","191","probe-72","0.26001071483134913","0.0835497818200489","1","1","","","","","","","",""
"","html-keyboard-response","473","1512729","0.0-251.0-1.0","null","<p></p>","null","","","","","","","","","","","","","","","","","","",""
"","do_trial","474","1517646","0.0-252.0-0.0","334.59999990463257","","","","51","0,0,1","5","highway","192","probe-152","0.3797981691597011","0.14498620368676732","0.8076040302906927","1","","","","","","","",""
"","html-keyboard-response","475","1518649","0.0-252.0-1.0","null","<p></p>","null","","","","","","","","","","","","","","","","","","",""
"","do_trial","476","1523450","0.0-253.0-0.0","218.5","","","","51","0,0,0","5","highway","193","probe-71","0.3785560713000748","0.2056657649360376","0.8312623397792337","0","","","","","","","",""
"","html-keyboard-response","477","1524453","0.0-253.0-1.0","null","<p></p>","null","","","","","","","","","","","","","","","","","","",""
"","do_trial","478","1529444","0.0-254.0-0.0","412.5","","","","51","0,0,0","5","highway","194","probe-103","0.24290555146992293","0.15334678813091615","0.6685989143682098","0","","","","","","","",""
"","html-keyboard-response","479","1530448","0.0-254.0-1.0","null","<p></p>","null","","","","","","","","","","","","","","","","","","",""
"","do_trial","480","1536218","0.0-255.0-0.0","1193.5","","","","51","0,0,1","5","highway","195","probe-199","0.21595765917785756","0.20084008994504804","0.6961200811143214","1","","","","","","","",""
"","html-keyboard-response","481","1537232","0.0-255.0-1.0","null","<p></p>","null","","","","","","","","","","","","","","","","","","",""
"","do_trial","482","1542650","0.0-256.0-0.0","833.2999999523163","","","","51","0,0,0","5","highway","196","probe-109","0.3031817480568617","0.09645678096377173","0.7794415735712452","0","","","","","","","",""
"","html-keyboard-response","483","1543653","0.0-256.0-1.0","null","<p></p>","null","","","","","","","","","","","","","","","","","","",""
"","do_trial","484","1548677","0.0-257.0-0.0","453.89999997615814","","","","51","1,1,1","5","highway","197","probe-102","0.22580021349363605","0.18589755974862612","0.7700049419921312","1","","","","","","","",""
"","html-keyboard-response","485","1549680","0.0-257.0-1.0","null","<p></p>","null","","","","","","","","","","","","","","","","","","",""
"","do_trial","486","1554469","0.0-258.0-0.0","199.5","","","","51","1,0,1","5","highway","198","probe-85","0.23799942783281075","0.24660679543311462","0.6970985839473584","1","","","","","","","",""
"","html-keyboard-response","487","1555472","0.0-258.0-1.0","null","<p></p>","null","","","","","","","","","","","","","","","","","","",""
"","do_trial","488","1560314","0.0-259.0-0.0","264.2999999523163","","","","51","0,1,1","5","highway","199","probe-08","0.2546235541327904","0.1920223446916909","0.6055539171037478","1","","","","","","","",""
"","html-keyboard-response","489","1561317","0.0-259.0-1.0","null","<p></p>","null","","","","","","","","","","","","","","","","","","",""
"","do_trial","490","1566362","0.0-260.0-0.0","477","","","","51","0,0,1","5","highway","200","probe-26","0.3168115187309393","0.20621692111207096","0.5396912205892439","1","","","","","","","",""
"","html-keyboard-response","491","1567365","0.0-260.0-1.0","null","<p></p>","null","","","","","","","","","","","","","","","","","","",""
"","do_trial","492","1572186","0.0-261.0-0.0","236.90000009536743","","","","51","0,0,0","5","highway","201","probe-117","0.2803835225277003","0.16912812684128084","0.46322230069331305","0","","","","","","","",""
"","html-keyboard-response","493","1573189","0.0-261.0-1.0","null","<p></p>","null","","","","","","","","","","","","","","","","","","",""
"","do_trial","494","1578000","0.0-262.0-0.0","219","","","","51","0,1,1","5","highway","202","probe-197","0.37228992807404176","0.36343818467296884","0.38586719522858576","1","","","","","","","",""
"","html-keyboard-response","495","1579002","0.0-262.0-1.0","null","<p></p>","null","","","","","","","","","","","","","","","","","","",""
"","do_trial","496","1584132","0.0-263.0-0.0","551.1000000238419","","","","51","0,0,1","5","highway","203","probe-221","0.2579349933373981","0.6165794969897619","0.34143777826150074","1","","","","","","","",""
"","html-keyboard-response","497","1585146","0.0-263.0-1.0","null","<p></p>","null","","","","","","","","","","","","","","","","","","",""
"","do_trial","498","1590586","0.0-264.0-0.0","859.6999999284744","","","","51","1,1,0","5","highway","204","probe-189","0.20590482979429786","0.6230163671217186","0.19247850333039487","0","","","","","","","",""
"","html-keyboard-response","499","1591588","0.0-264.0-1.0","null","<p></p>","null","","","","","","","","","","","","","","","","","","",""
"","do_trial","500","1596772","0.0-265.0-0.0","615.6000000238419","","","","51","0,1,0","5","highway","205","probe-213","0.24409485898463615","0.6098208164625046","0.17436974252850895","0","","","","","","","",""
"","html-keyboard-response","501","1597775","0.0-265.0-1.0","null","<p></p>","null","","","","","","","","","","","","","","","","","","",""
"","do_trial","502","1602746","0.0-266.0-0.0","397","","","","51","0,0,0","5","highway","206","probe-133","0.2673508227240399","0.49369706197593455","0.16922703745792228","0","","","","","","","",""
"","html-keyboard-response","503","1603759","0.0-266.0-1.0","null","<p></p>","null","","","","","","","","","","","","","","","","","","",""
"","do_trial","504","1608708","0.0-267.0-0.0","371.8000000715256","","","","49","1,1,1","5","highway","207","probe-160","0.36456172251489966","0.4336704283583955","0.13077678859413638","1","","","","","","","",""
"","html-keyboard-response","505","1609722","0.0-267.0-1.0","null","<p></p>","null","","","","","","","","","","","","","","","","","","",""
"","do_trial","506","1614756","0.0-268.0-0.0","453.39999997615814","","","","49","0,0,0","5","highway","208","probe-148","0.35100711603545215","0.5191975370635232","0.1877423067342131","0","","","","","","","",""
"","html-keyboard-response","507","1615759","0.0-268.0-1.0","null","<p></p>","null","","","","","","","","","","","","","","","","","","",""
"","do_trial","508","1620591","0.0-269.0-0.0","245.40000009536743","","","","49","0,1,0","5","highway","209","probe-169","0.34991783010117483","0.5378961049198908","0.15483047605771794","0","","","","","","","",""
"","html-keyboard-response","509","1621594","0.0-269.0-1.0","null","<p></p>","null","","","","","","","","","","","","","","","","","","",""
"","do_trial","510","1626335","0.0-270.0-0.0","165.60000002384186","","","","49","0,1,0","5","highway","210","probe-192","0.2545806342290243","0.6085849443186726","0.14641179525218465","0","","","","","","","",""
"","html-keyboard-response","511","1627343","0.0-270.0-1.0","null","<p></p>","null","","","","","","","","","","","","","","","","","","",""
"","do_trial","512","1632122","0.0-271.0-0.0","205.30000007152557","","","","50","0,0,0","5","highway","211","probe-208","0.07280310137361791","0.5091777416604804","0.15637254653941735","0","","","","","","","",""
"","html-keyboard-response","513","1633124","0.0-271.0-1.0","null","<p></p>","null","","","","","","","","","","","","","","","","","","",""
"","do_trial","514","1638303","0.0-272.0-0.0","598","","","","50","0,0,1","5","highway","212","probe-123","0.11181442683519822","0.40529538355067546","0.2955419672336509","0","","","","","","","",""
"","html-keyboard-response","515","1639311","0.0-272.0-1.0","null","<p></p>","null","","","","","","","","","","","","","","","","","","",""
"","do_trial","516","1644207","0.0-273.0-0.0","298.2000000476837","","","","49","0,1,0","5","highway","213","probe-21","0.29180875265173967","0.4459952016332153","0.1708091843262025","0","","","","","","","",""
"","html-keyboard-response","517","1645220","0.0-273.0-1.0","null","<p></p>","null","","","","","","","","","","","","","","","","","","",""
"","do_trial","518","1650180","0.0-274.0-0.0","377","","","","50","1,0,1","5","highway","214","probe-164","0.3513526316707465","0.617386192440751","0.2038573131835261","0","","","","","","","",""
"","html-keyboard-response","519","1651183","0.0-274.0-1.0","null","<p></p>","null","","","","","","","","","","","","","","","","","","",""
"","do_trial","520","1656730","0.0-275.0-0.0","973.8999999761581","","","","50","0,0,1","5","highway","215","probe-92","0.3847942679574322","0.7190973770165185","0.177830537644404","0","","","","","","","",""
"","html-keyboard-response","521","1657732","0.0-275.0-1.0","null","<p></p>","null","","","","","","","","","","","","","","","","","","",""
"","do_trial","522","1662618","0.0-276.0-0.0","307.7999999523163","","","","51","0,1,0","5","highway","216","probe-89","0.4548239368374587","0.5245398410269","0.11961375618434758","0","","","","","","","",""
"","html-keyboard-response","523","1663631","0.0-276.0-1.0","null","<p></p>","null","","","","","","","","","","","","","","","","","","",""
"","do_trial","524","1668474","0.0-277.0-0.0","271.39999997615814","","","","51","0,0,0","5","highway","217","probe-61","0.3108081585241356","0.5176627413839556","0.05129569129676523","0","","","","","","","",""
"","html-keyboard-response","525","1669476","0.0-277.0-1.0","null","<p></p>","null","","","","","","","","","","","","","","","","","","",""
"","do_trial","526","1674522","0.0-278.0-0.0","470.2999999523163","","","","51","0,0,0","5","highway","218","probe-05","0.3339713145237458","0.47678964934078716","0.06601860974466539","0","","","","","","","",""
"","html-keyboard-response","527","1675524","0.0-278.0-1.0","null","<p></p>","null","","","","","","","","","","","","","","","","","","",""
"","do_trial","528","1680419","0.0-279.0-0.0","313.10000002384186","","","","51","0,1,0","5","highway","219","probe-60","0.21949518098241705","0.5643550397907037","0.13088612779449352","0","","","","","","","",""
"","html-keyboard-response","529","1681423","0.0-279.0-1.0","null","<p></p>","null","","","","","","","","","","","","","","","","","","",""
"","do_trial","530","1686244","0.0-280.0-0.0","237.80000007152557","","","","49","0,0,0","5","highway","220","probe-29","0.16021604944611556","0.6686000613675468","0.09887555305703657","0","","","","","","","",""
"","html-keyboard-response","531","1687247","0.0-280.0-1.0","null","<p></p>","null","","","","","","","","","","","","","","","","","","",""
