"success","trial_type","trial_index","time_elapsed","internal_node_id","rt","stimulus","key_press","subject_id","participant_id","age","gender","prompt","response","choice_outcomes","context_n","context_img_id","trial_n","probe_img_id","pR_red","pR_white","pR_black","outcome","contextArray_ind","validImageProbes","invalidImageProbes","pRew_Red","pRew_White","pRew_Black","availableForMemProbe","choice_blocks"
"true","fullscreen","0","3050","0.0-0.0","","","","","","","","","","","","","","","","","","","","","","","","","",""
"","pavlovia","1","3055","0.0-1.0","","","","","","","","","","","","","","","","","","","","","","","","","",""
"","instruc1","2","59161","0.0-2.0","null","run_exp/static/audio/clip_1_welcome.m4a","null","61","73","11","Female","<div class='center'><p>Welcome! This is the first part of the experiment. It will last ~30 minutes. In this experiment, you are the head captain of a pirate ship traveling around the world to different islands. You will play a few different games during this experiment. Here is an overview of these games:</p><br><p>Part 1 (today)</p><p>1. Instructions, practice game, and quiz</p><p>2. Pick a pirate game on 6 different islands</p><br><p>Part 2 (1 day later)</p><p>3. Pick a pirate game and memory game</p><p>4. Where did I see this ship? game</p><p>5. Which pirate was the best? game</p><br><p>Part 3 (1 week later)</p><p>6. Alien space mining game</p><p>7. Memory game</p></div>","","","","","","","","","","","","","","","","","",""
"","html-keyboard-response","3","60609","0.0-3.0","1444.9000000953674","<div class='center'><p>Welcome! This is the first part of the experiment. It will last ~30 minutes. In this experiment, you are the head captain of a pirate ship traveling around the world to different islands. You will play a few different games during this experiment. Here is an overview of these games:</p><br><p>Part 1 (today)</p><p>1. Instructions, practice game, and quiz</p><p>2. Pick a pirate game on 6 different islands</p><br><p>Part 2 (1 day later)</p><p>3. Pick a pirate game and memory game</p><p>4. Where did I see this ship? game</p><p>5. Which pirate was the best? game</p><br><p>Part 3 (1 week later)</p><p>6. Alien space mining game</p><p>7. Memory game</p><p><b>[Press the space bar to continue]</b></p></div>","32","","","","","","","","","","","","","","","","","","","","","","",""
"","instruc2","4","68900","0.0-4.0","null","run_exp/static/audio/clip_2_different_places.m4a","null","","","","","<div class='center'><p>Today, you’ll visit these 6 islands on your journey. You'll be able to see these islands from your ship.</p><p><img src='run_exp/static/images/contexts/all_contexts.png' height='500'></p></div>","","","","","","","","","","","","","","","","","",""
"","html-keyboard-response","5","82935","0.0-5.0","14031.600000143051","<div class='center'><p>Today, you’ll visit these 6 islands on your journey. You'll be able to see these islands from your ship.</p><p><img src='run_exp/static/images/contexts/all_contexts.png' height='500'></p><p><b>[Press the space bar to continue]</b></p></div>","32","","","","","","","","","","","","","","","","","","","","","","",""
"","instruc3","6","95524","0.0-6.0","null","run_exp/static/audio/clip_3_goal_of_game_1.m4a","null","","","","","<div class='center'><p> The pirates on your ship will rob other ships as they leave the island</p> These ships have just sold their things to people on the island, so they will be filled with lots and lots of gold.</p><p><img src='run_exp/static/images/tutorial/ship_center.png' height='400'></p></div>","","","","","","","","","","","","","","","","","",""
"","html-keyboard-response","7","97057","0.0-7.0","1528.3999998569489","<div class='center'><p> The pirates on your ship will rob other ships as they leave the island</p> These ships have just sold their things to people on the island, so they will be filled with lots and lots of gold.</p><p><img src='run_exp/static/images/tutorial/ship_center.png' height='400'></p><p><b>[Press the space bar to continue]</b></p></div>","32","","","","","","","","","","","","","","","","","","","","","","",""
"","instruc4","8","130304","0.0-8.0","null","run_exp/static/audio/clip_4_goal_of_game_2.m4a","null","","","","","<div class='center'><p>As the head captain, you do not have to rob any ships yourself.</p><p>Another pirate will be doing the robbing for you. </p><p>First, you will  choose a pirate to rob the next ship.</p><p><img src='run_exp/static/images/tutorial/pirates_all_crop.png' height='200'></p><p>Then, you'll see if the pirate successfully robbed the ship of their gold. If they were successful, then you'll  get a stack of gold coins like this:</p><p><img src='run_exp/static/images/tutorial/reward.png' height='150'></p><p> If they were <b>not</b> successful, then you'll get no gold coins, and you'll see a big red x like this: </p><p><img src='run_exp/static/images/tutorial/reward_no.png' height='150'></p><p> How much bonus money you make is based on how many gold coins you collect.</p><div>","","","","","","","","","","","","","","","","","",""
"","html-keyboard-response","9","132589","0.0-9.0","2281.2999999523163","<div class='center'><p>As the head captain, you do not have to rob any ships yourself.</p><p>Another pirate will be doing the robbing for you. </p><p>First, you will  choose a pirate to rob the next ship.</p><p><img src='run_exp/static/images/tutorial/pirates_all_crop.png' height='200'></p><p>Then, you'll see if the pirate successfully robbed the ship of their gold. If they were successful, then you'll  get a stack of gold coins like this:</p><p><img src='run_exp/static/images/tutorial/reward.png' height='150'></p><p> If they were <b>not</b> successful, then you'll get no gold coins, and you'll see a big red x like this: </p><p><img src='run_exp/static/images/tutorial/reward_no.png' height='150'></p><p> How much bonus money you make is based on how many gold coins you collect.</p<p><b>[Press the space bar to continue]</b></p></div>","32","","","","","","","","","","","","","","","","","","","","","","",""
"","instruc5","10","160867","0.0-10.0","28276.39999985695","run_exp/static/audio/clip_5_probabilistic.m4a","49","","","","","<div class='center'><p>Even the most skilled pirate can not rob EVERY ship.</p><p> Some ships will have very strong protections against pirate attacks.</p><p> Blue beard, here, is very, very good at robbing ships, but he won't be successful every time he tries to rob one.</p><p> You can press the <b>‘1’</b> key on the keyboard to choose him.</p><p> Try choosing him 10 times to see how often he succeeds at robbing a ship. </p><p><img src='run_exp/static/images/tutorial/blue.png' height='500'></p></div>","","","","","","","","","","","","","","","","","",""
"","html-keyboard-response","11","162369","0.0-11.0","null","<div class='center'><p><img src='run_exp/static/images/tutorial/blue_win.png' height='500'></p></div>","null","","","","","","","","","","","","","","","","","","","","","","",""
"","html-keyboard-response","12","163987","0.0-12.0","1615.8999998569489","<div class='center'><img src='run_exp/static/images/tutorial/blue.png' height='500'></p></div>","49","","","","","","","","","","","","","","","","","","","","","","",""
"","html-keyboard-response","13","165489","0.0-13.0","null","<div class='center'><p><img src='run_exp/static/images/tutorial/blue_win.png' height='500'></p></div>","null","","","","","","","","","","","","","","","","","","","","","","",""
"","html-keyboard-response","14","165937","0.0-14.0","446.7000000476837","<div class='center'><img src='run_exp/static/images/tutorial/blue.png' height='500'></p></div>","49","","","","","","","","","","","","","","","","","","","","","","",""
"","html-keyboard-response","15","167439","0.0-15.0","null","<div class='center'><p><img src='run_exp/static/images/tutorial/blue_win.png' height='500'></p></div>","null","","","","","","","","","","","","","","","","","","","","","","",""
"","html-keyboard-response","16","167797","0.0-16.0","355","<div class='center'><img src='run_exp/static/images/tutorial/blue.png' height='500'></p></div>","49","","","","","","","","","","","","","","","","","","","","","","",""
"","html-keyboard-response","17","169298","0.0-17.0","null","<div class='center'><p><img src='run_exp/static/images/tutorial/blue_no_win.png' height='500'></p></div>","null","","","","","","","","","","","","","","","","","","","","","","",""
"","html-keyboard-response","18","169809","0.0-18.0","509","<div class='center'><img src='run_exp/static/images/tutorial/blue.png' height='500'></p></div>","49","","","","","","","","","","","","","","","","","","","","","","",""
"","html-keyboard-response","19","171310","0.0-19.0","null","<div class='center'><p><img src='run_exp/static/images/tutorial/blue_win.png' height='500'></p></div>","null","","","","","","","","","","","","","","","","","","","","","","",""
"","html-keyboard-response","20","171677","0.0-20.0","365.09999990463257","<div class='center'><img src='run_exp/static/images/tutorial/blue.png' height='500'></p></div>","49","","","","","","","","","","","","","","","","","","","","","","",""
"","html-keyboard-response","21","173179","0.0-21.0","null","<div class='center'><p><img src='run_exp/static/images/tutorial/blue_win.png' height='500'></p></div>","null","","","","","","","","","","","","","","","","","","","","","","",""
"","html-keyboard-response","22","173517","0.0-22.0","336.89999985694885","<div class='center'><img src='run_exp/static/images/tutorial/blue.png' height='500'></p></div>","49","","","","","","","","","","","","","","","","","","","","","","",""
"","html-keyboard-response","23","175019","0.0-23.0","null","<div class='center'><p><img src='run_exp/static/images/tutorial/blue_win.png' height='500'></p></div>","null","","","","","","","","","","","","","","","","","","","","","","",""
"","html-keyboard-response","24","175357","0.0-24.0","336.5","<div class='center'><img src='run_exp/static/images/tutorial/blue.png' height='500'></p></div>","49","","","","","","","","","","","","","","","","","","","","","","",""
"","html-keyboard-response","25","176860","0.0-25.0","null","<div class='center'><p><img src='run_exp/static/images/tutorial/blue_no_win.png' height='500'></p></div>","null","","","","","","","","","","","","","","","","","","","","","","",""
"","html-keyboard-response","26","177217","0.0-26.0","355.2999999523163","<div class='center'><img src='run_exp/static/images/tutorial/blue.png' height='500'></p></div>","49","","","","","","","","","","","","","","","","","","","","","","",""
"","html-keyboard-response","27","178720","0.0-27.0","null","<div class='center'><p><img src='run_exp/static/images/tutorial/blue_win.png' height='500'></p></div>","null","","","","","","","","","","","","","","","","","","","","","","",""
"","html-keyboard-response","28","179257","0.0-28.0","535.5","<div class='center'><img src='run_exp/static/images/tutorial/blue.png' height='500'></p></div>","49","","","","","","","","","","","","","","","","","","","","","","",""
"","html-keyboard-response","29","180758","0.0-29.0","null","<div class='center'><p><img src='run_exp/static/images/tutorial/blue_win.png' height='500'></p></div>","null","","","","","","","","","","","","","","","","","","","","","","",""
"","instruc6","30","187482","0.0-30.0","null","run_exp/static/audio/clip_6_blue_beard_outcome.m4a","null","","","","","<div class='center'><p> See, he succeeded in robbing the ships most of the time but not every time. </p></div>","","","","","","","","","","","","","","","","","",""
"","html-keyboard-response","31","188308","0.0-31.0","824.1000001430511","<div class='center'><p> See, he succeeded in robbing the ships most of the time but not every time. </p><p><b>[Press the space bar to continue]</b></p></div>","32","","","","","","","","","","","","","","","","","","","","","","",""
"","audio-keyboard-response","32","194120","0.0-32.0","5808.199999809265","run_exp/static/audio/clip_7_pick_pirate.m4a","49","","","","","","","","","","","","","","","","","","","","","","",""
"","audio-keyboard-response","33","196288","0.0-33.0-0.0","2163.899999856949","run_exp/static/audio/clip_8_chosen_pirate_win.m4a","32","","","","","","","","","","","","","","","","","","","","","","",""
"","audio-keyboard-response","34","197247","0.0-33.0-1.0","954.8000001907349","run_exp/static/audio/clip_9_pick_a_pirate_again.m4a","50","","","","","","","","","","","","","","","","","","","","","","",""
"","audio-keyboard-response","35","198374","0.0-34.0-0.0","1123.0999999046326","run_exp/static/audio/clip_10_chosen_pirate_loss.m4a","32","","","","","","","","","","","","","","","","","","","","","","",""
"","instruc9","36","205542","0.0-35.0-0.0","null","run_exp/static/audio/clip_11_time_out.m4a","null","","","","","<div class='center'><p>If you don’t make your choice fast enough, you’ll have to wait a few seconds before you can make another one. </p><p><img src='run_exp/static/images/miscellaneous/hurry_up.png' height='500'></p></div>","","","","","","","","","","","","","","","","","",""
"","html-keyboard-response","37","206458","0.0-35.0-1.0","913.5","<div class='center'><p>If you don’t make your choice fast enough, you’ll have to wait a few seconds before you can make another one. </p><p><img src='run_exp/static/images/miscellaneous/hurry_up.png' height='500'></p><p><b>[Press the space bar to continue]</b></p></div>","32","","","","","","","","","","","","","","","","","","","","","","",""
"","instruc10","38","255102","0.0-35.0-2.0","null","run_exp/static/audio/clip_12_probe.m4a","null","","","","","<div class='center'><p>Once you've choose a pirate, you’ll be shown the ship they are robbing.</p><p>You will never rob the same ship twice. After all, ships that have already been robbed won’t have gold on them. </p><p>Ships can be told apart from one another by the image on them. See, this one has a travel mug on it. </p><p> You’ll have to remember which island you saw each ship on.You will win more bonus money if you remember correctly! To help you remember, you can imagine a story. For example, here, you could imagine a mug full of water in the desert. Or, as another example, if on the forest island, your pirate robbed a ship with an apple on it, you could imagine an apple falling from a tree in the forest. </p><p><img src='run_exp/static/images/tutorial/example_probe.png' height='500'></p></div>","","","","","","","","","","","","","","","","","",""
"","html-keyboard-response","39","256886","0.0-35.0-3.0","1780.8999998569489","<div class='center'><p>Once you've choose a pirate, you’ll be shown the ship they are robbing.</p><p>You will never rob the same ship twice. After all, ships that have already been robbed won’t have gold on them. </p><p>Ships can be told apart from one another by the image on them. See, this one has a travel mug on it. </p><p> You’ll have to remember which island you saw each ship on.You will win more bonus money if you remember correctly! To help you remember, you can imagine a story. For example, here, you could imagine a mug full of water in the desert. Or, as another example, if on the forest island, your pirate robbed a ship with an apple on it, you could imagine an apple falling from a tree in the forest. </p><p><img src='run_exp/static/images/tutorial/example_probe.png' height='500'></p><p><b>[Press the space bar to continue]</b></p></div>","32","","","","","","","","","","","","","","","","","","","","","","",""
"","instruc11","40","277802","0.0-35.0-4.0","null","run_exp/static/audio/clip_13_changepoint.m4a","null","","","","","<div class='center'><p>How successful a pirate is at robbing ships will depend on the island you’re on.</p><p> A pirate may have visited this island many times before and gained a lot of practice robbing ships there.</p><p>So, they’re more likely to be successful than a pirate who has never visited the island before.</p></div>","","","","","","","","","","","","","","","","","",""
"","html-keyboard-response","41","278446","0.0-35.0-5.0","641.1999998092651","<div class='center'><p>How successful a pirate is at robbing ships will depend on the island you’re on.</p><p> A pirate may have visited this island many times before and gained a lot of practice robbing ships there.</p><p>So, they’re more likely to be successful than a pirate who has never visited the island before.</p><p><b>[Press the space bar to continue]</b></p></div>","32","","","","","","","","","","","","","","","","","","","","","","",""
"","instruc12","42","306502","0.0-35.0-6.0","null","run_exp/static/audio/clip_14_drift.m4a","null","","","","","<div class='center'><p>How successful a pirate is at robbing ships can also change over the time spent on the island. </p><p> Ships may hear from islanders about the pirates coming and will improve their protections against the attack. This may make it harder to rob them.</p><p> Ships may also become lazy and weaken the strength of their protections. This may make it easier to rob them.</p><br><p>Things are always changing on the high seas! So, try your best to pay attention!</p><p><img src='run_exp/static/images/tutorial/contingency.png' height='500'></p></div>","","","","","","","","","","","","","","","","","",""
"","html-keyboard-response","43","306892","0.0-35.0-7.0","386.90000009536743","<div class='center'><p>How successful a pirate is at robbing ships can also change over the time spent on the island. </p><p> Ships may hear from islanders about the pirates coming and will improve their protections against the attack. This may make it harder to rob them.</p><p> Ships may also become lazy and weaken the strength of their protections. This may make it easier to rob them.</p><br><p>Things are always changing on the high seas! So, try your best to pay attention!</p><p><img src='run_exp/static/images/tutorial/contingency.png' height='500'></p><p><b>[Press the space bar to continue]</b></p></div>","32","","","","","","","","","","","","","","","","","","","","","","",""
"","instruc13","44","351582","0.0-35.0-8.0","null","run_exp/static/audio/clip_15_summary.m4a","null","","","","","<div class='center'><p>Let's go over the instructions quickly again. You have two important things to do: </p><b><p> 1. Pick the pirate who is the best at robbing ships on the current island. This way you'll collect more gold coins!</p></b><b><p> 2. Remember on which island a ship was robbed.</p> </b><p>The amount of bonus money you can win depends on both.</p><p><br><p>Let’s try a practice game. The game will start by showing you the pirates. First, pick a pirate using the <b> 1, 2, 3 </b> keys on your keyboard. When you are shown a ship, try to remember which island you’re on by making up a story.</p><p>This is just a practice game, so you’re not playing for money. </p><p> Good luck!</p></div>","","","","","","","","","","","","","","","","","",""
"","html-keyboard-response","45","352488","0.0-35.0-9.0","903.3999998569489","<div class='center'><p>Let's go over the instructions quickly again. You have two important things to do: </p><b><p> 1. Pick the pirate who is the best at robbing ships on the current island. This way you'll collect more gold coins!</p></b><b><p> 2. Remember on which island a ship was robbed.</p> </b><p>The amount of bonus money you can win depends on both.</p><p><br><p>Let’s try a practice game. The game will start by showing you the pirates. First, pick a pirate using the <b> 1, 2, 3 </b> keys on your keyboard. When you are shown a ship, try to remember which island you’re on by making up a story.</p><p>This is just a practice game, so you’re not playing for money. </p><p> Good luck!</p><p><b>[Press the space bar to continue]</b></p></div>","32","","","","","","","","","","","","","","","","","","","","","","",""
"","do_welcome","46","353996","0.0-35.0-10.0","null","","","","","","","","null","","","","","","","","","","","","","","","","",""
"","do_trial","47","360049","0.0-35.0-11.0","1544.7999999523163","","","","","","","","49","1,0,0","","","","","","","","","","","","","","","",""
"","html-keyboard-response","48","361052","0.0-36.0-0.0","null","<p></p>","null","","","","","","","","","","","","","","","","","","","","","","",""
"","do_trial","49","366757","0.0-36.0-1.0","1197.2000000476837","","","","","","","","50","1,1,0","","","","","","","","","","","","","","","",""
"","html-keyboard-response","50","367759","0.0-37.0-0.0","null","<p></p>","null","","","","","","","","","","","","","","","","","","","","","","",""
"","do_trial","51","372930","0.0-37.0-1.0","660.9000000953674","","","","","","","","51","1,0,1","","","","","","","","","","","","","","","",""
"","html-keyboard-response","52","373933","0.0-38.0-0.0","null","<p></p>","null","","","","","","","","","","","","","","","","","","","","","","",""
"","do_trial","53","379146","0.0-38.0-1.0","704.7000000476837","","","","","","","","49","0,1,0","","","","","","","","","","","","","","","",""
"","html-keyboard-response","54","380148","0.0-39.0-0.0","null","<p></p>","null","","","","","","","","","","","","","","","","","","","","","","",""
"","do_trial","55","385671","0.0-39.0-1.0","1013.9000000953674","","","","","","","","49","1,0,0","","","","","","","","","","","","","","","",""
"","do_bye","56","387176","0.0-40.0-0.0","null","","","","","","","","null","","","","","","","","","","","","","","","","",""
"","do_travel","57","393179","0.0-40.0-1.0","null","","","","","","","","null","","","","","","","","","","","","","","","","",""
"","do_welcome","58","394685","0.0-40.0-2.0","null","","","","","","","","null","","","","","","","","","","","","","","","","",""
"","do_trial","59","400722","0.0-40.0-3.0","1529.2999999523163","","","","","","","","49","1,0,0","","","","","","","","","","","","","","","",""
"","html-keyboard-response","60","401724","0.0-41.0-0.0","null","<p></p>","null","","","","","","","","","","","","","","","","","","","","","","",""
"","do_trial","61","406682","0.0-41.0-1.0","450.7000000476837","","","","","","","","50","1,0,1","","","","","","","","","","","","","","","",""
"","html-keyboard-response","62","407685","0.0-42.0-0.0","null","<p></p>","null","","","","","","","","","","","","","","","","","","","","","","",""
"","do_trial","63","412757","0.0-42.0-1.0","564.4000000953674","","","","","","","","50","1,1,0","","","","","","","","","","","","","","","",""
"","html-keyboard-response","64","413759","0.0-43.0-0.0","null","<p></p>","null","","","","","","","","","","","","","","","","","","","","","","",""
"","do_trial","65","418672","0.0-43.0-1.0","405.2999999523163","","","","","","","","51","0,0,1","","","","","","","","","","","","","","","",""
"","html-keyboard-response","66","419673","0.0-44.0-0.0","null","<p></p>","null","","","","","","","","","","","","","","","","","","","","","","",""
"","do_trial","67","426417","0.0-44.0-1.0","2236.699999809265","","","","","","","","51","1,0,1","","","","","","","","","","","","","","","",""
"","html-keyboard-response","68","435497","0.0-45.0-0.0","9077.600000143051","<div class='center'><p><img src='run_exp/static/images/tutorial/prac_best_pirate.png'  height='500'></p></div>","51","","","","","","","","","","","","","","","","","","","","","","",""
"","html-keyboard-response","69","436600","0.0-46.0-0.0","1100.9000000953674","<div class='center'><p>That's incorrect! Red beard was the best.</p><p><b>[Press the space bar to continue]</b></p></div>","32","","","","","","","","","","","","","","","","","","","","","","",""
"","html-keyboard-response","70","439680","0.0-46.0-1.0","3079.0999999046326","<div class='center'><p><img src='run_exp/static/images/tutorial/prac_source.png'  height='500'></p></div>","50","","","","","","","","","","","","","","","","","","","","","","",""
"","html-keyboard-response","71","440701","0.0-47.0-0.0","1019.0999999046326","<div class='center'><p>That's correct! You saw this ship on the cavern island.</p><p><b>[Press the space bar to continue]</b></p></div>","32","","","","","","","","","","","","","","","","","","","","","","",""
"","quiz_beginning","72","454785","0.0-47.0-1.0","null","run_exp/static/audio/clip_16_quiz_intro.m4a","null","","","","","<div class='center'><p>Good job on the practice game! Now, you will be asked some true or false questions to make sure you really understand the rules of the game.</p><p> Press <b>'1'</b> on the keyboard for true and press <b>'2'</b> for false.</p></div>","","","","","","","","","","","","","","","","","",""
"","audio-keyboard-response","73","464122","0.0-47.0-2.0","9335","run_exp/static/audio/clip_17_q1.m4a","49","","","","","","","","","","","","","","","","","","","","","","",""
"","q1_err","74","471765","0.0-48.0-0.0","null","run_exp/static/audio/clip_19_wrong_q1.m4a","null","","","","","<div class='center'><p>That’s incorrect! You win bonus money by collecting as many gold coins as possible!</p></div>","","","","","","","","","","","","","","","","","",""
"","html-keyboard-response","75","473431","0.0-48.0-1.0","1665.1000001430511","<div class='center'><p>That’s incorrect! You win bonus money by collecting as many gold coins as possible!</p><p><b>[Press the space bar to continue]</b></p></div>","32","","","","","","","","","","","","","","","","","","","","","","",""
"","audio-keyboard-response","76","477713","0.0-48.0-2.0","4280.600000143051","run_exp/static/audio/clip_20_q2.m4a","50","","","","","","","","","","","","","","","","","","","","","","",""
"","correct","77","480705","0.0-49.0-0.0","null","run_exp/static/audio/clip_18_correct.m4a","null","","","","","<div class='center'><p>That's correct!</p></div>","","","","","","","","","","","","","","","","","",""
"","html-keyboard-response","78","481662","0.0-49.0-1.0","955.9000000953674","<div class='center'><p>That's correct!</p><p><b>[Press the space bar to continue]</b></p></div>","32","","","","","","","","","","","","","","","","","","","","","","",""
"","audio-keyboard-response","79","490074","0.0-49.0-2.0","8410.400000095367","run_exp/static/audio/clip_22_q3.m4a","50","","","","","","","","","","","","","","","","","","","","","","",""
"","correct","80","493044","0.0-50.0-0.0","null","run_exp/static/audio/clip_18_correct.m4a","null","","","","","<div class='center'><p>That's correct!</p></div>","","","","","","","","","","","","","","","","","",""
"","html-keyboard-response","81","493853","0.0-50.0-1.0","807.3000001907349","<div class='center'><p>That's correct!</p><p><b>[Press the space bar to continue]</b></p></div>","32","","","","","","","","","","","","","","","","","","","","","","",""
"","audio-keyboard-response","82","497823","0.0-50.0-2.0","3968.2000000476837","run_exp/static/audio/clip_24_q4.m4a","49","","","","","","","","","","","","","","","","","","","","","","",""
"","correct","83","500805","0.0-51.0-0.0","null","run_exp/static/audio/clip_18_correct.m4a","null","","","","","<div class='center'><p>That's correct!</p></div>","","","","","","","","","","","","","","","","","",""
"","html-keyboard-response","84","501934","0.0-51.0-1.0","1128","<div class='center'><p>That's correct!</p><p><b>[Press the space bar to continue]</b></p></div>","32","","","","","","","","","","","","","","","","","","","","","","",""
"","q_all_err","85","509505","0.0-52.0-0.0","null","run_exp/static/audio/clip_26_quiz_redo.m4a","null","","","","","<div class='center'><p>Oops, you missed some questions. Now that you’ve heard the correct answers. Try the quiz again! </p></div>","","","","","","","","","","","","","","","","","",""
"","html-keyboard-response","86","510643","0.0-52.0-1.0","1136.3999998569489","<div class='center'><p>Oops, you missed some questions. Now that you’ve heard the correct answers. Try the quiz again! </p><p><b>[Press the space bar to continue]</b></p></div>","32","","","","","","","","","","","","","","","","","","","","","","",""
"","audio-keyboard-response","87","513079","0.0-52.0-2.0","2435.0999999046326","run_exp/static/audio/clip_17_q1.m4a","50","","","","","","","","","","","","","","","","","","","","","","",""
"","correct","88","516065","0.0-53.0-0.0","null","run_exp/static/audio/clip_18_correct.m4a","null","","","","","<div class='center'><p>That's correct!</p></div>","","","","","","","","","","","","","","","","","",""
"","html-keyboard-response","89","517222","0.0-53.0-1.0","1156.3000001907349","<div class='center'><p>That's correct!</p><p><b>[Press the space bar to continue]</b></p></div>","32","","","","","","","","","","","","","","","","","","","","","","",""
"","audio-keyboard-response","90","519173","0.0-53.0-2.0","1949","run_exp/static/audio/clip_20_q2.m4a","50","","","","","","","","","","","","","","","","","","","","","","",""
"","correct","91","522145","0.0-54.0-0.0","null","run_exp/static/audio/clip_18_correct.m4a","null","","","","","<div class='center'><p>That's correct!</p></div>","","","","","","","","","","","","","","","","","",""
"","html-keyboard-response","92","523194","0.0-54.0-1.0","1048.2999999523163","<div class='center'><p>That's correct!</p><p><b>[Press the space bar to continue]</b></p></div>","32","","","","","","","","","","","","","","","","","","","","","","",""
"","audio-keyboard-response","93","525793","0.0-54.0-2.0","2596.4000000953674","run_exp/static/audio/clip_22_q3.m4a","50","","","","","","","","","","","","","","","","","","","","","","",""
"","correct","94","528765","0.0-55.0-0.0","null","run_exp/static/audio/clip_18_correct.m4a","null","","","","","<div class='center'><p>That's correct!</p></div>","","","","","","","","","","","","","","","","","",""
"","html-keyboard-response","95","529673","0.0-55.0-1.0","907.7999999523163","<div class='center'><p>That's correct!</p><p><b>[Press the space bar to continue]</b></p></div>","32","","","","","","","","","","","","","","","","","","","","","","",""
"","audio-keyboard-response","96","531723","0.0-55.0-2.0","2048.2999999523163","run_exp/static/audio/clip_24_q4.m4a","49","","","","","","","","","","","","","","","","","","","","","","",""
"","correct","97","534785","0.0-56.0-0.0","null","run_exp/static/audio/clip_18_correct.m4a","null","","","","","<div class='center'><p>That's correct!</p></div>","","","","","","","","","","","","","","","","","",""
"","html-keyboard-response","98","536155","0.0-56.0-1.0","1369.1000001430511","<div class='center'><p>That's correct!</p><p><b>[Press the space bar to continue]</b></p></div>","32","","","","","","","","","","","","","","","","","","","","","","",""
"","q_all_corr","99","543145","0.0-57.0-0.0","null","run_exp/static/audio/clip_27_quiz_all_correct.m4a","null","","","","","<div class='center'><p>Good job! You’re now ready to move on to the real game!</p></div>","","","","","","","","","","","","","","","","","",""
"","html-keyboard-response","100","544434","0.0-57.0-1.0","1287.9000000953674","<div class='center'><p>Good job! You’re now ready to move on to the real game!</p><p><b>[Press the space bar to continue]</b></p></div>","32","","","","","","","","","","","","","","","","","","","","","","",""
"","do_welcome","101","545942","0.0-58.0-0.0","null","","","","","","","","null","","","","","","","","","","","","","","","","",""
"","do_trial","102","552166","0.0-59.0-0.0","1650.9000000953674","","","","","","","","49","1,0,0","0","highway","0","probe-02","0.6","0.3","0.1","1","","","","","","","",""
"","html-keyboard-response","103","553169","0.0-59.0-1.0","null","<p></p>","null","","","","","","","","","","","","","","","","","","","","","","",""
"","do_trial","104","558685","0.0-60.0-0.0","933.2000000476837","","","","","","","","49","1,0,0","0","highway","1","probe-121","0.6193905715323091","0.26499478112158287","0.0892938935903928","1","","","","","","","",""
"","html-keyboard-response","105","559687","0.0-60.0-1.0","null","<p></p>","null","","","","","","","","","","","","","","","","","","","","","","",""
"","do_trial","106","565196","0.0-61.0-0.0","934.0999999046326","","","","","","","","49","0,1,0","0","highway","2","probe-151","0.5683545361165541","0.26822820002598446","0.08263960408220461","0","","","","","","","",""
"","html-keyboard-response","107","566198","0.0-61.0-1.0","null","<p></p>","null","","","","","","","","","","","","","","","","","","","","","","",""
"","do_trial","108","571505","0.0-62.0-0.0","743.0999999046326","","","","","","","","49","1,1,0","0","highway","3","probe-78","0.7050310286816578","0.3124858318034409","0.12523163959630845","1","","","","","","","",""
"","html-keyboard-response","109","572507","0.0-62.0-1.0","null","<p></p>","null","","","","","","","","","","","","","","","","","","","","","","",""
"","do_trial","110","577495","0.0-63.0-0.0","409.40000009536743","","","","","","","","49","1,0,0","0","highway","4","probe-29","0.5233396020776615","0.28233301355671225","0.15873538874236523","1","","","","","","","",""
"","html-keyboard-response","111","578498","0.0-63.0-1.0","null","<p></p>","null","","","","","","","","","","","","","","","","","","","","","","",""
"","do_trial","112","583975","0.0-64.0-0.0","919.9000000953674","","","","","","","","50","1,0,1","0","highway","5","probe-60","0.7041901827749125","0.2613514689997166","0.19458730955830672","0","","","","","","","",""
"","html-keyboard-response","113","584977","0.0-64.0-1.0","null","<p></p>","null","","","","","","","","","","","","","","","","","","","","","","",""
"","do_trial","114","590411","0.0-65.0-0.0","860.3000001907349","","","","","","","","50","1,0,0","0","highway","6","probe-193","0.5210597435053652","0.28345086545029813","0.17070004769766564","0","","","","","","","",""
"","html-keyboard-response","115","591413","0.0-65.0-1.0","null","<p></p>","null","","","","","","","","","","","","","","","","","","","","","","",""
"","do_trial","116","597075","0.0-66.0-0.0","1077.4000000953674","","","","","","","","50","1,1,0","0","highway","7","probe-47","0.6975645981132682","0.3676628319420574","0.11282480714697644","1","","","","","","","",""
"","html-keyboard-response","117","598076","0.0-66.0-1.0","null","<p></p>","null","","","","","","","","","","","","","","","","","","","","","","",""
"","do_trial","118","603248","0.0-67.0-0.0","596.4000000953674","","","","","","","","50","0,1,1","0","highway","8","probe-63","0.6709104653140899","0.24656900746888802","0.24542558262751019","1","","","","","","","",""
"","html-keyboard-response","119","604250","0.0-67.0-1.0","null","<p></p>","null","","","","","","","","","","","","","","","","","","","","","","",""
"","do_trial","120","609586","0.0-68.0-0.0","765.8999998569489","","","","","","","","50","0,0,1","0","highway","9","probe-224","0.6560856838117927","0.12945359944839388","0.18599900100650266","0","","","","","","","",""
"","html-keyboard-response","121","610588","0.0-68.0-1.0","null","<p></p>","null","","","","","","","","","","","","","","","","","","","","","","",""
"","do_trial","122","616107","0.0-69.0-0.0","941.7999999523163","","","","","","","","51","0,1,0","0","highway","10","probe-48","0.6271562203762194","0.2905493798828207","0.14085819061413624","0","","","","","","","",""
"","html-keyboard-response","123","617109","0.0-69.0-1.0","null","<p></p>","null","","","","","","","","","","","","","","","","","","","","","","",""
"","do_trial","124","622608","0.0-70.0-0.0","929.5999999046326","","","","","","","","51","1,0,0","0","highway","11","probe-96","0.4997315654399197","0.10227067733441814","0.16860420169666124","0","","","","","","","",""
"","html-keyboard-response","125","623609","0.0-70.0-1.0","null","<p></p>","null","","","","","","","","","","","","","","","","","","","","","","",""
"","do_trial","126","628758","0.0-71.0-0.0","575.7000000476837","","","","","","","","51","1,0,0","0","highway","12","probe-212","0.546948842221602","0.09429156363191829","0.09592014599696955","0","","","","","","","",""
"","html-keyboard-response","127","629759","0.0-71.0-1.0","null","<p></p>","null","","","","","","","","","","","","","","","","","","","","","","",""
"","do_trial","128","635027","0.0-72.0-0.0","692.6000001430511","","","","","","","","49","1,0,0","0","highway","13","probe-71","0.5434355945876952","0.2361484224649562","0.13093796030120494","1","","","","","","","",""
"","html-keyboard-response","129","636029","0.0-72.0-1.0","null","<p></p>","null","","","","","","","","","","","","","","","","","","","","","","",""
"","do_trial","130","641178","0.0-73.0-0.0","563.7999999523163","","","","","","","","49","1,0,1","0","highway","14","probe-17","0.6420398813598955","0.17886667677911974","0.1100745281293728","1","","","","","","","",""
"","html-keyboard-response","131","642181","0.0-73.0-1.0","null","<p></p>","null","","","","","","","","","","","","","","","","","","","","","","",""
"","do_trial","132","647267","0.0-74.0-0.0","505.90000009536743","","","","","","","","49","1,0,0","0","highway","15","probe-27","0.6247688951062534","0.29940748388431576","0.051844731376210804","1","","","","","","","",""
"","html-keyboard-response","133","648270","0.0-74.0-1.0","null","<p></p>","null","","","","","","","","","","","","","","","","","","","","","","",""
"","do_trial","134","653402","0.0-75.0-0.0","559.7999999523163","","","","","","","","49","1,0,0","0","highway","16","probe-04","0.6415044439568145","0.32815000578892295","0.09585221430891261","1","","","","","","","",""
"","html-keyboard-response","135","654404","0.0-75.0-1.0","null","<p></p>","null","","","","","","","","","","","","","","","","","","","","","","",""
"","do_trial","136","659505","0.0-76.0-0.0","542.2999999523163","","","","","","","","49","1,0,0","0","highway","17","probe-99","0.5840738150919562","0.2050837414399535","0.08343598054377377","1","","","","","","","",""
"","html-keyboard-response","137","660508","0.0-76.0-1.0","null","<p></p>","null","","","","","","","","","","","","","","","","","","","","","","",""
"","do_trial","138","667705","0.0-77.0-0.0","2644.9000000953674","","","","","","","","49","0,1,1","0","highway","18","probe-215","0.6084421338744557","0.23633676428743286","0.22502820782637942","0","","","","","","","",""
"","html-keyboard-response","139","668707","0.0-77.0-1.0","null","<p></p>","null","","","","","","","","","","","","","","","","","","","","","","",""
"","do_trial","140","673676","0.0-78.0-0.0","395.5","","","","","","","","49","1,1,0","0","highway","19","probe-165","0.6504626225636777","0.3547123483972008","0.18337841096723337","1","","","","","","","",""
"","html-keyboard-response","141","674679","0.0-78.0-1.0","null","<p></p>","null","","","","","","","","","","","","","","","","","","","","","","",""
"","do_trial","142","679639","0.0-79.0-0.0","395.7000000476837","","","","","","","","49","1,0,0","0","highway","20","probe-94","0.6855048199645397","0.40330789080845303","0.18397346234636572","1","","","","","","","",""
"","html-keyboard-response","143","680641","0.0-79.0-1.0","null","<p></p>","null","","","","","","","","","","","","","","","","","","","","","","",""
"","do_trial","144","685697","0.0-80.0-0.0","501.69999980926514","","","","","","","","49","1,0,0","0","highway","21","probe-106","0.699301792432562","0.360634564876842","0.1329531049045745","1","","","","","","","",""
"","html-keyboard-response","145","686699","0.0-80.0-1.0","null","<p></p>","null","","","","","","","","","","","","","","","","","","","","","","",""
"","do_trial","146","691699","0.0-81.0-0.0","443.2999999523163","","","","","","","","49","1,0,0","0","highway","22","probe-124","0.591726202900917","0.24151703025123067","0.16517200598282067","1","","","","","","","",""
"","html-keyboard-response","147","692701","0.0-81.0-1.0","null","<p></p>","null","","","","","","","","","","","","","","","","","","","","","","",""
"","do_trial","148","697758","0.0-82.0-0.0","487.7000000476837","","","","","","","","49","1,0,0","0","highway","23","probe-64","0.6549010826172602","0.3688831046052042","0.21958291941793956","1","","","","","","","",""
"","html-keyboard-response","149","698760","0.0-82.0-1.0","null","<p></p>","null","","","","","","","","","","","","","","","","","","","","","","",""
"","do_trial","150","703768","0.0-83.0-0.0","433.90000009536743","","","","","","","","49","0,1,0","0","highway","24","probe-22","0.6238168486713483","0.42196364204880127","0.2424117104716391","0","","","","","","","",""
"","html-keyboard-response","151","704770","0.0-83.0-1.0","null","<p></p>","null","","","","","","","","","","","","","","","","","","","","","","",""
"","do_trial","152","709908","0.0-84.0-0.0","566.6000001430511","","","","","","","","49","0,0,0","0","highway","25","probe-58","0.6935386407888738","0.4302353470269121","0.23550020841313035","0","","","","","","","",""
"","html-keyboard-response","153","710910","0.0-84.0-1.0","null","<p></p>","null","","","","","","","","","","","","","","","","","","","","","","",""
"","do_trial","154","715800","0.0-85.0-0.0","334","","","","","","","","49","0,0,1","0","highway","26","probe-37","0.5390467162955663","0.3640373635119037","0.1724959370662526","0","","","","","","","",""
"","html-keyboard-response","155","716802","0.0-85.0-1.0","null","<p></p>","null","","","","","","","","","","","","","","","","","","","","","","",""
"","do_trial","156","721757","0.0-86.0-0.0","381.2999999523163","","","","","","","","49","1,1,0","0","highway","27","probe-169","0.5433461982493857","0.3095313773887887","0.06056349648294839","1","","","","","","","",""
"","html-keyboard-response","157","722759","0.0-86.0-1.0","null","<p></p>","null","","","","","","","","","","","","","","","","","","","","","","",""
"","do_trial","158","727804","0.0-87.0-0.0","470.09999990463257","","","","","","","","49","0,0,0","0","highway","28","probe-10","0.2809380429417854","0.2670589871077671","0.05397179204140955","0","","","","","","","",""
"","html-keyboard-response","159","728805","0.0-87.0-1.0","null","<p></p>","null","","","","","","","","","","","","","","","","","","","","","","",""
"","do_trial","160","733907","0.0-88.0-0.0","526.0999999046326","","","","","","","","49","1,0,1","0","highway","29","probe-72","0.5368603482049337","0.31201101670550624","0.10154665161365803","1","","","","","","","",""
"","html-keyboard-response","161","734909","0.0-88.0-1.0","null","<p></p>","null","","","","","","","","","","","","","","","","","","","","","","",""
"","do_bye","162","736415","0.0-89.0-0.0","null","","","","","","","","null","","","","","","","","","","","","","","","","",""
"","do_travel","163","742418","0.0-90.0-0.0","null","","","","","","","","null","","","","","","","","","","","","","","","","",""
"","do_welcome","164","743925","0.0-90.0-1.0","null","","","","","","","","null","","","","","","","","","","","","","","","","",""
"","do_trial","165","749741","0.0-91.0-0.0","1196.3000001907349","","","","","","","","49","1,0,1","1","coast","30","probe-89","1","0.29889082629118846","0.07265623526149281","1","","","","","","","",""
"","html-keyboard-response","166","750743","0.0-91.0-1.0","null","<p></p>","null","","","","","","","","","","","","","","","","","","","","","","",""
"","do_trial","167","757170","0.0-92.0-0.0","1871.9000000953674","","","","","","","","50","1,0,0","1","coast","31","probe-185","1","0.34900523901191044","0.09848628911545411","0","","","","","","","",""
"","html-keyboard-response","168","758172","0.0-92.0-1.0","null","<p></p>","null","","","","","","","","","","","","","","","","","","","","","","",""
"","do_trial","169","763219","0.0-93.0-0.0","471.2000000476837","","","","","","","","51","1,0,0","1","coast","32","probe-117","1","0.2844423646467522","0.17241744165726694","0","","","","","","","",""
"","html-keyboard-response","170","764221","0.0-93.0-1.0","null","<p></p>","null","","","","","","","","","","","","","","","","","","","","","","",""
"","do_trial","171","770274","0.0-94.0-0.0","null","","","","","","","","null","1,1,0","1","coast","33","probe-202","0.8302549236825034","0.4153708432437906","0.10440169467126158","","","","","","","","",""
"","html-keyboard-response","172","771278","0.0-94.0-1.0","null","<p></p>","null","","","","","","","","","","","","","","","","","","","","","","",""
"","do_trial","173","776830","0.0-95.0-0.0","990.5999999046326","","","","","","","","49","1,1,0","1","coast","34","probe-95","0.6973586346686548","0.4898042225068211","0.1717772751684135","1","","","","","","","",""
"","html-keyboard-response","174","777832","0.0-95.0-1.0","null","<p></p>","null","","","","","","","","","","","","","","","","","","","","","","",""
"","do_trial","175","783259","0.0-96.0-0.0","854.1000001430511","","","","","","","","50","0,1,0","1","coast","35","probe-118","0.5972292141475998","0.5404425567890734","0.09964017997300285","1","","","","","","","",""
"","html-keyboard-response","176","784261","0.0-96.0-1.0","null","<p></p>","null","","","","","","","","","","","","","","","","","","","","","","",""
"","do_trial","177","789148","0.0-97.0-0.0","316.09999990463257","","","","","","","","51","1,0,0","1","coast","36","probe-127","0.6099825468302574","0.4374514978913258","0.08483395615707558","0","","","","","","","",""
"","html-keyboard-response","178","790150","0.0-97.0-1.0","null","<p></p>","null","","","","","","","","","","","","","","","","","","","","","","",""
"","do_trial","179","795029","0.0-98.0-0.0","307","","","","","","","","49","1,1,0","1","coast","37","probe-03","0.6955121392953807","0.37508560717156963","0.0656876210306445","1","","","","","","","",""
"","html-keyboard-response","180","796032","0.0-98.0-1.0","null","<p></p>","null","","","","","","","","","","","","","","","","","","","","","","",""
"","do_trial","181","801193","0.0-99.0-0.0","581.5","","","","","","","","49","0,0,1","1","coast","38","probe-163","0.6182905318613904","0.2987317212955527","0.20524706939648985","0","","","","","","","",""
"","html-keyboard-response","182","802195","0.0-99.0-1.0","null","<p></p>","null","","","","","","","","","","","","","","","","","","","","","","",""
"","do_trial","183","807180","0.0-100.0-0.0","407.7999999523163","","","","","","","","50","0,1,0","1","coast","39","probe-191","0.5051971377205535","0.39319380254132497","0.10150471052361448","1","","","","","","","",""
"","html-keyboard-response","184","808182","0.0-100.0-1.0","null","<p></p>","null","","","","","","","","","","","","","","","","","","","","","","",""
"","do_trial","185","813232","0.0-101.0-0.0","482.30000019073486","","","","","","","","50","1,0,0","1","coast","40","probe-83","0.4769014614631034","0.5506032587016906","0.103746642141559","0","","","","","","","",""
"","html-keyboard-response","186","814235","0.0-101.0-1.0","null","<p></p>","null","","","","","","","","","","","","","","","","","","","","","","",""
"","do_trial","187","819560","0.0-102.0-0.0","755.6000001430511","","","","","","","","50","1,1,0","1","coast","41","probe-19","0.45393845005188993","0.4542585892228672","0.20591722422033676","1","","","","","","","",""
"","html-keyboard-response","188","820563","0.0-102.0-1.0","null","<p></p>","null","","","","","","","","","","","","","","","","","","","","","","",""
"","do_trial","189","825711","0.0-103.0-0.0","578.5999999046326","","","","","","","","50","0,0,0","1","coast","42","probe-52","0.3266494011100361","0.4360111663836374","0.1469147111288975","0","","","","","","","",""
"","html-keyboard-response","190","826713","0.0-103.0-1.0","null","<p></p>","null","","","","","","","","","","","","","","","","","","","","","","",""
"","do_trial","191","831639","0.0-104.0-0.0","344.5","","","","","","","","50","1,0,0","1","coast","43","probe-132","0.24221698243516862","0.5624144872707432","0.20987086712024677","0","","","","","","","",""
"","html-keyboard-response","192","832642","0.0-104.0-1.0","null","<p></p>","null","","","","","","","","","","","","","","","","","","","","","","",""
"","do_trial","193","838182","0.0-105.0-0.0","977.2999999523163","","","","","","","","50","0,1,0","1","coast","44","probe-24","0.14822381366119347","0.7056726957943037","0.24758699980468277","1","","","","","","","",""
"","html-keyboard-response","194","839184","0.0-105.0-1.0","null","<p></p>","null","","","","","","","","","","","","","","","","","","","","","","",""
"","do_trial","195","845672","0.0-106.0-0.0","1918","","","","","","","","50","1,1,0","1","coast","45","probe-175","0.17523990857751578","0.663871610135742","0.3697731428765753","1","","","","","","","",""
"","html-keyboard-response","196","846674","0.0-106.0-1.0","null","<p></p>","null","","","","","","","","","","","","","","","","","","","","","","",""
"","do_trial","197","851563","0.0-107.0-0.0","319.60000014305115","","","","","","","","50","1,1,0","1","coast","46","probe-168","0.2547297450672078","0.6788339632873388","0.4636610316727368","1","","","","","","","",""
"","html-keyboard-response","198","852565","0.0-107.0-1.0","null","<p></p>","null","","","","","","","","","","","","","","","","","","","","","","",""
"","do_trial","199","857820","0.0-108.0-0.0","686.2999999523163","","","","","","","","50","1,1,1","1","coast","47","probe-80","0.08916594739005701","0.7690770370072006","0.441391237496716","1","","","","","","","",""
"","html-keyboard-response","200","858822","0.0-108.0-1.0","null","<p></p>","null","","","","","","","","","","","","","","","","","","","","","","",""
"","do_trial","201","863737","0.0-109.0-0.0","344.2000000476837","","","","","","","","50","1,0,1","1","coast","48","probe-56","0.23705651375623618","0.7839934860251252","0.4503140652271056","0","","","","","","","",""
"","html-keyboard-response","202","864739","0.0-109.0-1.0","null","<p></p>","null","","","","","","","","","","","","","","","","","","","","","","",""
"","do_trial","203","869871","0.0-110.0-0.0","557.7999999523163","","","","","","","","50","0,1,0","1","coast","49","probe-152","0.17829463423582895","0.7985874437063989","0.47231018185849977","1","","","","","","","",""
"","html-keyboard-response","204","870873","0.0-110.0-1.0","null","<p></p>","null","","","","","","","","","","","","","","","","","","","","","","",""
"","do_trial","205","876067","0.0-111.0-0.0","611.7000000476837","","","","","","","","50","0,0,0","1","coast","50","probe-38","0.07704160621145091","0.7467002069785288","0.44274374035662806","0","","","","","","","",""
"","html-keyboard-response","206","877070","0.0-111.0-1.0","null","<p></p>","null","","","","","","","","","","","","","","","","","","","","","","",""
"","do_trial","207","882251","0.0-112.0-0.0","612.0999999046326","","","","","","","","50","0,1,1","1","coast","51","probe-107","0.08853740080046006","0.701790817123322","0.48040507433135476","1","","","","","","","",""
"","html-keyboard-response","208","883254","0.0-112.0-1.0","null","<p></p>","null","","","","","","","","","","","","","","","","","","","","","","",""
"","do_trial","209","888174","0.0-113.0-0.0","352","","","","","","","","50","1,0,0","1","coast","52","probe-109","0.10199808204571975","0.6143998511665462","0.3765245689857582","0","","","","","","","",""
"","html-keyboard-response","210","889175","0.0-113.0-1.0","null","<p></p>","null","","","","","","","","","","","","","","","","","","","","","","",""
"","do_trial","211","894382","0.0-114.0-0.0","631.0999999046326","","","","","","","","50","0,0,0","1","coast","53","probe-154","0.06308411269317019","0.5704973913422111","0.37900847534388293","0","","","","","","","",""
"","html-keyboard-response","212","895385","0.0-114.0-1.0","null","<p></p>","null","","","","","","","","","","","","","","","","","","","","","","",""
"","do_trial","213","900393","0.0-115.0-0.0","437.59999990463257","","","","","","","","50","0,0,0","1","coast","54","probe-84","0.08611485569247847","0.6007911046126899","0.3658595124662725","0","","","","","","","",""
"","html-keyboard-response","214","901395","0.0-115.0-1.0","null","<p></p>","null","","","","","","","","","","","","","","","","","","","","","","",""
"","do_trial","215","906332","0.0-116.0-0.0","369.09999990463257","","","","","","","","51","0,1,0","1","coast","55","probe-55","0.0903306250679136","0.47915583979799975","0.3804146715259567","0","","","","","","","",""
"","html-keyboard-response","216","907335","0.0-116.0-1.0","null","<p></p>","null","","","","","","","","","","","","","","","","","","","","","","",""
"","do_trial","217","912374","0.0-117.0-0.0","461.59999990463257","","","","","","","","49","0,0,1","1","coast","56","probe-221","0.11404576258531432","0.492980832857727","0.5272398952284608","0","","","","","","","",""
"","html-keyboard-response","218","913377","0.0-117.0-1.0","null","<p></p>","null","","","","","","","","","","","","","","","","","","","","","","",""
"","do_trial","219","918462","0.0-118.0-0.0","517.5","","","","","","","","50","0,0,0","1","coast","57","probe-46","0.07392818252356508","0.5289426997451316","0.38444443782685933","0","","","","","","","",""
"","html-keyboard-response","220","919465","0.0-118.0-1.0","null","<p></p>","null","","","","","","","","","","","","","","","","","","","","","","",""
"","do_trial","221","925364","0.0-119.0-0.0","1326.1000001430511","","","","","","","","50","0,1,0","1","coast","58","probe-18","0.1097163782879326","0.3928974380029624","0.31783643216446883","1","","","","","","","",""
"","html-keyboard-response","222","926367","0.0-119.0-1.0","null","<p></p>","null","","","","","","","","","","","","","","","","","","","","","","",""
"","do_trial","223","931372","0.0-120.0-0.0","432.2999999523163","","","","","","","","50","0,1,1","1","coast","59","probe-36","0.1386770271664924","0.5015763511132204","0.2995456475742686","1","","","","","","","",""
"","html-keyboard-response","224","932374","0.0-120.0-1.0","null","<p></p>","null","","","","","","","","","","","","","","","","","","","","","","",""
"","do_trial","225","937548","0.0-121.0-0.0","602.2999999523163","","","","","","","","50","0,1,1","1","coast","60","probe-67","0.0856006695935252","0.497712854227901","0.28936041776164073","1","","","","","","","",""
"","html-keyboard-response","226","938550","0.0-121.0-1.0","null","<p></p>","null","","","","","","","","","","","","","","","","","","","","","","",""
"","do_trial","227","943793","0.0-122.0-0.0","677.5","","","","","","","","50","0,0,0","1","coast","61","probe-174","0.1176907282721883","0.47359738217225494","0.26389290896669254","0","","","","","","","",""
"","html-keyboard-response","228","944795","0.0-122.0-1.0","null","<p></p>","null","","","","","","","","","","","","","","","","","","","","","","",""
"","do_trial","229","949834","0.0-123.0-0.0","465.5","","","","","","","","50","0,0,0","1","coast","62","probe-87","0.2546470156508094","0.3558350582029557","0.4297988264079159","0","","","","","","","",""
"","html-keyboard-response","230","950836","0.0-123.0-1.0","null","<p></p>","null","","","","","","","","","","","","","","","","","","","","","","",""
"","do_trial","231","955683","0.0-124.0-0.0","271.2000000476837","","","","","","","","50","0,0,0","1","coast","63","probe-229","0.09144276717939824","0.4261256730165129","0.36008401011831","0","","","","","","","",""
"","html-keyboard-response","232","956686","0.0-124.0-1.0","null","<p></p>","null","","","","","","","","","","","","","","","","","","","","","","",""
"","do_trial","233","961624","0.0-125.0-0.0","373.5","","","","","","","","50","0,0,0","1","coast","64","probe-184","0.13077408693794476","0.4149143542770014","0.3839793479180092","0","","","","","","","",""
"","html-keyboard-response","234","962626","0.0-125.0-1.0","null","<p></p>","null","","","","","","","","","","","","","","","","","","","","","","",""
"","do_trial","235","970184","0.0-126.0-0.0","2988.7999999523163","","","","","","","","49","0,1,1","1","coast","65","probe-228","0.08333413876600503","0.46485733557459424","0.15858714083188927","0","","","","","","","",""
"","html-keyboard-response","236","971186","0.0-126.0-1.0","null","<p></p>","null","","","","","","","","","","","","","","","","","","","","","","",""
"","do_trial","237","976985","0.0-127.0-0.0","1231","","","","","","","","51","0,1,0","1","coast","66","probe-35","0.18381067173986204","0.48432403099317917","0.13813197273141778","0","","","","","","","",""
"","html-keyboard-response","238","977988","0.0-127.0-1.0","null","<p></p>","null","","","","","","","","","","","","","","","","","","","","","","",""
"","do_trial","239","982944","0.0-128.0-0.0","384.40000009536743","","","","","","","","50","0,1,0","1","coast","67","probe-23","0.07883991213509269","0.5892786103530954","0.1303154861556085","1","","","","","","","",""
"","html-keyboard-response","240","983947","0.0-128.0-1.0","null","<p></p>","null","","","","","","","","","","","","","","","","","","","","","","",""
"","do_trial","241","989065","0.0-129.0-0.0","546.4000000953674","","","","","","","","50","0,1,0","1","coast","68","probe-54","0.06726774671363207","0.5920953498401733","0.14638672681184464","1","","","","","","","",""
"","html-keyboard-response","242","990067","0.0-129.0-1.0","null","<p></p>","null","","","","","","","","","","","","","","","","","","","","","","",""
"","do_trial","243","994934","0.0-130.0-0.0","296.7000000476837","","","","","","","","50","0,0,0","1","coast","69","probe-115","0.15659925516677728","0.7402337381273283","0.2464257872256112","0","","","","","","","",""
"","html-keyboard-response","244","995937","0.0-130.0-1.0","null","<p></p>","null","","","","","","","","","","","","","","","","","","","","","","",""
"","do_bye","245","997444","0.0-131.0-0.0","null","","","","","","","","null","","","","","","","","","","","","","","","","",""
"","do_travel","246","1003447","0.0-132.0-0.0","null","","","","","","","","null","","","","","","","","","","","","","","","","",""
"","do_welcome","247","1004952","0.0-132.0-1.0","null","","","","","","","","null","","","","","","","","","","","","","","","","",""
"","do_trial","248","1010536","0.0-133.0-0.0","1007","","","","","","","","49","1,1,0","2","forest","70","probe-182","0.0630772523062681","1","0.31234990706755084","1","","","","","","","",""
"","html-keyboard-response","249","1011538","0.0-133.0-1.0","null","<p></p>","null","","","","","","","","","","","","","","","","","","","","","","",""
"","do_trial","250","1016564","0.0-134.0-0.0","446.90000009536743","","","","","","","","49","0,1,1","2","forest","71","probe-43","0.18640652947814737","1","0.30913134883241866","0","","","","","","","",""
"","html-keyboard-response","251","1017566","0.0-134.0-1.0","null","<p></p>","null","","","","","","","","","","","","","","","","","","","","","","",""
"","do_trial","252","1022652","0.0-135.0-0.0","516.2000000476837","","","","","","","","49","0,1,1","2","forest","72","probe-147","0.20943192334880792","0.7346419956491106","0.403942733772442","0","","","","","","","",""
"","html-keyboard-response","253","1023654","0.0-135.0-1.0","null","<p></p>","null","","","","","","","","","","","","","","","","","","","","","","",""
"","do_trial","254","1028556","0.0-136.0-0.0","331","","","","","","","","49","0,1,1","2","forest","73","probe-01","0.1836034682156496","0.7826013643857698","0.3630195565943955","0","","","","","","","",""
"","html-keyboard-response","255","1029558","0.0-136.0-1.0","null","<p></p>","null","","","","","","","","","","","","","","","","","","","","","","",""
"","do_trial","256","1034477","0.0-137.0-0.0","358.60000014305115","","","","","","","","49","0,1,0","2","forest","74","probe-68","0.07377386931566372","0.8213113297111891","0.3578000855091267","0","","","","","","","",""
"","html-keyboard-response","257","1035479","0.0-137.0-1.0","null","<p></p>","null","","","","","","","","","","","","","","","","","","","","","","",""
"","do_trial","258","1040696","0.0-138.0-0.0","641.5999999046326","","","","","","","","50","0,1,1","2","forest","75","probe-209","0.08157802570528806","0.6774770179050614","0.48195575396275303","1","","","","","","","",""
"","html-keyboard-response","259","1041699","0.0-138.0-1.0","null","<p></p>","null","","","","","","","","","","","","","","","","","","","","","","",""
"","do_trial","260","1047575","0.0-139.0-0.0","1298.0999999046326","","","","","","","","50","0,1,0","2","forest","76","probe-173","0.11641457002368492","0.5946989530299224","0.41776428007502125","1","","","","","","","",""
"","html-keyboard-response","261","1048577","0.0-139.0-1.0","null","<p></p>","null","","","","","","","","","","","","","","","","","","","","","","",""
"","do_trial","262","1054146","0.0-140.0-0.0","1001.7999999523163","","","","","","","","50","0,1,1","2","forest","77","probe-130","0.09466323477197958","0.572289904792722","0.412508795443297","1","","","","","","","",""
"","html-keyboard-response","263","1055149","0.0-140.0-1.0","null","<p></p>","null","","","","","","","","","","","","","","","","","","","","","","",""
"","do_trial","264","1060027","0.0-141.0-0.0","306.60000014305115","","","","","","","","50","0,0,1","2","forest","78","probe-222","0.05357700306896292","0.5296659272445835","0.31128362688075994","0","","","","","","","",""
"","html-keyboard-response","265","1061028","0.0-141.0-1.0","null","<p></p>","null","","","","","","","","","","","","","","","","","","","","","","",""
"","do_trial","266","1068186","0.0-142.0-0.0","2586.4000000953674","","","","","","","","51","1,1,0","2","forest","79","probe-161","0.0618785365903005","0.5218715311315691","0.24502123739334106","0","","","","","","","",""
"","html-keyboard-response","267","1069187","0.0-142.0-1.0","null","<p></p>","null","","","","","","","","","","","","","","","","","","","","","","",""
"","do_trial","268","1074078","0.0-143.0-0.0","325.40000009536743","","","","","","","","51","0,0,1","2","forest","80","probe-133","0.07317451343376918","0.4670898578818698","0.08519539074207504","1","","","","","","","",""
"","html-keyboard-response","269","1075080","0.0-143.0-1.0","null","<p></p>","null","","","","","","","","","","","","","","","","","","","","","","",""
"","do_trial","270","1080076","0.0-144.0-0.0","421.2999999523163","","","","","","","","51","0,0,0","2","forest","81","probe-93","0.10666347999863206","0.47080126644670983","0.08791676642921217","0","","","","","","","",""
"","html-keyboard-response","271","1081078","0.0-144.0-1.0","null","<p></p>","null","","","","","","","","","","","","","","","","","","","","","","",""
"","do_trial","272","1086107","0.0-145.0-0.0","456.39999985694885","","","","","","","","51","1,0,1","2","forest","82","probe-142","0.3639903745379637","0.3118121681178216","0.1916032279562371","1","","","","","","","",""
"","html-keyboard-response","273","1087109","0.0-145.0-1.0","null","<p></p>","null","","","","","","","","","","","","","","","","","","","","","","",""
"","do_trial","274","1092066","0.0-146.0-0.0","401.2000000476837","","","","","","","","51","0,0,1","2","forest","83","probe-104","0.4310797059819537","0.23234507350843703","0.2352664488162792","1","","","","","","","",""
"","html-keyboard-response","275","1093068","0.0-146.0-1.0","null","<p></p>","null","","","","","","","","","","","","","","","","","","","","","","",""
"","do_trial","276","1099508","0.0-147.0-0.0","1882.2999999523163","","","","","","","","50","0,0,0","2","forest","84","probe-138","0.505358690660215","0.09124410134113624","0.2826663305095804","0","","","","","","","",""
"","html-keyboard-response","277","1100510","0.0-147.0-1.0","null","<p></p>","null","","","","","","","","","","","","","","","","","","","","","","",""
"","do_trial","278","1105406","0.0-148.0-0.0","321.7000000476837","","","","","","","","49","0,0,0","2","forest","85","probe-59","0.460820311087586","0.07773479891284475","0.4665986368709879","0","","","","","","","",""
"","html-keyboard-response","279","1106408","0.0-148.0-1.0","null","<p></p>","null","","","","","","","","","","","","","","","","","","","","","","",""
"","do_trial","280","1111378","0.0-149.0-0.0","398.7000000476837","","","","","","","","51","0,0,1","2","forest","86","probe-91","0.561704314924474","0.11559917519369645","0.3957664420228316","1","","","","","","","",""
"","html-keyboard-response","281","1112380","0.0-149.0-1.0","null","<p></p>","null","","","","","","","","","","","","","","","","","","","","","","",""
"","do_trial","282","1117387","0.0-150.0-0.0","440.2000000476837","","","","","","","","51","0,0,1","2","forest","87","probe-129","0.6148452050501283","0.08155268976324873","0.25428427746773535","1","","","","","","","",""
"","html-keyboard-response","283","1118389","0.0-150.0-1.0","null","<p></p>","null","","","","","","","","","","","","","","","","","","","","","","",""
"","do_trial","284","1123408","0.0-151.0-0.0","436.90000009536743","","","","","","","","51","1,0,1","2","forest","88","probe-200","0.6928664670660368","0.055287443028619425","0.42972376691686737","1","","","","","","","",""
"","html-keyboard-response","285","1124410","0.0-151.0-1.0","null","<p></p>","null","","","","","","","","","","","","","","","","","","","","","","",""
"","do_trial","286","1128989","0.0-152.0-0.0","0.09999990463256836","","","","","","","","51","1,0,1","2","forest","89","probe-196","0.6650351188380945","0.050617001701261585","0.2663224429647984","1","","","","","","","",""
"","html-keyboard-response","287","1129991","0.0-152.0-1.0","null","<p></p>","null","","","","","","","","","","","","","","","","","","","","","","",""
"","do_trial","288","1134978","0.0-153.0-0.0","411.69999980926514","","","","","","","","51","0,0,0","2","forest","90","probe-148","0.5952696089535428","0.0797431009292088","0.3077750947029316","0","","","","","","","",""
"","html-keyboard-response","289","1135980","0.0-153.0-1.0","null","<p></p>","null","","","","","","","","","","","","","","","","","","","","","","",""
"","do_trial","290","1140898","0.0-154.0-0.0","347.40000009536743","","","","","","","","51","0,0,0","2","forest","91","probe-159","0.6004128298685589","0.07703666971315185","0.25598154907689574","0","","","","","","","",""
"","html-keyboard-response","291","1141900","0.0-154.0-1.0","null","<p></p>","null","","","","","","","","","","","","","","","","","","","","","","",""
"","do_trial","292","1146618","0.0-155.0-0.0","148.70000004768372","","","","","","","","51","0,1,0","2","forest","92","probe-08","0.5472852174486936","0.15528533833823996","0.4300197672486324","0","","","","","","","",""
"","html-keyboard-response","293","1147620","0.0-155.0-1.0","null","<p></p>","null","","","","","","","","","","","","","","","","","","","","","","",""
"","do_trial","294","1152937","0.0-156.0-0.0","745.5","","","","","","","","51","1,0,0","2","forest","93","probe-219","0.6007939161737914","0.21737106863302785","0.5061143012049625","0","","","","","","","",""
"","html-keyboard-response","295","1153940","0.0-156.0-1.0","null","<p></p>","null","","","","","","","","","","","","","","","","","","","","","","",""
"","do_trial","296","1159028","0.0-157.0-0.0","517.4000000953674","","","","","","","","51","0,0,1","2","forest","94","probe-32","0.7012913927830893","0.07357401604210825","0.4330557564375723","1","","","","","","","",""
"","html-keyboard-response","297","1160029","0.0-157.0-1.0","null","<p></p>","null","","","","","","","","","","","","","","","","","","","","","","",""
"","do_trial","298","1164738","0.0-158.0-0.0","146.30000019073486","","","","","","","","51","1,0,1","2","forest","95","probe-145","0.6879089330091935","0.08911244838611382","0.46950921768932646","1","","","","","","","",""
"","html-keyboard-response","299","1165739","0.0-158.0-1.0","null","<p></p>","null","","","","","","","","","","","","","","","","","","","","","","",""
"","do_trial","300","1171329","0.0-159.0-0.0","1016.1000001430511","","","","","","","","51","1,0,0","2","forest","96","probe-66","0.8162934236079237","0.22040772914263493","0.407107411354501","0","","","","","","","",""
"","html-keyboard-response","301","1172330","0.0-159.0-1.0","null","<p></p>","null","","","","","","","","","","","","","","","","","","","","","","",""
"","do_trial","302","1176958","0.0-160.0-0.0","55.799999952316284","","","","","","","","51","1,0,1","2","forest","97","probe-143","0.7746165267652413","0.22983685813884067","0.3844553966542371","1","","","","","","","",""
"","html-keyboard-response","303","1177962","0.0-160.0-1.0","null","<p></p>","null","","","","","","","","","","","","","","","","","","","","","","",""
"","do_trial","304","1183639","0.0-161.0-0.0","1111.2000000476837","","","","","","","","51","1,0,1","2","forest","98","probe-11","0.7159342753805457","0.1531158914872367","0.38904434875129923","1","","","","","","","",""
"","html-keyboard-response","305","1184641","0.0-161.0-1.0","null","<p></p>","null","","","","","","","","","","","","","","","","","","","","","","",""
"","do_trial","306","1189980","0.0-162.0-0.0","765.1000001430511","","","","","","","","51","0,0,1","2","forest","99","probe-113","0.6146793897043124","0.17889655928481168","0.5187854778096489","1","","","","","","","",""
"","html-keyboard-response","307","1190983","0.0-162.0-1.0","null","<p></p>","null","","","","","","","","","","","","","","","","","","","","","","",""
"","do_trial","308","1195577","0.0-163.0-0.0","19.40000009536743","","","","","","","","51","1,0,1","2","forest","100","probe-73","0.6462751683757254","0.25401767814872833","0.4581836942125738","1","","","","","","","",""
"","html-keyboard-response","309","1196579","0.0-163.0-1.0","null","<p></p>","null","","","","","","","","","","","","","","","","","","","","","","",""
"","do_trial","310","1202028","0.0-164.0-0.0","875.7000000476837","","","","","","","","51","1,0,0","2","forest","101","probe-74","0.7255618527084459","0.2046480361857604","0.2967287584143421","0","","","","","","","",""
"","html-keyboard-response","311","1203031","0.0-164.0-1.0","null","<p></p>","null","","","","","","","","","","","","","","","","","","","","","","",""
"","do_trial","312","1208209","0.0-165.0-0.0","604.2000000476837","","","","","","","","51","1,0,1","2","forest","102","probe-110","0.6739139145094604","0.16450373379745858","0.3881920021268484","1","","","","","","","",""
"","html-keyboard-response","313","1209211","0.0-165.0-1.0","null","<p></p>","null","","","","","","","","","","","","","","","","","","","","","","",""
"","do_trial","314","1214279","0.0-166.0-0.0","489.40000009536743","","","","","","","","51","0,0,0","2","forest","103","probe-51","0.6473766612351666","0.2923913540333831","0.34894104615249194","0","","","","","","","",""
"","html-keyboard-response","315","1215281","0.0-166.0-1.0","null","<p></p>","null","","","","","","","","","","","","","","","","","","","","","","",""
"","do_trial","316","1220412","0.0-167.0-0.0","556.2999999523163","","","","","","","","51","1,1,0","2","forest","104","probe-111","0.6676040961804995","0.2979219293100861","0.35572787925470045","0","","","","","","","",""
"","html-keyboard-response","317","1221414","0.0-167.0-1.0","null","<p></p>","null","","","","","","","","","","","","","","","","","","","","","","",""
"","do_trial","318","1226338","0.0-168.0-0.0","353.2999999523163","","","","","","","","51","0,0,1","2","forest","105","probe-166","0.6546499535938315","0.2136776105083804","0.3848382200380883","1","","","","","","","",""
"","html-keyboard-response","319","1227340","0.0-168.0-1.0","null","<p></p>","null","","","","","","","","","","","","","","","","","","","","","","",""
"","do_trial","320","1231916","0.0-169.0-0.0","0.09999990463256836","","","","","","","","51","1,0,0","2","forest","106","probe-207","0.6850707281671454","0.10666324467613976","0.29947731851466886","0","","","","","","","",""
"","html-keyboard-response","321","1232918","0.0-169.0-1.0","null","<p></p>","null","","","","","","","","","","","","","","","","","","","","","","",""
"","do_trial","322","1239770","0.0-170.0-0.0","2282","","","","","","","","51","0,0,0","2","forest","107","probe-230","0.6962136884251487","0.09647402580451545","0.3511420459382785","0","","","","","","","",""
"","html-keyboard-response","323","1240772","0.0-170.0-1.0","null","<p></p>","null","","","","","","","","","","","","","","","","","","","","","","",""
"","do_trial","324","1245891","0.0-171.0-0.0","551.2000000476837","","","","","","","","51","1,0,0","2","forest","108","probe-131","0.5958963781197746","0.21253606948475565","0.35916128417369814","0","","","","","","","",""
"","html-keyboard-response","325","1246893","0.0-171.0-1.0","null","<p></p>","null","","","","","","","","","","","","","","","","","","","","","","",""
"","do_trial","326","1252841","0.0-172.0-0.0","1375.9000000953674","","","","","","","","51","0,0,1","2","forest","109","probe-208","0.5551735367523831","0.15079730860442994","0.2554384131111803","1","","","","","","","",""
"","html-keyboard-response","327","1253843","0.0-172.0-1.0","null","<p></p>","null","","","","","","","","","","","","","","","","","","","","","","",""
"","do_bye","328","1255349","0.0-173.0-0.0","null","","","","","","","","null","","","","","","","","","","","","","","","","",""
"","do_travel","329","1261351","0.0-174.0-0.0","null","","","","","","","","null","","","","","","","","","","","","","","","","",""
"","do_welcome","330","1262856","0.0-174.0-1.0","null","","","","","","","","null","","","","","","","","","","","","","","","","",""
"","do_trial","331","1268691","0.0-175.0-0.0","1266.5","","","","","","","","49","1,1,0","3","countryside","110","probe-53","1","0.1955749671195457","0.3380990156538517","1","","","","","","","",""
"","html-keyboard-response","332","1269693","0.0-175.0-1.0","null","<p></p>","null","","","","","","","","","","","","","","","","","","","","","","",""
"","do_trial","333","1274650","0.0-176.0-0.0","384.60000014305115","","","","","","","","49","1,0,0","3","countryside","111","probe-30","1","0.14676289347342691","0.27601750236985156","1","","","","","","","",""
"","html-keyboard-response","334","1275651","0.0-176.0-1.0","null","<p></p>","null","","","","","","","","","","","","","","","","","","","","","","",""
"","do_trial","335","1280672","0.0-177.0-0.0","463.5","","","","","","","","49","0,0,0","3","countryside","112","probe-226","0.808155032387222","0.21251300683723146","0.30549018308420267","0","","","","","","","",""
"","html-keyboard-response","336","1281674","0.0-177.0-1.0","null","<p></p>","null","","","","","","","","","","","","","","","","","","","","","","",""
"","do_trial","337","1286930","0.0-178.0-0.0","691.7999999523163","","","","","","","","49","1,0,1","3","countryside","113","probe-135","0.8876537369100947","0.19588701534142694","0.25706722666106335","1","","","","","","","",""
"","html-keyboard-response","338","1287933","0.0-178.0-1.0","null","<p></p>","null","","","","","","","","","","","","","","","","","","","","","","",""
"","do_trial","339","1292891","0.0-179.0-0.0","386.7999999523163","","","","","","","","49","1,0,0","3","countryside","114","probe-206","0.8162769287789869","0.17566673517258366","0.21524715224632626","1","","","","","","","",""
"","html-keyboard-response","340","1293893","0.0-179.0-1.0","null","<p></p>","null","","","","","","","","","","","","","","","","","","","","","","",""
"","do_trial","341","1298952","0.0-180.0-0.0","486.09999990463257","","","","","","","","50","1,0,1","3","countryside","115","probe-12","0.7654609034206113","0.14254535204865415","0.1415349338373102","0","","","","","","","",""
"","html-keyboard-response","342","1299953","0.0-180.0-1.0","null","<p></p>","null","","","","","","","","","","","","","","","","","","","","","","",""
"","do_trial","343","1305023","0.0-181.0-0.0","497.7999999523163","","","","","","","","50","1,0,1","3","countryside","116","probe-223","0.6305331862542216","0.07797053364317887","0.07973037892715468","0","","","","","","","",""
"","html-keyboard-response","344","1306024","0.0-181.0-1.0","null","<p></p>","null","","","","","","","","","","","","","","","","","","","","","","",""
"","do_trial","345","1311632","0.0-182.0-0.0","1036.5999999046326","","","","","","","","50","1,0,0","3","countryside","117","probe-144","0.6345445815432561","0.0805882220527052","0.11446591795537221","0","","","","","","","",""
"","html-keyboard-response","346","1312634","0.0-182.0-1.0","null","<p></p>","null","","","","","","","","","","","","","","","","","","","","","","",""
"","do_trial","347","1317533","0.0-183.0-0.0","325.40000009536743","","","","","","","","50","0,0,1","3","countryside","118","probe-79","0.554468065657686","0.05159849946307711","0.327335855119621","0","","","","","","","",""
"","html-keyboard-response","348","1318538","0.0-183.0-1.0","null","<p></p>","null","","","","","","","","","","","","","","","","","","","","","","",""
"","do_trial","349","1323110","0.0-184.0-0.0","0.20000004768371582","","","","","","","","51","0,0,1","3","countryside","119","probe-136","0.6854804151187314","0.14979016328668768","0.2616879042346068","1","","","","","","","",""
"","html-keyboard-response","350","1324112","0.0-184.0-1.0","null","<p></p>","null","","","","","","","","","","","","","","","","","","","","","","",""
"","do_trial","351","1329264","0.0-185.0-0.0","594.5999999046326","","","","","","","","51","1,0,0","3","countryside","120","probe-149","0.8149711887334001","0.0942158580427197","0.329423080140653","0","","","","","","","",""
"","html-keyboard-response","352","1330266","0.0-185.0-1.0","null","<p></p>","null","","","","","","","","","","","","","","","","","","","","","","",""
"","do_trial","353","1335580","0.0-186.0-0.0","739.3999998569489","","","","","","","","51","1,0,1","3","countryside","121","probe-203","0.7311657867420521","0.12263138547448506","0.3663222937863559","1","","","","","","","",""
"","html-keyboard-response","354","1336583","0.0-186.0-1.0","null","<p></p>","null","","","","","","","","","","","","","","","","","","","","","","",""
"","do_trial","355","1342013","0.0-187.0-0.0","875.8999998569489","","","","","","","","51","1,0,0","3","countryside","122","probe-218","0.6162257860507443","0.24732869701627017","0.5023760111041897","0","","","","","","","",""
"","html-keyboard-response","356","1343016","0.0-187.0-1.0","null","<p></p>","null","","","","","","","","","","","","","","","","","","","","","","",""
"","do_trial","357","1348042","0.0-188.0-0.0","464.40000009536743","","","","","","","","51","0,0,1","3","countryside","123","probe-85","0.5304650601656771","0.27115357479953617","0.6246190248971594","1","","","","","","","",""
"","html-keyboard-response","358","1349045","0.0-188.0-1.0","null","<p></p>","null","","","","","","","","","","","","","","","","","","","","","","",""
"","do_trial","359","1354006","0.0-189.0-0.0","391.10000014305115","","","","","","","","51","1,0,1","3","countryside","124","probe-103","0.552406479300516","0.2951732672655932","0.7003726162703476","1","","","","","","","",""
"","html-keyboard-response","360","1355007","0.0-189.0-1.0","null","<p></p>","null","","","","","","","","","","","","","","","","","","","","","","",""
"","do_trial","361","1360052","0.0-190.0-0.0","471","","","","","","","","49","0,0,1","3","countryside","125","probe-34","0.31903217002229023","0.19260534606599108","0.6675112106322496","0","","","","","","","",""
"","html-keyboard-response","362","1361054","0.0-190.0-1.0","null","<p></p>","null","","","","","","","","","","","","","","","","","","","","","","",""
"","do_trial","363","1366083","0.0-191.0-0.0","457.40000009536743","","","","","","","","51","1,0,1","3","countryside","126","probe-49","0.36191880484399025","0.24055547976989367","0.7676553981972702","1","","","","","","","",""
"","html-keyboard-response","364","1367086","0.0-191.0-1.0","null","<p></p>","null","","","","","","","","","","","","","","","","","","","","","","",""
"","do_trial","365","1372172","0.0-192.0-0.0","516.5999999046326","","","","","","","","51","0,0,1","3","countryside","127","probe-41","0.3768558661052907","0.2119523858775552","0.6240238900593845","1","","","","","","","",""
"","html-keyboard-response","366","1373174","0.0-192.0-1.0","null","<p></p>","null","","","","","","","","","","","","","","","","","","","","","","",""
"","do_trial","367","1378022","0.0-193.0-0.0","278.59999990463257","","","","","","","","51","0,0,1","3","countryside","128","probe-75","0.32401368910766487","0.09214796667833744","0.6578202924934246","1","","","","","","","",""
"","html-keyboard-response","368","1379024","0.0-193.0-1.0","null","<p></p>","null","","","","","","","","","","","","","","","","","","","","","","",""
"","do_trial","369","1384182","0.0-194.0-0.0","587","","","","","","","","51","1,1,0","3","countryside","129","probe-158","0.2776264296505105","0.1521075830969265","0.5619188837030693","0","","","","","","","",""
"","html-keyboard-response","370","1385184","0.0-194.0-1.0","null","<p></p>","null","","","","","","","","","","","","","","","","","","","","","","",""
"","do_trial","371","1390405","0.0-195.0-0.0","650.7999999523163","","","","","","","","51","1,0,1","3","countryside","130","probe-57","0.22221319171424447","0.10175563042044519","0.6250186526651509","1","","","","","","","",""
"","html-keyboard-response","372","1391408","0.0-195.0-1.0","null","<p></p>","null","","","","","","","","","","","","","","","","","","","","","","",""
"","do_trial","373","1396813","0.0-196.0-0.0","831.0999999046326","","","","","","","","51","0,0,0","3","countryside","131","probe-164","0.2761064102020626","0.05602545976485117","0.48657574330813214","0","","","","","","","",""
"","html-keyboard-response","374","1397814","0.0-196.0-1.0","null","<p></p>","null","","","","","","","","","","","","","","","","","","","","","","",""
"","do_trial","375","1402760","0.0-197.0-0.0","371.10000014305115","","","","","","","","51","0,0,1","3","countryside","132","probe-45","0.20434090898143267","0.15268758547736613","0.5473338601170632","1","","","","","","","",""
"","html-keyboard-response","376","1403761","0.0-197.0-1.0","null","<p></p>","null","","","","","","","","","","","","","","","","","","","","","","",""
"","do_trial","377","1408902","0.0-198.0-0.0","569.2999999523163","","","","","","","","51","1,0,1","3","countryside","133","probe-141","0.1328225357075576","0.07600432779719019","0.4640112952805934","1","","","","","","","",""
"","html-keyboard-response","378","1409904","0.0-198.0-1.0","null","<p></p>","null","","","","","","","","","","","","","","","","","","","","","","",""
"","do_trial","379","1415685","0.0-199.0-0.0","1207.6000001430511","","","","","","","","51","0,0,0","3","countryside","134","probe-180","0.13966421259640385","0.08786076191161338","0.525035785549777","0","","","","","","","",""
"","html-keyboard-response","380","1416688","0.0-199.0-1.0","null","<p></p>","null","","","","","","","","","","","","","","","","","","","","","","",""
"","do_trial","381","1421793","0.0-200.0-0.0","525.5999999046326","","","","","","","","51","0,0,0","3","countryside","135","probe-25","0.2095764671749841","0.14148165312149807","0.5300418654972249","0","","","","","","","",""
"","html-keyboard-response","382","1422795","0.0-200.0-1.0","null","<p></p>","null","","","","","","","","","","","","","","","","","","","","","","",""
"","do_trial","383","1427612","0.0-201.0-0.0","247.20000004768372","","","","","","","","51","0,0,0","3","countryside","136","probe-160","0.16322244347136156","0.23746392110809403","0.5594799595385918","0","","","","","","","",""
"","html-keyboard-response","384","1428615","0.0-201.0-1.0","null","<p></p>","null","","","","","","","","","","","","","","","","","","","","","","",""
"","do_trial","385","1433774","0.0-202.0-0.0","591.6000001430511","","","","","","","","51","1,0,1","3","countryside","137","probe-170","0.2433670182822143","0.07974115265309989","0.7007379395854133","1","","","","","","","",""
"","html-keyboard-response","386","1434777","0.0-202.0-1.0","null","<p></p>","null","","","","","","","","","","","","","","","","","","","","","","",""
"","do_trial","387","1440195","0.0-203.0-0.0","841.7999999523163","","","","","","","","51","0,0,1","3","countryside","138","probe-16","0.24836143089630797","0.09620244170444432","0.6506350507025398","1","","","","","","","",""
"","html-keyboard-response","388","1441196","0.0-203.0-1.0","null","<p></p>","null","","","","","","","","","","","","","","","","","","","","","","",""
"","do_trial","389","1446044","0.0-204.0-0.0","275.59999990463257","","","","","","","","51","0,0,1","3","countryside","139","probe-210","0.3673477779936056","0.06356505179626992","0.7857836688841937","1","","","","","","","",""
"","html-keyboard-response","390","1447046","0.0-204.0-1.0","null","<p></p>","null","","","","","","","","","","","","","","","","","","","","","","",""
"","do_trial","391","1452155","0.0-205.0-0.0","538.2999999523163","","","","","","","","51","1,0,0","3","countryside","140","probe-13","0.4318691113026554","0.20996645683498336","0.6994979238278317","0","","","","","","","",""
"","html-keyboard-response","392","1453157","0.0-205.0-1.0","null","<p></p>","null","","","","","","","","","","","","","","","","","","","","","","",""
"","do_trial","393","1458404","0.0-206.0-0.0","673.2000000476837","","","","","","","","51","0,0,0","3","countryside","141","probe-102","0.39834743873399464","0.20548252694771066","0.7509879313236377","0","","","","","","","",""
"","html-keyboard-response","394","1459406","0.0-206.0-1.0","null","<p></p>","null","","","","","","","","","","","","","","","","","","","","","","",""
"","do_trial","395","1464546","0.0-207.0-0.0","571.0999999046326","","","","","","","","51","0,0,1","3","countryside","142","probe-214","0.28952765024513255","0.08198051119311557","0.722920383042034","1","","","","","","","",""
"","html-keyboard-response","396","1465548","0.0-207.0-1.0","null","<p></p>","null","","","","","","","","","","","","","","","","","","","","","","",""
"","do_trial","397","1470504","0.0-208.0-0.0","412.40000009536743","","","","","","","","51","1,0,1","3","countryside","143","probe-126","0.30745072977681265","0.09488706717559281","0.7503111060619011","1","","","","","","","",""
"","html-keyboard-response","398","1471506","0.0-208.0-1.0","null","<p></p>","null","","","","","","","","","","","","","","","","","","","","","","",""
"","do_trial","399","1476807","0.0-209.0-0.0","723.7000000476837","","","","","","","","51","0,0,0","3","countryside","144","probe-177","0.38006742943023414","0.1972706906214794","0.6319468247073952","0","","","","","","","",""
"","html-keyboard-response","400","1477810","0.0-209.0-1.0","null","<p></p>","null","","","","","","","","","","","","","","","","","","","","","","",""
"","do_trial","401","1483055","0.0-210.0-0.0","690.6999998092651","","","","","","","","51","0,0,1","3","countryside","145","probe-171","0.4137202949117588","0.18516946670203044","0.7061471680493289","1","","","","","","","",""
"","html-keyboard-response","402","1484058","0.0-210.0-1.0","null","<p></p>","null","","","","","","","","","","","","","","","","","","","","","","",""
"","do_trial","403","1489396","0.0-211.0-0.0","765.7000000476837","","","","","","","","51","0,0,0","3","countryside","146","probe-82","0.4158749936241576","0.2305296194145072","0.5885140503715012","0","","","","","","","",""
"","html-keyboard-response","404","1490398","0.0-211.0-1.0","null","<p></p>","null","","","","","","","","","","","","","","","","","","","","","","",""
"","do_trial","405","1495265","0.0-212.0-0.0","295.7999999523163","","","","","","","","51","1,0,0","3","countryside","147","probe-139","0.3563452212010121","0.24707444225711428","0.643310122174426","0","","","","","","","",""
"","html-keyboard-response","406","1496268","0.0-212.0-1.0","null","<p></p>","null","","","","","","","","","","","","","","","","","","","","","","",""
"","do_trial","407","1502587","0.0-213.0-0.0","1741.5999999046326","","","","","","","","51","0,0,0","3","countryside","148","probe-65","0.43030666578954657","0.13718425534296855","0.6845574184306551","0","","","","","","","",""
"","html-keyboard-response","408","1503589","0.0-213.0-1.0","null","<p></p>","null","","","","","","","","","","","","","","","","","","","","","","",""
"","do_trial","409","1509005","0.0-214.0-0.0","850.7999999523163","","","","","","","","51","1,0,1","3","countryside","149","probe-90","0.30684751287375794","0.1825894441785875","0.6029485759293526","1","","","","","","","",""
"","html-keyboard-response","410","1510008","0.0-214.0-1.0","null","<p></p>","null","","","","","","","","","","","","","","","","","","","","","","",""
"","do_bye","411","1511514","0.0-215.0-0.0","null","","","","","","","","null","","","","","","","","","","","","","","","","",""
"","do_travel","412","1517517","0.0-216.0-0.0","null","","","","","","","","null","","","","","","","","","","","","","","","","",""
"","do_welcome","413","1519023","0.0-216.0-1.0","null","","","","","","","","null","","","","","","","","","","","","","","","","",""
"","do_trial","414","1524397","0.0-217.0-0.0","800.9000000953674","","","","","","","","49","1,0,1","4","mountain","150","probe-137","0.346087082883876","0.1996803495734382","1","1","","","","","","","",""
"","html-keyboard-response","415","1525399","0.0-217.0-1.0","null","<p></p>","null","","","","","","","","","","","","","","","","","","","","","","",""
"","do_trial","416","1531335","0.0-218.0-0.0","1359.7999999523163","","","","","","","","49","0,0,1","4","mountain","151","probe-62","0.2747494841897621","0.10920981841286462","1","0","","","","","","","",""
"","html-keyboard-response","417","1532338","0.0-218.0-1.0","null","<p></p>","null","","","","","","","","","","","","","","","","","","","","","","",""
"","do_trial","418","1537357","0.0-219.0-0.0","441.60000014305115","","","","","","","","49","0,0,1","4","mountain","152","probe-204","0.2754244521971721","0.08143591686707045","0.7960115060798425","0","","","","","","","",""
"","html-keyboard-response","419","1538359","0.0-219.0-1.0","null","<p></p>","null","","","","","","","","","","","","","","","","","","","","","","",""
"","do_trial","420","1543395","0.0-220.0-0.0","463.10000014305115","","","","","","","","49","1,0,0","4","mountain","153","probe-162","0.29263064806242656","0.09057264917693386","0.7174406939035954","1","","","","","","","",""
"","html-keyboard-response","421","1544396","0.0-220.0-1.0","null","<p></p>","null","","","","","","","","","","","","","","","","","","","","","","",""
"","do_trial","422","1549378","0.0-221.0-0.0","411.10000014305115","","","","","","","","49","1,0,1","4","mountain","154","probe-188","0.3313749278531257","0.19186734180079382","0.6810847924042471","1","","","","","","","",""
"","html-keyboard-response","423","1550380","0.0-221.0-1.0","null","<p></p>","null","","","","","","","","","","","","","","","","","","","","","","",""
"","do_trial","424","1555386","0.0-222.0-0.0","448.2999999523163","","","","","","","","50","0,0,1","4","mountain","155","probe-06","0.23668252017163308","0.2232306478251197","0.7537003532628352","0","","","","","","","",""
"","html-keyboard-response","425","1556388","0.0-222.0-1.0","null","<p></p>","null","","","","","","","","","","","","","","","","","","","","","","",""
"","do_trial","426","1563108","0.0-223.0-0.0","2148","","","","","","","","50","0,0,0","4","mountain","156","probe-153","0.150110712877745","0.05920225347776027","0.6035119842984809","0","","","","","","","",""
"","html-keyboard-response","427","1564110","0.0-223.0-1.0","null","<p></p>","null","","","","","","","","","","","","","","","","","","","","","","",""
"","do_trial","428","1568998","0.0-224.0-0.0","312.40000009536743","","","","","","","","50","1,0,0","4","mountain","157","probe-26","0.27303478900226874","0.10835273543467253","0.5330980556500869","0","","","","","","","",""
"","html-keyboard-response","429","1569999","0.0-224.0-1.0","null","<p></p>","null","","","","","","","","","","","","","","","","","","","","","","",""
"","do_trial","430","1576998","0.0-225.0-0.0","2427.5","","","","","","","","50","0,0,1","4","mountain","158","probe-172","0.27928065877931174","0.0872589232718196","0.629585429215648","0","","","","","","","",""
"","html-keyboard-response","431","1578000","0.0-225.0-1.0","null","<p></p>","null","","","","","","","","","","","","","","","","","","","","","","",""
"","do_trial","432","1582897","0.0-226.0-0.0","329.89999985694885","","","","","","","","50","0,1,0","4","mountain","159","probe-112","0.3218349985484097","0.08924455285065505","0.6359029941353365","1","","","","","","","",""
"","html-keyboard-response","433","1583898","0.0-226.0-1.0","null","<p></p>","null","","","","","","","","","","","","","","","","","","","","","","",""
"","do_trial","434","1588879","0.0-227.0-0.0","406","","","","","","","","51","1,0,0","4","mountain","160","probe-216","0.32231435677175996","0.0645793854416008","0.5211065218628695","0","","","","","","","",""
"","html-keyboard-response","435","1589880","0.0-227.0-1.0","null","<p></p>","null","","","","","","","","","","","","","","","","","","","","","","",""
"","do_trial","436","1595536","0.0-228.0-0.0","1086.6000001430511","","","","","","","","51","0,0,1","4","mountain","161","probe-69","0.29676451110343766","0.06123924283050442","0.42957807299353157","1","","","","","","","",""
"","html-keyboard-response","437","1596539","0.0-228.0-1.0","null","<p></p>","null","","","","","","","","","","","","","","","","","","","","","","",""
"","do_trial","438","1601639","0.0-229.0-0.0","552.8999998569489","","","","","","","","51","0,1,0","4","mountain","162","probe-194","0.15905550972202384","0.24832729866368589","0.49290481624946436","0","","","","","","","",""
"","html-keyboard-response","439","1602641","0.0-229.0-1.0","null","<p></p>","null","","","","","","","","","","","","","","","","","","","","","","",""
"","do_trial","440","1607788","0.0-230.0-0.0","573.7000000476837","","","","","","","","49","0,1,0","4","mountain","163","probe-116","0.0596833393498792","0.3939625048343999","0.3372861981538754","0","","","","","","","",""
"","html-keyboard-response","441","1608790","0.0-230.0-1.0","null","<p></p>","null","","","","","","","","","","","","","","","","","","","","","","",""
"","do_trial","442","1613379","0.0-231.0-0.0","16.700000047683716","","","","","","","","49","0,0,0","4","mountain","164","probe-176","0.05578236758577346","0.42939389715913523","0.38690588660793895","0","","","","","","","",""
"","html-keyboard-response","443","1614382","0.0-231.0-1.0","null","<p></p>","null","","","","","","","","","","","","","","","","","","","","","","",""
"","do_trial","444","1619578","0.0-232.0-0.0","623.4000000953674","","","","","","","","49","0,1,0","4","mountain","165","probe-217","0.1734743030139007","0.478423510702647","0.2640781366710162","0","","","","","","","",""
"","html-keyboard-response","445","1620580","0.0-232.0-1.0","null","<p></p>","null","","","","","","","","","","","","","","","","","","","","","","",""
"","do_trial","446","1626970","0.0-233.0-0.0","1822.2000000476837","","","","","","","","49","0,1,0","4","mountain","166","probe-122","0.13128983376675804","0.4941423876853554","0.24091743362175344","0","","","","","","","",""
"","html-keyboard-response","447","1627972","0.0-233.0-1.0","null","<p></p>","null","","","","","","","","","","","","","","","","","","","","","","",""
"","do_trial","448","1633017","0.0-234.0-0.0","466.2999999523163","","","","","","","","49","1,1,0","4","mountain","167","probe-40","0.1605520247491563","0.46362991946033794","0.32234927411304753","1","","","","","","","",""
"","html-keyboard-response","449","1634019","0.0-234.0-1.0","null","<p></p>","null","","","","","","","","","","","","","","","","","","","","","","",""
"","do_trial","450","1639149","0.0-235.0-0.0","552.5999999046326","","","","","","","","49","1,0,0","4","mountain","168","probe-42","0.07015442077867133","0.5948188696429513","0.2941732097287457","1","","","","","","","",""
"","html-keyboard-response","451","1640151","0.0-235.0-1.0","null","<p></p>","null","","","","","","","","","","","","","","","","","","","","","","",""
"","do_trial","452","1645359","0.0-236.0-0.0","648.2999999523163","","","","","","","","49","0,0,0","4","mountain","169","probe-201","0.07463728734338614","0.5308068556898762","0.35052454958195306","0","","","","","","","",""
"","html-keyboard-response","453","1646362","0.0-236.0-1.0","null","<p></p>","null","","","","","","","","","","","","","","","","","","","","","","",""
"","do_trial","454","1651610","0.0-237.0-0.0","675.2000000476837","","","","","","","","49","0,1,0","4","mountain","170","probe-70","0.10659305795247224","0.519452823273999","0.1102675936126413","0","","","","","","","",""
"","html-keyboard-response","455","1652612","0.0-237.0-1.0","null","<p></p>","null","","","","","","","","","","","","","","","","","","","","","","",""
"","do_trial","456","1657228","0.0-238.0-0.0","43.200000047683716","","","","","","","","49","0,1,0","4","mountain","171","probe-186","0.11307288183373908","0.6553641717898855","0.08598594488115566","0","","","","","","","",""
"","html-keyboard-response","457","1658230","0.0-238.0-1.0","null","<p></p>","null","","","","","","","","","","","","","","","","","","","","","","",""
"","do_trial","458","1663400","0.0-239.0-0.0","597.2999999523163","","","","","","","","49","0,1,0","4","mountain","172","probe-140","0.08203544477311564","0.6058348720332078","0.15903912098051126","0","","","","","","","",""
"","html-keyboard-response","459","1664402","0.0-239.0-1.0","null","<p></p>","null","","","","","","","","","","","","","","","","","","","","","","",""
"","do_trial","460","1669928","0.0-240.0-0.0","950.5999999046326","","","","","","","","49","0,0,0","4","mountain","173","probe-77","0.26148285455547876","0.6904029026866897","0.2797640985644494","0","","","","","","","",""
"","html-keyboard-response","461","1670931","0.0-240.0-1.0","null","<p></p>","null","","","","","","","","","","","","","","","","","","","","","","",""
"","do_trial","462","1675505","0.0-241.0-0.0","0.10000014305114746","","","","","","","","49","0,1,1","4","mountain","174","probe-44","0.3778323675122155","0.5520081144810947","0.42619784047384174","0","","","","","","","",""
"","html-keyboard-response","463","1676507","0.0-241.0-1.0","null","<p></p>","null","","","","","","","","","","","","","","","","","","","","","","",""
"","do_trial","464","1681278","0.0-242.0-0.0","195.79999995231628","","","","","","","","49","0,1,0","4","mountain","175","probe-86","0.33724864669828164","0.4069904120000008","0.49742772718742956","0","","","","","","","",""
"","html-keyboard-response","465","1682279","0.0-242.0-1.0","null","<p></p>","null","","","","","","","","","","","","","","","","","","","","","","",""
"","do_trial","466","1686854","0.0-243.0-0.0","0.39999985694885254","","","","","","","","49","0,1,1","4","mountain","176","probe-189","0.16957262212271396","0.4947655354760937","0.36172303426574276","0","","","","","","","",""
"","html-keyboard-response","467","1687857","0.0-243.0-1.0","null","<p></p>","null","","","","","","","","","","","","","","","","","","","","","","",""
"","do_trial","468","1692840","0.0-244.0-0.0","410","","","","","","","","49","1,1,0","4","mountain","177","probe-167","0.15199371382038548","0.5317030117705082","0.36653703072275795","1","","","","","","","",""
"","html-keyboard-response","469","1693842","0.0-244.0-1.0","null","<p></p>","null","","","","","","","","","","","","","","","","","","","","","","",""
"","do_trial","470","1698779","0.0-245.0-0.0","366.09999990463257","","","","","","","","50","0,1,0","4","mountain","178","probe-15","0.23828892891546702","0.7201159064346052","0.20165751400246976","1","","","","","","","",""
"","html-keyboard-response","471","1699782","0.0-245.0-1.0","null","<p></p>","null","","","","","","","","","","","","","","","","","","","","","","",""
