"success","trial_type","trial_index","time_elapsed","internal_node_id","interactions","blur_events","focus_events","fullscreenenter_events","fullscreenexit_events","rt","stimulus","key_press","subject_id","participant_id","age","gender","prompt","response","choice_outcomes","context_n","context_img_id","trial_n","probe_img_id","pR_red","pR_white","pR_black","outcome","contextArray_ind","validImageProbes","invalidImageProbes","pRew_Red","pRew_White","pRew_Black","availableForMemProbe","choice_blocks"
"true","fullscreen","0","5371","0.0-0.0","""event"",""trial"",""time""
""fullscreenenter"",""0"",""4416""
","
","
","""event"",""trial"",""time""
""fullscreenenter"",""0"",""4416""
","
","","","","","","","","","","","","","","","","","","","","","","","","","",""
"","pavlovia","1","5380","0.0-1.0","""event"",""trial"",""time""
""fullscreenenter"",""0"",""4416""
","
","
","""event"",""trial"",""time""
""fullscreenenter"",""0"",""4416""
","
","","","","","","","","","","","","","","","","","","","","","","","","","",""
"","instruc1","2","50494","0.0-2.0","""event"",""trial"",""time""
""fullscreenenter"",""0"",""4416""
","
","
","""event"",""trial"",""time""
""fullscreenenter"",""0"",""4416""
","
","null","run_exp/static/audio/clip_1_welcome.m4a","null","225","717","9","Female","<div class='center'><p>Welcome! This is the first part of the study. It will last ~30 minutes. In part 1 and part 2 of the study, you are the head captain of a pirate ship traveling around the world to different islands. You will play a few different games throughout these two parts. Here is an overview of them:</p><br><p>Part 1 (today)</p><p>1. Instructions, practice game, and quiz</p><p>2. Pick a pirate game on 6 different islands</p><br><p>Part 2 (tomorrow)</p><p>3. Pick a pirate game and memory game</p><p>4. Where did you see this ship? </p></div>","","","","","","","","","","","","","","","","","",""
"","html-keyboard-response","3","51201","0.0-3.0","""event"",""trial"",""time""
""fullscreenenter"",""0"",""4416""
","
","
","""event"",""trial"",""time""
""fullscreenenter"",""0"",""4416""
","
","704.3999998569489","<div class='center'><p>Welcome! This is the first part of the study. It will last ~30 minutes. In part 1 and part 2 of the study, you are the head captain of a pirate ship traveling around the world to different islands. You will play a few different games throughout these two parts. Here is an overview of them:</p><br><p>Part 1 (today)</p><p>1. Instructions, practice game, and quiz</p><p>2. Pick a pirate game on 6 different islands</p><br><p>Part 2 (tomorrow)</p><p>3. Pick a pirate game and memory game</p><p>4. Where did you see this ship? </p><p><b>[Press the space bar to continue]</b></p></div>","32","","","","","","","","","","","","","","","","","","","","","","",""
"","instruc2","4","56530","0.0-4.0","""event"",""trial"",""time""
""fullscreenenter"",""0"",""4416""
","
","
","""event"",""trial"",""time""
""fullscreenenter"",""0"",""4416""
","
","null","run_exp/static/audio/clip_2_different_places.m4a","null","","","","","<div class='center'><p>Today, you’ll visit these 6 islands on your journey. You'll be able to see these islands from your ship.</p><p><img src='run_exp/static/images/contexts/all_contexts.png' height='500'></p></div>","","","","","","","","","","","","","","","","","",""
"","html-keyboard-response","5","58881","0.0-5.0","""event"",""trial"",""time""
""fullscreenenter"",""0"",""4416""
","
","
","""event"",""trial"",""time""
""fullscreenenter"",""0"",""4416""
","
","2348.800000190735","<div class='center'><p>Today, you’ll visit these 6 islands on your journey. You'll be able to see these islands from your ship.</p><p><img src='run_exp/static/images/contexts/all_contexts.png' height='500'></p><p><b>[Press the space bar to continue]</b></p></div>","32","","","","","","","","","","","","","","","","","","","","","","",""
"","instruc3","6","68580","0.0-6.0","""event"",""trial"",""time""
""fullscreenenter"",""0"",""4416""
","
","
","""event"",""trial"",""time""
""fullscreenenter"",""0"",""4416""
","
","null","run_exp/static/audio/clip_3_goal_of_game_1.m4a","null","","","","","<div class='center'><p> The pirates on your ship will rob other ships as they leave the island.</p> These ships have just sold their goods to the islanders, so they will be filled with lots and lots of gold.</p><p><img src='run_exp/static/images/tutorial/ship_center.png' height='400'></p></div>","","","","","","","","","","","","","","","","","",""
"","html-keyboard-response","7","69519","0.0-7.0","""event"",""trial"",""time""
""fullscreenenter"",""0"",""4416""
","
","
","""event"",""trial"",""time""
""fullscreenenter"",""0"",""4416""
","
","936","<div class='center'><p> The pirates on your ship will rob other ships as they leave the island.</p> These ships have just sold their goods to the islanders, so they will be filled with lots and lots of gold.</p><p><img src='run_exp/static/images/tutorial/ship_center.png' height='400'></p><p><b>[Press the space bar to continue]</b></p></div>","32","","","","","","","","","","","","","","","","","","","","","","",""
"","instruc4","8","97535","0.0-8.0","""event"",""trial"",""time""
""fullscreenenter"",""0"",""4416""
","
","
","""event"",""trial"",""time""
""fullscreenenter"",""0"",""4416""
","
","null","run_exp/static/audio/clip_4_goal_of_game_2.m4a","null","","","","","<div class='center'><p>As the head captain, you do not have to rob any ships yourself. Another pirate will be doing the robbing for you. First, you will choose a pirate to rob the next ship.</p><p><img src='run_exp/static/images/tutorial/pirates_all_crop.png' height='200'></p><p>Then, you'll see if the pirate successfully robbed the ship of their gold. If they were successful, then you'll get a stack of gold coins like this:</p><p><img src='run_exp/static/images/tutorial/reward.png' height='150'></p><p> If they were <b>not</b> successful, then you'll get no gold coins, and you'll see a big red x like this: </p><p><img src='run_exp/static/images/tutorial/reward_no.png' height='150'></p><p> How much bonus money you make is based on how many gold coins you collect.</p><div>","","","","","","","","","","","","","","","","","",""
"","html-keyboard-response","9","98102","0.0-9.0","""event"",""trial"",""time""
""fullscreenenter"",""0"",""4416""
","
","
","""event"",""trial"",""time""
""fullscreenenter"",""0"",""4416""
","
","564.1999998092651","<div class='center'><p>As the head captain, you do not have to rob any ships yourself. Another pirate will be doing the robbing for you. First, you will choose a pirate to rob the next ship.</p><p><img src='run_exp/static/images/tutorial/pirates_all_crop.png' height='200'></p><p>Then, you'll see if the pirate successfully robbed the ship of their gold. If they were successful, then you'll get a stack of gold coins like this:</p><p><img src='run_exp/static/images/tutorial/reward.png' height='150'></p><p> If they were <b>not</b> successful, then you'll get no gold coins, and you'll see a big red x like this: </p><p><img src='run_exp/static/images/tutorial/reward_no.png' height='150'></p><p> How much bonus money you make is based on how many gold coins you collect.</p<p><b>[Press the space bar to continue]</b></p></div>","32","","","","","","","","","","","","","","","","","","","","","","",""
"","instruc5","10","122422","0.0-10.0","""event"",""trial"",""time""
""fullscreenenter"",""0"",""4416""
","
","
","""event"",""trial"",""time""
""fullscreenenter"",""0"",""4416""
","
","24317.400000095367","run_exp/static/audio/clip_5_probabilistic.m4a","49","","","","","<div class='center'><p>Even the most skilled pirate can not rob EVERY ship.</p><p> Some ships will have very strong protections against pirate attacks.</p><p> Blue beard, here, is very, very good at robbing ships, but he won't be successful every time he tries to rob one.</p><p> You can press the <b>‘1’</b> key on the keyboard to choose him.</p><p> Try choosing him 10 times to see how often he succeeds at robbing a ship. </p><p><img src='run_exp/static/images/tutorial/blue.png' height='500'></p></div>","","","","","","","","","","","","","","","","","",""
"","html-keyboard-response","11","123929","0.0-11.0","""event"",""trial"",""time""
""fullscreenenter"",""0"",""4416""
","
","
","""event"",""trial"",""time""
""fullscreenenter"",""0"",""4416""
","
","null","<div class='center'><p><img src='run_exp/static/images/tutorial/blue_win.png' height='500'></p></div>","null","","","","","","","","","","","","","","","","","","","","","","",""
"","html-keyboard-response","12","124077","0.0-12.0","""event"",""trial"",""time""
""fullscreenenter"",""0"",""4416""
","
","
","""event"",""trial"",""time""
""fullscreenenter"",""0"",""4416""
","
","147.69999980926514","<div class='center'><img src='run_exp/static/images/tutorial/blue.png' height='500'></p></div>","49","","","","","","","","","","","","","","","","","","","","","","",""
"","html-keyboard-response","13","125583","0.0-13.0","""event"",""trial"",""time""
""fullscreenenter"",""0"",""4416""
","
","
","""event"",""trial"",""time""
""fullscreenenter"",""0"",""4416""
","
","null","<div class='center'><p><img src='run_exp/static/images/tutorial/blue_win.png' height='500'></p></div>","null","","","","","","","","","","","","","","","","","","","","","","",""
"","html-keyboard-response","14","125823","0.0-14.0","""event"",""trial"",""time""
""fullscreenenter"",""0"",""4416""
","
","
","""event"",""trial"",""time""
""fullscreenenter"",""0"",""4416""
","
","238.70000004768372","<div class='center'><img src='run_exp/static/images/tutorial/blue.png' height='500'></p></div>","49","","","","","","","","","","","","","","","","","","","","","","",""
"","html-keyboard-response","15","127330","0.0-15.0","""event"",""trial"",""time""
""fullscreenenter"",""0"",""4416""
","
","
","""event"",""trial"",""time""
""fullscreenenter"",""0"",""4416""
","
","null","<div class='center'><p><img src='run_exp/static/images/tutorial/blue_win.png' height='500'></p></div>","null","","","","","","","","","","","","","","","","","","","","","","",""
"","html-keyboard-response","16","128520","0.0-16.0","""event"",""trial"",""time""
""fullscreenenter"",""0"",""4416""
","
","
","""event"",""trial"",""time""
""fullscreenenter"",""0"",""4416""
","
","1187.7000000476837","<div class='center'><img src='run_exp/static/images/tutorial/blue.png' height='500'></p></div>","49","","","","","","","","","","","","","","","","","","","","","","",""
"","html-keyboard-response","17","130023","0.0-17.0","""event"",""trial"",""time""
""fullscreenenter"",""0"",""4416""
","
","
","""event"",""trial"",""time""
""fullscreenenter"",""0"",""4416""
","
","null","<div class='center'><p><img src='run_exp/static/images/tutorial/blue_no_win.png' height='500'></p></div>","null","","","","","","","","","","","","","","","","","","","","","","",""
"","html-keyboard-response","18","130175","0.0-18.0","""event"",""trial"",""time""
""fullscreenenter"",""0"",""4416""
","
","
","""event"",""trial"",""time""
""fullscreenenter"",""0"",""4416""
","
","150","<div class='center'><img src='run_exp/static/images/tutorial/blue.png' height='500'></p></div>","49","","","","","","","","","","","","","","","","","","","","","","",""
"","html-keyboard-response","19","131678","0.0-19.0","""event"",""trial"",""time""
""fullscreenenter"",""0"",""4416""
","
","
","""event"",""trial"",""time""
""fullscreenenter"",""0"",""4416""
","
","null","<div class='center'><p><img src='run_exp/static/images/tutorial/blue_win.png' height='500'></p></div>","null","","","","","","","","","","","","","","","","","","","","","","",""
"","html-keyboard-response","20","132127","0.0-20.0","""event"",""trial"",""time""
""fullscreenenter"",""0"",""4416""
","
","
","""event"",""trial"",""time""
""fullscreenenter"",""0"",""4416""
","
","447.7000000476837","<div class='center'><img src='run_exp/static/images/tutorial/blue.png' height='500'></p></div>","49","","","","","","","","","","","","","","","","","","","","","","",""
"","html-keyboard-response","21","133634","0.0-21.0","""event"",""trial"",""time""
""fullscreenenter"",""0"",""4416""
","
","
","""event"",""trial"",""time""
""fullscreenenter"",""0"",""4416""
","
","null","<div class='center'><p><img src='run_exp/static/images/tutorial/blue_win.png' height='500'></p></div>","null","","","","","","","","","","","","","","","","","","","","","","",""
"","html-keyboard-response","22","134063","0.0-22.0","""event"",""trial"",""time""
""fullscreenenter"",""0"",""4416""
","
","
","""event"",""trial"",""time""
""fullscreenenter"",""0"",""4416""
","
","427.59999990463257","<div class='center'><img src='run_exp/static/images/tutorial/blue.png' height='500'></p></div>","49","","","","","","","","","","","","","","","","","","","","","","",""
"","html-keyboard-response","23","135567","0.0-23.0","""event"",""trial"",""time""
""fullscreenenter"",""0"",""4416""
","
","
","""event"",""trial"",""time""
""fullscreenenter"",""0"",""4416""
","
","null","<div class='center'><p><img src='run_exp/static/images/tutorial/blue_win.png' height='500'></p></div>","null","","","","","","","","","","","","","","","","","","","","","","",""
"","html-keyboard-response","24","135991","0.0-24.0","""event"",""trial"",""time""
""fullscreenenter"",""0"",""4416""
","
","
","""event"",""trial"",""time""
""fullscreenenter"",""0"",""4416""
","
","422.60000014305115","<div class='center'><img src='run_exp/static/images/tutorial/blue.png' height='500'></p></div>","49","","","","","","","","","","","","","","","","","","","","","","",""
"","html-keyboard-response","25","137494","0.0-25.0","""event"",""trial"",""time""
""fullscreenenter"",""0"",""4416""
","
","
","""event"",""trial"",""time""
""fullscreenenter"",""0"",""4416""
","
","null","<div class='center'><p><img src='run_exp/static/images/tutorial/blue_no_win.png' height='500'></p></div>","null","","","","","","","","","","","","","","","","","","","","","","",""
"","html-keyboard-response","26","138039","0.0-26.0","""event"",""trial"",""time""
""fullscreenenter"",""0"",""4416""
","
","
","""event"",""trial"",""time""
""fullscreenenter"",""0"",""4416""
","
","543.2000000476837","<div class='center'><img src='run_exp/static/images/tutorial/blue.png' height='500'></p></div>","49","","","","","","","","","","","","","","","","","","","","","","",""
"","html-keyboard-response","27","139543","0.0-27.0","""event"",""trial"",""time""
""fullscreenenter"",""0"",""4416""
","
","
","""event"",""trial"",""time""
""fullscreenenter"",""0"",""4416""
","
","null","<div class='center'><p><img src='run_exp/static/images/tutorial/blue_win.png' height='500'></p></div>","null","","","","","","","","","","","","","","","","","","","","","","",""
"","html-keyboard-response","28","140047","0.0-28.0","""event"",""trial"",""time""
""fullscreenenter"",""0"",""4416""
","
","
","""event"",""trial"",""time""
""fullscreenenter"",""0"",""4416""
","
","502","<div class='center'><img src='run_exp/static/images/tutorial/blue.png' height='500'></p></div>","49","","","","","","","","","","","","","","","","","","","","","","",""
"","html-keyboard-response","29","141552","0.0-29.0","""event"",""trial"",""time""
""fullscreenenter"",""0"",""4416""
","
","
","""event"",""trial"",""time""
""fullscreenenter"",""0"",""4416""
","
","null","<div class='center'><p><img src='run_exp/static/images/tutorial/blue_win.png' height='500'></p></div>","null","","","","","","","","","","","","","","","","","","","","","","",""
"","instruc6","30","146967","0.0-30.0","""event"",""trial"",""time""
""fullscreenenter"",""0"",""4416""
","
","
","""event"",""trial"",""time""
""fullscreenenter"",""0"",""4416""
","
","null","run_exp/static/audio/clip_6_blue_beard_outcome.m4a","null","","","","","<div class='center'><p> See, he succeeded in robbing the ships most of the time but not every time. </p></div>","","","","","","","","","","","","","","","","","",""
"","html-keyboard-response","31","148575","0.0-31.0","""event"",""trial"",""time""
""fullscreenenter"",""0"",""4416""
","
","
","""event"",""trial"",""time""
""fullscreenenter"",""0"",""4416""
","
","1606.0999999046326","<div class='center'><p> See, he succeeded in robbing the ships most of the time but not every time. </p><p><b>[Press the space bar to continue]</b></p></div>","32","","","","","","","","","","","","","","","","","","","","","","",""
"","audio-keyboard-response","32","165562","0.0-32.0","""event"",""trial"",""time""
""fullscreenenter"",""0"",""4416""
","
","
","""event"",""trial"",""time""
""fullscreenenter"",""0"",""4416""
","
","16985.10000014305","run_exp/static/audio/clip_7_pick_pirate.m4a","49","","","","","","","","","","","","","","","","","","","","","","",""
"","audio-keyboard-response","33","172745","0.0-33.0-0.0","""event"",""trial"",""time""
""fullscreenenter"",""0"",""4416""
","
","
","""event"",""trial"",""time""
""fullscreenenter"",""0"",""4416""
","
","7178.899999856949","run_exp/static/audio/clip_8_chosen_pirate_win.m4a","32","","","","","","","","","","","","","","","","","","","","","","",""
"","audio-keyboard-response","34","175314","0.0-33.0-1.0","""event"",""trial"",""time""
""fullscreenenter"",""0"",""4416""
","
","
","""event"",""trial"",""time""
""fullscreenenter"",""0"",""4416""
","
","2566.100000143051","run_exp/static/audio/clip_9_pick_a_pirate_again.m4a","50","","","","","","","","","","","","","","","","","","","","","","",""
"","audio-keyboard-response","35","179156","0.0-34.0-0.0","""event"",""trial"",""time""
""fullscreenenter"",""0"",""4416""
","
","
","""event"",""trial"",""time""
""fullscreenenter"",""0"",""4416""
","
","3837.7000000476837","run_exp/static/audio/clip_10_chosen_pirate_loss.m4a","32","","","","","","","","","","","","","","","","","","","","","","",""
"","instruc9","36","184652","0.0-35.0-0.0","""event"",""trial"",""time""
""fullscreenenter"",""0"",""4416""
","
","
","""event"",""trial"",""time""
""fullscreenenter"",""0"",""4416""
","
","null","run_exp/static/audio/clip_11_time_out.m4a","null","","","","","<div class='center'><p>If you don’t make your choice fast enough, you’ll have to wait a few seconds before you can make another one. </p><p><img src='run_exp/static/images/miscellaneous/hurry_up.png' height='500'></p></div>","","","","","","","","","","","","","","","","","",""
"","html-keyboard-response","37","186068","0.0-35.0-1.0","""event"",""trial"",""time""
""fullscreenenter"",""0"",""4416""
","
","
","""event"",""trial"",""time""
""fullscreenenter"",""0"",""4416""
","
","1413.3000001907349","<div class='center'><p>If you don’t make your choice fast enough, you’ll have to wait a few seconds before you can make another one. </p><p><img src='run_exp/static/images/miscellaneous/hurry_up.png' height='500'></p><p><b>[Press the space bar to continue]</b></p></div>","32","","","","","","","","","","","","","","","","","","","","","","",""
"","instruc10","38","225147","0.0-35.0-2.0","""event"",""trial"",""time""
""fullscreenenter"",""0"",""4416""
","
","
","""event"",""trial"",""time""
""fullscreenenter"",""0"",""4416""
","
","null","run_exp/static/audio/clip_12_probe.m4a","null","","","","","<div class='center'><p>Once you've chosen a pirate, you’ll be shown the ship they are robbing. You will never rob the same ship twice. Ships can be told apart from one another by the image on them. These are the goods that they sell. See, this ship has a travel mug on it. </p><p> You’ll have to remember which island you saw each ship on. You will win more gold coins and hence more bonus money if you remember correctly! To help you remember, you can imagine a story. For example, here, you could imagine a mug full of water in the desert. Or, as another example, if on the forest island, your pirate robbed a ship with an apple on it, you could imagine an apple falling from a tree in the forest. </p><p><img src='run_exp/static/images/tutorial/example_probe.png' height='500'></p></div>","","","","","","","","","","","","","","","","","",""
"","html-keyboard-response","39","227143","0.0-35.0-3.0","""event"",""trial"",""time""
""fullscreenenter"",""0"",""4416""
","
","
","""event"",""trial"",""time""
""fullscreenenter"",""0"",""4416""
","
","1993.8999998569489","<div class='center'><p>Once you've chosen a pirate, you’ll be shown the ship they are robbing. You will never rob the same ship twice. Ships can be told apart from one another by the image on them. These are the goods that they sell. See, this ship has a travel mug on it. </p><p> You’ll have to remember which island you saw each ship on. You will win more gold coins and hence more bonus money if you remember correctly! To help you remember, you can imagine a story. For example, here, you could imagine a mug full of water in the desert. Or, as another example, if on the forest island, your pirate robbed a ship with an apple on it, you could imagine an apple falling from a tree in the forest. </p><p><img src='run_exp/static/images/tutorial/example_probe.png' height='500'></p><p><b>[Press the space bar to continue]</b></p></div>","32","","","","","","","","","","","","","","","","","","","","","","",""
"","instruc11","40","243559","0.0-35.0-4.0","""event"",""trial"",""time""
""fullscreenenter"",""0"",""4416""
","
","
","""event"",""trial"",""time""
""fullscreenenter"",""0"",""4416""
","
","null","run_exp/static/audio/clip_13_changepoint.m4a","null","","","","","<div class='center'><p>How successful a pirate is at robbing ships will depend on the island you’re on.</p><p> A pirate may have visited this island many times before and gained a lot of practice robbing ships there.</p><p>So, they’re more likely to be successful than a pirate who has never visited the island before.</p></div>","","","","","","","","","","","","","","","","","",""
"","html-keyboard-response","41","244424","0.0-35.0-5.0","""event"",""trial"",""time""
""fullscreenenter"",""0"",""4416""
","
","
","""event"",""trial"",""time""
""fullscreenenter"",""0"",""4416""
","
","862.7999999523163","<div class='center'><p>How successful a pirate is at robbing ships will depend on the island you’re on.</p><p> A pirate may have visited this island many times before and gained a lot of practice robbing ships there.</p><p>So, they’re more likely to be successful than a pirate who has never visited the island before.</p><p><b>[Press the space bar to continue]</b></p></div>","32","","","","","","","","","","","","","","","","","","","","","","",""
"","instruc12","42","285494","0.0-35.0-6.0","""event"",""trial"",""time""
""fullscreenenter"",""0"",""4416""
","
","
","""event"",""trial"",""time""
""fullscreenenter"",""0"",""4416""
","
","null","run_exp/static/audio/clip_14_drift.m4a","null","","","","","<div class='center'><p>How successful a pirate is at robbing ships can also change over the time spent on the island. </p><p> Ships may hear from islanders about the pirates coming and will improve their protections against the attack. This may make it harder to rob them.</p><p> Ships may also become lazy and weaken the strength of their protections. This may make it easier to rob them.</p><br><p>Things are always changing on the high seas! So, try your best to pay attention!</p><p><img src='run_exp/static/images/tutorial/contingency.png' height='500'></p></div>","","","","","","","","","","","","","","","","","",""
"","html-keyboard-response","43","287129","0.0-35.0-7.0","""event"",""trial"",""time""
""fullscreenenter"",""0"",""4416""
","
","
","""event"",""trial"",""time""
""fullscreenenter"",""0"",""4416""
","
","1633.0999999046326","<div class='center'><p>How successful a pirate is at robbing ships can also change over the time spent on the island. </p><p> Ships may hear from islanders about the pirates coming and will improve their protections against the attack. This may make it harder to rob them.</p><p> Ships may also become lazy and weaken the strength of their protections. This may make it easier to rob them.</p><br><p>Things are always changing on the high seas! So, try your best to pay attention!</p><p><img src='run_exp/static/images/tutorial/contingency.png' height='500'></p><p><b>[Press the space bar to continue]</b></p></div>","32","","","","","","","","","","","","","","","","","","","","","","",""
"","instruc13","44","322319","0.0-35.0-8.0","""event"",""trial"",""time""
""fullscreenenter"",""0"",""4416""
","
","
","""event"",""trial"",""time""
""fullscreenenter"",""0"",""4416""
","
","null","run_exp/static/audio/clip_15_summary.m4a","null","","","","","<div class='center'><p>Let's go over the instructions quickly again. You have two important things to do: </p><b><p> 1. Pick the pirate who is the best at robbing ships on the current island. </p></b><b><p> 2. Remember on which island a ship was robbed.</p> </b><p>The amount of bonus money you can win depends on both.</p><p><br><p>Let’s try a practice game. The game will start by showing you the pirates. First, pick a pirate using the <b> 1, 2, 3 </b> keys on your keyboard. When you are shown a ship, try to remember which island you’re on by making up a story.</p><p>This is just a practice game, so you’re not playing for money. </p><p> Good luck! This game will be very difficult but try your best!</p></div>","","","","","","","","","","","","","","","","","",""
"","html-keyboard-response","45","324308","0.0-35.0-9.0","""event"",""trial"",""time""
""fullscreenenter"",""0"",""4416""
","
","
","""event"",""trial"",""time""
""fullscreenenter"",""0"",""4416""
","
","1986.5999999046326","<div class='center'><p>Let's go over the instructions quickly again. You have two important things to do: </p><b><p> 1. Pick the pirate who is the best at robbing ships on the current island. </p></b><b><p> 2. Remember on which island a ship was robbed.</p> </b><p>The amount of bonus money you can win depends on both.</p><p><br><p>Let’s try a practice game. The game will start by showing you the pirates. First, pick a pirate using the <b> 1, 2, 3 </b> keys on your keyboard. When you are shown a ship, try to remember which island you’re on by making up a story.</p><p>This is just a practice game, so you’re not playing for money. </p><p> Good luck! This game will be very difficult but try your best!</p><p><b>[Press the space bar to continue]</b></p></div>","32","","","","","","","","","","","","","","","","","","","","","","",""
"","do_welcome","46","328321","0.0-35.0-10.0","""event"",""trial"",""time""
""fullscreenenter"",""0"",""4416""
","
","
","""event"",""trial"",""time""
""fullscreenenter"",""0"",""4416""
","
","null","","","","","","","","null","","","","","","","","","","","","","","","","",""
"","do_trial","47","334335","0.0-35.0-11.0","""event"",""trial"",""time""
""fullscreenenter"",""0"",""4416""
","
","
","""event"",""trial"",""time""
""fullscreenenter"",""0"",""4416""
","
","null","","","","","","","","null","1,0,0","","","","","","","","","","","","","","","",""
"","html-keyboard-response","48","335342","0.0-36.0-0.0","""event"",""trial"",""time""
""fullscreenenter"",""0"",""4416""
","
","
","""event"",""trial"",""time""
""fullscreenenter"",""0"",""4416""
","
","null","<p></p>","null","","","","","","","","","","","","","","","","","","","","","","",""
"","do_trial","49","340610","0.0-36.0-1.0","""event"",""trial"",""time""
""fullscreenenter"",""0"",""4416""
","
","
","""event"",""trial"",""time""
""fullscreenenter"",""0"",""4416""
","
","759.3999998569489","","","","","","","","49","1,0,0","","","","","","","","","","","","","","","",""
"","html-keyboard-response","50","341615","0.0-37.0-0.0","""event"",""trial"",""time""
""fullscreenenter"",""0"",""4416""
","
","
","""event"",""trial"",""time""
""fullscreenenter"",""0"",""4416""
","
","null","<p></p>","null","","","","","","","","","","","","","","","","","","","","","","",""
"","do_trial","51","348662","0.0-37.0-1.0","""event"",""trial"",""time""
""fullscreenenter"",""0"",""4416""
","
","
","""event"",""trial"",""time""
""fullscreenenter"",""0"",""4416""
","
","2535.899999856949","","","","","","","","50","1,1,0","","","","","","","","","","","","","","","",""
"","html-keyboard-response","52","349664","0.0-38.0-0.0","""event"",""trial"",""time""
""fullscreenenter"",""0"",""4416""
","
","
","""event"",""trial"",""time""
""fullscreenenter"",""0"",""4416""
","
","null","<p></p>","null","","","","","","","","","","","","","","","","","","","","","","",""
"","do_trial","53","354438","0.0-38.0-1.0","""event"",""trial"",""time""
""fullscreenenter"",""0"",""4416""
","
","
","""event"",""trial"",""time""
""fullscreenenter"",""0"",""4416""
","
","262.5","","","","","","","","51","1,0,1","","","","","","","","","","","","","","","",""
"","html-keyboard-response","54","355442","0.0-39.0-0.0","""event"",""trial"",""time""
""fullscreenenter"",""0"",""4416""
","
","
","""event"",""trial"",""time""
""fullscreenenter"",""0"",""4416""
","
","null","<p></p>","null","","","","","","","","","","","","","","","","","","","","","","",""
"","do_trial","55","361455","0.0-39.0-1.0","""event"",""trial"",""time""
""fullscreenenter"",""0"",""4416""
","
","
","""event"",""trial"",""time""
""fullscreenenter"",""0"",""4416""
","
","null","","","","","","","","null","0,1,0","","","","","","","","","","","","","","","",""
"","html-keyboard-response","56","362460","0.0-40.0-0.0","""event"",""trial"",""time""
""fullscreenenter"",""0"",""4416""
","
","
","""event"",""trial"",""time""
""fullscreenenter"",""0"",""4416""
","
","null","<p></p>","null","","","","","","","","","","","","","","","","","","","","","","",""
"","do_trial","57","367096","0.0-40.0-1.0","""event"",""trial"",""time""
""fullscreenenter"",""0"",""4416""
","
","
","""event"",""trial"",""time""
""fullscreenenter"",""0"",""4416""
","
","126.79999995231628","","","","","","","","49","0,1,0","","","","","","","","","","","","","","","",""
"","html-keyboard-response","58","368102","0.0-41.0-0.0","""event"",""trial"",""time""
""fullscreenenter"",""0"",""4416""
","
","
","""event"",""trial"",""time""
""fullscreenenter"",""0"",""4416""
","
","null","<p></p>","null","","","","","","","","","","","","","","","","","","","","","","",""
"","do_trial","59","372613","0.0-41.0-1.0","""event"",""trial"",""time""
""fullscreenenter"",""0"",""4416""
","
","
","""event"",""trial"",""time""
""fullscreenenter"",""0"",""4416""
","
","2.299999952316284","","","","","","","","50","1,0,0","","","","","","","","","","","","","","","",""
"","do_bye","60","374122","0.0-42.0-0.0","""event"",""trial"",""time""
""fullscreenenter"",""0"",""4416""
","
","
","""event"",""trial"",""time""
""fullscreenenter"",""0"",""4416""
","
","null","","","","","","","","null","","","","","","","","","","","","","","","","",""
"","do_travel","61","383128","0.0-42.0-1.0","""event"",""trial"",""time""
""fullscreenenter"",""0"",""4416""
","
","
","""event"",""trial"",""time""
""fullscreenenter"",""0"",""4416""
","
","null","","","","","","","","null","","","","","","","","","","","","","","","","",""
"","do_welcome","62","387135","0.0-42.0-2.0","""event"",""trial"",""time""
""fullscreenenter"",""0"",""4416""
","
","
","""event"",""trial"",""time""
""fullscreenenter"",""0"",""4416""
","
","null","","","","","","","","null","","","","","","","","","","","","","","","","",""
"","do_trial","63","393616","0.0-42.0-3.0","""event"",""trial"",""time""
""fullscreenenter"",""0"",""4416""
","
","
","""event"",""trial"",""time""
""fullscreenenter"",""0"",""4416""
","
","1970.8999998569489","","","","","","","","49","1,0,0","","","","","","","","","","","","","","","",""
"","html-keyboard-response","64","394618","0.0-43.0-0.0","""event"",""trial"",""time""
""fullscreenenter"",""0"",""4416""
","
","
","""event"",""trial"",""time""
""fullscreenenter"",""0"",""4416""
","
","null","<p></p>","null","","","","","","","","","","","","","","","","","","","","","","",""
"","do_trial","65","399262","0.0-43.0-1.0","""event"",""trial"",""time""
""fullscreenenter"",""0"",""4416""
","
","
","""event"",""trial"",""time""
""fullscreenenter"",""0"",""4416""
","
","135.39999985694885","","","","","","","","50","1,0,1","","","","","","","","","","","","","","","",""
"","html-keyboard-response","66","400266","0.0-44.0-0.0","""event"",""trial"",""time""
""fullscreenenter"",""0"",""4416""
","
","
","""event"",""trial"",""time""
""fullscreenenter"",""0"",""4416""
","
","null","<p></p>","null","","","","","","","","","","","","","","","","","","","","","","",""
"","do_trial","67","404846","0.0-44.0-1.0","""event"",""trial"",""time""
""fullscreenenter"",""0"",""4416""
","
","
","""event"",""trial"",""time""
""fullscreenenter"",""0"",""4416""
","
","70.70000004768372","","","","","","","","51","1,1,0","","","","","","","","","","","","","","","",""
"","html-keyboard-response","68","405851","0.0-45.0-0.0","""event"",""trial"",""time""
""fullscreenenter"",""0"",""4416""
","
","
","""event"",""trial"",""time""
""fullscreenenter"",""0"",""4416""
","
","null","<p></p>","null","","","","","","","","","","","","","","","","","","","","","","",""
"","do_trial","69","410489","0.0-45.0-1.0","""event"",""trial"",""time""
""fullscreenenter"",""0"",""4416""
","
","
","""event"",""trial"",""time""
""fullscreenenter"",""0"",""4416""
","
","125.79999995231628","","","","","","","","49","0,0,1","","","","","","","","","","","","","","","",""
"","html-keyboard-response","70","411493","0.0-46.0-0.0","""event"",""trial"",""time""
""fullscreenenter"",""0"",""4416""
","
","
","""event"",""trial"",""time""
""fullscreenenter"",""0"",""4416""
","
","null","<p></p>","null","","","","","","","","","","","","","","","","","","","","","","",""
"","do_trial","71","416114","0.0-46.0-1.0","""event"",""trial"",""time""
""fullscreenenter"",""0"",""4416""
","
","
","""event"",""trial"",""time""
""fullscreenenter"",""0"",""4416""
","
","107","","","","","","","","50","1,0,1","","","","","","","","","","","","","","","",""
"","html-keyboard-response","72","416295","0.0-47.0-0.0","""event"",""trial"",""time""
""fullscreenenter"",""0"",""4416""
","
","
","""event"",""trial"",""time""
""fullscreenenter"",""0"",""4416""
","
","178.29999995231628","<div class='center'><p><img src='run_exp/static/images/tutorial/prac_best_pirate.png'  height='500'></p></div>","51","","","","","","","","","","","","","","","","","","","","","","",""
"","html-keyboard-response","73","422900","0.0-48.0-0.0","""event"",""trial"",""time""
""fullscreenenter"",""0"",""4416""
","
","
","""event"",""trial"",""time""
""fullscreenenter"",""0"",""4416""
","
","6602.5","<div class='center'><p>That's incorrect! Red beard was the best.</p><p><b>[Press the space bar to continue]</b></p></div>","32","","","","","","","","","","","","","","","","","","","","","","",""
"","html-keyboard-response","74","433492","0.0-48.0-1.0","""event"",""trial"",""time""
""fullscreenenter"",""0"",""4416""
","
","
","""event"",""trial"",""time""
""fullscreenenter"",""0"",""4416""
","
","10591.099999904633","<div class='center'><p><img src='run_exp/static/images/tutorial/prac_source.png'  height='500'></p></div>","50","","","","","","","","","","","","","","","","","","","","","","",""
"","html-keyboard-response","75","436002","0.0-49.0-0.0","""event"",""trial"",""time""
""fullscreenenter"",""0"",""4416""
","
","
","""event"",""trial"",""time""
""fullscreenenter"",""0"",""4416""
","
","2508.5","<div class='center'><p>That's correct! You saw this ship on the cavern island.</p><p><b>[Press the space bar to continue]</b></p></div>","32","","","","","","","","","","","","","","","","","","","","","","",""
"","quiz_beginning","76","447381","0.0-49.0-1.0","""event"",""trial"",""time""
""fullscreenenter"",""0"",""4416""
","
","
","""event"",""trial"",""time""
""fullscreenenter"",""0"",""4416""
","
","null","run_exp/static/audio/clip_16_quiz_intro.m4a","null","","","","","<div class='center'><p>Good job on the practice game! Now, you will be asked some true or false questions to make sure you really understand the rules of the game.</p><p> Press <b>'1'</b> on the keyboard for true and press <b>'2'</b> for false.</p></div>","","","","","","","","","","","","","","","","","",""
"","audio-keyboard-response","77","454878","0.0-49.0-2.0","""event"",""trial"",""time""
""fullscreenenter"",""0"",""4416""
","
","
","""event"",""trial"",""time""
""fullscreenenter"",""0"",""4416""
","
","7494.400000095367","run_exp/static/audio/clip_17_q1.m4a","49","","","","","","","","","","","","","","","","","","","","","","",""
"","correct","78","457296","0.0-50.0-0.0","""event"",""trial"",""time""
""fullscreenenter"",""0"",""4416""
","
","
","""event"",""trial"",""time""
""fullscreenenter"",""0"",""4416""
","
","null","run_exp/static/audio/clip_18_correct.m4a","null","","","","","<div class='center'><p>That's correct!</p></div>","","","","","","","","","","","","","","","","","",""
"","html-keyboard-response","79","459189","0.0-50.0-1.0","""event"",""trial"",""time""
""fullscreenenter"",""0"",""4416""
","
","
","""event"",""trial"",""time""
""fullscreenenter"",""0"",""4416""
","
","1891.7000000476837","<div class='center'><p>That's correct!</p><p><b>[Press the space bar to continue]</b></p></div>","32","","","","","","","","","","","","","","","","","","","","","","",""
"","audio-keyboard-response","80","467139","0.0-50.0-2.0","""event"",""trial"",""time""
""fullscreenenter"",""0"",""4416""
","
","
","""event"",""trial"",""time""
""fullscreenenter"",""0"",""4416""
","
","7947.5","run_exp/static/audio/clip_20_q2.m4a","50","","","","","","","","","","","","","","","","","","","","","","",""
"","correct","81","469556","0.0-51.0-0.0","""event"",""trial"",""time""
""fullscreenenter"",""0"",""4416""
","
","
","""event"",""trial"",""time""
""fullscreenenter"",""0"",""4416""
","
","null","run_exp/static/audio/clip_18_correct.m4a","null","","","","","<div class='center'><p>That's correct!</p></div>","","","","","","","","","","","","","","","","","",""
"","html-keyboard-response","82","469834","0.0-51.0-1.0","""event"",""trial"",""time""
""fullscreenenter"",""0"",""4416""
","
","
","""event"",""trial"",""time""
""fullscreenenter"",""0"",""4416""
","
","277","<div class='center'><p>That's correct!</p><p><b>[Press the space bar to continue]</b></p></div>","32","","","","","","","","","","","","","","","","","","","","","","",""
"","audio-keyboard-response","83","476527","0.0-51.0-2.0","""event"",""trial"",""time""
""fullscreenenter"",""0"",""4416""
","
","
","""event"",""trial"",""time""
""fullscreenenter"",""0"",""4416""
","
","6691","run_exp/static/audio/clip_22_q3.m4a","50","","","","","","","","","","","","","","","","","","","","","","",""
"","correct","84","478936","0.0-52.0-0.0","""event"",""trial"",""time""
""fullscreenenter"",""0"",""4416""
","
","
","""event"",""trial"",""time""
""fullscreenenter"",""0"",""4416""
","
","null","run_exp/static/audio/clip_18_correct.m4a","null","","","","","<div class='center'><p>That's correct!</p></div>","","","","","","","","","","","","","","","","","",""
"","html-keyboard-response","85","479110","0.0-52.0-1.0","""event"",""trial"",""time""
""fullscreenenter"",""0"",""4416""
","
","
","""event"",""trial"",""time""
""fullscreenenter"",""0"",""4416""
","
","172.79999995231628","<div class='center'><p>That's correct!</p><p><b>[Press the space bar to continue]</b></p></div>","32","","","","","","","","","","","","","","","","","","","","","","",""
"","audio-keyboard-response","86","483797","0.0-52.0-2.0","""event"",""trial"",""time""
""fullscreenenter"",""0"",""4416""
","
","
","""event"",""trial"",""time""
""fullscreenenter"",""0"",""4416""
","
","4685.599999904633","run_exp/static/audio/clip_24_q4.m4a","49","","","","","","","","","","","","","","","","","","","","","","",""
"","correct","87","486274","0.0-53.0-0.0","""event"",""trial"",""time""
""fullscreenenter"",""0"",""4416""
","
","
","""event"",""trial"",""time""
""fullscreenenter"",""0"",""4416""
","
","null","run_exp/static/audio/clip_18_correct.m4a","null","","","","","<div class='center'><p>That's correct!</p></div>","","","","","","","","","","","","","","","","","",""
"","html-keyboard-response","88","487710","0.0-53.0-1.0","""event"",""trial"",""time""
""fullscreenenter"",""0"",""4416""
","
","
","""event"",""trial"",""time""
""fullscreenenter"",""0"",""4416""
","
","1434.7000000476837","<div class='center'><p>That's correct!</p><p><b>[Press the space bar to continue]</b></p></div>","32","","","","","","","","","","","","","","","","","","","","","","",""
"","q_all_corr","89","496212","0.0-54.0-0.0","""event"",""trial"",""time""
""fullscreenenter"",""0"",""4416""
","
","
","""event"",""trial"",""time""
""fullscreenenter"",""0"",""4416""
","
","null","run_exp/static/audio/clip_27_quiz_all_correct.m4a","null","","","","","<div class='center'><p>Good job! You’re now ready to move on to the real game! Remember this game will be difficult but don't get discouraged and try your best!</p></div>","","","","","","","","","","","","","","","","","",""
"","html-keyboard-response","90","502396","0.0-54.0-1.0","""event"",""trial"",""time""
""fullscreenenter"",""0"",""4416""
","
","
","""event"",""trial"",""time""
""fullscreenenter"",""0"",""4416""
","
","6182.600000143051","<div class='center'><p>Good job! You’re now ready to move on to the real game! Remember this game will be difficult but don't get discouraged and try your best!</p><p><b>[Press the space bar to continue]</b></p></div>","32","","","","","","","","","","","","","","","","","","","","","","",""
"","do_welcome","91","506408","0.0-55.0-0.0","""event"",""trial"",""time""
""fullscreenenter"",""0"",""4416""
","
","
","""event"",""trial"",""time""
""fullscreenenter"",""0"",""4416""
","
","null","","","","","","","","null","","","","","","","","","","","","","","","","",""
"","do_trial","92","512462","0.0-56.0-0.0","""event"",""trial"",""time""
""fullscreenenter"",""0"",""4416""
","
","
","""event"",""trial"",""time""
""fullscreenenter"",""0"",""4416""
","
","null","","","","","","","","null","0,1,0","0","countryside","0","probe-228","0.6","0.3","0.1","","","","","","","","",""
"","html-keyboard-response","93","513466","0.0-56.0-1.0","""event"",""trial"",""time""
""fullscreenenter"",""0"",""4416""
","
","
","""event"",""trial"",""time""
""fullscreenenter"",""0"",""4416""
","
","null","<p></p>","null","","","","","","","","","","","","","","","","","","","","","","",""
"","do_trial","94","518076","0.0-57.0-0.0","""event"",""trial"",""time""
""fullscreenenter"",""0"",""4416""
","
","
","""event"",""trial"",""time""
""fullscreenenter"",""0"",""4416""
","
","46.799999952316284","","","","","","","","49","0,1,0","0","countryside","1","probe-75","0.574820369858131","0.273788014590266","0.10561485585552653","0","","","","","","","",""
"","html-keyboard-response","95","519080","0.0-57.0-1.0","""event"",""trial"",""time""
""fullscreenenter"",""0"",""4416""
","
","
","""event"",""trial"",""time""
""fullscreenenter"",""0"",""4416""
","
","null","<p></p>","null","","","","","","","","","","","","","","","","","","","","","","",""
"","do_trial","96","523677","0.0-58.0-0.0","""event"",""trial"",""time""
""fullscreenenter"",""0"",""4416""
","
","
","""event"",""trial"",""time""
""fullscreenenter"",""0"",""4416""
","
","42.799999952316284","","","","","","","","49","0,0,0","0","countryside","2","probe-24","0.5160982476995977","0.3046029182601376","0.10066231268719923","0","","","","","","","",""
"","html-keyboard-response","97","524681","0.0-58.0-1.0","""event"",""trial"",""time""
""fullscreenenter"",""0"",""4416""
","
","
","""event"",""trial"",""time""
""fullscreenenter"",""0"",""4416""
","
","null","<p></p>","null","","","","","","","","","","","","","","","","","","","","","","",""
"","do_trial","98","529238","0.0-59.0-0.0","""event"",""trial"",""time""
""fullscreenenter"",""0"",""4416""
","
","
","""event"",""trial"",""time""
""fullscreenenter"",""0"",""4416""
","
","0.20000004768371582","","","","","","","","50","1,0,0","0","countryside","3","probe-51","0.6076821829834499","0.2989934609395508","0.11886055971194838","0","","","","","","","",""
"","html-keyboard-response","99","530242","0.0-59.0-1.0","""event"",""trial"",""time""
""fullscreenenter"",""0"",""4416""
""fullscreenexit"",""100"",""533079""
","
","
","""event"",""trial"",""time""
""fullscreenenter"",""0"",""4416""
","""event"",""trial"",""time""
""fullscreenexit"",""100"",""533079""
","null","<p></p>","null","","","","","","","","","","","","","","","","","","","","","","",""
"","do_trial","100","536296","0.0-60.0-0.0","""event"",""trial"",""time""
""fullscreenenter"",""0"",""4416""
""fullscreenexit"",""100"",""533079""
","
","
","""event"",""trial"",""time""
""fullscreenenter"",""0"",""4416""
","""event"",""trial"",""time""
""fullscreenexit"",""100"",""533079""
","null","","","","","","","","null","1,0,0","0","countryside","4","probe-02","0.6530669980171055","0.2893545225801597","0.2344651673581673","","","","","","","","",""
"","html-keyboard-response","101","537298","0.0-60.0-1.0","""event"",""trial"",""time""
""fullscreenenter"",""0"",""4416""
""fullscreenexit"",""100"",""533079""
","
","
","""event"",""trial"",""time""
""fullscreenenter"",""0"",""4416""
","""event"",""trial"",""time""
""fullscreenexit"",""100"",""533079""
","null","<p></p>","null","","","","","","","","","","","","","","","","","","","","","","",""
"","do_trial","102","543413","0.0-61.0-0.0","""event"",""trial"",""time""
""fullscreenenter"",""0"",""4416""
""fullscreenexit"",""100"",""533079""
","
","
","""event"",""trial"",""time""
""fullscreenenter"",""0"",""4416""
","""event"",""trial"",""time""
""fullscreenexit"",""100"",""533079""
","1558.2999999523163","","","","","","","","49","1,0,0","0","countryside","5","probe-67","0.5849533392720937","0.4190347188354501","0.06137229437445545","1","","","","","","","",""
"","html-keyboard-response","103","544417","0.0-61.0-1.0","""event"",""trial"",""time""
""fullscreenenter"",""0"",""4416""
""fullscreenexit"",""100"",""533079""
","
","
","""event"",""trial"",""time""
""fullscreenenter"",""0"",""4416""
","""event"",""trial"",""time""
""fullscreenexit"",""100"",""533079""
","null","<p></p>","null","","","","","","","","","","","","","","","","","","","","","","",""
"","do_trial","104","549001","0.0-62.0-0.0","""event"",""trial"",""time""
""fullscreenenter"",""0"",""4416""
""fullscreenexit"",""100"",""533079""
","
","
","""event"",""trial"",""time""
""fullscreenenter"",""0"",""4416""
","""event"",""trial"",""time""
""fullscreenexit"",""100"",""533079""
","25.899999856948853","","","","","","","","50","0,0,0","0","countryside","6","probe-64","0.45238360138596934","0.32867309655138455","0.08707933068905467","0","","","","","","","",""
"","html-keyboard-response","105","550007","0.0-62.0-1.0","""event"",""trial"",""time""
""fullscreenenter"",""0"",""4416""
""fullscreenexit"",""100"",""533079""
","
","
","""event"",""trial"",""time""
""fullscreenenter"",""0"",""4416""
","""event"",""trial"",""time""
""fullscreenexit"",""100"",""533079""
","null","<p></p>","null","","","","","","","","","","","","","","","","","","","","","","",""
"","do_trial","106","554704","0.0-63.0-0.0","""event"",""trial"",""time""
""fullscreenenter"",""0"",""4416""
""fullscreenexit"",""100"",""533079""
","
","
","""event"",""trial"",""time""
""fullscreenenter"",""0"",""4416""
","""event"",""trial"",""time""
""fullscreenexit"",""100"",""533079""
","146","","","","","","","","49","0,0,0","0","countryside","7","probe-31","0.49245159849106407","0.17238148323028835","0.06442103486630155","0","","","","","","","",""
"","html-keyboard-response","107","555708","0.0-63.0-1.0","""event"",""trial"",""time""
""fullscreenenter"",""0"",""4416""
""fullscreenexit"",""100"",""533079""
","
","
","""event"",""trial"",""time""
""fullscreenenter"",""0"",""4416""
","""event"",""trial"",""time""
""fullscreenexit"",""100"",""533079""
","null","<p></p>","null","","","","","","","","","","","","","","","","","","","","","","",""
"","do_trial","108","560265","0.0-64.0-0.0","""event"",""trial"",""time""
""fullscreenenter"",""0"",""4416""
""fullscreenexit"",""100"",""533079""
","
","
","""event"",""trial"",""time""
""fullscreenenter"",""0"",""4416""
","""event"",""trial"",""time""
""fullscreenexit"",""100"",""533079""
","0.20000004768371582","","","","","","","","50","1,0,0","0","countryside","8","probe-174","0.5344536139949415","0.40673690724076395","0.06262535245168481","0","","","","","","","",""
"","html-keyboard-response","109","561269","0.0-64.0-1.0","""event"",""trial"",""time""
""fullscreenenter"",""0"",""4416""
""fullscreenexit"",""100"",""533079""
","
","
","""event"",""trial"",""time""
""fullscreenenter"",""0"",""4416""
","""event"",""trial"",""time""
""fullscreenexit"",""100"",""533079""
","null","<p></p>","null","","","","","","","","","","","","","","","","","","","","","","",""
"","do_trial","110","567327","0.0-65.0-0.0","""event"",""trial"",""time""
""fullscreenenter"",""0"",""4416""
""fullscreenexit"",""100"",""533079""
","
","
","""event"",""trial"",""time""
""fullscreenenter"",""0"",""4416""
","""event"",""trial"",""time""
""fullscreenexit"",""100"",""533079""
","null","","","","","","","","null","1,0,1","0","countryside","9","probe-73","0.7099653747939207","0.3252925408918697","0.15486130066020376","","","","","","","","",""
"","html-keyboard-response","111","568330","0.0-65.0-1.0","""event"",""trial"",""time""
""fullscreenenter"",""0"",""4416""
""fullscreenexit"",""100"",""533079""
","
","
","""event"",""trial"",""time""
""fullscreenenter"",""0"",""4416""
","""event"",""trial"",""time""
""fullscreenexit"",""100"",""533079""
","null","<p></p>","null","","","","","","","","","","","","","","","","","","","","","","",""
"","do_trial","112","573465","0.0-66.0-0.0","""event"",""trial"",""time""
""fullscreenenter"",""0"",""4416""
""fullscreenexit"",""100"",""533079""
","
","
","""event"",""trial"",""time""
""fullscreenenter"",""0"",""4416""
","""event"",""trial"",""time""
""fullscreenexit"",""100"",""533079""
","577.3999998569489","","","","","","","","49","1,0,1","0","countryside","10","probe-126","0.5968198971434832","0.4887183956973514","0.16570692027671766","1","","","","","","","",""
"","html-keyboard-response","113","574469","0.0-66.0-1.0","""event"",""trial"",""time""
""fullscreenenter"",""0"",""4416""
""fullscreenexit"",""100"",""533079""
","
","
","""event"",""trial"",""time""
""fullscreenenter"",""0"",""4416""
","""event"",""trial"",""time""
""fullscreenexit"",""100"",""533079""
","null","<p></p>","null","","","","","","","","","","","","","","","","","","","","","","",""
"","do_trial","114","579032","0.0-67.0-0.0","""event"",""trial"",""time""
""fullscreenenter"",""0"",""4416""
""fullscreenexit"",""100"",""533079""
","
","
","""event"",""trial"",""time""
""fullscreenenter"",""0"",""4416""
","""event"",""trial"",""time""
""fullscreenexit"",""100"",""533079""
","0.9000000953674316","","","","","","","","50","0,1,0","0","countryside","11","probe-54","0.7761343680523349","0.39557896387134267","0.23459359899972454","1","","","","","","","",""
"","html-keyboard-response","115","580036","0.0-67.0-1.0","""event"",""trial"",""time""
""fullscreenenter"",""0"",""4416""
""fullscreenexit"",""100"",""533079""
","
","
","""event"",""trial"",""time""
""fullscreenenter"",""0"",""4416""
","""event"",""trial"",""time""
""fullscreenexit"",""100"",""533079""
","null","<p></p>","null","","","","","","","","","","","","","","","","","","","","","","",""
"","do_trial","116","584650","0.0-68.0-0.0","""event"",""trial"",""time""
""fullscreenenter"",""0"",""4416""
""fullscreenexit"",""100"",""533079""
","
","
","""event"",""trial"",""time""
""fullscreenenter"",""0"",""4416""
","""event"",""trial"",""time""
""fullscreenexit"",""100"",""533079""
","57.200000047683716","","","","","","","","51","1,0,0","0","countryside","12","probe-148","0.675883601466509","0.31241699719328586","0.17622469473096067","0","","","","","","","",""
"","html-keyboard-response","117","585653","0.0-68.0-1.0","""event"",""trial"",""time""
""fullscreenenter"",""0"",""4416""
""fullscreenexit"",""100"",""533079""
","
","
","""event"",""trial"",""time""
""fullscreenenter"",""0"",""4416""
","""event"",""trial"",""time""
""fullscreenexit"",""100"",""533079""
","null","<p></p>","null","","","","","","","","","","","","","","","","","","","","","","",""
"","do_trial","118","590287","0.0-69.0-0.0","""event"",""trial"",""time""
""fullscreenenter"",""0"",""4416""
""fullscreenexit"",""100"",""533079""
","
","
","""event"",""trial"",""time""
""fullscreenenter"",""0"",""4416""
","""event"",""trial"",""time""
""fullscreenexit"",""100"",""533079""
","81.09999990463257","","","","","","","","50","1,1,0","0","countryside","13","probe-60","0.6686284628183732","0.3293804229224182","0.09422699707585147","1","","","","","","","",""
"","html-keyboard-response","119","591292","0.0-69.0-1.0","""event"",""trial"",""time""
""fullscreenenter"",""0"",""4416""
""fullscreenexit"",""100"",""533079""
","
","
","""event"",""trial"",""time""
""fullscreenenter"",""0"",""4416""
","""event"",""trial"",""time""
""fullscreenexit"",""100"",""533079""
","null","<p></p>","null","","","","","","","","","","","","","","","","","","","","","","",""
"","do_trial","120","595895","0.0-70.0-0.0","""event"",""trial"",""time""
""fullscreenenter"",""0"",""4416""
""fullscreenexit"",""100"",""533079""
","
","
","""event"",""trial"",""time""
""fullscreenenter"",""0"",""4416""
","""event"",""trial"",""time""
""fullscreenexit"",""100"",""533079""
","52","","","","","","","","51","0,0,0","0","countryside","14","probe-182","0.5950482263650586","0.3503368700033831","0.12176470747643757","0","","","","","","","",""
"","html-keyboard-response","121","596898","0.0-70.0-1.0","""event"",""trial"",""time""
""fullscreenenter"",""0"",""4416""
""fullscreenexit"",""100"",""533079""
","
","
","""event"",""trial"",""time""
""fullscreenenter"",""0"",""4416""
","""event"",""trial"",""time""
""fullscreenexit"",""100"",""533079""
","null","<p></p>","null","","","","","","","","","","","","","","","","","","","","","","",""
"","do_trial","122","601467","0.0-71.0-0.0","""event"",""trial"",""time""
""fullscreenenter"",""0"",""4416""
""fullscreenexit"",""100"",""533079""
","
","
","""event"",""trial"",""time""
""fullscreenenter"",""0"",""4416""
","""event"",""trial"",""time""
""fullscreenexit"",""100"",""533079""
","20.200000047683716","","","","","","","","49","0,1,1","0","countryside","15","probe-192","0.5311192041463053","0.25723496269381446","0.12950545245020562","0","","","","","","","",""
"","html-keyboard-response","123","602471","0.0-71.0-1.0","""event"",""trial"",""time""
""fullscreenenter"",""0"",""4416""
""fullscreenexit"",""100"",""533079""
","
","
","""event"",""trial"",""time""
""fullscreenenter"",""0"",""4416""
","""event"",""trial"",""time""
""fullscreenexit"",""100"",""533079""
","null","<p></p>","null","","","","","","","","","","","","","","","","","","","","","","",""
"","do_trial","124","607168","0.0-72.0-0.0","""event"",""trial"",""time""
""fullscreenenter"",""0"",""4416""
""fullscreenexit"",""100"",""533079""
","
","
","""event"",""trial"",""time""
""fullscreenenter"",""0"",""4416""
","""event"",""trial"",""time""
""fullscreenexit"",""100"",""533079""
","146.70000004768372","","","","","","","","50","0,0,0","0","countryside","16","probe-10","0.6240748919885055","0.2819604188903454","0.07518744288601989","0","","","","","","","",""
"","html-keyboard-response","125","608172","0.0-72.0-1.0","""event"",""trial"",""time""
""fullscreenenter"",""0"",""4416""
""fullscreenexit"",""100"",""533079""
","
","
","""event"",""trial"",""time""
""fullscreenenter"",""0"",""4416""
","""event"",""trial"",""time""
""fullscreenexit"",""100"",""533079""
","null","<p></p>","null","","","","","","","","","","","","","","","","","","","","","","",""
"","do_trial","126","614220","0.0-73.0-0.0","""event"",""trial"",""time""
""fullscreenenter"",""0"",""4416""
""fullscreenexit"",""100"",""533079""
","
","
","""event"",""trial"",""time""
""fullscreenenter"",""0"",""4416""
","""event"",""trial"",""time""
""fullscreenexit"",""100"",""533079""
","null","","","","","","","","null","0,0,0","0","countryside","17","probe-21","0.5764212599250873","0.40218772519287443","0.1699179722375935","","","","","","","","",""
"","html-keyboard-response","127","615225","0.0-73.0-1.0","""event"",""trial"",""time""
""fullscreenenter"",""0"",""4416""
""fullscreenexit"",""100"",""533079""
","
","
","""event"",""trial"",""time""
""fullscreenenter"",""0"",""4416""
","""event"",""trial"",""time""
""fullscreenexit"",""100"",""533079""
","null","<p></p>","null","","","","","","","","","","","","","","","","","","","","","","",""
"","do_trial","128","619903","0.0-74.0-0.0","""event"",""trial"",""time""
""fullscreenenter"",""0"",""4416""
""fullscreenexit"",""100"",""533079""
","
","
","""event"",""trial"",""time""
""fullscreenenter"",""0"",""4416""
","""event"",""trial"",""time""
""fullscreenexit"",""100"",""533079""
","129.70000004768372","","","","","","","","49","1,0,0","0","countryside","18","probe-14","0.5715114862989902","0.3621793394281215","0.2976551766321241","1","","","","","","","",""
"","html-keyboard-response","129","620907","0.0-74.0-1.0","""event"",""trial"",""time""
""fullscreenenter"",""0"",""4416""
""fullscreenexit"",""100"",""533079""
","
","
","""event"",""trial"",""time""
""fullscreenenter"",""0"",""4416""
","""event"",""trial"",""time""
""fullscreenexit"",""100"",""533079""
","null","<p></p>","null","","","","","","","","","","","","","","","","","","","","","","",""
"","do_trial","130","625458","0.0-75.0-0.0","""event"",""trial"",""time""
""fullscreenenter"",""0"",""4416""
""fullscreenexit"",""100"",""533079""
","
","
","""event"",""trial"",""time""
""fullscreenenter"",""0"",""4416""
","""event"",""trial"",""time""
""fullscreenexit"",""100"",""533079""
","0.19999980926513672","","","","","","","","51","1,0,0","0","countryside","19","probe-151","0.610151565036917","0.3498273332102534","0.1554669464392422","0","","","","","","","",""
"","html-keyboard-response","131","626463","0.0-75.0-1.0","""event"",""trial"",""time""
""fullscreenenter"",""0"",""4416""
""fullscreenexit"",""100"",""533079""
","
","
","""event"",""trial"",""time""
""fullscreenenter"",""0"",""4416""
","""event"",""trial"",""time""
""fullscreenexit"",""100"",""533079""
","null","<p></p>","null","","","","","","","","","","","","","","","","","","","","","","",""
"","do_trial","132","631200","0.0-76.0-0.0","""event"",""trial"",""time""
""fullscreenenter"",""0"",""4416""
""fullscreenexit"",""100"",""533079""
","
","
","""event"",""trial"",""time""
""fullscreenenter"",""0"",""4416""
","""event"",""trial"",""time""
""fullscreenexit"",""100"",""533079""
","180.19999980926514","","","","","","","","50","1,1,0","0","countryside","20","probe-219","0.5672899902197961","0.30642567824227007","0.24441581828704523","1","","","","","","","",""
"","html-keyboard-response","133","632204","0.0-76.0-1.0","""event"",""trial"",""time""
""fullscreenenter"",""0"",""4416""
""fullscreenexit"",""100"",""533079""
","
","
","""event"",""trial"",""time""
""fullscreenenter"",""0"",""4416""
","""event"",""trial"",""time""
""fullscreenexit"",""100"",""533079""
","null","<p></p>","null","","","","","","","","","","","","","","","","","","","","","","",""
"","do_trial","134","636848","0.0-77.0-0.0","""event"",""trial"",""time""
""fullscreenenter"",""0"",""4416""
""fullscreenexit"",""100"",""533079""
","
","
","""event"",""trial"",""time""
""fullscreenenter"",""0"",""4416""
","""event"",""trial"",""time""
""fullscreenexit"",""100"",""533079""
","94.19999980926514","","","","","","","","49","0,0,0","0","countryside","21","probe-117","0.6721250084167588","0.31286180291259846","0.17868489308720376","0","","","","","","","",""
"","html-keyboard-response","135","637852","0.0-77.0-1.0","""event"",""trial"",""time""
""fullscreenenter"",""0"",""4416""
""fullscreenexit"",""100"",""533079""
","
","
","""event"",""trial"",""time""
""fullscreenenter"",""0"",""4416""
","""event"",""trial"",""time""
""fullscreenexit"",""100"",""533079""
","null","<p></p>","null","","","","","","","","","","","","","","","","","","","","","","",""
"","do_trial","136","642542","0.0-78.0-0.0","""event"",""trial"",""time""
""fullscreenenter"",""0"",""4416""
""fullscreenexit"",""100"",""533079""
","
","
","""event"",""trial"",""time""
""fullscreenenter"",""0"",""4416""
","""event"",""trial"",""time""
""fullscreenexit"",""100"",""533079""
","134.20000004768372","","","","","","","","51","1,0,0","0","countryside","22","probe-27","0.7032923317591986","0.3676083106264923","0.2572712440059824","0","","","","","","","",""
"","html-keyboard-response","137","643547","0.0-78.0-1.0","""event"",""trial"",""time""
""fullscreenenter"",""0"",""4416""
""fullscreenexit"",""100"",""533079""
","
","
","""event"",""trial"",""time""
""fullscreenenter"",""0"",""4416""
","""event"",""trial"",""time""
""fullscreenexit"",""100"",""533079""
","null","<p></p>","null","","","","","","","","","","","","","","","","","","","","","","",""
"","do_trial","138","648103","0.0-79.0-0.0","""event"",""trial"",""time""
""fullscreenenter"",""0"",""4416""
""fullscreenexit"",""100"",""533079""
","
","
","""event"",""trial"",""time""
""fullscreenenter"",""0"",""4416""
","""event"",""trial"",""time""
""fullscreenexit"",""100"",""533079""
","0.3000001907348633","","","","","","","","51","0,0,1","0","countryside","23","probe-216","0.6751803756223448","0.2813631171208045","0.39211822743312047","1","","","","","","","",""
"","html-keyboard-response","139","649108","0.0-79.0-1.0","""event"",""trial"",""time""
""fullscreenenter"",""0"",""4416""
""fullscreenexit"",""100"",""533079""
","
","
","""event"",""trial"",""time""
""fullscreenenter"",""0"",""4416""
","""event"",""trial"",""time""
""fullscreenexit"",""100"",""533079""
","null","<p></p>","null","","","","","","","","","","","","","","","","","","","","","","",""
"","do_trial","140","653765","0.0-80.0-0.0","""event"",""trial"",""time""
""fullscreenenter"",""0"",""4416""
""fullscreenexit"",""100"",""533079""
","
","
","""event"",""trial"",""time""
""fullscreenenter"",""0"",""4416""
","""event"",""trial"",""time""
""fullscreenexit"",""100"",""533079""
","109.70000004768372","","","","","","","","49","1,0,0","0","countryside","24","probe-193","0.5781852960371828","0.16443669763314958","0.267367213718031","1","","","","","","","",""
"","html-keyboard-response","141","654773","0.0-80.0-1.0","""event"",""trial"",""time""
""fullscreenenter"",""0"",""4416""
""fullscreenexit"",""100"",""533079""
","
","
","""event"",""trial"",""time""
""fullscreenenter"",""0"",""4416""
","""event"",""trial"",""time""
""fullscreenexit"",""100"",""533079""
","null","<p></p>","null","","","","","","","","","","","","","","","","","","","","","","",""
"","do_trial","142","659428","0.0-81.0-0.0","""event"",""trial"",""time""
""fullscreenenter"",""0"",""4416""
""fullscreenexit"",""100"",""533079""
","
","
","""event"",""trial"",""time""
""fullscreenenter"",""0"",""4416""
","""event"",""trial"",""time""
""fullscreenexit"",""100"",""533079""
","102.40000009536743","","","","","","","","51","0,0,1","0","countryside","25","probe-218","0.5803225338695781","0.2033298465543344","0.324542036220997","1","","","","","","","",""
"","html-keyboard-response","143","660432","0.0-81.0-1.0","""event"",""trial"",""time""
""fullscreenenter"",""0"",""4416""
""fullscreenexit"",""100"",""533079""
","
","
","""event"",""trial"",""time""
""fullscreenenter"",""0"",""4416""
","""event"",""trial"",""time""
""fullscreenexit"",""100"",""533079""
","null","<p></p>","null","","","","","","","","","","","","","","","","","","","","","","",""
"","do_trial","144","664984","0.0-82.0-0.0","""event"",""trial"",""time""
""fullscreenenter"",""0"",""4416""
""fullscreenexit"",""100"",""533079""
","
","
","""event"",""trial"",""time""
""fullscreenenter"",""0"",""4416""
","""event"",""trial"",""time""
""fullscreenexit"",""100"",""533079""
","0.20000004768371582","","","","","","","","49","0,0,0","0","countryside","26","probe-203","0.6336522897681834","0.11040687380515411","0.14414451092466563","0","","","","","","","",""
"","html-keyboard-response","145","665987","0.0-82.0-1.0","""event"",""trial"",""time""
""fullscreenenter"",""0"",""4416""
""fullscreenexit"",""100"",""533079""
","
","
","""event"",""trial"",""time""
""fullscreenenter"",""0"",""4416""
","""event"",""trial"",""time""
""fullscreenexit"",""100"",""533079""
","null","<p></p>","null","","","","","","","","","","","","","","","","","","","","","","",""
"","do_trial","146","670545","0.0-83.0-0.0","""event"",""trial"",""time""
""fullscreenenter"",""0"",""4416""
""fullscreenexit"",""100"",""533079""
","
","
","""event"",""trial"",""time""
""fullscreenenter"",""0"",""4416""
","""event"",""trial"",""time""
""fullscreenexit"",""100"",""533079""
","0.09999990463256836","","","","","","","","51","0,0,0","0","countryside","27","probe-161","0.6546488279608736","0.145733177228201","0.07786558251203052","0","","","","","","","",""
"","html-keyboard-response","147","671548","0.0-83.0-1.0","""event"",""trial"",""time""
""fullscreenenter"",""0"",""4416""
""fullscreenexit"",""100"",""533079""
","
","
","""event"",""trial"",""time""
""fullscreenenter"",""0"",""4416""
","""event"",""trial"",""time""
""fullscreenexit"",""100"",""533079""
","null","<p></p>","null","","","","","","","","","","","","","","","","","","","","","","",""
"","do_trial","148","678596","0.0-84.0-0.0","""event"",""trial"",""time""
""fullscreenenter"",""0"",""4416""
""fullscreenexit"",""100"",""533079""
","
","
","""event"",""trial"",""time""
""fullscreenenter"",""0"",""4416""
","""event"",""trial"",""time""
""fullscreenexit"",""100"",""533079""
","2490","","","","","","","","50","0,0,1","0","countryside","28","probe-55","0.7245921898763161","0.1254973158048948","0.13335648705231062","0","","","","","","","",""
"","html-keyboard-response","149","679600","0.0-84.0-1.0","""event"",""trial"",""time""
""fullscreenenter"",""0"",""4416""
""fullscreenexit"",""100"",""533079""
","
","
","""event"",""trial"",""time""
""fullscreenenter"",""0"",""4416""
","""event"",""trial"",""time""
""fullscreenexit"",""100"",""533079""
","null","<p></p>","null","","","","","","","","","","","","","","","","","","","","","","",""
"","do_trial","150","684295","0.0-85.0-0.0","""event"",""trial"",""time""
""fullscreenenter"",""0"",""4416""
""fullscreenexit"",""100"",""533079""
","
","
","""event"",""trial"",""time""
""fullscreenenter"",""0"",""4416""
","""event"",""trial"",""time""
""fullscreenexit"",""100"",""533079""
","142.59999990463257","","","","","","","","49","0,1,0","0","countryside","29","probe-08","0.5194718141481041","0.2412795628894854","0.16959578419389462","0","","","","","","","",""
"","html-keyboard-response","151","685300","0.0-85.0-1.0","""event"",""trial"",""time""
""fullscreenenter"",""0"",""4416""
""fullscreenexit"",""100"",""533079""
","
","
","""event"",""trial"",""time""
""fullscreenenter"",""0"",""4416""
","""event"",""trial"",""time""
""fullscreenexit"",""100"",""533079""
","null","<p></p>","null","","","","","","","","","","","","","","","","","","","","","","",""
"","do_bye","152","686808","0.0-86.0-0.0","""event"",""trial"",""time""
""fullscreenenter"",""0"",""4416""
""fullscreenexit"",""100"",""533079""
","
","
","""event"",""trial"",""time""
""fullscreenenter"",""0"",""4416""
","""event"",""trial"",""time""
""fullscreenexit"",""100"",""533079""
","null","","","","","","","","null","","","","","","","","","","","","","","","","",""
"","break","153","698071","0.0-86.0-1.0","""event"",""trial"",""time""
""fullscreenenter"",""0"",""4416""
""fullscreenexit"",""100"",""533079""
","
","
","""event"",""trial"",""time""
""fullscreenenter"",""0"",""4416""
","""event"",""trial"",""time""
""fullscreenexit"",""100"",""533079""
","11260.900000095367","<div class='center'><p>Time to take a quick break! You have 2 minutes to rest, but you can move on sooner if you'd like.</p><p> Press the <b>space bar</b> to continue.</p></div>","32","","","","","","","","","","","","","","","","","","","","","","",""
"","do_travel","154","707080","0.0-87.0-0.0","""event"",""trial"",""time""
""fullscreenenter"",""0"",""4416""
""fullscreenexit"",""100"",""533079""
","
","
","""event"",""trial"",""time""
""fullscreenenter"",""0"",""4416""
","""event"",""trial"",""time""
""fullscreenexit"",""100"",""533079""
","null","","","","","","","","null","","","","","","","","","","","","","","","","",""
"","do_welcome","155","711091","0.0-87.0-1.0","""event"",""trial"",""time""
""fullscreenenter"",""0"",""4416""
""fullscreenexit"",""100"",""533079""
","
","
","""event"",""trial"",""time""
""fullscreenenter"",""0"",""4416""
","""event"",""trial"",""time""
""fullscreenexit"",""100"",""533079""
","null","","","","","","","","null","","","","","","","","","","","","","","","","",""
"","do_trial","156","717146","0.0-88.0-0.0","""event"",""trial"",""time""
""fullscreenenter"",""0"",""4416""
""fullscreenexit"",""100"",""533079""
","
","
","""event"",""trial"",""time""
""fullscreenenter"",""0"",""4416""
","""event"",""trial"",""time""
""fullscreenexit"",""100"",""533079""
","null","","","","","","","","null","1,1,0","1","mountain","30","probe-52","1","0.3508160144659194","0.20384852932442163","","","","","","","","",""
"","html-keyboard-response","157","718150","0.0-88.0-1.0","""event"",""trial"",""time""
""fullscreenenter"",""0"",""4416""
""fullscreenexit"",""100"",""533079""
","
","
","""event"",""trial"",""time""
""fullscreenenter"",""0"",""4416""
","""event"",""trial"",""time""
""fullscreenexit"",""100"",""533079""
","null","<p></p>","null","","","","","","","","","","","","","","","","","","","","","","",""
"","do_trial","158","723345","0.0-89.0-0.0","""event"",""trial"",""time""
""fullscreenenter"",""0"",""4416""
""fullscreenexit"",""100"",""533079""
","
","
","""event"",""trial"",""time""
""fullscreenenter"",""0"",""4416""
","""event"",""trial"",""time""
""fullscreenexit"",""100"",""533079""
","645.0999999046326","","","","","","","","49","1,0,0","1","mountain","31","probe-80","1","0.2179681847448512","0.1575687363243488","1","","","","","","","",""
"","html-keyboard-response","159","724349","0.0-89.0-1.0","""event"",""trial"",""time""
""fullscreenenter"",""0"",""4416""
""fullscreenexit"",""100"",""533079""
","
","
","""event"",""trial"",""time""
""fullscreenenter"",""0"",""4416""
","""event"",""trial"",""time""
""fullscreenexit"",""100"",""533079""
","null","<p></p>","null","","","","","","","","","","","","","","","","","","","","","","",""
"","do_trial","160","728941","0.0-90.0-0.0","""event"",""trial"",""time""
""fullscreenenter"",""0"",""4416""
""fullscreenexit"",""100"",""533079""
","
","
","""event"",""trial"",""time""
""fullscreenenter"",""0"",""4416""
","""event"",""trial"",""time""
""fullscreenexit"",""100"",""533079""
","38.40000009536743","","","","","","","","49","1,0,0","1","mountain","32","probe-88","1","0.2080827040476552","0.11458592216984213","1","","","","","","","",""
"","html-keyboard-response","161","729945","0.0-90.0-1.0","""event"",""trial"",""time""
""fullscreenenter"",""0"",""4416""
""fullscreenexit"",""100"",""533079""
","
","
","""event"",""trial"",""time""
""fullscreenenter"",""0"",""4416""
","""event"",""trial"",""time""
""fullscreenexit"",""100"",""533079""
","null","<p></p>","null","","","","","","","","","","","","","","","","","","","","","","",""
"","do_trial","162","734606","0.0-91.0-0.0","""event"",""trial"",""time""
""fullscreenenter"",""0"",""4416""
""fullscreenexit"",""100"",""533079""
","
","
","""event"",""trial"",""time""
""fullscreenenter"",""0"",""4416""
","""event"",""trial"",""time""
""fullscreenexit"",""100"",""533079""
","107.70000004768372","","","","","","","","49","1,0,0","1","mountain","33","probe-98","0.8997035375682155","0.1665035472568601","0.09219480710054262","1","","","","","","","",""
"","html-keyboard-response","163","735611","0.0-91.0-1.0","""event"",""trial"",""time""
""fullscreenenter"",""0"",""4416""
""fullscreenexit"",""100"",""533079""
","
","
","""event"",""trial"",""time""
""fullscreenenter"",""0"",""4416""
","""event"",""trial"",""time""
""fullscreenexit"",""100"",""533079""
","null","<p></p>","null","","","","","","","","","","","","","","","","","","","","","","",""
"","do_trial","164","740271","0.0-92.0-0.0","""event"",""trial"",""time""
""fullscreenenter"",""0"",""4416""
""fullscreenexit"",""100"",""533079""
","
","
","""event"",""trial"",""time""
""fullscreenenter"",""0"",""4416""
","""event"",""trial"",""time""
""fullscreenexit"",""100"",""533079""
","110.20000004768372","","","","","","","","49","0,0,0","1","mountain","34","probe-53","0.7284222145714135","0.31406340758920254","0.07890463337045482","0","","","","","","","",""
"","html-keyboard-response","165","741276","0.0-92.0-1.0","""event"",""trial"",""time""
""fullscreenenter"",""0"",""4416""
""fullscreenexit"",""100"",""533079""
","
","
","""event"",""trial"",""time""
""fullscreenenter"",""0"",""4416""
","""event"",""trial"",""time""
""fullscreenexit"",""100"",""533079""
","null","<p></p>","null","","","","","","","","","","","","","","","","","","","","","","",""
"","do_trial","166","745837","0.0-93.0-0.0","""event"",""trial"",""time""
""fullscreenenter"",""0"",""4416""
""fullscreenexit"",""100"",""533079""
","
","
","""event"",""trial"",""time""
""fullscreenenter"",""0"",""4416""
","""event"",""trial"",""time""
""fullscreenexit"",""100"",""533079""
","5.299999952316284","","","","","","","","49","0,1,1","1","mountain","35","probe-127","0.7760381663830634","0.3067975618457119","0.14255142340012739","0","","","","","","","",""
"","html-keyboard-response","167","746843","0.0-93.0-1.0","""event"",""trial"",""time""
""fullscreenenter"",""0"",""4416""
""fullscreenexit"",""100"",""533079""
","
","
","""event"",""trial"",""time""
""fullscreenenter"",""0"",""4416""
","""event"",""trial"",""time""
""fullscreenexit"",""100"",""533079""
","null","<p></p>","null","","","","","","","","","","","","","","","","","","","","","","",""
"","do_trial","168","751394","0.0-94.0-0.0","""event"",""trial"",""time""
""fullscreenenter"",""0"",""4416""
""fullscreenexit"",""100"",""533079""
","
","
","""event"",""trial"",""time""
""fullscreenenter"",""0"",""4416""
","""event"",""trial"",""time""
""fullscreenexit"",""100"",""533079""
","0.10000014305114746","","","","","","","","49","0,1,0","1","mountain","36","probe-160","0.5723643666154411","0.36130098450415354","0.111201584017706","0","","","","","","","",""
"","html-keyboard-response","169","752398","0.0-94.0-1.0","""event"",""trial"",""time""
""fullscreenenter"",""0"",""4416""
""fullscreenexit"",""100"",""533079""
","
","
","""event"",""trial"",""time""
""fullscreenenter"",""0"",""4416""
","""event"",""trial"",""time""
""fullscreenexit"",""100"",""533079""
","null","<p></p>","null","","","","","","","","","","","","","","","","","","","","","","",""
"","do_trial","170","757149","0.0-95.0-0.0","""event"",""trial"",""time""
""fullscreenenter"",""0"",""4416""
""fullscreenexit"",""100"",""533079""
","
","
","""event"",""trial"",""time""
""fullscreenenter"",""0"",""4416""
","""event"",""trial"",""time""
""fullscreenexit"",""100"",""533079""
","198.5","","","","","","","","50","1,0,0","1","mountain","37","probe-200","0.5596280448125348","0.27345993267189433","0.23806949539370925","0","","","","","","","",""
"","html-keyboard-response","171","758151","0.0-95.0-1.0","""event"",""trial"",""time""
""fullscreenenter"",""0"",""4416""
""fullscreenexit"",""100"",""533079""
","
","
","""event"",""trial"",""time""
""fullscreenenter"",""0"",""4416""
","""event"",""trial"",""time""
""fullscreenexit"",""100"",""533079""
","null","<p></p>","null","","","","","","","","","","","","","","","","","","","","","","",""
"","do_trial","172","762702","0.0-96.0-0.0","""event"",""trial"",""time""
""fullscreenenter"",""0"",""4416""
""fullscreenexit"",""100"",""533079""
","
","
","""event"",""trial"",""time""
""fullscreenenter"",""0"",""4416""
","""event"",""trial"",""time""
""fullscreenexit"",""100"",""533079""
","0.09999990463256836","","","","","","","","50","1,0,0","1","mountain","38","probe-94","0.5997064811863796","0.27952152737654645","0.1760697427520425","0","","","","","","","",""
"","html-keyboard-response","173","763706","0.0-96.0-1.0","""event"",""trial"",""time""
""fullscreenenter"",""0"",""4416""
""fullscreenexit"",""100"",""533079""
","
","
","""event"",""trial"",""time""
""fullscreenenter"",""0"",""4416""
","""event"",""trial"",""time""
""fullscreenexit"",""100"",""533079""
","null","<p></p>","null","","","","","","","","","","","","","","","","","","","","","","",""
"","do_trial","174","768257","0.0-97.0-0.0","""event"",""trial"",""time""
""fullscreenenter"",""0"",""4416""
""fullscreenexit"",""100"",""533079""
","
","
","""event"",""trial"",""time""
""fullscreenenter"",""0"",""4416""
","""event"",""trial"",""time""
""fullscreenexit"",""100"",""533079""
","0.20000004768371582","","","","","","","","50","0,0,1","1","mountain","39","probe-77","0.5877597702064629","0.17297249490059372","0.1765742303227207","0","","","","","","","",""
"","html-keyboard-response","175","769261","0.0-97.0-1.0","""event"",""trial"",""time""
""fullscreenenter"",""0"",""4416""
""fullscreenexit"",""100"",""533079""
","
","
","""event"",""trial"",""time""
""fullscreenenter"",""0"",""4416""
","""event"",""trial"",""time""
""fullscreenexit"",""100"",""533079""
","null","<p></p>","null","","","","","","","","","","","","","","","","","","","","","","",""
"","do_trial","176","773818","0.0-98.0-0.0","""event"",""trial"",""time""
""fullscreenenter"",""0"",""4416""
""fullscreenexit"",""100"",""533079""
","
","
","""event"",""trial"",""time""
""fullscreenenter"",""0"",""4416""
","""event"",""trial"",""time""
""fullscreenexit"",""100"",""533079""
","0.40000009536743164","","","","","","","","49","0,0,0","1","mountain","40","probe-212","0.6823117073654793","0.3283232557245249","0.18171062097681429","0","","","","","","","",""
"","html-keyboard-response","177","774822","0.0-98.0-1.0","""event"",""trial"",""time""
""fullscreenenter"",""0"",""4416""
""fullscreenexit"",""100"",""533079""
","
","
","""event"",""trial"",""time""
""fullscreenenter"",""0"",""4416""
","""event"",""trial"",""time""
""fullscreenexit"",""100"",""533079""
","null","<p></p>","null","","","","","","","","","","","","","","","","","","","","","","",""
"","do_trial","178","779431","0.0-99.0-0.0","""event"",""trial"",""time""
""fullscreenenter"",""0"",""4416""
""fullscreenexit"",""100"",""533079""
","
","
","""event"",""trial"",""time""
""fullscreenenter"",""0"",""4416""
","""event"",""trial"",""time""
""fullscreenexit"",""100"",""533079""
","50.700000047683716","","","","","","","","49","1,1,0","1","mountain","41","probe-225","0.6335609206328758","0.45884815445299076","0.09646549264266095","1","","","","","","","",""
"","html-keyboard-response","179","780435","0.0-99.0-1.0","""event"",""trial"",""time""
""fullscreenenter"",""0"",""4416""
""fullscreenexit"",""100"",""533079""
","
","
","""event"",""trial"",""time""
""fullscreenenter"",""0"",""4416""
","""event"",""trial"",""time""
""fullscreenexit"",""100"",""533079""
","null","<p></p>","null","","","","","","","","","","","","","","","","","","","","","","",""
"","do_trial","180","784998","0.0-100.0-0.0","""event"",""trial"",""time""
""fullscreenenter"",""0"",""4416""
""fullscreenexit"",""100"",""533079""
","
","
","""event"",""trial"",""time""
""fullscreenenter"",""0"",""4416""
","""event"",""trial"",""time""
""fullscreenexit"",""100"",""533079""
","0.10000014305114746","","","","","","","","51","0,0,0","1","mountain","42","probe-04","0.4722656770447539","0.34158651313130506","0.1647225062479053","0","","","","","","","",""
"","html-keyboard-response","181","786002","0.0-100.0-1.0","""event"",""trial"",""time""
""fullscreenenter"",""0"",""4416""
""fullscreenexit"",""100"",""533079""
""blur"",""182"",""789640""
","""event"",""trial"",""time""
""blur"",""182"",""789640""
","
","""event"",""trial"",""time""
""fullscreenenter"",""0"",""4416""
","""event"",""trial"",""time""
""fullscreenexit"",""100"",""533079""
","null","<p></p>","null","","","","","","","","","","","","","","","","","","","","","","",""
"","do_trial","182","791064","0.0-101.0-0.0","""event"",""trial"",""time""
""fullscreenenter"",""0"",""4416""
""fullscreenexit"",""100"",""533079""
""blur"",""182"",""789640""
""focus"",""183"",""791898""
","""event"",""trial"",""time""
""blur"",""182"",""789640""
","""event"",""trial"",""time""
""focus"",""183"",""791898""
","""event"",""trial"",""time""
""fullscreenenter"",""0"",""4416""
","""event"",""trial"",""time""
""fullscreenexit"",""100"",""533079""
","498.39999985694885","","","","","","","","50","0,0,0","1","mountain","43","probe-96","0.31817323875512626","0.600025170089999","0.42744606978527516","0","","","","","","","",""
"","html-keyboard-response","183","792069","0.0-101.0-1.0","""event"",""trial"",""time""
""fullscreenenter"",""0"",""4416""
""fullscreenexit"",""100"",""533079""
""blur"",""182"",""789640""
""focus"",""183"",""791898""
","""event"",""trial"",""time""
""blur"",""182"",""789640""
","""event"",""trial"",""time""
""focus"",""183"",""791898""
","""event"",""trial"",""time""
""fullscreenenter"",""0"",""4416""
","""event"",""trial"",""time""
""fullscreenexit"",""100"",""533079""
","null","<p></p>","null","","","","","","","","","","","","","","","","","","","","","","",""
"","do_trial","184","798140","0.0-102.0-0.0","""event"",""trial"",""time""
""fullscreenenter"",""0"",""4416""
""fullscreenexit"",""100"",""533079""
""blur"",""182"",""789640""
""focus"",""183"",""791898""
","""event"",""trial"",""time""
""blur"",""182"",""789640""
","""event"",""trial"",""time""
""focus"",""183"",""791898""
","""event"",""trial"",""time""
""fullscreenenter"",""0"",""4416""
","""event"",""trial"",""time""
""fullscreenexit"",""100"",""533079""
","1516.7999999523163","","","","","","","","49","0,1,0","1","mountain","44","probe-71","0.41288692354430034","0.5548641856925701","0.28988718599629876","0","","","","","","","",""
"","html-keyboard-response","185","799144","0.0-102.0-1.0","""event"",""trial"",""time""
""fullscreenenter"",""0"",""4416""
""fullscreenexit"",""100"",""533079""
""blur"",""182"",""789640""
""focus"",""183"",""791898""
","""event"",""trial"",""time""
""blur"",""182"",""789640""
","""event"",""trial"",""time""
""focus"",""183"",""791898""
","""event"",""trial"",""time""
""fullscreenenter"",""0"",""4416""
","""event"",""trial"",""time""
""fullscreenexit"",""100"",""533079""
","null","<p></p>","null","","","","","","","","","","","","","","","","","","","","","","",""
"","do_trial","186","803899","0.0-103.0-0.0","""event"",""trial"",""time""
""fullscreenenter"",""0"",""4416""
""fullscreenexit"",""100"",""533079""
""blur"",""182"",""789640""
""focus"",""183"",""791898""
","""event"",""trial"",""time""
""blur"",""182"",""789640""
","""event"",""trial"",""time""
""focus"",""183"",""791898""
","""event"",""trial"",""time""
""fullscreenenter"",""0"",""4416""
","""event"",""trial"",""time""
""fullscreenexit"",""100"",""533079""
","206.70000004768372","","","","","","","","49","0,0,0","1","mountain","45","probe-157","0.3075351327825229","0.6177948309527898","0.4081164625816661","0","","","","","","","",""
"","html-keyboard-response","187","804902","0.0-103.0-1.0","""event"",""trial"",""time""
""fullscreenenter"",""0"",""4416""
""fullscreenexit"",""100"",""533079""
""blur"",""182"",""789640""
""focus"",""183"",""791898""
","""event"",""trial"",""time""
""blur"",""182"",""789640""
","""event"",""trial"",""time""
""focus"",""183"",""791898""
","""event"",""trial"",""time""
""fullscreenenter"",""0"",""4416""
","""event"",""trial"",""time""
""fullscreenexit"",""100"",""533079""
","null","<p></p>","null","","","","","","","","","","","","","","","","","","","","","","",""
"","do_trial","188","809535","0.0-104.0-0.0","""event"",""trial"",""time""
""fullscreenenter"",""0"",""4416""
""fullscreenexit"",""100"",""533079""
""blur"",""182"",""789640""
""focus"",""183"",""791898""
","""event"",""trial"",""time""
""blur"",""182"",""789640""
","""event"",""trial"",""time""
""focus"",""183"",""791898""
","""event"",""trial"",""time""
""fullscreenenter"",""0"",""4416""
","""event"",""trial"",""time""
""fullscreenexit"",""100"",""533079""
","82.20000004768372","","","","","","","","50","1,1,0","1","mountain","46","probe-187","0.16580203955215114","0.610520796494635","0.35069504772483967","1","","","","","","","",""
"","html-keyboard-response","189","810539","0.0-104.0-1.0","""event"",""trial"",""time""
""fullscreenenter"",""0"",""4416""
""fullscreenexit"",""100"",""533079""
""blur"",""182"",""789640""
""focus"",""183"",""791898""
","""event"",""trial"",""time""
""blur"",""182"",""789640""
","""event"",""trial"",""time""
""focus"",""183"",""791898""
","""event"",""trial"",""time""
""fullscreenenter"",""0"",""4416""
","""event"",""trial"",""time""
""fullscreenexit"",""100"",""533079""
","null","<p></p>","null","","","","","","","","","","","","","","","","","","","","","","",""
"","do_trial","190","815148","0.0-105.0-0.0","""event"",""trial"",""time""
""fullscreenenter"",""0"",""4416""
""fullscreenexit"",""100"",""533079""
""blur"",""182"",""789640""
""focus"",""183"",""791898""
","""event"",""trial"",""time""
""blur"",""182"",""789640""
","""event"",""trial"",""time""
""focus"",""183"",""791898""
","""event"",""trial"",""time""
""fullscreenenter"",""0"",""4416""
","""event"",""trial"",""time""
""fullscreenexit"",""100"",""533079""
","55","","","","","","","","51","1,1,0","1","mountain","47","probe-204","0.07814023537648705","0.7165569386388512","0.3454227834560645","0","","","","","","","",""
"","html-keyboard-response","191","816152","0.0-105.0-1.0","""event"",""trial"",""time""
""fullscreenenter"",""0"",""4416""
""fullscreenexit"",""100"",""533079""
""blur"",""182"",""789640""
""focus"",""183"",""791898""
","""event"",""trial"",""time""
""blur"",""182"",""789640""
","""event"",""trial"",""time""
""focus"",""183"",""791898""
","""event"",""trial"",""time""
""fullscreenenter"",""0"",""4416""
","""event"",""trial"",""time""
""fullscreenexit"",""100"",""533079""
","null","<p></p>","null","","","","","","","","","","","","","","","","","","","","","","",""
"","do_trial","192","820709","0.0-106.0-0.0","""event"",""trial"",""time""
""fullscreenenter"",""0"",""4416""
""fullscreenexit"",""100"",""533079""
""blur"",""182"",""789640""
""focus"",""183"",""791898""
","""event"",""trial"",""time""
""blur"",""182"",""789640""
","""event"",""trial"",""time""
""focus"",""183"",""791898""
","""event"",""trial"",""time""
""fullscreenenter"",""0"",""4416""
","""event"",""trial"",""time""
""fullscreenexit"",""100"",""533079""
","0.09999990463256836","","","","","","","","50","0,1,0","1","mountain","48","probe-210","0.051601649736192","0.654368386193859","0.4417684003035612","1","","","","","","","",""
"","html-keyboard-response","193","821714","0.0-106.0-1.0","""event"",""trial"",""time""
""fullscreenenter"",""0"",""4416""
""fullscreenexit"",""100"",""533079""
""blur"",""182"",""789640""
""focus"",""183"",""791898""
","""event"",""trial"",""time""
""blur"",""182"",""789640""
","""event"",""trial"",""time""
""focus"",""183"",""791898""
","""event"",""trial"",""time""
""fullscreenenter"",""0"",""4416""
","""event"",""trial"",""time""
""fullscreenexit"",""100"",""533079""
","null","<p></p>","null","","","","","","","","","","","","","","","","","","","","","","",""
"","do_trial","194","826542","0.0-107.0-0.0","""event"",""trial"",""time""
""fullscreenenter"",""0"",""4416""
""fullscreenexit"",""100"",""533079""
""blur"",""182"",""789640""
""focus"",""183"",""791898""
","""event"",""trial"",""time""
""blur"",""182"",""789640""
","""event"",""trial"",""time""
""focus"",""183"",""791898""
","""event"",""trial"",""time""
""fullscreenenter"",""0"",""4416""
","""event"",""trial"",""time""
""fullscreenexit"",""100"",""533079""
","270.7999999523163","","","","","","","","49","0,0,0","1","mountain","49","probe-172","0.1466845178225961","0.6034782715240603","0.33226820889420433","0","","","","","","","",""
"","html-keyboard-response","195","827548","0.0-107.0-1.0","""event"",""trial"",""time""
""fullscreenenter"",""0"",""4416""
""fullscreenexit"",""100"",""533079""
""blur"",""182"",""789640""
""focus"",""183"",""791898""
","""event"",""trial"",""time""
""blur"",""182"",""789640""
","""event"",""trial"",""time""
""focus"",""183"",""791898""
","""event"",""trial"",""time""
""fullscreenenter"",""0"",""4416""
","""event"",""trial"",""time""
""fullscreenexit"",""100"",""533079""
","null","<p></p>","null","","","","","","","","","","","","","","","","","","","","","","",""
"","do_trial","196","832267","0.0-108.0-0.0","""event"",""trial"",""time""
""fullscreenenter"",""0"",""4416""
""fullscreenexit"",""100"",""533079""
""blur"",""182"",""789640""
""focus"",""183"",""791898""
","""event"",""trial"",""time""
""blur"",""182"",""789640""
","""event"",""trial"",""time""
""focus"",""183"",""791898""
","""event"",""trial"",""time""
""fullscreenenter"",""0"",""4416""
","""event"",""trial"",""time""
""fullscreenexit"",""100"",""533079""
","167.29999995231628","","","","","","","","49","0,0,0","1","mountain","50","probe-11","0.191205671664276","0.5545390889896799","0.35616162619134345","0","","","","","","","",""
"","html-keyboard-response","197","833271","0.0-108.0-1.0","""event"",""trial"",""time""
""fullscreenenter"",""0"",""4416""
""fullscreenexit"",""100"",""533079""
""blur"",""182"",""789640""
""focus"",""183"",""791898""
","""event"",""trial"",""time""
""blur"",""182"",""789640""
","""event"",""trial"",""time""
""focus"",""183"",""791898""
","""event"",""trial"",""time""
""fullscreenenter"",""0"",""4416""
","""event"",""trial"",""time""
""fullscreenexit"",""100"",""533079""
","null","<p></p>","null","","","","","","","","","","","","","","","","","","","","","","",""
"","do_trial","198","837825","0.0-109.0-0.0","""event"",""trial"",""time""
""fullscreenenter"",""0"",""4416""
""fullscreenexit"",""100"",""533079""
""blur"",""182"",""789640""
""focus"",""183"",""791898""
","""event"",""trial"",""time""
""blur"",""182"",""789640""
","""event"",""trial"",""time""
""focus"",""183"",""791898""
","""event"",""trial"",""time""
""fullscreenenter"",""0"",""4416""
","""event"",""trial"",""time""
""fullscreenexit"",""100"",""533079""
","0.09999990463256836","","","","","","","","50","0,0,0","1","mountain","51","probe-120","0.1383289581961406","0.49737822362216066","0.4324727424927485","0","","","","","","","",""
"","html-keyboard-response","199","838832","0.0-109.0-1.0","""event"",""trial"",""time""
""fullscreenenter"",""0"",""4416""
""fullscreenexit"",""100"",""533079""
""blur"",""182"",""789640""
""focus"",""183"",""791898""
","""event"",""trial"",""time""
""blur"",""182"",""789640""
","""event"",""trial"",""time""
""focus"",""183"",""791898""
","""event"",""trial"",""time""
""fullscreenenter"",""0"",""4416""
","""event"",""trial"",""time""
""fullscreenexit"",""100"",""533079""
","null","<p></p>","null","","","","","","","","","","","","","","","","","","","","","","",""
"","do_trial","200","843660","0.0-110.0-0.0","""event"",""trial"",""time""
""fullscreenenter"",""0"",""4416""
""fullscreenexit"",""100"",""533079""
""blur"",""182"",""789640""
""focus"",""183"",""791898""
","""event"",""trial"",""time""
""blur"",""182"",""789640""
","""event"",""trial"",""time""
""focus"",""183"",""791898""
","""event"",""trial"",""time""
""fullscreenenter"",""0"",""4416""
","""event"",""trial"",""time""
""fullscreenexit"",""100"",""533079""
","272.80000019073486","","","","","","","","51","0,1,0","1","mountain","52","probe-68","0.06042944538229906","0.5136517176559162","0.3838497084401067","0","","","","","","","",""
"","html-keyboard-response","201","844663","0.0-110.0-1.0","""event"",""trial"",""time""
""fullscreenenter"",""0"",""4416""
""fullscreenexit"",""100"",""533079""
""blur"",""182"",""789640""
""focus"",""183"",""791898""
","""event"",""trial"",""time""
""blur"",""182"",""789640""
","""event"",""trial"",""time""
""focus"",""183"",""791898""
","""event"",""trial"",""time""
""fullscreenenter"",""0"",""4416""
","""event"",""trial"",""time""
""fullscreenexit"",""100"",""533079""
","null","<p></p>","null","","","","","","","","","","","","","","","","","","","","","","",""
"","do_trial","202","849333","0.0-111.0-0.0","""event"",""trial"",""time""
""fullscreenenter"",""0"",""4416""
""fullscreenexit"",""100"",""533079""
""blur"",""182"",""789640""
""focus"",""183"",""791898""
","""event"",""trial"",""time""
""blur"",""182"",""789640""
","""event"",""trial"",""time""
""focus"",""183"",""791898""
","""event"",""trial"",""time""
""fullscreenenter"",""0"",""4416""
","""event"",""trial"",""time""
""fullscreenexit"",""100"",""533079""
","114.59999990463257","","","","","","","","50","0,0,1","1","mountain","53","probe-104","0.1158235528516496","0.571626313095424","0.3085045790985499","0","","","","","","","",""
"","html-keyboard-response","203","850337","0.0-111.0-1.0","""event"",""trial"",""time""
""fullscreenenter"",""0"",""4416""
""fullscreenexit"",""100"",""533079""
""blur"",""182"",""789640""
""focus"",""183"",""791898""
","""event"",""trial"",""time""
""blur"",""182"",""789640""
","""event"",""trial"",""time""
""focus"",""183"",""791898""
","""event"",""trial"",""time""
""fullscreenenter"",""0"",""4416""
","""event"",""trial"",""time""
""fullscreenexit"",""100"",""533079""
","null","<p></p>","null","","","","","","","","","","","","","","","","","","","","","","",""
"","do_trial","204","854894","0.0-112.0-0.0","""event"",""trial"",""time""
""fullscreenenter"",""0"",""4416""
""fullscreenexit"",""100"",""533079""
""blur"",""182"",""789640""
""focus"",""183"",""791898""
","""event"",""trial"",""time""
""blur"",""182"",""789640""
","""event"",""trial"",""time""
""focus"",""183"",""791898""
","""event"",""trial"",""time""
""fullscreenenter"",""0"",""4416""
","""event"",""trial"",""time""
""fullscreenexit"",""100"",""533079""
","0.2999999523162842","","","","","","","","49","0,1,0","1","mountain","54","probe-34","0.12681286384788212","0.5925370447273636","0.1836336129649324","0","","","","","","","",""
"","html-keyboard-response","205","855897","0.0-112.0-1.0","""event"",""trial"",""time""
""fullscreenenter"",""0"",""4416""
""fullscreenexit"",""100"",""533079""
""blur"",""182"",""789640""
""focus"",""183"",""791898""
","""event"",""trial"",""time""
""blur"",""182"",""789640""
","""event"",""trial"",""time""
""focus"",""183"",""791898""
","""event"",""trial"",""time""
""fullscreenenter"",""0"",""4416""
","""event"",""trial"",""time""
""fullscreenexit"",""100"",""533079""
","null","<p></p>","null","","","","","","","","","","","","","","","","","","","","","","",""
"","do_trial","206","860606","0.0-113.0-0.0","""event"",""trial"",""time""
""fullscreenenter"",""0"",""4416""
""fullscreenexit"",""100"",""533079""
""blur"",""182"",""789640""
""focus"",""183"",""791898""
","""event"",""trial"",""time""
""blur"",""182"",""789640""
","""event"",""trial"",""time""
""focus"",""183"",""791898""
","""event"",""trial"",""time""
""fullscreenenter"",""0"",""4416""
","""event"",""trial"",""time""
""fullscreenexit"",""100"",""533079""
","147.90000009536743","","","","","","","","50","1,1,0","1","mountain","55","probe-110","0.0952041246342874","0.5152232945256757","0.23034434020581593","1","","","","","","","",""
"","html-keyboard-response","207","861611","0.0-113.0-1.0","""event"",""trial"",""time""
""fullscreenenter"",""0"",""4416""
""fullscreenexit"",""100"",""533079""
""blur"",""182"",""789640""
""focus"",""183"",""791898""
","""event"",""trial"",""time""
""blur"",""182"",""789640""
","""event"",""trial"",""time""
""focus"",""183"",""791898""
","""event"",""trial"",""time""
""fullscreenenter"",""0"",""4416""
","""event"",""trial"",""time""
""fullscreenexit"",""100"",""533079""
","null","<p></p>","null","","","","","","","","","","","","","","","","","","","","","","",""
"","do_trial","208","867003","0.0-114.0-0.0","""event"",""trial"",""time""
""fullscreenenter"",""0"",""4416""
""fullscreenexit"",""100"",""533079""
""blur"",""182"",""789640""
""focus"",""183"",""791898""
","""event"",""trial"",""time""
""blur"",""182"",""789640""
","""event"",""trial"",""time""
""focus"",""183"",""791898""
","""event"",""trial"",""time""
""fullscreenenter"",""0"",""4416""
","""event"",""trial"",""time""
""fullscreenexit"",""100"",""533079""
","844.4000000953674","","","","","","","","51","0,0,0","1","mountain","56","probe-84","0.08359318622775697","0.44644849357794586","0.25668552794337707","0","","","","","","","",""
"","html-keyboard-response","209","868007","0.0-114.0-1.0","""event"",""trial"",""time""
""fullscreenenter"",""0"",""4416""
""fullscreenexit"",""100"",""533079""
""blur"",""182"",""789640""
""focus"",""183"",""791898""
","""event"",""trial"",""time""
""blur"",""182"",""789640""
","""event"",""trial"",""time""
""focus"",""183"",""791898""
","""event"",""trial"",""time""
""fullscreenenter"",""0"",""4416""
","""event"",""trial"",""time""
""fullscreenexit"",""100"",""533079""
","null","<p></p>","null","","","","","","","","","","","","","","","","","","","","","","",""
"","do_trial","210","872646","0.0-115.0-0.0","""event"",""trial"",""time""
""fullscreenenter"",""0"",""4416""
""fullscreenexit"",""100"",""533079""
""blur"",""182"",""789640""
""focus"",""183"",""791898""
","""event"",""trial"",""time""
""blur"",""182"",""789640""
","""event"",""trial"",""time""
""focus"",""183"",""791898""
","""event"",""trial"",""time""
""fullscreenenter"",""0"",""4416""
","""event"",""trial"",""time""
""fullscreenexit"",""100"",""533079""
","85.79999995231628","","","","","","","","49","0,0,0","1","mountain","57","probe-82","0.1073532568844021","0.5102134651187819","0.4363428726325986","0","","","","","","","",""
"","html-keyboard-response","211","873650","0.0-115.0-1.0","""event"",""trial"",""time""
