"success","trial_type","trial_index","time_elapsed","internal_node_id","interactions","blur_events","focus_events","fullscreenenter_events","fullscreenexit_events","rt","stimulus","key_press","subject_id","participant_id","age","gender","prompt","response","choice_outcomes","context_n","context_img_id","trial_n","probe_img_id","pR_red","pR_white","pR_black","outcome","contextArray_ind","validImageProbes","invalidImageProbes","pRew_Red","pRew_White","pRew_Black","availableForMemProbe","choice_blocks"
"true","fullscreen","0","2086","0.0-0.0","""event"",""trial"",""time""
""fullscreenenter"",""0"",""1126""
","
","
","""event"",""trial"",""time""
""fullscreenenter"",""0"",""1126""
","
","","","","","","","","","","","","","","","","","","","","","","","","","",""
"","pavlovia","1","2088","0.0-1.0","""event"",""trial"",""time""
""fullscreenenter"",""0"",""1126""
","
","
","""event"",""trial"",""time""
""fullscreenenter"",""0"",""1126""
","
","","","","","","","","","","","","","","","","","","","","","","","","","",""
"","instruc1","2","47162","0.0-2.0","""event"",""trial"",""time""
""fullscreenenter"",""0"",""1126""
","
","
","""event"",""trial"",""time""
""fullscreenenter"",""0"",""1126""
","
","null","run_exp/static/audio/clip_1_welcome.m4a","null","341","470","21","Male","<div class='center'><p>Welcome! This is the first part of the study. It will last ~30 minutes. In part 1 and part 2 of the study, you are the head captain of a pirate ship traveling around the world to different islands. You will play a few different games throughout these two parts. Here is an overview of them:</p><br><p>Part 1 (today)</p><p>1. Instructions, practice game, and quiz</p><p>2. Pick a pirate game on 6 different islands</p><br><p>Part 2 (tomorrow)</p><p>3. Pick a pirate game and memory game</p><p>4. Where did you see this ship? </p></div>","","","","","","","","","","","","","","","","","",""
"","html-keyboard-response","3","51007","0.0-3.0","""event"",""trial"",""time""
""fullscreenenter"",""0"",""1126""
","
","
","""event"",""trial"",""time""
""fullscreenenter"",""0"",""1126""
","
","3844.100000143051","<div class='center'><p>Welcome! This is the first part of the study. It will last ~30 minutes. In part 1 and part 2 of the study, you are the head captain of a pirate ship traveling around the world to different islands. You will play a few different games throughout these two parts. Here is an overview of them:</p><br><p>Part 1 (today)</p><p>1. Instructions, practice game, and quiz</p><p>2. Pick a pirate game on 6 different islands</p><br><p>Part 2 (tomorrow)</p><p>3. Pick a pirate game and memory game</p><p>4. Where did you see this ship? </p><p><b>[Press the space bar to continue]</b></p></div>","32","","","","","","","","","","","","","","","","","","","","","","",""
"","instruc2","4","56302","0.0-4.0","""event"",""trial"",""time""
""fullscreenenter"",""0"",""1126""
","
","
","""event"",""trial"",""time""
""fullscreenenter"",""0"",""1126""
","
","null","run_exp/static/audio/clip_2_different_places.m4a","null","","","","","<div class='center'><p>Today, you’ll visit these 6 islands on your journey. You'll be able to see these islands from your ship.</p><p><img src='run_exp/static/images/contexts/all_contexts.png' height='500'></p></div>","","","","","","","","","","","","","","","","","",""
"","html-keyboard-response","5","64790","0.0-5.0","""event"",""trial"",""time""
""fullscreenenter"",""0"",""1126""
","
","
","""event"",""trial"",""time""
""fullscreenenter"",""0"",""1126""
","
","8487.299999952316","<div class='center'><p>Today, you’ll visit these 6 islands on your journey. You'll be able to see these islands from your ship.</p><p><img src='run_exp/static/images/contexts/all_contexts.png' height='500'></p><p><b>[Press the space bar to continue]</b></p></div>","32","","","","","","","","","","","","","","","","","","","","","","",""
"","instruc3","6","74462","0.0-6.0","""event"",""trial"",""time""
""fullscreenenter"",""0"",""1126""
","
","
","""event"",""trial"",""time""
""fullscreenenter"",""0"",""1126""
","
","null","run_exp/static/audio/clip_3_goal_of_game_1.m4a","null","","","","","<div class='center'><p> The pirates on your ship will rob other ships as they leave the island.</p> These ships have just sold their goods to the islanders, so they will be filled with lots and lots of gold.</p><p><img src='run_exp/static/images/tutorial/ship_center.png' height='400'></p></div>","","","","","","","","","","","","","","","","","",""
"","html-keyboard-response","7","78880","0.0-7.0","""event"",""trial"",""time""
""fullscreenenter"",""0"",""1126""
","
","
","""event"",""trial"",""time""
""fullscreenenter"",""0"",""1126""
","
","4417.399999856949","<div class='center'><p> The pirates on your ship will rob other ships as they leave the island.</p> These ships have just sold their goods to the islanders, so they will be filled with lots and lots of gold.</p><p><img src='run_exp/static/images/tutorial/ship_center.png' height='400'></p><p><b>[Press the space bar to continue]</b></p></div>","32","","","","","","","","","","","","","","","","","","","","","","",""
"","instruc4","8","106862","0.0-8.0","""event"",""trial"",""time""
""fullscreenenter"",""0"",""1126""
","
","
","""event"",""trial"",""time""
""fullscreenenter"",""0"",""1126""
","
","null","run_exp/static/audio/clip_4_goal_of_game_2.m4a","null","","","","","<div class='center'><p>As the head captain, you do not have to rob any ships yourself. Another pirate will be doing the robbing for you. First, you will choose a pirate to rob the next ship.</p><p><img src='run_exp/static/images/tutorial/pirates_all_crop.png' height='200'></p><p>Then, you'll see if the pirate successfully robbed the ship of their gold. If they were successful, then you'll get a stack of gold coins like this:</p><p><img src='run_exp/static/images/tutorial/reward.png' height='150'></p><p> If they were <b>not</b> successful, then you'll get no gold coins, and you'll see a big red x like this: </p><p><img src='run_exp/static/images/tutorial/reward_no.png' height='150'></p><p> How much bonus money you make is based on how many gold coins you collect.</p><div>","","","","","","","","","","","","","","","","","",""
"","html-keyboard-response","9","107296","0.0-9.0","""event"",""trial"",""time""
""fullscreenenter"",""0"",""1126""
","
","
","""event"",""trial"",""time""
""fullscreenenter"",""0"",""1126""
","
","433.5","<div class='center'><p>As the head captain, you do not have to rob any ships yourself. Another pirate will be doing the robbing for you. First, you will choose a pirate to rob the next ship.</p><p><img src='run_exp/static/images/tutorial/pirates_all_crop.png' height='200'></p><p>Then, you'll see if the pirate successfully robbed the ship of their gold. If they were successful, then you'll get a stack of gold coins like this:</p><p><img src='run_exp/static/images/tutorial/reward.png' height='150'></p><p> If they were <b>not</b> successful, then you'll get no gold coins, and you'll see a big red x like this: </p><p><img src='run_exp/static/images/tutorial/reward_no.png' height='150'></p><p> How much bonus money you make is based on how many gold coins you collect.</p<p><b>[Press the space bar to continue]</b></p></div>","32","","","","","","","","","","","","","","","","","","","","","","",""
"","instruc5","10","127721","0.0-10.0","""event"",""trial"",""time""
""fullscreenenter"",""0"",""1126""
","
","
","""event"",""trial"",""time""
""fullscreenenter"",""0"",""1126""
","
","20423.89999985695","run_exp/static/audio/clip_5_probabilistic.m4a","49","","","","","<div class='center'><p>Even the most skilled pirate can not rob EVERY ship.</p><p> Some ships will have very strong protections against pirate attacks.</p><p> Blue beard, here, is very, very good at robbing ships, but he won't be successful every time he tries to rob one.</p><p> You can press the <b>‘1’</b> key on the keyboard to choose him.</p><p> Try choosing him 10 times to see how often he succeeds at robbing a ship. </p><p><img src='run_exp/static/images/tutorial/blue.png' height='500'></p></div>","","","","","","","","","","","","","","","","","",""
"","html-keyboard-response","11","129223","0.0-11.0","""event"",""trial"",""time""
""fullscreenenter"",""0"",""1126""
","
","
","""event"",""trial"",""time""
""fullscreenenter"",""0"",""1126""
","
","null","<div class='center'><p><img src='run_exp/static/images/tutorial/blue_win.png' height='500'></p></div>","null","","","","","","","","","","","","","","","","","","","","","","",""
"","html-keyboard-response","12","130302","0.0-12.0","""event"",""trial"",""time""
""fullscreenenter"",""0"",""1126""
","
","
","""event"",""trial"",""time""
""fullscreenenter"",""0"",""1126""
","
","1079.1000001430511","<div class='center'><img src='run_exp/static/images/tutorial/blue.png' height='500'></p></div>","49","","","","","","","","","","","","","","","","","","","","","","",""
"","html-keyboard-response","13","131805","0.0-13.0","""event"",""trial"",""time""
""fullscreenenter"",""0"",""1126""
","
","
","""event"",""trial"",""time""
""fullscreenenter"",""0"",""1126""
","
","null","<div class='center'><p><img src='run_exp/static/images/tutorial/blue_win.png' height='500'></p></div>","null","","","","","","","","","","","","","","","","","","","","","","",""
"","html-keyboard-response","14","132161","0.0-14.0","""event"",""trial"",""time""
""fullscreenenter"",""0"",""1126""
","
","
","""event"",""trial"",""time""
""fullscreenenter"",""0"",""1126""
","
","355.7999999523163","<div class='center'><img src='run_exp/static/images/tutorial/blue.png' height='500'></p></div>","49","","","","","","","","","","","","","","","","","","","","","","",""
"","html-keyboard-response","15","133663","0.0-15.0","""event"",""trial"",""time""
""fullscreenenter"",""0"",""1126""
","
","
","""event"",""trial"",""time""
""fullscreenenter"",""0"",""1126""
","
","null","<div class='center'><p><img src='run_exp/static/images/tutorial/blue_win.png' height='500'></p></div>","null","","","","","","","","","","","","","","","","","","","","","","",""
"","html-keyboard-response","16","134084","0.0-16.0","""event"",""trial"",""time""
""fullscreenenter"",""0"",""1126""
","
","
","""event"",""trial"",""time""
""fullscreenenter"",""0"",""1126""
","
","420","<div class='center'><img src='run_exp/static/images/tutorial/blue.png' height='500'></p></div>","49","","","","","","","","","","","","","","","","","","","","","","",""
"","html-keyboard-response","17","135585","0.0-17.0","""event"",""trial"",""time""
""fullscreenenter"",""0"",""1126""
","
","
","""event"",""trial"",""time""
""fullscreenenter"",""0"",""1126""
","
","null","<div class='center'><p><img src='run_exp/static/images/tutorial/blue_no_win.png' height='500'></p></div>","null","","","","","","","","","","","","","","","","","","","","","","",""
"","html-keyboard-response","18","136420","0.0-18.0","""event"",""trial"",""time""
""fullscreenenter"",""0"",""1126""
","
","
","""event"",""trial"",""time""
""fullscreenenter"",""0"",""1126""
","
","834.0999999046326","<div class='center'><img src='run_exp/static/images/tutorial/blue.png' height='500'></p></div>","49","","","","","","","","","","","","","","","","","","","","","","",""
"","html-keyboard-response","19","137921","0.0-19.0","""event"",""trial"",""time""
""fullscreenenter"",""0"",""1126""
","
","
","""event"",""trial"",""time""
""fullscreenenter"",""0"",""1126""
","
","null","<div class='center'><p><img src='run_exp/static/images/tutorial/blue_win.png' height='500'></p></div>","null","","","","","","","","","","","","","","","","","","","","","","",""
"","html-keyboard-response","20","138456","0.0-20.0","""event"",""trial"",""time""
""fullscreenenter"",""0"",""1126""
","
","
","""event"",""trial"",""time""
""fullscreenenter"",""0"",""1126""
","
","534.5999999046326","<div class='center'><img src='run_exp/static/images/tutorial/blue.png' height='500'></p></div>","49","","","","","","","","","","","","","","","","","","","","","","",""
"","html-keyboard-response","21","139957","0.0-21.0","""event"",""trial"",""time""
""fullscreenenter"",""0"",""1126""
","
","
","""event"",""trial"",""time""
""fullscreenenter"",""0"",""1126""
","
","null","<div class='center'><p><img src='run_exp/static/images/tutorial/blue_win.png' height='500'></p></div>","null","","","","","","","","","","","","","","","","","","","","","","",""
"","html-keyboard-response","22","140405","0.0-22.0","""event"",""trial"",""time""
""fullscreenenter"",""0"",""1126""
","
","
","""event"",""trial"",""time""
""fullscreenenter"",""0"",""1126""
","
","447.2999999523163","<div class='center'><img src='run_exp/static/images/tutorial/blue.png' height='500'></p></div>","49","","","","","","","","","","","","","","","","","","","","","","",""
"","html-keyboard-response","23","141906","0.0-23.0","""event"",""trial"",""time""
""fullscreenenter"",""0"",""1126""
","
","
","""event"",""trial"",""time""
""fullscreenenter"",""0"",""1126""
","
","null","<div class='center'><p><img src='run_exp/static/images/tutorial/blue_win.png' height='500'></p></div>","null","","","","","","","","","","","","","","","","","","","","","","",""
"","html-keyboard-response","24","142312","0.0-24.0","""event"",""trial"",""time""
""fullscreenenter"",""0"",""1126""
","
","
","""event"",""trial"",""time""
""fullscreenenter"",""0"",""1126""
","
","405.60000014305115","<div class='center'><img src='run_exp/static/images/tutorial/blue.png' height='500'></p></div>","49","","","","","","","","","","","","","","","","","","","","","","",""
"","html-keyboard-response","25","143813","0.0-25.0","""event"",""trial"",""time""
""fullscreenenter"",""0"",""1126""
","
","
","""event"",""trial"",""time""
""fullscreenenter"",""0"",""1126""
","
","null","<div class='center'><p><img src='run_exp/static/images/tutorial/blue_no_win.png' height='500'></p></div>","null","","","","","","","","","","","","","","","","","","","","","","",""
"","html-keyboard-response","26","144235","0.0-26.0","""event"",""trial"",""time""
""fullscreenenter"",""0"",""1126""
","
","
","""event"",""trial"",""time""
""fullscreenenter"",""0"",""1126""
","
","421","<div class='center'><img src='run_exp/static/images/tutorial/blue.png' height='500'></p></div>","49","","","","","","","","","","","","","","","","","","","","","","",""
"","html-keyboard-response","27","145736","0.0-27.0","""event"",""trial"",""time""
""fullscreenenter"",""0"",""1126""
","
","
","""event"",""trial"",""time""
""fullscreenenter"",""0"",""1126""
","
","null","<div class='center'><p><img src='run_exp/static/images/tutorial/blue_win.png' height='500'></p></div>","null","","","","","","","","","","","","","","","","","","","","","","",""
"","html-keyboard-response","28","145867","0.0-28.0","""event"",""trial"",""time""
""fullscreenenter"",""0"",""1126""
","
","
","""event"",""trial"",""time""
""fullscreenenter"",""0"",""1126""
","
","130.30000019073486","<div class='center'><img src='run_exp/static/images/tutorial/blue.png' height='500'></p></div>","49","","","","","","","","","","","","","","","","","","","","","","",""
"","html-keyboard-response","29","147368","0.0-29.0","""event"",""trial"",""time""
""fullscreenenter"",""0"",""1126""
","
","
","""event"",""trial"",""time""
""fullscreenenter"",""0"",""1126""
","
","null","<div class='center'><p><img src='run_exp/static/images/tutorial/blue_win.png' height='500'></p></div>","null","","","","","","","","","","","","","","","","","","","","","","",""
"","instruc6","30","152878","0.0-30.0","""event"",""trial"",""time""
""fullscreenenter"",""0"",""1126""
","
","
","""event"",""trial"",""time""
""fullscreenenter"",""0"",""1126""
","
","null","run_exp/static/audio/clip_6_blue_beard_outcome.m4a","null","","","","","<div class='center'><p> See, he succeeded in robbing the ships most of the time but not every time. </p></div>","","","","","","","","","","","","","","","","","",""
"","html-keyboard-response","31","154896","0.0-31.0","""event"",""trial"",""time""
""fullscreenenter"",""0"",""1126""
","
","
","""event"",""trial"",""time""
""fullscreenenter"",""0"",""1126""
","
","2016.6000001430511","<div class='center'><p> See, he succeeded in robbing the ships most of the time but not every time. </p><p><b>[Press the space bar to continue]</b></p></div>","32","","","","","","","","","","","","","","","","","","","","","","",""
"","audio-keyboard-response","32","171562","0.0-32.0","""event"",""trial"",""time""
""fullscreenenter"",""0"",""1126""
","
","
","""event"",""trial"",""time""
""fullscreenenter"",""0"",""1126""
","
","16665.10000014305","run_exp/static/audio/clip_7_pick_pirate.m4a","51","","","","","","","","","","","","","","","","","","","","","","",""
"","audio-keyboard-response","33","177379","0.0-33.0-0.0","""event"",""trial"",""time""
""fullscreenenter"",""0"",""1126""
","
","
","""event"",""trial"",""time""
""fullscreenenter"",""0"",""1126""
","
","5815","run_exp/static/audio/clip_8_chosen_pirate_win.m4a","32","","","","","","","","","","","","","","","","","","","","","","",""
"","audio-keyboard-response","34","180910","0.0-33.0-1.0","""event"",""trial"",""time""
""fullscreenenter"",""0"",""1126""
","
","
","""event"",""trial"",""time""
""fullscreenenter"",""0"",""1126""
","
","3530.899999856949","run_exp/static/audio/clip_9_pick_a_pirate_again.m4a","51","","","","","","","","","","","","","","","","","","","","","","",""
"","audio-keyboard-response","35","187069","0.0-34.0-0.0","""event"",""trial"",""time""
""fullscreenenter"",""0"",""1126""
","
","
","""event"",""trial"",""time""
""fullscreenenter"",""0"",""1126""
","
","6158","run_exp/static/audio/clip_10_chosen_pirate_loss.m4a","32","","","","","","","","","","","","","","","","","","","","","","",""
"","instruc9","36","192538","0.0-35.0-0.0","""event"",""trial"",""time""
""fullscreenenter"",""0"",""1126""
","
","
","""event"",""trial"",""time""
""fullscreenenter"",""0"",""1126""
","
","null","run_exp/static/audio/clip_11_time_out.m4a","null","","","","","<div class='center'><p>If you don’t make your choice fast enough, you’ll have to wait a few seconds before you can make another one. </p><p><img src='run_exp/static/images/miscellaneous/hurry_up.png' height='500'></p></div>","","","","","","","","","","","","","","","","","",""
"","html-keyboard-response","37","194304","0.0-35.0-1.0","""event"",""trial"",""time""
""fullscreenenter"",""0"",""1126""
","
","
","""event"",""trial"",""time""
""fullscreenenter"",""0"",""1126""
","
","1765","<div class='center'><p>If you don’t make your choice fast enough, you’ll have to wait a few seconds before you can make another one. </p><p><img src='run_exp/static/images/miscellaneous/hurry_up.png' height='500'></p><p><b>[Press the space bar to continue]</b></p></div>","32","","","","","","","","","","","","","","","","","","","","","","",""
"","instruc10","38","233379","0.0-35.0-2.0","""event"",""trial"",""time""
""fullscreenenter"",""0"",""1126""
","
","
","""event"",""trial"",""time""
""fullscreenenter"",""0"",""1126""
","
","null","run_exp/static/audio/clip_12_probe.m4a","null","","","","","<div class='center'><p>Once you've chosen a pirate, you’ll be shown the ship they are robbing. You will never rob the same ship twice. Ships can be told apart from one another by the image on them. These are the goods that they sell. See, this ship has a travel mug on it. </p><p> You’ll have to remember which island you saw each ship on. You will win more gold coins and hence more bonus money if you remember correctly! To help you remember, you can imagine a story. For example, here, you could imagine a mug full of water in the desert. Or, as another example, if on the forest island, your pirate robbed a ship with an apple on it, you could imagine an apple falling from a tree in the forest. </p><p><img src='run_exp/static/images/tutorial/example_probe.png' height='500'></p></div>","","","","","","","","","","","","","","","","","",""
"","html-keyboard-response","39","238563","0.0-35.0-3.0","""event"",""trial"",""time""
""fullscreenenter"",""0"",""1126""
","
","
","""event"",""trial"",""time""
""fullscreenenter"",""0"",""1126""
","
","5183.799999952316","<div class='center'><p>Once you've chosen a pirate, you’ll be shown the ship they are robbing. You will never rob the same ship twice. Ships can be told apart from one another by the image on them. These are the goods that they sell. See, this ship has a travel mug on it. </p><p> You’ll have to remember which island you saw each ship on. You will win more gold coins and hence more bonus money if you remember correctly! To help you remember, you can imagine a story. For example, here, you could imagine a mug full of water in the desert. Or, as another example, if on the forest island, your pirate robbed a ship with an apple on it, you could imagine an apple falling from a tree in the forest. </p><p><img src='run_exp/static/images/tutorial/example_probe.png' height='500'></p><p><b>[Press the space bar to continue]</b></p></div>","32","","","","","","","","","","","","","","","","","","","","","","",""
"","instruc11","40","254959","0.0-35.0-4.0","""event"",""trial"",""time""
""fullscreenenter"",""0"",""1126""
","
","
","""event"",""trial"",""time""
""fullscreenenter"",""0"",""1126""
","
","null","run_exp/static/audio/clip_13_changepoint.m4a","null","","","","","<div class='center'><p>How successful a pirate is at robbing ships will depend on the island you’re on.</p><p> A pirate may have visited this island many times before and gained a lot of practice robbing ships there.</p><p>So, they’re more likely to be successful than a pirate who has never visited the island before.</p></div>","","","","","","","","","","","","","","","","","",""
"","html-keyboard-response","41","256353","0.0-35.0-5.0","""event"",""trial"",""time""
""fullscreenenter"",""0"",""1126""
","
","
","""event"",""trial"",""time""
""fullscreenenter"",""0"",""1126""
","
","1393.5999999046326","<div class='center'><p>How successful a pirate is at robbing ships will depend on the island you’re on.</p><p> A pirate may have visited this island many times before and gained a lot of practice robbing ships there.</p><p>So, they’re more likely to be successful than a pirate who has never visited the island before.</p><p><b>[Press the space bar to continue]</b></p></div>","32","","","","","","","","","","","","","","","","","","","","","","",""
"","instruc12","42","297439","0.0-35.0-6.0","""event"",""trial"",""time""
""fullscreenenter"",""0"",""1126""
","
","
","""event"",""trial"",""time""
""fullscreenenter"",""0"",""1126""
","
","null","run_exp/static/audio/clip_14_drift.m4a","null","","","","","<div class='center'><p>How successful a pirate is at robbing ships can also change over the time spent on the island. </p><p> Ships may hear from islanders about the pirates coming and will improve their protections against the attack. This may make it harder to rob them.</p><p> Ships may also become lazy and weaken the strength of their protections. This may make it easier to rob them.</p><br><p>Things are always changing on the high seas! So, try your best to pay attention!</p><p><img src='run_exp/static/images/tutorial/contingency.png' height='500'></p></div>","","","","","","","","","","","","","","","","","",""
"","html-keyboard-response","43","299297","0.0-35.0-7.0","""event"",""trial"",""time""
""fullscreenenter"",""0"",""1126""
","
","
","""event"",""trial"",""time""
""fullscreenenter"",""0"",""1126""
","
","1857.2000000476837","<div class='center'><p>How successful a pirate is at robbing ships can also change over the time spent on the island. </p><p> Ships may hear from islanders about the pirates coming and will improve their protections against the attack. This may make it harder to rob them.</p><p> Ships may also become lazy and weaken the strength of their protections. This may make it easier to rob them.</p><br><p>Things are always changing on the high seas! So, try your best to pay attention!</p><p><img src='run_exp/static/images/tutorial/contingency.png' height='500'></p><p><b>[Press the space bar to continue]</b></p></div>","32","","","","","","","","","","","","","","","","","","","","","","",""
"","instruc13","44","334479","0.0-35.0-8.0","""event"",""trial"",""time""
""fullscreenenter"",""0"",""1126""
","
","
","""event"",""trial"",""time""
""fullscreenenter"",""0"",""1126""
","
","null","run_exp/static/audio/clip_15_summary.m4a","null","","","","","<div class='center'><p>Let's go over the instructions quickly again. You have two important things to do: </p><b><p> 1. Pick the pirate who is the best at robbing ships on the current island. </p></b><b><p> 2. Remember on which island a ship was robbed.</p> </b><p>The amount of bonus money you can win depends on both.</p><p><br><p>Let’s try a practice game. The game will start by showing you the pirates. First, pick a pirate using the <b> 1, 2, 3 </b> keys on your keyboard. When you are shown a ship, try to remember which island you’re on by making up a story.</p><p>This is just a practice game, so you’re not playing for money. </p><p> Good luck! This game will be very difficult but try your best!</p></div>","","","","","","","","","","","","","","","","","",""
"","html-keyboard-response","45","335229","0.0-35.0-9.0","""event"",""trial"",""time""
""fullscreenenter"",""0"",""1126""
","
","
","""event"",""trial"",""time""
""fullscreenenter"",""0"",""1126""
","
","749.5","<div class='center'><p>Let's go over the instructions quickly again. You have two important things to do: </p><b><p> 1. Pick the pirate who is the best at robbing ships on the current island. </p></b><b><p> 2. Remember on which island a ship was robbed.</p> </b><p>The amount of bonus money you can win depends on both.</p><p><br><p>Let’s try a practice game. The game will start by showing you the pirates. First, pick a pirate using the <b> 1, 2, 3 </b> keys on your keyboard. When you are shown a ship, try to remember which island you’re on by making up a story.</p><p>This is just a practice game, so you’re not playing for money. </p><p> Good luck! This game will be very difficult but try your best!</p><p><b>[Press the space bar to continue]</b></p></div>","32","","","","","","","","","","","","","","","","","","","","","","",""
"","do_welcome","46","339233","0.0-35.0-10.0","""event"",""trial"",""time""
""fullscreenenter"",""0"",""1126""
","
","
","""event"",""trial"",""time""
""fullscreenenter"",""0"",""1126""
","
","null","","","","","","","","null","","","","","","","","","","","","","","","","",""
"","do_trial","47","345239","0.0-35.0-11.0","""event"",""trial"",""time""
""fullscreenenter"",""0"",""1126""
","
","
","""event"",""trial"",""time""
""fullscreenenter"",""0"",""1126""
","
","null","","","","","","","","null","1,0,0","","","","","","","","","","","","","","","",""
"","html-keyboard-response","48","346241","0.0-36.0-0.0","""event"",""trial"",""time""
""fullscreenenter"",""0"",""1126""
","
","
","""event"",""trial"",""time""
""fullscreenenter"",""0"",""1126""
","
","null","<p></p>","null","","","","","","","","","","","","","","","","","","","","","","",""
"","do_trial","49","351448","0.0-36.0-1.0","""event"",""trial"",""time""
""fullscreenenter"",""0"",""1126""
","
","
","""event"",""trial"",""time""
""fullscreenenter"",""0"",""1126""
","
","703.5","","","","","","","","49","1,0,0","","","","","","","","","","","","","","","",""
"","html-keyboard-response","50","352450","0.0-37.0-0.0","""event"",""trial"",""time""
""fullscreenenter"",""0"",""1126""
","
","
","""event"",""trial"",""time""
""fullscreenenter"",""0"",""1126""
","
","null","<p></p>","null","","","","","","","","","","","","","","","","","","","","","","",""
"","do_trial","51","358976","0.0-37.0-1.0","""event"",""trial"",""time""
""fullscreenenter"",""0"",""1126""
","
","
","""event"",""trial"",""time""
""fullscreenenter"",""0"",""1126""
","
","2021.6999998092651","","","","","","","","49","1,1,0","","","","","","","","","","","","","","","",""
"","html-keyboard-response","52","359978","0.0-38.0-0.0","""event"",""trial"",""time""
""fullscreenenter"",""0"",""1126""
","
","
","""event"",""trial"",""time""
""fullscreenenter"",""0"",""1126""
","
","null","<p></p>","null","","","","","","","","","","","","","","","","","","","","","","",""
"","do_trial","53","366647","0.0-38.0-1.0","""event"",""trial"",""time""
""fullscreenenter"",""0"",""1126""
","
","
","""event"",""trial"",""time""
""fullscreenenter"",""0"",""1126""
","
","2165.100000143051","","","","","","","","49","1,0,1","","","","","","","","","","","","","","","",""
"","html-keyboard-response","54","367648","0.0-39.0-0.0","""event"",""trial"",""time""
""fullscreenenter"",""0"",""1126""
","
","
","""event"",""trial"",""time""
""fullscreenenter"",""0"",""1126""
","
","null","<p></p>","null","","","","","","","","","","","","","","","","","","","","","","",""
"","do_trial","55","373458","0.0-39.0-1.0","""event"",""trial"",""time""
""fullscreenenter"",""0"",""1126""
","
","
","""event"",""trial"",""time""
""fullscreenenter"",""0"",""1126""
","
","1304","","","","","","","","49","0,1,0","","","","","","","","","","","","","","","",""
"","html-keyboard-response","56","374461","0.0-40.0-0.0","""event"",""trial"",""time""
""fullscreenenter"",""0"",""1126""
","
","
","""event"",""trial"",""time""
""fullscreenenter"",""0"",""1126""
","
","null","<p></p>","null","","","","","","","","","","","","","","","","","","","","","","",""
"","do_trial","57","380089","0.0-40.0-1.0","""event"",""trial"",""time""
""fullscreenenter"",""0"",""1126""
","
","
","""event"",""trial"",""time""
""fullscreenenter"",""0"",""1126""
","
","1123.7999999523163","","","","","","","","49","1,0,0","","","","","","","","","","","","","","","",""
"","do_bye","58","381592","0.0-41.0-0.0","""event"",""trial"",""time""
""fullscreenenter"",""0"",""1126""
","
","
","""event"",""trial"",""time""
""fullscreenenter"",""0"",""1126""
","
","null","","","","","","","","null","","","","","","","","","","","","","","","","",""
"","do_travel","59","390595","0.0-41.0-1.0","""event"",""trial"",""time""
""fullscreenenter"",""0"",""1126""
","
","
","""event"",""trial"",""time""
""fullscreenenter"",""0"",""1126""
","
","null","","","","","","","","null","","","","","","","","","","","","","","","","",""
"","do_welcome","60","394598","0.0-41.0-2.0","""event"",""trial"",""time""
""fullscreenenter"",""0"",""1126""
","
","
","""event"",""trial"",""time""
""fullscreenenter"",""0"",""1126""
","
","null","","","","","","","","null","","","","","","","","","","","","","","","","",""
"","do_trial","61","399672","0.0-41.0-3.0","""event"",""trial"",""time""
""fullscreenenter"",""0"",""1126""
","
","
","""event"",""trial"",""time""
""fullscreenenter"",""0"",""1126""
","
","569.5999999046326","","","","","","","","51","1,0,0","","","","","","","","","","","","","","","",""
"","html-keyboard-response","62","400675","0.0-42.0-0.0","""event"",""trial"",""time""
""fullscreenenter"",""0"",""1126""
","
","
","""event"",""trial"",""time""
""fullscreenenter"",""0"",""1126""
","
","null","<p></p>","null","","","","","","","","","","","","","","","","","","","","","","",""
"","do_trial","63","405717","0.0-42.0-1.0","""event"",""trial"",""time""
""fullscreenenter"",""0"",""1126""
","
","
","""event"",""trial"",""time""
""fullscreenenter"",""0"",""1126""
","
","538.5","","","","","","","","50","1,0,1","","","","","","","","","","","","","","","",""
"","html-keyboard-response","64","406718","0.0-43.0-0.0","""event"",""trial"",""time""
""fullscreenenter"",""0"",""1126""
","
","
","""event"",""trial"",""time""
""fullscreenenter"",""0"",""1126""
","
","null","<p></p>","null","","","","","","","","","","","","","","","","","","","","","","",""
"","do_trial","65","411867","0.0-43.0-1.0","""event"",""trial"",""time""
""fullscreenenter"",""0"",""1126""
","
","
","""event"",""trial"",""time""
""fullscreenenter"",""0"",""1126""
","
","645.2999999523163","","","","","","","","51","1,1,0","","","","","","","","","","","","","","","",""
"","html-keyboard-response","66","412869","0.0-44.0-0.0","""event"",""trial"",""time""
""fullscreenenter"",""0"",""1126""
","
","
","""event"",""trial"",""time""
""fullscreenenter"",""0"",""1126""
","
","null","<p></p>","null","","","","","","","","","","","","","","","","","","","","","","",""
"","do_trial","67","417779","0.0-44.0-1.0","""event"",""trial"",""time""
""fullscreenenter"",""0"",""1126""
","
","
","""event"",""trial"",""time""
""fullscreenenter"",""0"",""1126""
","
","406.7999999523163","","","","","","","","49","0,0,1","","","","","","","","","","","","","","","",""
"","html-keyboard-response","68","418783","0.0-45.0-0.0","""event"",""trial"",""time""
""fullscreenenter"",""0"",""1126""
","
","
","""event"",""trial"",""time""
""fullscreenenter"",""0"",""1126""
","
","null","<p></p>","null","","","","","","","","","","","","","","","","","","","","","","",""
"","do_trial","69","423554","0.0-45.0-1.0","""event"",""trial"",""time""
""fullscreenenter"",""0"",""1126""
","
","
","""event"",""trial"",""time""
""fullscreenenter"",""0"",""1126""
","
","266.80000019073486","","","","","","","","50","1,0,1","","","","","","","","","","","","","","","",""
"","html-keyboard-response","70","426118","0.0-46.0-0.0","""event"",""trial"",""time""
""fullscreenenter"",""0"",""1126""
","
","
","""event"",""trial"",""time""
""fullscreenenter"",""0"",""1126""
","
","2561.7999999523163","<div class='center'><p><img src='run_exp/static/images/tutorial/prac_best_pirate.png'  height='500'></p></div>","49","","","","","","","","","","","","","","","","","","","","","","",""
"","html-keyboard-response","71","427854","0.0-47.0-0.0","""event"",""trial"",""time""
""fullscreenenter"",""0"",""1126""
","
","
","""event"",""trial"",""time""
""fullscreenenter"",""0"",""1126""
","
","1735.5","<div class='center'><p>That's correct! Red beard was the best.</p><p><b>[Press the space bar to continue]</b></p></div>","32","","","","","","","","","","","","","","","","","","","","","","",""
"","html-keyboard-response","72","432916","0.0-47.0-1.0","""event"",""trial"",""time""
""fullscreenenter"",""0"",""1126""
","
","
","""event"",""trial"",""time""
""fullscreenenter"",""0"",""1126""
","
","5061.899999856949","<div class='center'><p><img src='run_exp/static/images/tutorial/prac_source.png'  height='500'></p></div>","50","","","","","","","","","","","","","","","","","","","","","","",""
"","html-keyboard-response","73","435255","0.0-48.0-0.0","""event"",""trial"",""time""
""fullscreenenter"",""0"",""1126""
","
","
","""event"",""trial"",""time""
""fullscreenenter"",""0"",""1126""
","
","2338.0999999046326","<div class='center'><p>That's correct! You saw this ship on the cavern island.</p><p><b>[Press the space bar to continue]</b></p></div>","32","","","","","","","","","","","","","","","","","","","","","","",""
"","quiz_beginning","74","446737","0.0-48.0-1.0","""event"",""trial"",""time""
""fullscreenenter"",""0"",""1126""
","
","
","""event"",""trial"",""time""
""fullscreenenter"",""0"",""1126""
","
","null","run_exp/static/audio/clip_16_quiz_intro.m4a","null","","","","","<div class='center'><p>Good job on the practice game! Now, you will be asked some true or false questions to make sure you really understand the rules of the game.</p><p> Press <b>'1'</b> on the keyboard for true and press <b>'2'</b> for false.</p></div>","","","","","","","","","","","","","","","","","",""
"","audio-keyboard-response","75","455328","0.0-48.0-2.0","""event"",""trial"",""time""
""fullscreenenter"",""0"",""1126""
","
","
","""event"",""trial"",""time""
""fullscreenenter"",""0"",""1126""
","
","8590.299999952316","run_exp/static/audio/clip_17_q1.m4a","49","","","","","","","","","","","","","","","","","","","","","","",""
"","correct","76","457736","0.0-49.0-0.0","""event"",""trial"",""time""
""fullscreenenter"",""0"",""1126""
","
","
","""event"",""trial"",""time""
""fullscreenenter"",""0"",""1126""
","
","null","run_exp/static/audio/clip_18_correct.m4a","null","","","","","<div class='center'><p>That's correct!</p></div>","","","","","","","","","","","","","","","","","",""
"","html-keyboard-response","77","458873","0.0-49.0-1.0","""event"",""trial"",""time""
""fullscreenenter"",""0"",""1126""
","
","
","""event"",""trial"",""time""
""fullscreenenter"",""0"",""1126""
","
","1135.7999999523163","<div class='center'><p>That's correct!</p><p><b>[Press the space bar to continue]</b></p></div>","32","","","","","","","","","","","","","","","","","","","","","","",""
"","audio-keyboard-response","78","467698","0.0-49.0-2.0","""event"",""trial"",""time""
""fullscreenenter"",""0"",""1126""
","
","
","""event"",""trial"",""time""
""fullscreenenter"",""0"",""1126""
","
","8824.399999856949","run_exp/static/audio/clip_20_q2.m4a","49","","","","","","","","","","","","","","","","","","","","","","",""
"","q2_err","79","473176","0.0-50.0-0.0","""event"",""trial"",""time""
""fullscreenenter"",""0"",""1126""
","
","
","""event"",""trial"",""time""
""fullscreenenter"",""0"",""1126""
","
","null","run_exp/static/audio/clip_21_wrong_q2.m4a","null","","","","","<div class='center'><p>That’s incorrect. Which pirate is the best may change during your time on the island.</p></div>","","","","","","","","","","","","","","","","","",""
"","html-keyboard-response","80","475527","0.0-50.0-1.0","""event"",""trial"",""time""
""fullscreenenter"",""0"",""1126""
","
","
","""event"",""trial"",""time""
""fullscreenenter"",""0"",""1126""
","
","2350","<div class='center'><p>That’s incorrect. Which pirate is the best may change during your time on the island.</p><p><b>[Press the space bar to continue]</b></p></div>","32","","","","","","","","","","","","","","","","","","","","","","",""
"","audio-keyboard-response","81","480718","0.0-50.0-2.0","""event"",""trial"",""time""
""fullscreenenter"",""0"",""1126""
","
","
","""event"",""trial"",""time""
""fullscreenenter"",""0"",""1126""
","
","5191","run_exp/static/audio/clip_22_q3.m4a","50","","","","","","","","","","","","","","","","","","","","","","",""
"","correct","82","483116","0.0-51.0-0.0","""event"",""trial"",""time""
""fullscreenenter"",""0"",""1126""
","
","
","""event"",""trial"",""time""
""fullscreenenter"",""0"",""1126""
","
","null","run_exp/static/audio/clip_18_correct.m4a","null","","","","","<div class='center'><p>That's correct!</p></div>","","","","","","","","","","","","","","","","","",""
"","html-keyboard-response","83","483947","0.0-51.0-1.0","""event"",""trial"",""time""
""fullscreenenter"",""0"",""1126""
","
","
","""event"",""trial"",""time""
""fullscreenenter"",""0"",""1126""
","
","830.7000000476837","<div class='center'><p>That's correct!</p><p><b>[Press the space bar to continue]</b></p></div>","32","","","","","","","","","","","","","","","","","","","","","","",""
"","audio-keyboard-response","84","489058","0.0-51.0-2.0","""event"",""trial"",""time""
""fullscreenenter"",""0"",""1126""
","
","
","""event"",""trial"",""time""
""fullscreenenter"",""0"",""1126""
","
","5110.900000095367","run_exp/static/audio/clip_24_q4.m4a","49","","","","","","","","","","","","","","","","","","","","","","",""
"","correct","85","491456","0.0-52.0-0.0","""event"",""trial"",""time""
""fullscreenenter"",""0"",""1126""
","
","
","""event"",""trial"",""time""
""fullscreenenter"",""0"",""1126""
","
","null","run_exp/static/audio/clip_18_correct.m4a","null","","","","","<div class='center'><p>That's correct!</p></div>","","","","","","","","","","","","","","","","","",""
"","html-keyboard-response","86","492526","0.0-52.0-1.0","""event"",""trial"",""time""
""fullscreenenter"",""0"",""1126""
","
","
","""event"",""trial"",""time""
""fullscreenenter"",""0"",""1126""
","
","1069.1000001430511","<div class='center'><p>That's correct!</p><p><b>[Press the space bar to continue]</b></p></div>","32","","","","","","","","","","","","","","","","","","","","","","",""
"","q_all_err","87","498696","0.0-53.0-0.0","""event"",""trial"",""time""
""fullscreenenter"",""0"",""1126""
","
","
","""event"",""trial"",""time""
""fullscreenenter"",""0"",""1126""
","
","null","run_exp/static/audio/clip_26_quiz_redo.m4a","null","","","","","<div class='center'><p>Oops, you missed some questions. Now that you’ve heard the correct answers. Try the quiz again! </p></div>","","","","","","","","","","","","","","","","","",""
"","html-keyboard-response","88","499522","0.0-53.0-1.0","""event"",""trial"",""time""
""fullscreenenter"",""0"",""1126""
","
","
","""event"",""trial"",""time""
""fullscreenenter"",""0"",""1126""
","
","825.9000000953674","<div class='center'><p>Oops, you missed some questions. Now that you’ve heard the correct answers. Try the quiz again! </p><p><b>[Press the space bar to continue]</b></p></div>","32","","","","","","","","","","","","","","","","","","","","","","",""
"","audio-keyboard-response","89","501962","0.0-53.0-2.0","""event"",""trial"",""time""
""fullscreenenter"",""0"",""1126""
","
","
","""event"",""trial"",""time""
""fullscreenenter"",""0"",""1126""
","
","2438.7999999523163","run_exp/static/audio/clip_17_q1.m4a","49","","","","","","","","","","","","","","","","","","","","","","",""
"","correct","90","504356","0.0-54.0-0.0","""event"",""trial"",""time""
""fullscreenenter"",""0"",""1126""
","
","
","""event"",""trial"",""time""
""fullscreenenter"",""0"",""1126""
","
","null","run_exp/static/audio/clip_18_correct.m4a","null","","","","","<div class='center'><p>That's correct!</p></div>","","","","","","","","","","","","","","","","","",""
"","html-keyboard-response","91","505259","0.0-54.0-1.0","""event"",""trial"",""time""
""fullscreenenter"",""0"",""1126""
","
","
","""event"",""trial"",""time""
""fullscreenenter"",""0"",""1126""
","
","903","<div class='center'><p>That's correct!</p><p><b>[Press the space bar to continue]</b></p></div>","32","","","","","","","","","","","","","","","","","","","","","","",""
"","audio-keyboard-response","92","512863","0.0-54.0-2.0","""event"",""trial"",""time""
""fullscreenenter"",""0"",""1126""
","
","
","""event"",""trial"",""time""
""fullscreenenter"",""0"",""1126""
","
","7603.599999904633","run_exp/static/audio/clip_20_q2.m4a","50","","","","","","","","","","","","","","","","","","","","","","",""
"","correct","93","515255","0.0-55.0-0.0","""event"",""trial"",""time""
""fullscreenenter"",""0"",""1126""
","
","
","""event"",""trial"",""time""
""fullscreenenter"",""0"",""1126""
","
","null","run_exp/static/audio/clip_18_correct.m4a","null","","","","","<div class='center'><p>That's correct!</p></div>","","","","","","","","","","","","","","","","","",""
"","html-keyboard-response","94","516872","0.0-55.0-1.0","""event"",""trial"",""time""
""fullscreenenter"",""0"",""1126""
","
","
","""event"",""trial"",""time""
""fullscreenenter"",""0"",""1126""
","
","1616.1000001430511","<div class='center'><p>That's correct!</p><p><b>[Press the space bar to continue]</b></p></div>","32","","","","","","","","","","","","","","","","","","","","","","",""
"","audio-keyboard-response","95","520970","0.0-55.0-2.0","""event"",""trial"",""time""
""fullscreenenter"",""0"",""1126""
","
","
","""event"",""trial"",""time""
""fullscreenenter"",""0"",""1126""
","
","4097","run_exp/static/audio/clip_22_q3.m4a","50","","","","","","","","","","","","","","","","","","","","","","",""
"","correct","96","523356","0.0-56.0-0.0","""event"",""trial"",""time""
""fullscreenenter"",""0"",""1126""
","
","
","""event"",""trial"",""time""
""fullscreenenter"",""0"",""1126""
","
","null","run_exp/static/audio/clip_18_correct.m4a","null","","","","","<div class='center'><p>That's correct!</p></div>","","","","","","","","","","","","","","","","","",""
"","html-keyboard-response","97","524141","0.0-56.0-1.0","""event"",""trial"",""time""
""fullscreenenter"",""0"",""1126""
","
","
","""event"",""trial"",""time""
""fullscreenenter"",""0"",""1126""
","
","784.5","<div class='center'><p>That's correct!</p><p><b>[Press the space bar to continue]</b></p></div>","32","","","","","","","","","","","","","","","","","","","","","","",""
"","audio-keyboard-response","98","528570","0.0-56.0-2.0","""event"",""trial"",""time""
""fullscreenenter"",""0"",""1126""
","
","
","""event"",""trial"",""time""
""fullscreenenter"",""0"",""1126""
","
","4429","run_exp/static/audio/clip_24_q4.m4a","49","","","","","","","","","","","","","","","","","","","","","","",""
"","correct","99","530996","0.0-57.0-0.0","""event"",""trial"",""time""
""fullscreenenter"",""0"",""1126""
","
","
","""event"",""trial"",""time""
""fullscreenenter"",""0"",""1126""
","
","null","run_exp/static/audio/clip_18_correct.m4a","null","","","","","<div class='center'><p>That's correct!</p></div>","","","","","","","","","","","","","","","","","",""
"","html-keyboard-response","100","531944","0.0-57.0-1.0","""event"",""trial"",""time""
""fullscreenenter"",""0"",""1126""
","
","
","""event"",""trial"",""time""
""fullscreenenter"",""0"",""1126""
","
","947.2999999523163","<div class='center'><p>That's correct!</p><p><b>[Press the space bar to continue]</b></p></div>","32","","","","","","","","","","","","","","","","","","","","","","",""
"","q_all_corr","101","540416","0.0-58.0-0.0","""event"",""trial"",""time""
""fullscreenenter"",""0"",""1126""
","
","
","""event"",""trial"",""time""
""fullscreenenter"",""0"",""1126""
","
","null","run_exp/static/audio/clip_27_quiz_all_correct.m4a","null","","","","","<div class='center'><p>Good job! You’re now ready to move on to the real game! Remember this game will be difficult but don't get discouraged and try your best!</p></div>","","","","","","","","","","","","","","","","","",""
"","html-keyboard-response","102","541617","0.0-58.0-1.0","""event"",""trial"",""time""
""fullscreenenter"",""0"",""1126""
","
","
","""event"",""trial"",""time""
""fullscreenenter"",""0"",""1126""
","
","1200.1000001430511","<div class='center'><p>Good job! You’re now ready to move on to the real game! Remember this game will be difficult but don't get discouraged and try your best!</p><p><b>[Press the space bar to continue]</b></p></div>","32","","","","","","","","","","","","","","","","","","","","","","",""
"","do_welcome","103","545621","0.0-59.0-0.0","""event"",""trial"",""time""
""fullscreenenter"",""0"",""1126""
","
","
","""event"",""trial"",""time""
""fullscreenenter"",""0"",""1126""
","
","null","","","","","","","","null","","","","","","","","","","","","","","","","",""
"","do_trial","104","550909","0.0-60.0-0.0","""event"",""trial"",""time""
""fullscreenenter"",""0"",""1126""
","
","
","""event"",""trial"",""time""
""fullscreenenter"",""0"",""1126""
","
","756.2000000476837","","","","","","","","51","0,0,1","0","coast","0","probe-194","0.6","0.3","0.1","1","","","","","","","",""
"","html-keyboard-response","105","551910","0.0-60.0-1.0","""event"",""trial"",""time""
""fullscreenenter"",""0"",""1126""
","
","
","""event"",""trial"",""time""
""fullscreenenter"",""0"",""1126""
","
","null","<p></p>","null","","","","","","","","","","","","","","","","","","","","","","",""
"","do_trial","106","557563","0.0-61.0-0.0","""event"",""trial"",""time""
""fullscreenenter"",""0"",""1126""
","
","
","""event"",""trial"",""time""
""fullscreenenter"",""0"",""1126""
","
","1122.0999999046326","","","","","","","","51","1,0,0","0","coast","1","probe-02","0.6577307590371215","0.334631305796235","0.23827851650636306","0","","","","","","","",""
"","html-keyboard-response","107","558565","0.0-61.0-1.0","""event"",""trial"",""time""
""fullscreenenter"",""0"",""1126""
","
","
","""event"",""trial"",""time""
""fullscreenenter"",""0"",""1126""
","
","null","<p></p>","null","","","","","","","","","","","","","","","","","","","","","","",""
"","do_trial","108","564263","0.0-62.0-0.0","""event"",""trial"",""time""
""fullscreenenter"",""0"",""1126""
","
","
","""event"",""trial"",""time""
""fullscreenenter"",""0"",""1126""
","
","1168.5","","","","","","","","50","1,1,0","0","coast","2","probe-196","0.5276133858187445","0.45517736847503176","0.19033286768641103","1","","","","","","","",""
"","html-keyboard-response","109","565266","0.0-62.0-1.0","""event"",""trial"",""time""
""fullscreenenter"",""0"",""1126""
","
","
","""event"",""trial"",""time""
""fullscreenenter"",""0"",""1126""
","
","null","<p></p>","null","","","","","","","","","","","","","","","","","","","","","","",""
"","do_trial","110","570721","0.0-63.0-0.0","""event"",""trial"",""time""
""fullscreenenter"",""0"",""1126""
","
","
","""event"",""trial"",""time""
""fullscreenenter"",""0"",""1126""
","
","926","","","","","","","","49","0,1,0","0","coast","3","probe-178","0.5054463887133244","0.45587256763305456","0.0623830063095922","0","","","","","","","",""
"","html-keyboard-response","111","571723","0.0-63.0-1.0","""event"",""trial"",""time""
""fullscreenenter"",""0"",""1126""
","
","
","""event"",""trial"",""time""
""fullscreenenter"",""0"",""1126""
","
","null","<p></p>","null","","","","","","","","","","","","","","","","","","","","","","",""
"","do_trial","112","576631","0.0-64.0-0.0","""event"",""trial"",""time""
""fullscreenenter"",""0"",""1126""
","
","
","""event"",""trial"",""time""
""fullscreenenter"",""0"",""1126""
","
","378.09999990463257","","","","","","","","50","0,0,0","0","coast","4","probe-223","0.4431702903161647","0.32153921256059265","0.0986973183788366","0","","","","","","","",""
"","html-keyboard-response","113","577633","0.0-64.0-1.0","""event"",""trial"",""time""
""fullscreenenter"",""0"",""1126""
","
","
","""event"",""trial"",""time""
""fullscreenenter"",""0"",""1126""
","
","null","<p></p>","null","","","","","","","","","","","","","","","","","","","","","","",""
"","do_trial","114","582490","0.0-65.0-0.0","""event"",""trial"",""time""
""fullscreenenter"",""0"",""1126""
","
","
","""event"",""trial"",""time""
""fullscreenenter"",""0"",""1126""
","
","328","","","","","","","","51","1,1,0","0","coast","5","probe-225","0.5500116220782182","0.38042065573525896","0.1736168728692492","0","","","","","","","",""
"","html-keyboard-response","115","583492","0.0-65.0-1.0","""event"",""trial"",""time""
""fullscreenenter"",""0"",""1126""
","
","
","""event"",""trial"",""time""
""fullscreenenter"",""0"",""1126""
","
","null","<p></p>","null","","","","","","","","","","","","","","","","","","","","","","",""
"","do_trial","116","588602","0.0-66.0-0.0","""event"",""trial"",""time""
""fullscreenenter"",""0"",""1126""
","
","
","""event"",""trial"",""time""
""fullscreenenter"",""0"",""1126""
","
","579.7000000476837","","","","","","","","50","1,1,0","0","coast","6","probe-185","0.6219381612665995","0.37145052253991934","0.08888451432747588","1","","","","","","","",""
"","html-keyboard-response","117","589603","0.0-66.0-1.0","""event"",""trial"",""time""
""fullscreenenter"",""0"",""1126""
","
","
","""event"",""trial"",""time""
""fullscreenenter"",""0"",""1126""
","
","null","<p></p>","null","","","","","","","","","","","","","","","","","","","","","","",""
"","do_trial","118","594624","0.0-67.0-0.0","""event"",""trial"",""time""
""fullscreenenter"",""0"",""1126""
","
","
","""event"",""trial"",""time""
""fullscreenenter"",""0"",""1126""
","
","491.59999990463257","","","","","","","","50","0,0,0","0","coast","7","probe-126","0.6362661253186342","0.2664717661999325","0.11373633276044702","0","","","","","","","",""
"","html-keyboard-response","119","595625","0.0-67.0-1.0","""event"",""trial"",""time""
""fullscreenenter"",""0"",""1126""
","
","
","""event"",""trial"",""time""
""fullscreenenter"",""0"",""1126""
","
","null","<p></p>","null","","","","","","","","","","","","","","","","","","","","","","",""
"","do_trial","120","600545","0.0-68.0-0.0","""event"",""trial"",""time""
""fullscreenenter"",""0"",""1126""
","
","
","""event"",""trial"",""time""
""fullscreenenter"",""0"",""1126""
","
","389.5","","","","","","","","49","0,0,0","0","coast","8","probe-226","0.6276847687941768","0.18296009420301113","0.13688172678386717","0","","","","","","","",""
"","html-keyboard-response","121","601547","0.0-68.0-1.0","""event"",""trial"",""time""
""fullscreenenter"",""0"",""1126""
","
","
","""event"",""trial"",""time""
""fullscreenenter"",""0"",""1126""
","
","null","<p></p>","null","","","","","","","","","","","","","","","","","","","","","","",""
"","do_trial","122","606397","0.0-69.0-0.0","""event"",""trial"",""time""
""fullscreenenter"",""0"",""1126""
","
","
","""event"",""trial"",""time""
""fullscreenenter"",""0"",""1126""
","
","320.7000000476837","","","","","","","","50","1,0,0","0","coast","9","probe-136","0.8084970628280077","0.1572888691828988","0.07062350808168276","0","","","","","","","",""
"","html-keyboard-response","123","607400","0.0-69.0-1.0","""event"",""trial"",""time""
""fullscreenenter"",""0"",""1126""
","
","
","""event"",""trial"",""time""
""fullscreenenter"",""0"",""1126""
","
","null","<p></p>","null","","","","","","","","","","","","","","","","","","","","","","",""
"","do_trial","124","612366","0.0-70.0-0.0","""event"",""trial"",""time""
""fullscreenenter"",""0"",""1126""
","
","
","""event"",""trial"",""time""
""fullscreenenter"",""0"",""1126""
","
","436.2000000476837","","","","","","","","49","1,0,0","0","coast","10","probe-134","0.7905861403788481","0.15732397844759657","0.09457269892957026","1","","","","","","","",""
"","html-keyboard-response","125","613368","0.0-70.0-1.0","""event"",""trial"",""time""
""fullscreenenter"",""0"",""1126""
","
","
","""event"",""trial"",""time""
""fullscreenenter"",""0"",""1126""
","
","null","<p></p>","null","","","","","","","","","","","","","","","","","","","","","","",""
"","do_trial","126","618473","0.0-71.0-0.0","""event"",""trial"",""time""
""fullscreenenter"",""0"",""1126""
","
","
","""event"",""trial"",""time""
""fullscreenenter"",""0"",""1126""
","
","574.8999998569489","","","","","","","","49","0,0,0","0","coast","11","probe-118","0.7584661534139039","0.31885859464265504","0.11253608191685047","0","","","","","","","",""
"","html-keyboard-response","127","619475","0.0-71.0-1.0","""event"",""trial"",""time""
""fullscreenenter"",""0"",""1126""
","
","
","""event"",""trial"",""time""
""fullscreenenter"",""0"",""1126""
","
","null","<p></p>","null","","","","","","","","","","","","","","","","","","","","","","",""
"","do_trial","128","624490","0.0-72.0-0.0","""event"",""trial"",""time""
""fullscreenenter"",""0"",""1126""
","
","
","""event"",""trial"",""time""
""fullscreenenter"",""0"",""1126""
","
","486.2000000476837","","","","","","","","49","1,0,0","0","coast","12","probe-175","0.7463212627358888","0.34146526757801965","0.16624513411539085","1","","","","","","","",""
"","html-keyboard-response","129","625491","0.0-72.0-1.0","""event"",""trial"",""time""
""fullscreenenter"",""0"",""1126""
","
","
","""event"",""trial"",""time""
""fullscreenenter"",""0"",""1126""
","
","null","<p></p>","null","","","","","","","","","","","","","","","","","","","","","","",""
"","do_trial","130","630262","0.0-73.0-0.0","""event"",""trial"",""time""
""fullscreenenter"",""0"",""1126""
","
","
","""event"",""trial"",""time""
""fullscreenenter"",""0"",""1126""
","
","241.5","","","","","","","","49","1,1,0","0","coast","13","probe-03","0.7341151269146348","0.42396991698024095","0.16761067049792125","1","","","","","","","",""
"","html-keyboard-response","131","631264","0.0-73.0-1.0","""event"",""trial"",""time""
""fullscreenenter"",""0"",""1126""
","
","
","""event"",""trial"",""time""
""fullscreenenter"",""0"",""1126""
","
","null","<p></p>","null","","","","","","","","","","","","","","","","","","","","","","",""
"","do_trial","132","636722","0.0-74.0-0.0","""event"",""trial"",""time""
""fullscreenenter"",""0"",""1126""
","
","
","""event"",""trial"",""time""
""fullscreenenter"",""0"",""1126""
","
","926.7999999523163","","","","","","","","49","1,0,0","0","coast","14","probe-206","0.7006279359933862","0.21749124556616603","0.06585277165759335","1","","","","","","","",""
"","html-keyboard-response","133","637725","0.0-74.0-1.0","""event"",""trial"",""time""
""fullscreenenter"",""0"",""1126""
","
","
","""event"",""trial"",""time""
""fullscreenenter"",""0"",""1126""
","
","null","<p></p>","null","","","","","","","","","","","","","","","","","","","","","","",""
"","do_trial","134","642865","0.0-75.0-0.0","""event"",""trial"",""time""
""fullscreenenter"",""0"",""1126""
","
","
","""event"",""trial"",""time""
""fullscreenenter"",""0"",""1126""
","
","609.5","","","","","","","","49","0,1,0","0","coast","15","probe-96","0.6365328187572509","0.25183548747847373","0.10230879132717279","0","","","","","","","",""
"","html-keyboard-response","135","643868","0.0-75.0-1.0","""event"",""trial"",""time""
""fullscreenenter"",""0"",""1126""
","
","
","""event"",""trial"",""time""
""fullscreenenter"",""0"",""1126""
","
","null","<p></p>","null","","","","","","","","","","","","","","","","","","","","","","",""
"","do_trial","136","648660","0.0-76.0-0.0","""event"",""trial"",""time""
""fullscreenenter"",""0"",""1126""
","
","
","""event"",""trial"",""time""
""fullscreenenter"",""0"",""1126""
","
","263","","","","","","","","49","1,1,0","0","coast","16","probe-88","0.5453669146459182","0.2728504863620415","0.09517001270078966","1","","","","","","","",""
"","html-keyboard-response","137","649662","0.0-76.0-1.0","""event"",""trial"",""time""
""fullscreenenter"",""0"",""1126""
","
","
","""event"",""trial"",""time""
""fullscreenenter"",""0"",""1126""
","
","null","<p></p>","null","","","","","","","","","","","","","","","","","","","","","","",""
"","do_trial","138","654592","0.0-77.0-0.0","""event"",""trial"",""time""
""fullscreenenter"",""0"",""1126""
","
","
","""event"",""trial"",""time""
""fullscreenenter"",""0"",""1126""
","
","398.60000014305115","","","","","","","","49","0,0,1","0","coast","17","probe-18","0.5132384768884598","0.3146205552216958","0.17093873615749022","0","","","","","","","",""
"","html-keyboard-response","139","655594","0.0-77.0-1.0","""event"",""trial"",""time""
""fullscreenenter"",""0"",""1126""
","
","
","""event"",""trial"",""time""
""fullscreenenter"",""0"",""1126""
","
","null","<p></p>","null","","","","","","","","","","","","","","","","","","","","","","",""
"","do_trial","140","660344","0.0-78.0-0.0","""event"",""trial"",""time""
""fullscreenenter"",""0"",""1126""
","
","
","""event"",""trial"",""time""
""fullscreenenter"",""0"",""1126""
","
","220.09999990463257","","","","","","","","51","1,1,0","0","coast","18","probe-166","0.6120211700827392","0.1753550655314624","0.1015549579593619","0","","","","","","","",""
"","html-keyboard-response","141","661346","0.0-78.0-1.0","""event"",""trial"",""time""
""fullscreenenter"",""0"",""1126""
","
","
","""event"",""trial"",""time""
""fullscreenenter"",""0"",""1126""
","
","null","<p></p>","null","","","","","","","","","","","","","","","","","","","","","","",""
"","do_trial","142","666249","0.0-79.0-0.0","""event"",""trial"",""time""
""fullscreenenter"",""0"",""1126""
","
","
","""event"",""trial"",""time""
""fullscreenenter"",""0"",""1126""
","
","373.2999999523163","","","","","","","","49","1,0,0","0","coast","19","probe-213","0.6616731654823792","0.12009642978601162","0.09941429997168393","1","","","","","","","",""
"","html-keyboard-response","143","667252","0.0-79.0-1.0","""event"",""trial"",""time""
""fullscreenenter"",""0"",""1126""
","
","
","""event"",""trial"",""time""
""fullscreenenter"",""0"",""1126""
","
","null","<p></p>","null","","","","","","","","","","","","","","","","","","","","","","",""
"","do_trial","144","672150","0.0-80.0-0.0","""event"",""trial"",""time""
""fullscreenenter"",""0"",""1126""
","
","
","""event"",""trial"",""time""
""fullscreenenter"",""0"",""1126""
","
","367.5","","","","","","","","50","1,1,0","0","coast","20","probe-86","0.6444862169273554","0.3263585343285057","0.233825185990332","1","","","","","","","",""
"","html-keyboard-response","145","673152","0.0-80.0-1.0","""event"",""trial"",""time""
""fullscreenenter"",""0"",""1126""
","
","
","""event"",""trial"",""time""
""fullscreenenter"",""0"",""1126""
","
","null","<p></p>","null","","","","","","","","","","","","","","","","","","","","","","",""
"","do_trial","146","678008","0.0-81.0-0.0","""event"",""trial"",""time""
""fullscreenenter"",""0"",""1126""
","
","
","""event"",""trial"",""time""
""fullscreenenter"",""0"",""1126""
","
","326.7000000476837","","","","","","","","49","1,0,0","0","coast","21","probe-14","0.6985068845206106","0.41564600493163567","0.09203480210123367","1","","","","","","","",""
"","html-keyboard-response","147","679011","0.0-81.0-1.0","""event"",""trial"",""time""
""fullscreenenter"",""0"",""1126""
","
","
","""event"",""trial"",""time""
""fullscreenenter"",""0"",""1126""
","
","null","<p></p>","null","","","","","","","","","","","","","","","","","","","","","","",""
"","do_trial","148","684290","0.0-82.0-0.0","""event"",""trial"",""time""
""fullscreenenter"",""0"",""1126""
","
","
","""event"",""trial"",""time""
""fullscreenenter"",""0"",""1126""
","
","749.7000000476837","","","","","","","","49","1,0,0","0","coast","22","probe-131","0.6683310062369853","0.29823991566482005","0.10846572952269036","1","","","","","","","",""
"","html-keyboard-response","149","685292","0.0-82.0-1.0","""event"",""trial"",""time""
""fullscreenenter"",""0"",""1126""
","
","
","""event"",""trial"",""time""
""fullscreenenter"",""0"",""1126""
","
","null","<p></p>","null","","","","","","","","","","","","","","","","","","","","","","",""
"","do_trial","150","690428","0.0-83.0-0.0","""event"",""trial"",""time""
""fullscreenenter"",""0"",""1126""
","
","
","""event"",""trial"",""time""
""fullscreenenter"",""0"",""1126""
","
","604.2999999523163","","","","","","","","49","1,0,0","0","coast","23","probe-149","0.6507078186371474","0.2913677976226568","0.23847260029708095","1","","","","","","","",""
"","html-keyboard-response","151","691430","0.0-83.0-1.0","""event"",""trial"",""time""
""fullscreenenter"",""0"",""1126""
","
","
","""event"",""trial"",""time""
""fullscreenenter"",""0"",""1126""
","
","null","<p></p>","null","","","","","","","","","","","","","","","","","","","","","","",""
"","do_trial","152","696061","0.0-84.0-0.0","""event"",""trial"",""time""
""fullscreenenter"",""0"",""1126""
","
","
","""event"",""trial"",""time""
""fullscreenenter"",""0"",""1126""
","
","100.20000004768372","","","","","","","","49","1,1,0","0","coast","24","probe-23","0.6611476263485706","0.32237035523913266","0.29815126214120447","1","","","","","","","",""
"","html-keyboard-response","153","697064","0.0-84.0-1.0","""event"",""trial"",""time""
""fullscreenenter"",""0"",""1126""
","
","
","""event"",""trial"",""time""
""fullscreenenter"",""0"",""1126""
","
","null","<p></p>","null","","","","","","","","","","","","","","","","","","","","","","",""
"","do_trial","154","701986","0.0-85.0-0.0","""event"",""trial"",""time""
""fullscreenenter"",""0"",""1126""
","
","
","""event"",""trial"",""time""
""fullscreenenter"",""0"",""1126""
","
","390","","","","","","","","49","1,0,0","0","coast","25","probe-145","0.6330485124500252","0.31835708478365915","0.2124231730436127","1","","","","","","","",""
"","html-keyboard-response","155","702988","0.0-85.0-1.0","""event"",""trial"",""time""
""fullscreenenter"",""0"",""1126""
","
","
","""event"",""trial"",""time""
""fullscreenenter"",""0"",""1126""
","
","null","<p></p>","null","","","","","","","","","","","","","","","","","","","","","","",""
"","do_trial","156","707942","0.0-86.0-0.0","""event"",""trial"",""time""
""fullscreenenter"",""0"",""1126""
","
","
","""event"",""trial"",""time""
""fullscreenenter"",""0"",""1126""
","
","424","","","","","","","","50","0,0,0","0","coast","26","probe-39","0.5914207542414047","0.22933668068537216","0.08025246803862641","0","","","","","","","",""
"","html-keyboard-response","157","708945","0.0-86.0-1.0","""event"",""trial"",""time""
""fullscreenenter"",""0"",""1126""
","
","
","""event"",""trial"",""time""
""fullscreenenter"",""0"",""1126""
","
","null","<p></p>","null","","","","","","","","","","","","","","","","","","","","","","",""
"","do_trial","158","713491","0.0-87.0-0.0","""event"",""trial"",""time""
""fullscreenenter"",""0"",""1126""
","
","
","""event"",""trial"",""time""
""fullscreenenter"",""0"",""1126""
","
","16.200000047683716","","","","","","","","49","1,0,1","0","coast","27","probe-11","0.5813841145133255","0.2149983070835404","0.1191925060838836","1","","","","","","","",""
"","html-keyboard-response","159","714493","0.0-87.0-1.0","""event"",""trial"",""time""
""fullscreenenter"",""0"",""1126""
","
","
","""event"",""trial"",""time""
""fullscreenenter"",""0"",""1126""
","
","null","<p></p>","null","","","","","","","","","","","","","","","","","","","","","","",""
"","do_trial","160","720047","0.0-88.0-0.0","""event"",""trial"",""time""
""fullscreenenter"",""0"",""1126""
","
","
","""event"",""trial"",""time""
""fullscreenenter"",""0"",""1126""
","
","1025.1999998092651","","","","","","","","49","0,0,0","0","coast","28","probe-15","0.4766337283882463","0.25757732748486756","0.08098295373016608","0","","","","","","","",""
"","html-keyboard-response","161","721049","0.0-88.0-1.0","""event"",""trial"",""time""
""fullscreenenter"",""0"",""1126""
","
","
","""event"",""trial"",""time""
""fullscreenenter"",""0"",""1126""
","
","null","<p></p>","null","","","","","","","","","","","","","","","","","","","","","","",""
"","do_trial","162","725963","0.0-89.0-0.0","""event"",""trial"",""time""
""fullscreenenter"",""0"",""1126""
","
","
","""event"",""trial"",""time""
""fullscreenenter"",""0"",""1126""
","
","385.2999999523163","","","","","","","","49","0,0,0","0","coast","29","probe-64","0.5049368177059823","0.4384250487024218","0.10275767609977698","0","","","","","","","",""
"","html-keyboard-response","163","726965","0.0-89.0-1.0","""event"",""trial"",""time""
""fullscreenenter"",""0"",""1126""
","
","
","""event"",""trial"",""time""
""fullscreenenter"",""0"",""1126""
","
","null","<p></p>","null","","","","","","","","","","","","","","","","","","","","","","",""
"","do_bye","164","728468","0.0-90.0-0.0","""event"",""trial"",""time""
""fullscreenenter"",""0"",""1126""
","
","
","""event"",""trial"",""time""
""fullscreenenter"",""0"",""1126""
","
","null","","","","","","","","null","","","","","","","","","","","","","","","","",""
"","break","165","731351","0.0-90.0-1.0","""event"",""trial"",""time""
""fullscreenenter"",""0"",""1126""
","
","
","""event"",""trial"",""time""
""fullscreenenter"",""0"",""1126""
","
","2881.4000000953674","<div class='center'><p>Time to take a quick break! You have 2 minutes to rest, but you can move on sooner if you'd like.</p><p> Press the <b>space bar</b> to continue.</p></div>","32","","","","","","","","","","","","","","","","","","","","","","",""
"","do_travel","166","740353","0.0-91.0-0.0","""event"",""trial"",""time""
""fullscreenenter"",""0"",""1126""
","
","
","""event"",""trial"",""time""
""fullscreenenter"",""0"",""1126""
","
","null","","","","","","","","null","","","","","","","","","","","","","","","","",""
"","do_welcome","167","744357","0.0-91.0-1.0","""event"",""trial"",""time""
""fullscreenenter"",""0"",""1126""
","
","
","""event"",""trial"",""time""
""fullscreenenter"",""0"",""1126""
","
","null","","","","","","","","null","","","","","","","","","","","","","","","","",""
"","do_trial","168","750707","0.0-92.0-0.0","""event"",""trial"",""time""
""fullscreenenter"",""0"",""1126""
","
","
","""event"",""trial"",""time""
""fullscreenenter"",""0"",""1126""
","
","1820.2000000476837","","","","","","","","49","1,0,0","1","highway","30","probe-129","1","0.4738215452140527","0.19258040792994077","1","","","","","","","",""
"","html-keyboard-response","169","751710","0.0-92.0-1.0","""event"",""trial"",""time""
""fullscreenenter"",""0"",""1126""
","
","
","""event"",""trial"",""time""
""fullscreenenter"",""0"",""1126""
","
","null","<p></p>","null","","","","","","","","","","","","","","","","","","","","","","",""
"","do_trial","170","756679","0.0-93.0-0.0","""event"",""trial"",""time""
""fullscreenenter"",""0"",""1126""
","
","
","""event"",""trial"",""time""
""fullscreenenter"",""0"",""1126""
","
","439.2000000476837","","","","","","","","49","1,0,0","1","highway","31","probe-25","1","0.49968439865224995","0.17578015591071694","1","","","","","","","",""
"","html-keyboard-response","171","757682","0.0-93.0-1.0","""event"",""trial"",""time""
""fullscreenenter"",""0"",""1126""
","
","
","""event"",""trial"",""time""
""fullscreenenter"",""0"",""1126""
","
","null","<p></p>","null","","","","","","","","","","","","","","","","","","","","","","",""
"","do_trial","172","762562","0.0-94.0-0.0","""event"",""trial"",""time""
""fullscreenenter"",""0"",""1126""
","
","
","""event"",""trial"",""time""
""fullscreenenter"",""0"",""1126""
","
","350.10000014305115","","","","","","","","49","1,0,0","1","highway","32","probe-68","1","0.4087486221629034","0.29495491437588384","1","","","","","","","",""
"","html-keyboard-response","173","763563","0.0-94.0-1.0","""event"",""trial"",""time""
""fullscreenenter"",""0"",""1126""
","
","
","""event"",""trial"",""time""
""fullscreenenter"",""0"",""1126""
","
","null","<p></p>","null","","","","","","","","","","","","","","","","","","","","","","",""
"","do_trial","174","768450","0.0-95.0-0.0","""event"",""trial"",""time""
""fullscreenenter"",""0"",""1126""
","
","
","""event"",""trial"",""time""
""fullscreenenter"",""0"",""1126""
","
","357.59999990463257","","","","","","","","49","1,0,0","1","highway","33","probe-207","0.9248794421268863","0.2755773249315751","0.3346896978530526","1","","","","","","","",""
"","html-keyboard-response","175","769453","0.0-95.0-1.0","""event"",""trial"",""time""
""fullscreenenter"",""0"",""1126""
","
","
","""event"",""trial"",""time""
""fullscreenenter"",""0"",""1126""
","
","null","<p></p>","null","","","","","","","","","","","","","","","","","","","","","","",""
"","do_trial","176","774108","0.0-96.0-0.0","""event"",""trial"",""time""
""fullscreenenter"",""0"",""1126""
","
","
","""event"",""trial"",""time""
""fullscreenenter"",""0"",""1126""
","
","124.20000004768372","","","","","","","","49","1,0,0","1","highway","34","probe-16","0.8487835067715684","0.37195727638614934","0.13223645821335223","1","","","","","","","",""
"","html-keyboard-response","177","775110","0.0-96.0-1.0","""event"",""trial"",""time""
""fullscreenenter"",""0"",""1126""
","
","
","""event"",""trial"",""time""
""fullscreenenter"",""0"",""1126""
","
","null","<p></p>","null","","","","","","","","","","","","","","","","","","","","","","",""
"","do_trial","178","780045","0.0-97.0-0.0","""event"",""trial"",""time""
""fullscreenenter"",""0"",""1126""
","
","
","""event"",""trial"",""time""
""fullscreenenter"",""0"",""1126""
","
","402.90000009536743","","","","","","","","49","1,0,0","1","highway","35","probe-28","0.8009403217904971","0.3361814716826054","0.0755563234775136","1","","","","","","","",""
"","html-keyboard-response","179","781047","0.0-97.0-1.0","""event"",""trial"",""time""
""fullscreenenter"",""0"",""1126""
","
","
","""event"",""trial"",""time""
""fullscreenenter"",""0"",""1126""
","
","null","<p></p>","null","","","","","","","","","","","","","","","","","","","","","","",""
"","do_trial","180","786063","0.0-98.0-0.0","""event"",""trial"",""time""
""fullscreenenter"",""0"",""1126""
","
","
","""event"",""trial"",""time""
""fullscreenenter"",""0"",""1126""
","
","486.40000009536743","","","","","","","","49","0,1,0","1","highway","36","probe-204","0.8270057105010671","0.33050193233006275","0.10950089379977467","0","","","","","","","",""
"","html-keyboard-response","181","787064","0.0-98.0-1.0","""event"",""trial"",""time""
""fullscreenenter"",""0"",""1126""
","
","
","""event"",""trial"",""time""
""fullscreenenter"",""0"",""1126""
","
","null","<p></p>","null","","","","","","","","","","","","","","","","","","","","","","",""
"","do_trial","182","791836","0.0-99.0-0.0","""event"",""trial"",""time""
""fullscreenenter"",""0"",""1126""
","
","
","""event"",""trial"",""time""
""fullscreenenter"",""0"",""1126""
","
","242.59999990463257","","","","","","","","49","1,0,0","1","highway","37","probe-181","0.7622296472754946","0.30844023649795155","0.08167209790780945","1","","","","","","","",""
"","html-keyboard-response","183","792838","0.0-99.0-1.0","""event"",""trial"",""time""
""fullscreenenter"",""0"",""1126""
","
","
","""event"",""trial"",""time""
""fullscreenenter"",""0"",""1126""
","
","null","<p></p>","null","","","","","","","","","","","","","","","","","","","","","","",""
"","do_trial","184","797486","0.0-100.0-0.0","""event"",""trial"",""time""
""fullscreenenter"",""0"",""1126""
","
","
","""event"",""trial"",""time""
""fullscreenenter"",""0"",""1126""
","
","118","","","","","","","","49","1,0,0","1","highway","38","probe-34","0.7223939334545394","0.2876638493177146","0.18054594971514207","1","","","","","","","",""
"","html-keyboard-response","185","798487","0.0-100.0-1.0","""event"",""trial"",""time""
""fullscreenenter"",""0"",""1126""
","
","
","""event"",""trial"",""time""
""fullscreenenter"",""0"",""1126""
","
","null","<p></p>","null","","","","","","","","","","","","","","","","","","","","","","",""
"","do_trial","186","803308","0.0-101.0-0.0","""event"",""trial"",""time""
""fullscreenenter"",""0"",""1126""
","
","
","""event"",""trial"",""time""
""fullscreenenter"",""0"",""1126""
","
","289.39999985694885","","","","","","","","49","0,1,0","1","highway","39","probe-47","0.7392775966304308","0.2668159038112768","0.3114714849283453","0","","","","","","","",""
"","html-keyboard-response","187","804310","0.0-101.0-1.0","""event"",""trial"",""time""
""fullscreenenter"",""0"",""1126""
","
","
","""event"",""trial"",""time""
""fullscreenenter"",""0"",""1126""
","
","null","<p></p>","null","","","","","","","","","","","","","","","","","","","","","","",""
"","do_trial","188","809065","0.0-102.0-0.0","""event"",""trial"",""time""
""fullscreenenter"",""0"",""1126""
","
","
","""event"",""trial"",""time""
""fullscreenenter"",""0"",""1126""
","
","224","","","","","","","","49","1,0,0","1","highway","40","probe-216","0.6572123164131821","0.23898842376570842","0.37618569818454733","1","","","","","","","",""
"","html-keyboard-response","189","810068","0.0-102.0-1.0","""event"",""trial"",""time""
""fullscreenenter"",""0"",""1126""
","
","
","""event"",""trial"",""time""
""fullscreenenter"",""0"",""1126""
","
","null","<p></p>","null","","","","","","","","","","","","","","","","","","","","","","",""
"","do_trial","190","814929","0.0-103.0-0.0","""event"",""trial"",""time""
""fullscreenenter"",""0"",""1126""
","
","
","""event"",""trial"",""time""
""fullscreenenter"",""0"",""1126""
","
","331.59999990463257","","","","","","","","49","0,0,0","1","highway","41","probe-80","0.7103942384562234","0.29830361342420053","0.3791390440741472","0","","","","","","","",""
"","html-keyboard-response","191","815931","0.0-103.0-1.0","""event"",""trial"",""time""
""fullscreenenter"",""0"",""1126""
","
","
","""event"",""trial"",""time""
""fullscreenenter"",""0"",""1126""
","
","null","<p></p>","null","","","","","","","","","","","","","","","","","","","","","","",""
"","do_trial","192","820683","0.0-104.0-0.0","""event"",""trial"",""time""
""fullscreenenter"",""0"",""1126""
","
","
","""event"",""trial"",""time""
""fullscreenenter"",""0"",""1126""
","
","220.59999990463257","","","","","","","","51","0,1,1","1","highway","42","probe-205","0.42498696102248545","0.4002267584780416","0.19473338888613576","1","","","","","","","",""
"","html-keyboard-response","193","821685","0.0-104.0-1.0","""event"",""trial"",""time""
""fullscreenenter"",""0"",""1126""
","
","
","""event"",""trial"",""time""
""fullscreenenter"",""0"",""1126""
","
","null","<p></p>","null","","","","","","","","","","","","","","","","","","","","","","",""
"","do_trial","194","826471","0.0-105.0-0.0","""event"",""trial"",""time""
""fullscreenenter"",""0"",""1126""
","
","
","""event"",""trial"",""time""
""fullscreenenter"",""0"",""1126""
","
","256.10000014305115","","","","","","","","51","0,0,0","1","highway","43","probe-170","0.4109200952920286","0.4823468267059037","0.1773673226718079","0","","","","","","","",""
"","html-keyboard-response","195","827474","0.0-105.0-1.0","""event"",""trial"",""time""
""fullscreenenter"",""0"",""1126""
","
","
","""event"",""trial"",""time""
""fullscreenenter"",""0"",""1126""
","
","null","<p></p>","null","","","","","","","","","","","","","","","","","","","","","","",""
"","do_trial","196","832054","0.0-106.0-0.0","""event"",""trial"",""time""
""fullscreenenter"",""0"",""1126""
","
","
","""event"",""trial"",""time""
""fullscreenenter"",""0"",""1126""
","
","50.90000009536743","","","","","","","","50","0,1,0","1","highway","44","probe-82","0.2998517977483406","0.533414821654928","0.09889024098913762","1","","","","","","","",""
"","html-keyboard-response","197","833056","0.0-106.0-1.0","""event"",""trial"",""time""
""fullscreenenter"",""0"",""1126""
","
","
","""event"",""trial"",""time""
""fullscreenenter"",""0"",""1126""
","
","null","<p></p>","null","","","","","","","","","","","","","","","","","","","","","","",""
"","do_trial","198","837865","0.0-107.0-0.0","""event"",""trial"",""time""
""fullscreenenter"",""0"",""1126""
","
","
","""event"",""trial"",""time""
""fullscreenenter"",""0"",""1126""
","
","277.59999990463257","","","","","","","","50","1,0,0","1","highway","45","probe-142","0.38713000896263383","0.5654124078943552","0.0898839330464824","0","","","","","","","",""
"","html-keyboard-response","199","838867","0.0-107.0-1.0","""event"",""trial"",""time""
""fullscreenenter"",""0"",""1126""
","
","
","""event"",""trial"",""time""
""fullscreenenter"",""0"",""1126""
","
","null","<p></p>","null","","","","","","","","","","","","","","","","","","","","","","",""
"","do_trial","200","843656","0.0-108.0-0.0","""event"",""trial"",""time""
""fullscreenenter"",""0"",""1126""
","
","
","""event"",""trial"",""time""
""fullscreenenter"",""0"",""1126""
","
","259.5","","","","","","","","49","0,1,0","1","highway","46","probe-156","0.3197614026414249","0.5206081364978451","0.058173892925769445","0","","","","","","","",""
"","html-keyboard-response","201","844659","0.0-108.0-1.0","""event"",""trial"",""time""
""fullscreenenter"",""0"",""1126""
","
","
","""event"",""trial"",""time""
""fullscreenenter"",""0"",""1126""
","
","null","<p></p>","null","","","","","","","","","","","","","","","","","","","","","","",""
"","do_trial","202","849480","0.0-109.0-0.0","""event"",""trial"",""time""
""fullscreenenter"",""0"",""1126""
","
","
","""event"",""trial"",""time""
""fullscreenenter"",""0"",""1126""
","
","291.40000009536743","","","","","","","","49","0,0,0","1","highway","47","probe-199","0.31469435911721355","0.4958060073585317","0.1245526164378363","0","","","","","","","",""
"","html-keyboard-response","203","850482","0.0-109.0-1.0","""event"",""trial"",""time""
""fullscreenenter"",""0"",""1126""
","
","
","""event"",""trial"",""time""
""fullscreenenter"",""0"",""1126""
","
","null","<p></p>","null","","","","","","","","","","","","","","","","","","","","","","",""
"","do_trial","204","855242","0.0-110.0-0.0","""event"",""trial"",""time""
""fullscreenenter"",""0"",""1126""
","
","
","""event"",""trial"",""time""
""fullscreenenter"",""0"",""1126""
","
","230.40000009536743","","","","","","","","51","1,1,0","1","highway","48","probe-84","0.3923188410751534","0.7492045608529114","0.1670664038491819","0","","","","","","","",""
"","html-keyboard-response","205","856245","0.0-110.0-1.0","""event"",""trial"",""time""
""fullscreenenter"",""0"",""1126""
","
","
","""event"",""trial"",""time""
""fullscreenenter"",""0"",""1126""
","
","null","<p></p>","null","","","","","","","","","","","","","","","","","","","","","","",""
"","do_trial","206","861181","0.0-111.0-0.0","""event"",""trial"",""time""
""fullscreenenter"",""0"",""1126""
","
","
","""event"",""trial"",""time""
""fullscreenenter"",""0"",""1126""
","
","405.2999999523163","","","","","","","","50","0,1,1","1","highway","49","probe-189","0.4125138766428993","0.6460171481755728","0.19600151254337758","1","","","","","","","",""
"","html-keyboard-response","207","862183","0.0-111.0-1.0","""event"",""trial"",""time""
""fullscreenenter"",""0"",""1126""
","
","
","""event"",""trial"",""time""
""fullscreenenter"",""0"",""1126""
","
","null","<p></p>","null","","","","","","","","","","","","","","","","","","","","","","",""
"","do_trial","208","866970","0.0-112.0-0.0","""event"",""trial"",""time""
""fullscreenenter"",""0"",""1126""
","
","
","""event"",""trial"",""time""
""fullscreenenter"",""0"",""1126""
","
","255.90000009536743","","","","","","","","50","0,1,0","1","highway","50","probe-74","0.3595383111691554","0.5679520160070675","0.1480775295145104","1","","","","","","","",""
"","html-keyboard-response","209","867972","0.0-112.0-1.0","""event"",""trial"",""time""
""fullscreenenter"",""0"",""1126""
","
","
","""event"",""trial"",""time""
""fullscreenenter"",""0"",""1126""
","
","null","<p></p>","null","","","","","","","","","","","","","","","","","","","","","","",""
"","do_trial","210","872804","0.0-113.0-0.0","""event"",""trial"",""time""
""fullscreenenter"",""0"",""1126""
","
","
","""event"",""trial"",""time""
""fullscreenenter"",""0"",""1126""
","
","302.09999990463257","","","","","","","","50","1,1,0","1","highway","51","probe-46","0.2968311957578773","0.4847440202904035","0.2320731403290935","1","","","","","","","",""
"","html-keyboard-response","211","873805","0.0-113.0-1.0","""event"",""trial"",""time""
""fullscreenenter"",""0"",""1126""
","
","
","""event"",""trial"",""time""
""fullscreenenter"",""0"",""1126""
","
","null","<p></p>","null","","","","","","","","","","","","","","","","","","","","","","",""
"","do_trial","212","878586","0.0-114.0-0.0","""event"",""trial"",""time""
""fullscreenenter"",""0"",""1126""
","
","
","""event"",""trial"",""time""
""fullscreenenter"",""0"",""1126""
","
","251.5","","","","","","","","50","0,0,0","1","highway","52","probe-201","0.32479525280984056","0.49525795761784275","0.05679145227305282","0","","","","","","","",""
"","html-keyboard-response","213","879588","0.0-114.0-1.0","""event"",""trial"",""time""
""fullscreenenter"",""0"",""1126""
","
","
","""event"",""trial"",""time""
""fullscreenenter"",""0"",""1126""
","
","null","<p></p>","null","","","","","","","","","","","","","","","","","","","","","","",""
"","do_trial","214","884374","0.0-115.0-0.0","""event"",""trial"",""time""
""fullscreenenter"",""0"",""1126""
","
","
","""event"",""trial"",""time""
""fullscreenenter"",""0"",""1126""
","
","254.79999995231628","","","","","","","","50","1,1,0","1","highway","53","probe-116","0.26839409713272744","0.647511473078376","0.053978247316375114","1","","","","","","","",""
"","html-keyboard-response","215","885375","0.0-115.0-1.0","""event"",""trial"",""time""
""fullscreenenter"",""0"",""1126""
","
","
","""event"",""trial"",""time""
""fullscreenenter"",""0"",""1126""
","
","null","<p></p>","null","","","","","","","","","","","","","","","","","","","","","","",""
"","do_trial","216","890189","0.0-116.0-0.0","""event"",""trial"",""time""
""fullscreenenter"",""0"",""1126""
","
","
","""event"",""trial"",""time""
""fullscreenenter"",""0"",""1126""
","
","283.7999999523163","","","","","","","","50","0,1,1","1","highway","54","probe-52","0.34389554952980467","0.6441487838500268","0.06959433642884419","1","","","","","","","",""
"","html-keyboard-response","217","891191","0.0-116.0-1.0","""event"",""trial"",""time""
""fullscreenenter"",""0"",""1126""
","
","
","""event"",""trial"",""time""
""fullscreenenter"",""0"",""1126""
","
","null","<p></p>","null","","","","","","","","","","","","","","","","","","","","","","",""
"","do_trial","218","896033","0.0-117.0-0.0","""event"",""trial"",""time""
""fullscreenenter"",""0"",""1126""
","
","
","""event"",""trial"",""time""
""fullscreenenter"",""0"",""1126""
","
","311.2000000476837","","","","","","","","50","1,0,0","1","highway","55","probe-190","0.4222158928159705","0.5297703467818797","0.16010088114292242","0","","","","","","","",""
"","html-keyboard-response","219","897035","0.0-117.0-1.0","""event"",""trial"",""time""
""fullscreenenter"",""0"",""1126""
","
","
","""event"",""trial"",""time""
""fullscreenenter"",""0"",""1126""
","
","null","<p></p>","null","","","","","","","","","","","","","","","","","","","","","","",""
"","do_trial","220","901772","0.0-118.0-0.0","""event"",""trial"",""time""
""fullscreenenter"",""0"",""1126""
","
","
","""event"",""trial"",""time""
""fullscreenenter"",""0"",""1126""
","
","207.39999985694885","","","","","","","","50","0,0,0","1","highway","56","probe-173","0.3214905115734543","0.5085145740207558","0.08527075733985999","0","","","","","","","",""
"","html-keyboard-response","221","902773","0.0-118.0-1.0","""event"",""trial"",""time""
""fullscreenenter"",""0"",""1126""
","
","
","""event"",""trial"",""time""
""fullscreenenter"",""0"",""1126""
","
","null","<p></p>","null","","","","","","","","","","","","","","","","","","","","","","",""
"","do_trial","222","907566","0.0-119.0-0.0","""event"",""trial"",""time""
""fullscreenenter"",""0"",""1126""
","
","
","""event"",""trial"",""time""
""fullscreenenter"",""0"",""1126""
","
","262.7000000476837","","","","","","","","49","1,1,0","1","highway","57","probe-203","0.33556349822100506","0.585017732878598","0.0771404130487363","1","","","","","","","",""
"","html-keyboard-response","223","908567","0.0-119.0-1.0","""event"",""trial"",""time""
""fullscreenenter"",""0"",""1126""
","
","
","""event"",""trial"",""time""
""fullscreenenter"",""0"",""1126""
","
","null","<p></p>","null","","","","","","","","","","","","","","","","","","","","","","",""
"","do_trial","224","913408","0.0-120.0-0.0","""event"",""trial"",""time""
""fullscreenenter"",""0"",""1126""
","
","
","""event"",""trial"",""time""
""fullscreenenter"",""0"",""1126""
","
","311.89999985694885","","","","","","","","49","0,0,0","1","highway","58","probe-146","0.4091568603766659","0.5035368874685237","0.13862486719023043","0","","","","","","","",""
"","html-keyboard-response","225","914411","0.0-120.0-1.0","""event"",""trial"",""time""
""fullscreenenter"",""0"",""1126""
","
","
","""event"",""trial"",""time""
""fullscreenenter"",""0"",""1126""
","
","null","<p></p>","null","","","","","","","","","","","","","","","","","","","","","","",""
"","do_trial","226","919135","0.0-121.0-0.0","""event"",""trial"",""time""
""fullscreenenter"",""0"",""1126""
","
","
","""event"",""trial"",""time""
""fullscreenenter"",""0"",""1126""
","
","194.79999995231628","","","","","","","","50","1,1,1","1","highway","59","probe-20","0.43478678001112625","0.5930538657106937","0.20212226875523878","1","","","","","","","",""
"","html-keyboard-response","227","920137","0.0-121.0-1.0","""event"",""trial"",""time""
""fullscreenenter"",""0"",""1126""
","
","
","""event"",""trial"",""time""
""fullscreenenter"",""0"",""1126""
","
","null","<p></p>","null","","","","","","","","","","","","","","","","","","","","","","",""
"","do_trial","228","925065","0.0-122.0-0.0","""event"",""trial"",""time""
""fullscreenenter"",""0"",""1126""
","
","
","""event"",""trial"",""time""
""fullscreenenter"",""0"",""1126""
","
","397.7999999523163","","","","","","","","50","0,1,0","1","highway","60","probe-75","0.38512335534992903","0.6587929380376234","0.21959393673791244","1","","","","","","","",""
"","html-keyboard-response","229","926066","0.0-122.0-1.0","""event"",""trial"",""time""
""fullscreenenter"",""0"",""1126""
","
","
","""event"",""trial"",""time""
""fullscreenenter"",""0"",""1126""
","
","null","<p></p>","null","","","","","","","","","","","","","","","","","","","","","","",""
"","do_trial","230","930673","0.0-123.0-0.0","""event"",""trial"",""time""
""fullscreenenter"",""0"",""1126""
","
","
","""event"",""trial"",""time""
""fullscreenenter"",""0"",""1126""
","
","76.89999985694885","","","","","","","","50","0,1,0","1","highway","61","probe-177","0.3087480479691743","0.5368811104785348","0.4378077577612034","1","","","","","","","",""
"","html-keyboard-response","231","931676","0.0-123.0-1.0","""event"",""trial"",""time""
""fullscreenenter"",""0"",""1126""
","
","
","""event"",""trial"",""time""
""fullscreenenter"",""0"",""1126""
","
","null","<p></p>","null","","","","","","","","","","","","","","","","","","","","","","",""
"","do_trial","232","936225","0.0-124.0-0.0","""event"",""trial"",""time""
""fullscreenenter"",""0"",""1126""
","
","
","""event"",""trial"",""time""
""fullscreenenter"",""0"",""1126""
","
","19.5","","","","","","","","49","0,1,0","1","highway","62","probe-228","0.3902562886760462","0.5971853696298696","0.4620041382008621","0","","","","","","","",""
"","html-keyboard-response","233","937227","0.0-124.0-1.0","""event"",""trial"",""time""
""fullscreenenter"",""0"",""1126""
","
","
","""event"",""trial"",""time""
""fullscreenenter"",""0"",""1126""
","
","null","<p></p>","null","","","","","","","","","","","","","","","","","","","","","","",""
"","do_trial","234","942054","0.0-125.0-0.0","""event"",""trial"",""time""
""fullscreenenter"",""0"",""1126""
","
","
","""event"",""trial"",""time""
""fullscreenenter"",""0"",""1126""
","
","298","","","","","","","","50","1,1,1","1","highway","63","probe-122","0.36958804747050095","0.7479881954282394","0.23322591970165452","1","","","","","","","",""
"","html-keyboard-response","235","943056","0.0-125.0-1.0","""event"",""trial"",""time""
""fullscreenenter"",""0"",""1126""
","
","
","""event"",""trial"",""time""
""fullscreenenter"",""0"",""1126""
","
","null","<p></p>","null","","","","","","","","","","","","","","","","","","","","","","",""
"","do_trial","236","947646","0.0-126.0-0.0","""event"",""trial"",""time""
""fullscreenenter"",""0"",""1126""
","
","
","""event"",""trial"",""time""
""fullscreenenter"",""0"",""1126""
","
","60.200000047683716","","","","","","","","50","1,0,0","1","highway","64","probe-42","0.41291183130885445","0.5025034449886857","0.08764087812770491","0","","","","","","","",""
"","html-keyboard-response","237","948649","0.0-126.0-1.0","""event"",""trial"",""time""
""fullscreenenter"",""0"",""1126""
","
","
","""event"",""trial"",""time""
""fullscreenenter"",""0"",""1126""
","
","null","<p></p>","null","","","","","","","","","","","","","","","","","","","","","","",""
"","do_trial","238","953449","0.0-127.0-0.0","""event"",""trial"",""time""
""fullscreenenter"",""0"",""1126""
","
","
","""event"",""trial"",""time""
""fullscreenenter"",""0"",""1126""
","
","271.19999980926514","","","","","","","","51","0,1,1","1","highway","65","probe-81","0.34848059831940226","0.43210754366312515","0.19674093405698578","1","","","","","","","",""
"","html-keyboard-response","239","954451","0.0-127.0-1.0","""event"",""trial"",""time""
""fullscreenenter"",""0"",""1126""
","
","
","""event"",""trial"",""time""
""fullscreenenter"",""0"",""1126""
","
","null","<p></p>","null","","","","","","","","","","","","","","","","","","","","","","",""
"","do_trial","240","959362","0.0-128.0-0.0","""event"",""trial"",""time""
""fullscreenenter"",""0"",""1126""
","
","
","""event"",""trial"",""time""
""fullscreenenter"",""0"",""1126""
","
","380","","","","","","","","51","1,1,1","1","highway","66","probe-169","0.28312256860842683","0.5136512616023748","0.09750322509534826","1","","","","","","","",""
"","html-keyboard-response","241","960363","0.0-128.0-1.0","""event"",""trial"",""time""
""fullscreenenter"",""0"",""1126""
","
","
","""event"",""trial"",""time""
""fullscreenenter"",""0"",""1126""
","
","null","<p></p>","null","","","","","","","","","","","","","","","","","","","","","","",""
"","do_trial","242","965188","0.0-129.0-0.0","""event"",""trial"",""time""
""fullscreenenter"",""0"",""1126""
","
","
","""event"",""trial"",""time""
""fullscreenenter"",""0"",""1126""
","
","296.2999999523163","","","","","","","","51","0,0,0","1","highway","67","probe-110","0.43605781705128077","0.5591488438805223","0.07316388769928771","0","","","","","","","",""
"","html-keyboard-response","243","966191","0.0-129.0-1.0","""event"",""trial"",""time""
""fullscreenenter"",""0"",""1126""
","
","
","""event"",""trial"",""time""
""fullscreenenter"",""0"",""1126""
","
","null","<p></p>","null","","","","","","","","","","","","","","","","","","","","","","",""
"","do_trial","244","970962","0.0-130.0-0.0","""event"",""trial"",""time""
""fullscreenenter"",""0"",""1126""
","
","
","""event"",""trial"",""time""
""fullscreenenter"",""0"",""1126""
","
","243","","","","","","","","51","0,1,0","1","highway","68","probe-113","0.3854739952679127","0.6754936006589228","0.09683390527174619","0","","","","","","","",""
"","html-keyboard-response","245","971964","0.0-130.0-1.0","""event"",""trial"",""time""
""fullscreenenter"",""0"",""1126""
","
","
","""event"",""trial"",""time""
""fullscreenenter"",""0"",""1126""
","
","null","<p></p>","null","","","","","","","","","","","","","","","","","","","","","","",""
"","do_trial","246","976529","0.0-131.0-0.0","""event"",""trial"",""time""
""fullscreenenter"",""0"",""1126""
","
","
","""event"",""trial"",""time""
""fullscreenenter"",""0"",""1126""
","
","36.299999952316284","","","","","","","","50","0,1,0","1","highway","69","probe-210","0.34217315779495605","0.6277627733865628","0.10072014300668533","1","","","","","","","",""
"","html-keyboard-response","247","977531","0.0-131.0-1.0","""event"",""trial"",""time""
""fullscreenenter"",""0"",""1126""
","
","
","""event"",""trial"",""time""
""fullscreenenter"",""0"",""1126""
","
","null","<p></p>","null","","","","","","","","","","","","","","","","","","","","","","",""
"","do_bye","248","979034","0.0-132.0-0.0","""event"",""trial"",""time""
""fullscreenenter"",""0"",""1126""
","
","
","""event"",""trial"",""time""
""fullscreenenter"",""0"",""1126""
","
","null","","","","","","","","null","","","","","","","","","","","","","","","","",""
"","break","249","980463","0.0-132.0-1.0","""event"",""trial"",""time""
""fullscreenenter"",""0"",""1126""
","
","
","""event"",""trial"",""time""
""fullscreenenter"",""0"",""1126""
","
","1427.2999999523163","<div class='center'><p>Time to take a quick break! You have 2 minutes to rest, but you can move on sooner if you'd like.</p><p> Press the <b>space bar</b> to continue.</p></div>","32","","","","","","","","","","","","","","","","","","","","","","",""
"","do_travel","250","989465","0.0-133.0-0.0","""event"",""trial"",""time""
""fullscreenenter"",""0"",""1126""
","
","
","""event"",""trial"",""time""
""fullscreenenter"",""0"",""1126""
","
","null","","","","","","","","null","","","","","","","","","","","","","","","","",""
"","do_welcome","251","993469","0.0-133.0-1.0","""event"",""trial"",""time""
""fullscreenenter"",""0"",""1126""
","
","
","""event"",""trial"",""time""
""fullscreenenter"",""0"",""1126""
","
","null","","","","","","","","null","","","","","","","","","","","","","","","","",""
"","do_trial","252","999350","0.0-134.0-0.0","""event"",""trial"",""time""
""fullscreenenter"",""0"",""1126""
","
","
","""event"",""trial"",""time""
""fullscreenenter"",""0"",""1126""
","
","1350.7000000476837","","","","","","","","51","0,1,1","2","forest","70","probe-161","0.3750025636819778","1","0.10123435701489183","1","","","","","","","",""
"","html-keyboard-response","253","1000352","0.0-134.0-1.0","""event"",""trial"",""time""
""fullscreenenter"",""0"",""1126""
","
","
","""event"",""trial"",""time""
""fullscreenenter"",""0"",""1126""
","
","null","<p></p>","null","","","","","","","","","","","","","","","","","","","","","","",""
"","do_trial","254","1005294","0.0-135.0-0.0","""event"",""trial"",""time""
""fullscreenenter"",""0"",""1126""
","
","
","""event"",""trial"",""time""
""fullscreenenter"",""0"",""1126""
","
","406.69999980926514","","","","","","","","51","0,1,0","2","forest","71","probe-95","0.3462157790130717","1","0.11339343468432617","0","","","","","","","",""
"","html-keyboard-response","255","1006296","0.0-135.0-1.0","""event"",""trial"",""time""
""fullscreenenter"",""0"",""1126""
","
","
","""event"",""trial"",""time""
""fullscreenenter"",""0"",""1126""
","
","null","<p></p>","null","","","","","","","","","","","","","","","","","","","","","","",""
"","do_trial","256","1011565","0.0-136.0-0.0","""event"",""trial"",""time""
""fullscreenenter"",""0"",""1126""
","
","
","""event"",""trial"",""time""
""fullscreenenter"",""0"",""1126""
","
","739.1000001430511","","","","","","","","49","1,1,0","2","forest","72","probe-218","0.3376903731099498","0.7266682779819311","0.1525443967198332","1","","","","","","","",""
"","html-keyboard-response","257","1012566","0.0-136.0-1.0","""event"",""trial"",""time""
""fullscreenenter"",""0"",""1126""
","
","
","""event"",""trial"",""time""
""fullscreenenter"",""0"",""1126""
","
","null","<p></p>","null","","","","","","","","","","","","","","","","","","","","","","",""
"","do_trial","258","1017268","0.0-137.0-0.0","""event"",""trial"",""time""
""fullscreenenter"",""0"",""1126""
","
","
","""event"",""trial"",""time""
""fullscreenenter"",""0"",""1126""
","
","171.5","","","","","","","","49","0,0,1","2","forest","73","probe-76","0.4865273683170979","0.7259930338420906","0.1276081790161405","0","","","","","","","",""
"","html-keyboard-response","259","1018270","0.0-137.0-1.0","""event"",""trial"",""time""
""fullscreenenter"",""0"",""1126""
","
","
","""event"",""trial"",""time""
""fullscreenenter"",""0"",""1126""
","
","null","<p></p>","null","","","","","","","","","","","","","","","","","","","","","","",""
