"success","trial_type","trial_index","time_elapsed","internal_node_id","interactions","blur_events","focus_events","fullscreenenter_events","fullscreenexit_events","rt","stimulus","key_press","subject_id","participant_id","age","gender","prompt","response","choice_outcomes","context_n","context_img_id","trial_n","probe_img_id","pR_red","pR_white","pR_black","outcome","contextArray_ind","validImageProbes","invalidImageProbes","pRew_Red","pRew_White","pRew_Black","availableForMemProbe","choice_blocks"
"true","fullscreen","0","5095","0.0-0.0","""event"",""trial"",""time""
""fullscreenenter"",""0"",""4159""
","
","
","""event"",""trial"",""time""
""fullscreenenter"",""0"",""4159""
","
","","","","","","","","","","","","","","","","","","","","","","","","","",""
"","pavlovia","1","5117","0.0-1.0","""event"",""trial"",""time""
""fullscreenenter"",""0"",""4159""
","
","
","""event"",""trial"",""time""
""fullscreenenter"",""0"",""4159""
","
","","","","","","","","","","","","","","","","","","","","","","","","","",""
"","instruc1","2","50339","0.0-2.0","""event"",""trial"",""time""
""fullscreenenter"",""0"",""4159""
","
","
","""event"",""trial"",""time""
""fullscreenenter"",""0"",""4159""
","
","null","run_exp/static/audio/clip_1_welcome.m4a","null","1469","1539","25","Male","<div class='center'><p>Welcome! This is the first part of the study. It will last ~30 minutes. In part 1 and part 2 of the study, you are the head captain of a pirate ship traveling around the world to different islands. You will play a few different games throughout these two parts. Here is an overview of them:</p><br><p>Part 1 (today)</p><p>1. Instructions, practice game, and quiz</p><p>2. Pick a pirate game on 6 different islands</p><br><p>Part 2 (tomorrow)</p><p>3. Pick a pirate game and memory game</p><p>4. Where did you see this ship? </p></div>","","","","","","","","","","","","","","","","","",""
"","html-keyboard-response","3","57711","0.0-3.0","""event"",""trial"",""time""
""fullscreenenter"",""0"",""4159""
","
","
","""event"",""trial"",""time""
""fullscreenenter"",""0"",""4159""
","
","7365","<div class='center'><p>Welcome! This is the first part of the study. It will last ~30 minutes. In part 1 and part 2 of the study, you are the head captain of a pirate ship traveling around the world to different islands. You will play a few different games throughout these two parts. Here is an overview of them:</p><br><p>Part 1 (today)</p><p>1. Instructions, practice game, and quiz</p><p>2. Pick a pirate game on 6 different islands</p><br><p>Part 2 (tomorrow)</p><p>3. Pick a pirate game and memory game</p><p>4. Where did you see this ship? </p><p><b>[Press the space bar to continue]</b></p></div>","32","","","","","","","","","","","","","","","","","","","","","","",""
"","instruc2","4","63253","0.0-4.0","""event"",""trial"",""time""
""fullscreenenter"",""0"",""4159""
","
","
","""event"",""trial"",""time""
""fullscreenenter"",""0"",""4159""
","
","null","run_exp/static/audio/clip_2_different_places.m4a","null","","","","","<div class='center'><p>Today, you’ll visit these 6 islands on your journey. You'll be able to see these islands from your ship.</p><p><img src='run_exp/static/images/contexts/all_contexts.png' height='500'></p></div>","","","","","","","","","","","","","","","","","",""
"","html-keyboard-response","5","79066","0.0-5.0","""event"",""trial"",""time""
""fullscreenenter"",""0"",""4159""
","
","
","""event"",""trial"",""time""
""fullscreenenter"",""0"",""4159""
","
","15809.100000023842","<div class='center'><p>Today, you’ll visit these 6 islands on your journey. You'll be able to see these islands from your ship.</p><p><img src='run_exp/static/images/contexts/all_contexts.png' height='500'></p><p><b>[Press the space bar to continue]</b></p></div>","32","","","","","","","","","","","","","","","","","","","","","","",""
"","instruc3","6","88833","0.0-6.0","""event"",""trial"",""time""
""fullscreenenter"",""0"",""4159""
","
","
","""event"",""trial"",""time""
""fullscreenenter"",""0"",""4159""
","
","null","run_exp/static/audio/clip_3_goal_of_game_1.m4a","null","","","","","<div class='center'><p> The pirates on your ship will rob other ships as they leave the island.</p> These ships have just sold their goods to the islanders, so they will be filled with lots and lots of gold.</p><p><img src='run_exp/static/images/tutorial/ship_center.png' height='400'></p></div>","","","","","","","","","","","","","","","","","",""
"","html-keyboard-response","7","95496","0.0-7.0","""event"",""trial"",""time""
""fullscreenenter"",""0"",""4159""
","
","
","""event"",""trial"",""time""
""fullscreenenter"",""0"",""4159""
","
","6657.200000047684","<div class='center'><p> The pirates on your ship will rob other ships as they leave the island.</p> These ships have just sold their goods to the islanders, so they will be filled with lots and lots of gold.</p><p><img src='run_exp/static/images/tutorial/ship_center.png' height='400'></p><p><b>[Press the space bar to continue]</b></p></div>","32","","","","","","","","","","","","","","","","","","","","","","",""
"","instruc4","8","123714","0.0-8.0","""event"",""trial"",""time""
""fullscreenenter"",""0"",""4159""
","
","
","""event"",""trial"",""time""
""fullscreenenter"",""0"",""4159""
","
","null","run_exp/static/audio/clip_4_goal_of_game_2.m4a","null","","","","","<div class='center'><p>As the head captain, you do not have to rob any ships yourself. Another pirate will be doing the robbing for you. First, you will choose a pirate to rob the next ship.</p><p><img src='run_exp/static/images/tutorial/pirates_all_crop.png' height='200'></p><p>Then, you'll see if the pirate successfully robbed the ship of their gold. If they were successful, then you'll get a stack of gold coins like this:</p><p><img src='run_exp/static/images/tutorial/reward.png' height='150'></p><p> If they were <b>not</b> successful, then you'll get no gold coins, and you'll see a big red x like this: </p><p><img src='run_exp/static/images/tutorial/reward_no.png' height='150'></p><p> How much bonus money you make is based on how many gold coins you collect.</p><div>","","","","","","","","","","","","","","","","","",""
"","html-keyboard-response","9","136604","0.0-9.0","""event"",""trial"",""time""
""fullscreenenter"",""0"",""4159""
","
","
","""event"",""trial"",""time""
""fullscreenenter"",""0"",""4159""
","
","12752.899999976158","<div class='center'><p>As the head captain, you do not have to rob any ships yourself. Another pirate will be doing the robbing for you. First, you will choose a pirate to rob the next ship.</p><p><img src='run_exp/static/images/tutorial/pirates_all_crop.png' height='200'></p><p>Then, you'll see if the pirate successfully robbed the ship of their gold. If they were successful, then you'll get a stack of gold coins like this:</p><p><img src='run_exp/static/images/tutorial/reward.png' height='150'></p><p> If they were <b>not</b> successful, then you'll get no gold coins, and you'll see a big red x like this: </p><p><img src='run_exp/static/images/tutorial/reward_no.png' height='150'></p><p> How much bonus money you make is based on how many gold coins you collect.</p<p><b>[Press the space bar to continue]</b></p></div>","32","","","","","","","","","","","","","","","","","","","","","","",""
"","instruc5","10","158642","0.0-10.0","""event"",""trial"",""time""
""fullscreenenter"",""0"",""4159""
","
","
","""event"",""trial"",""time""
""fullscreenenter"",""0"",""4159""
","
","21930.099999964237","run_exp/static/audio/clip_5_probabilistic.m4a","49","","","","","<div class='center'><p>Even the most skilled pirate can not rob EVERY ship.</p><p> Some ships will have very strong protections against pirate attacks.</p><p> Blue beard, here, is very, very good at robbing ships, but he won't be successful every time he tries to rob one.</p><p> You can press the <b>‘1’</b> key on the keyboard to choose him.</p><p> Try choosing him 10 times to see how often he succeeds at robbing a ship. </p><p><img src='run_exp/static/images/tutorial/blue.png' height='500'></p></div>","","","","","","","","","","","","","","","","","",""
"","html-keyboard-response","11","160147","0.0-11.0","""event"",""trial"",""time""
""fullscreenenter"",""0"",""4159""
","
","
","""event"",""trial"",""time""
""fullscreenenter"",""0"",""4159""
","
","null","<div class='center'><p><img src='run_exp/static/images/tutorial/blue_win.png' height='500'></p></div>","null","","","","","","","","","","","","","","","","","","","","","","",""
"","html-keyboard-response","12","160212","0.0-12.0","""event"",""trial"",""time""
""fullscreenenter"",""0"",""4159""
","
","
","""event"",""trial"",""time""
""fullscreenenter"",""0"",""4159""
","
","62.90000003576279","<div class='center'><img src='run_exp/static/images/tutorial/blue.png' height='500'></p></div>","49","","","","","","","","","","","","","","","","","","","","","","",""
"","html-keyboard-response","13","161716","0.0-13.0","""event"",""trial"",""time""
""fullscreenenter"",""0"",""4159""
","
","
","""event"",""trial"",""time""
""fullscreenenter"",""0"",""4159""
","
","null","<div class='center'><p><img src='run_exp/static/images/tutorial/blue_win.png' height='500'></p></div>","null","","","","","","","","","","","","","","","","","","","","","","",""
"","html-keyboard-response","14","161750","0.0-14.0","""event"",""trial"",""time""
""fullscreenenter"",""0"",""4159""
","
","
","""event"",""trial"",""time""
""fullscreenenter"",""0"",""4159""
","
","31.100000023841858","<div class='center'><img src='run_exp/static/images/tutorial/blue.png' height='500'></p></div>","49","","","","","","","","","","","","","","","","","","","","","","",""
"","html-keyboard-response","15","163253","0.0-15.0","""event"",""trial"",""time""
""fullscreenenter"",""0"",""4159""
","
","
","""event"",""trial"",""time""
""fullscreenenter"",""0"",""4159""
","
","null","<div class='center'><p><img src='run_exp/static/images/tutorial/blue_win.png' height='500'></p></div>","null","","","","","","","","","","","","","","","","","","","","","","",""
"","html-keyboard-response","16","165951","0.0-16.0","""event"",""trial"",""time""
""fullscreenenter"",""0"",""4159""
","
","
","""event"",""trial"",""time""
""fullscreenenter"",""0"",""4159""
","
","2694","<div class='center'><img src='run_exp/static/images/tutorial/blue.png' height='500'></p></div>","49","","","","","","","","","","","","","","","","","","","","","","",""
"","html-keyboard-response","17","167454","0.0-17.0","""event"",""trial"",""time""
""fullscreenenter"",""0"",""4159""
","
","
","""event"",""trial"",""time""
""fullscreenenter"",""0"",""4159""
","
","null","<div class='center'><p><img src='run_exp/static/images/tutorial/blue_no_win.png' height='500'></p></div>","null","","","","","","","","","","","","","","","","","","","","","","",""
"","html-keyboard-response","18","170375","0.0-18.0","""event"",""trial"",""time""
""fullscreenenter"",""0"",""4159""
","
","
","""event"",""trial"",""time""
""fullscreenenter"",""0"",""4159""
","
","2917.600000023842","<div class='center'><img src='run_exp/static/images/tutorial/blue.png' height='500'></p></div>","49","","","","","","","","","","","","","","","","","","","","","","",""
"","html-keyboard-response","19","171878","0.0-19.0","""event"",""trial"",""time""
""fullscreenenter"",""0"",""4159""
","
","
","""event"",""trial"",""time""
""fullscreenenter"",""0"",""4159""
","
","null","<div class='center'><p><img src='run_exp/static/images/tutorial/blue_win.png' height='500'></p></div>","null","","","","","","","","","","","","","","","","","","","","","","",""
"","html-keyboard-response","20","171966","0.0-20.0","""event"",""trial"",""time""
""fullscreenenter"",""0"",""4159""
","
","
","""event"",""trial"",""time""
""fullscreenenter"",""0"",""4159""
","
","84.30000001192093","<div class='center'><img src='run_exp/static/images/tutorial/blue.png' height='500'></p></div>","49","","","","","","","","","","","","","","","","","","","","","","",""
"","html-keyboard-response","21","173473","0.0-21.0","""event"",""trial"",""time""
""fullscreenenter"",""0"",""4159""
","
","
","""event"",""trial"",""time""
""fullscreenenter"",""0"",""4159""
","
","null","<div class='center'><p><img src='run_exp/static/images/tutorial/blue_win.png' height='500'></p></div>","null","","","","","","","","","","","","","","","","","","","","","","",""
"","html-keyboard-response","22","173481","0.0-22.0","""event"",""trial"",""time""
""fullscreenenter"",""0"",""4159""
","
","
","""event"",""trial"",""time""
""fullscreenenter"",""0"",""4159""
","
","5.300000011920929","<div class='center'><img src='run_exp/static/images/tutorial/blue.png' height='500'></p></div>","49","","","","","","","","","","","","","","","","","","","","","","",""
"","html-keyboard-response","23","174983","0.0-23.0","""event"",""trial"",""time""
""fullscreenenter"",""0"",""4159""
","
","
","""event"",""trial"",""time""
""fullscreenenter"",""0"",""4159""
","
","null","<div class='center'><p><img src='run_exp/static/images/tutorial/blue_win.png' height='500'></p></div>","null","","","","","","","","","","","","","","","","","","","","","","",""
"","html-keyboard-response","24","175081","0.0-24.0","""event"",""trial"",""time""
""fullscreenenter"",""0"",""4159""
","
","
","""event"",""trial"",""time""
""fullscreenenter"",""0"",""4159""
","
","94.5","<div class='center'><img src='run_exp/static/images/tutorial/blue.png' height='500'></p></div>","49","","","","","","","","","","","","","","","","","","","","","","",""
"","html-keyboard-response","25","176583","0.0-25.0","""event"",""trial"",""time""
""fullscreenenter"",""0"",""4159""
","
","
","""event"",""trial"",""time""
""fullscreenenter"",""0"",""4159""
","
","null","<div class='center'><p><img src='run_exp/static/images/tutorial/blue_no_win.png' height='500'></p></div>","null","","","","","","","","","","","","","","","","","","","","","","",""
"","html-keyboard-response","26","177525","0.0-26.0","""event"",""trial"",""time""
""fullscreenenter"",""0"",""4159""
","
","
","""event"",""trial"",""time""
""fullscreenenter"",""0"",""4159""
","
","938.3999999761581","<div class='center'><img src='run_exp/static/images/tutorial/blue.png' height='500'></p></div>","49","","","","","","","","","","","","","","","","","","","","","","",""
"","html-keyboard-response","27","179028","0.0-27.0","""event"",""trial"",""time""
""fullscreenenter"",""0"",""4159""
","
","
","""event"",""trial"",""time""
""fullscreenenter"",""0"",""4159""
","
","null","<div class='center'><p><img src='run_exp/static/images/tutorial/blue_win.png' height='500'></p></div>","null","","","","","","","","","","","","","","","","","","","","","","",""
"","html-keyboard-response","28","179048","0.0-28.0","""event"",""trial"",""time""
""fullscreenenter"",""0"",""4159""
","
","
","""event"",""trial"",""time""
""fullscreenenter"",""0"",""4159""
","
","16.19999998807907","<div class='center'><img src='run_exp/static/images/tutorial/blue.png' height='500'></p></div>","49","","","","","","","","","","","","","","","","","","","","","","",""
"","html-keyboard-response","29","180550","0.0-29.0","""event"",""trial"",""time""
""fullscreenenter"",""0"",""4159""
","
","
","""event"",""trial"",""time""
""fullscreenenter"",""0"",""4159""
","
","null","<div class='center'><p><img src='run_exp/static/images/tutorial/blue_win.png' height='500'></p></div>","null","","","","","","","","","","","","","","","","","","","","","","",""
"","instruc6","30","186337","0.0-30.0","""event"",""trial"",""time""
""fullscreenenter"",""0"",""4159""
","
","
","""event"",""trial"",""time""
""fullscreenenter"",""0"",""4159""
","
","null","run_exp/static/audio/clip_6_blue_beard_outcome.m4a","null","","","","","<div class='center'><p> See, he succeeded in robbing the ships most of the time but not every time. </p></div>","","","","","","","","","","","","","","","","","",""
"","html-keyboard-response","31","187590","0.0-31.0","""event"",""trial"",""time""
""fullscreenenter"",""0"",""4159""
","
","
","""event"",""trial"",""time""
""fullscreenenter"",""0"",""4159""
","
","1247.800000011921","<div class='center'><p> See, he succeeded in robbing the ships most of the time but not every time. </p><p><b>[Press the space bar to continue]</b></p></div>","32","","","","","","","","","","","","","","","","","","","","","","",""
"","audio-keyboard-response","32","206557","0.0-32.0","""event"",""trial"",""time""
""fullscreenenter"",""0"",""4159""
","
","
","""event"",""trial"",""time""
""fullscreenenter"",""0"",""4159""
","
","18960.599999964237","run_exp/static/audio/clip_7_pick_pirate.m4a","49","","","","","","","","","","","","","","","","","","","","","","",""
"","audio-keyboard-response","33","211986","0.0-33.0-0.0","""event"",""trial"",""time""
""fullscreenenter"",""0"",""4159""
","
","
","""event"",""trial"",""time""
""fullscreenenter"",""0"",""4159""
","
","5422.100000023842","run_exp/static/audio/clip_8_chosen_pirate_win.m4a","32","","","","","","","","","","","","","","","","","","","","","","",""
"","audio-keyboard-response","34","215466","0.0-33.0-1.0","""event"",""trial"",""time""
""fullscreenenter"",""0"",""4159""
","
","
","""event"",""trial"",""time""
""fullscreenenter"",""0"",""4159""
","
","3476.699999988079","run_exp/static/audio/clip_9_pick_a_pirate_again.m4a","50","","","","","","","","","","","","","","","","","","","","","","",""
"","audio-keyboard-response","35","220914","0.0-34.0-0.0","""event"",""trial"",""time""
""fullscreenenter"",""0"",""4159""
","
","
","""event"",""trial"",""time""
""fullscreenenter"",""0"",""4159""
","
","5440.899999976158","run_exp/static/audio/clip_10_chosen_pirate_loss.m4a","32","","","","","","","","","","","","","","","","","","","","","","",""
"","instruc9","36","226643","0.0-35.0-0.0","""event"",""trial"",""time""
""fullscreenenter"",""0"",""4159""
","
","
","""event"",""trial"",""time""
""fullscreenenter"",""0"",""4159""
","
","null","run_exp/static/audio/clip_11_time_out.m4a","null","","","","","<div class='center'><p>If you don’t make your choice fast enough, you’ll have to wait a few seconds before you can make another one. </p><p><img src='run_exp/static/images/miscellaneous/hurry_up.png' height='500'></p></div>","","","","","","","","","","","","","","","","","",""
"","html-keyboard-response","37","228372","0.0-35.0-1.0","""event"",""trial"",""time""
""fullscreenenter"",""0"",""4159""
","
","
","""event"",""trial"",""time""
""fullscreenenter"",""0"",""4159""
","
","1725.199999988079","<div class='center'><p>If you don’t make your choice fast enough, you’ll have to wait a few seconds before you can make another one. </p><p><img src='run_exp/static/images/miscellaneous/hurry_up.png' height='500'></p><p><b>[Press the space bar to continue]</b></p></div>","32","","","","","","","","","","","","","","","","","","","","","","",""
"","instruc10","38","267695","0.0-35.0-2.0","""event"",""trial"",""time""
""fullscreenenter"",""0"",""4159""
","
","
","""event"",""trial"",""time""
""fullscreenenter"",""0"",""4159""
","
","null","run_exp/static/audio/clip_12_probe.m4a","null","","","","","<div class='center'><p>Once you've chosen a pirate, you’ll be shown the ship they are robbing. You will never rob the same ship twice. Ships can be told apart from one another by the image on them. These are the goods that they sell. See, this ship has a travel mug on it. </p><p> You’ll have to remember which island you saw each ship on. You will win more gold coins and hence more bonus money if you remember correctly! To help you remember, you can imagine a story. For example, here, you could imagine a mug full of water in the desert. Or, as another example, if on the forest island, your pirate robbed a ship with an apple on it, you could imagine an apple falling from a tree in the forest. </p><p><img src='run_exp/static/images/tutorial/example_probe.png' height='500'></p></div>","","","","","","","","","","","","","","","","","",""
"","html-keyboard-response","39","281415","0.0-35.0-3.0","""event"",""trial"",""time""
""fullscreenenter"",""0"",""4159""
","
","
","""event"",""trial"",""time""
""fullscreenenter"",""0"",""4159""
","
","13714.699999988079","<div class='center'><p>Once you've chosen a pirate, you’ll be shown the ship they are robbing. You will never rob the same ship twice. Ships can be told apart from one another by the image on them. These are the goods that they sell. See, this ship has a travel mug on it. </p><p> You’ll have to remember which island you saw each ship on. You will win more gold coins and hence more bonus money if you remember correctly! To help you remember, you can imagine a story. For example, here, you could imagine a mug full of water in the desert. Or, as another example, if on the forest island, your pirate robbed a ship with an apple on it, you could imagine an apple falling from a tree in the forest. </p><p><img src='run_exp/static/images/tutorial/example_probe.png' height='500'></p><p><b>[Press the space bar to continue]</b></p></div>","32","","","","","","","","","","","","","","","","","","","","","","",""
"","instruc11","40","297893","0.0-35.0-4.0","""event"",""trial"",""time""
""fullscreenenter"",""0"",""4159""
","
","
","""event"",""trial"",""time""
""fullscreenenter"",""0"",""4159""
","
","null","run_exp/static/audio/clip_13_changepoint.m4a","null","","","","","<div class='center'><p>How successful a pirate is at robbing ships will depend on the island you’re on.</p><p> A pirate may have visited this island many times before and gained a lot of practice robbing ships there.</p><p>So, they’re more likely to be successful than a pirate who has never visited the island before.</p></div>","","","","","","","","","","","","","","","","","",""
"","html-keyboard-response","41","299526","0.0-35.0-5.0","""event"",""trial"",""time""
""fullscreenenter"",""0"",""4159""
","
","
","""event"",""trial"",""time""
""fullscreenenter"",""0"",""4159""
","
","1629","<div class='center'><p>How successful a pirate is at robbing ships will depend on the island you’re on.</p><p> A pirate may have visited this island many times before and gained a lot of practice robbing ships there.</p><p>So, they’re more likely to be successful than a pirate who has never visited the island before.</p><p><b>[Press the space bar to continue]</b></p></div>","32","","","","","","","","","","","","","","","","","","","","","","",""
"","instruc12","42","340803","0.0-35.0-6.0","""event"",""trial"",""time""
""fullscreenenter"",""0"",""4159""
","
","
","""event"",""trial"",""time""
""fullscreenenter"",""0"",""4159""
","
","null","run_exp/static/audio/clip_14_drift.m4a","null","","","","","<div class='center'><p>How successful a pirate is at robbing ships can also change over the time spent on the island. </p><p> Ships may hear from islanders about the pirates coming and will improve their protections against the attack. This may make it harder to rob them.</p><p> Ships may also become lazy and weaken the strength of their protections. This may make it easier to rob them.</p><br><p>Things are always changing on the high seas! So, try your best to pay attention!</p><p><img src='run_exp/static/images/tutorial/contingency.png' height='500'></p></div>","","","","","","","","","","","","","","","","","",""
"","html-keyboard-response","43","341868","0.0-35.0-7.0","""event"",""trial"",""time""
""fullscreenenter"",""0"",""4159""
","
","
","""event"",""trial"",""time""
""fullscreenenter"",""0"",""4159""
","
","1060.800000011921","<div class='center'><p>How successful a pirate is at robbing ships can also change over the time spent on the island. </p><p> Ships may hear from islanders about the pirates coming and will improve their protections against the attack. This may make it harder to rob them.</p><p> Ships may also become lazy and weaken the strength of their protections. This may make it easier to rob them.</p><br><p>Things are always changing on the high seas! So, try your best to pay attention!</p><p><img src='run_exp/static/images/tutorial/contingency.png' height='500'></p><p><b>[Press the space bar to continue]</b></p></div>","32","","","","","","","","","","","","","","","","","","","","","","",""
"","instruc13","44","377212","0.0-35.0-8.0","""event"",""trial"",""time""
""fullscreenenter"",""0"",""4159""
","
","
","""event"",""trial"",""time""
""fullscreenenter"",""0"",""4159""
","
","null","run_exp/static/audio/clip_15_summary.m4a","null","","","","","<div class='center'><p>Let's go over the instructions quickly again. You have two important things to do: </p><b><p> 1. Pick the pirate who is the best at robbing ships on the current island. </p></b><b><p> 2. Remember on which island a ship was robbed.</p> </b><p>The amount of bonus money you can win depends on both.</p><p><br><p>Let’s try a practice game. The game will start by showing you the pirates. First, pick a pirate using the <b> 1, 2, 3 </b> keys on your keyboard. When you are shown a ship, try to remember which island you’re on by making up a story.</p><p>This is just a practice game, so you’re not playing for money. </p><p> Good luck! This game will be very difficult but try your best!</p></div>","","","","","","","","","","","","","","","","","",""
"","html-keyboard-response","45","378962","0.0-35.0-9.0","""event"",""trial"",""time""
""fullscreenenter"",""0"",""4159""
","
","
","""event"",""trial"",""time""
""fullscreenenter"",""0"",""4159""
","
","1745.6000000238419","<div class='center'><p>Let's go over the instructions quickly again. You have two important things to do: </p><b><p> 1. Pick the pirate who is the best at robbing ships on the current island. </p></b><b><p> 2. Remember on which island a ship was robbed.</p> </b><p>The amount of bonus money you can win depends on both.</p><p><br><p>Let’s try a practice game. The game will start by showing you the pirates. First, pick a pirate using the <b> 1, 2, 3 </b> keys on your keyboard. When you are shown a ship, try to remember which island you’re on by making up a story.</p><p>This is just a practice game, so you’re not playing for money. </p><p> Good luck! This game will be very difficult but try your best!</p><p><b>[Press the space bar to continue]</b></p></div>","32","","","","","","","","","","","","","","","","","","","","","","",""
"","do_welcome","46","383045","0.0-35.0-10.0","""event"",""trial"",""time""
""fullscreenenter"",""0"",""4159""
","
","
","""event"",""trial"",""time""
""fullscreenenter"",""0"",""4159""
","
","null","","","","","","","","null","","","","","","","","","","","","","","","","",""
"","do_trial","47","389082","0.0-35.0-11.0","""event"",""trial"",""time""
""fullscreenenter"",""0"",""4159""
","
","
","""event"",""trial"",""time""
""fullscreenenter"",""0"",""4159""
","
","null","","","","","","","","null","1,0,0","","","","","","","","","","","","","","","",""
"","html-keyboard-response","48","390087","0.0-36.0-0.0","""event"",""trial"",""time""
""fullscreenenter"",""0"",""4159""
","
","
","""event"",""trial"",""time""
""fullscreenenter"",""0"",""4159""
","
","null","<p></p>","null","","","","","","","","","","","","","","","","","","","","","","",""
"","do_trial","49","395942","0.0-36.0-1.0","""event"",""trial"",""time""
""fullscreenenter"",""0"",""4159""
","
","
","""event"",""trial"",""time""
""fullscreenenter"",""0"",""4159""
","
","1328.300000011921","","","","","","","","50","1,0,0","","","","","","","","","","","","","","","",""
"","html-keyboard-response","50","396945","0.0-37.0-0.0","""event"",""trial"",""time""
""fullscreenenter"",""0"",""4159""
","
","
","""event"",""trial"",""time""
""fullscreenenter"",""0"",""4159""
","
","null","<p></p>","null","","","","","","","","","","","","","","","","","","","","","","",""
"","do_trial","51","402824","0.0-37.0-1.0","""event"",""trial"",""time""
""fullscreenenter"",""0"",""4159""
","
","
","""event"",""trial"",""time""
""fullscreenenter"",""0"",""4159""
","
","1352.800000011921","","","","","","","","49","1,1,0","","","","","","","","","","","","","","","",""
"","html-keyboard-response","52","403827","0.0-38.0-0.0","""event"",""trial"",""time""
""fullscreenenter"",""0"",""4159""
","
","
","""event"",""trial"",""time""
""fullscreenenter"",""0"",""4159""
","
","null","<p></p>","null","","","","","","","","","","","","","","","","","","","","","","",""
"","do_trial","53","409837","0.0-38.0-1.0","""event"",""trial"",""time""
""fullscreenenter"",""0"",""4159""
","
","
","""event"",""trial"",""time""
""fullscreenenter"",""0"",""4159""
","
","1487.8999999761581","","","","","","","","49","1,0,1","","","","","","","","","","","","","","","",""
"","html-keyboard-response","54","410841","0.0-39.0-0.0","""event"",""trial"",""time""
""fullscreenenter"",""0"",""4159""
","
","
","""event"",""trial"",""time""
""fullscreenenter"",""0"",""4159""
","
","null","<p></p>","null","","","","","","","","","","","","","","","","","","","","","","",""
"","do_trial","55","417243","0.0-39.0-1.0","""event"",""trial"",""time""
""fullscreenenter"",""0"",""4159""
","
","
","""event"",""trial"",""time""
""fullscreenenter"",""0"",""4159""
","
","1869.1000000238419","","","","","","","","51","0,1,0","","","","","","","","","","","","","","","",""
"","html-keyboard-response","56","418247","0.0-40.0-0.0","""event"",""trial"",""time""
""fullscreenenter"",""0"",""4159""
","
","
","""event"",""trial"",""time""
""fullscreenenter"",""0"",""4159""
","
","null","<p></p>","null","","","","","","","","","","","","","","","","","","","","","","",""
"","do_trial","57","423608","0.0-40.0-1.0","""event"",""trial"",""time""
""fullscreenenter"",""0"",""4159""
","
","
","""event"",""trial"",""time""
""fullscreenenter"",""0"",""4159""
","
","837.6999999880791","","","","","","","","50","1,0,0","","","","","","","","","","","","","","","",""
"","do_bye","58","425125","0.0-41.0-0.0","""event"",""trial"",""time""
""fullscreenenter"",""0"",""4159""
","
","
","""event"",""trial"",""time""
""fullscreenenter"",""0"",""4159""
","
","null","","","","","","","","null","","","","","","","","","","","","","","","","",""
"","do_travel","59","434147","0.0-41.0-1.0","""event"",""trial"",""time""
""fullscreenenter"",""0"",""4159""
","
","
","""event"",""trial"",""time""
""fullscreenenter"",""0"",""4159""
","
","null","","","","","","","","null","","","","","","","","","","","","","","","","",""
"","do_welcome","60","438173","0.0-41.0-2.0","""event"",""trial"",""time""
""fullscreenenter"",""0"",""4159""
","
","
","""event"",""trial"",""time""
""fullscreenenter"",""0"",""4159""
","
","null","","","","","","","","null","","","","","","","","","","","","","","","","",""
"","do_trial","61","444345","0.0-41.0-3.0","""event"",""trial"",""time""
""fullscreenenter"",""0"",""4159""
","
","
","""event"",""trial"",""time""
""fullscreenenter"",""0"",""4159""
","
","1649","","","","","","","","49","1,0,0","","","","","","","","","","","","","","","",""
"","html-keyboard-response","62","445348","0.0-42.0-0.0","""event"",""trial"",""time""
""fullscreenenter"",""0"",""4159""
","
","
","""event"",""trial"",""time""
""fullscreenenter"",""0"",""4159""
","
","null","<p></p>","null","","","","","","","","","","","","","","","","","","","","","","",""
"","do_trial","63","452430","0.0-42.0-1.0","""event"",""trial"",""time""
""fullscreenenter"",""0"",""4159""
","
","
","""event"",""trial"",""time""
""fullscreenenter"",""0"",""4159""
","
","2571.5","","","","","","","","50","1,0,1","","","","","","","","","","","","","","","",""
"","html-keyboard-response","64","453434","0.0-43.0-0.0","""event"",""trial"",""time""
""fullscreenenter"",""0"",""4159""
","
","
","""event"",""trial"",""time""
""fullscreenenter"",""0"",""4159""
","
","null","<p></p>","null","","","","","","","","","","","","","","","","","","","","","","",""
"","do_trial","65","459829","0.0-43.0-1.0","""event"",""trial"",""time""
""fullscreenenter"",""0"",""4159""
","
","
","""event"",""trial"",""time""
""fullscreenenter"",""0"",""4159""
","
","1871","","","","","","","","51","1,1,0","","","","","","","","","","","","","","","",""
"","html-keyboard-response","66","460833","0.0-44.0-0.0","""event"",""trial"",""time""
""fullscreenenter"",""0"",""4159""
","
","
","""event"",""trial"",""time""
""fullscreenenter"",""0"",""4159""
","
","null","<p></p>","null","","","","","","","","","","","","","","","","","","","","","","",""
"","do_trial","67","465996","0.0-44.0-1.0","""event"",""trial"",""time""
""fullscreenenter"",""0"",""4159""
","
","
","""event"",""trial"",""time""
""fullscreenenter"",""0"",""4159""
","
","637.3999999761581","","","","","","","","50","0,0,1","","","","","","","","","","","","","","","",""
"","html-keyboard-response","68","467004","0.0-45.0-0.0","""event"",""trial"",""time""
""fullscreenenter"",""0"",""4159""
","
","
","""event"",""trial"",""time""
""fullscreenenter"",""0"",""4159""
","
","null","<p></p>","null","","","","","","","","","","","","","","","","","","","","","","",""
"","do_trial","69","471828","0.0-45.0-1.0","""event"",""trial"",""time""
""fullscreenenter"",""0"",""4159""
","
","
","""event"",""trial"",""time""
""fullscreenenter"",""0"",""4159""
","
","302.39999997615814","","","","","","","","49","1,0,1","","","","","","","","","","","","","","","",""
"","html-keyboard-response","70","475570","0.0-46.0-0.0","""event"",""trial"",""time""
""fullscreenenter"",""0"",""4159""
","
","
","""event"",""trial"",""time""
""fullscreenenter"",""0"",""4159""
","
","3736.099999964237","<div class='center'><p><img src='run_exp/static/images/tutorial/prac_best_pirate.png'  height='500'></p></div>","50","","","","","","","","","","","","","","","","","","","","","","",""
"","html-keyboard-response","71","479632","0.0-47.0-0.0","""event"",""trial"",""time""
""fullscreenenter"",""0"",""4159""
","
","
","""event"",""trial"",""time""
""fullscreenenter"",""0"",""4159""
","
","4058.5","<div class='center'><p>That's incorrect! Red beard was the best.</p><p><b>[Press the space bar to continue]</b></p></div>","32","","","","","","","","","","","","","","","","","","","","","","",""
"","html-keyboard-response","72","507055","0.0-47.0-1.0","""event"",""trial"",""time""
""fullscreenenter"",""0"",""4159""
","
","
","""event"",""trial"",""time""
""fullscreenenter"",""0"",""4159""
","
","27421.099999964237","<div class='center'><p><img src='run_exp/static/images/tutorial/prac_source.png'  height='500'></p></div>","50","","","","","","","","","","","","","","","","","","","","","","",""
"","html-keyboard-response","73","510104","0.0-48.0-0.0","""event"",""trial"",""time""
""fullscreenenter"",""0"",""4159""
","
","
","""event"",""trial"",""time""
""fullscreenenter"",""0"",""4159""
","
","3045.7999999523163","<div class='center'><p>That's correct! You saw this ship on the cavern island.</p><p><b>[Press the space bar to continue]</b></p></div>","32","","","","","","","","","","","","","","","","","","","","","","",""
"","quiz_beginning","74","521677","0.0-48.0-1.0","""event"",""trial"",""time""
""fullscreenenter"",""0"",""4159""
","
","
","""event"",""trial"",""time""
""fullscreenenter"",""0"",""4159""
","
","null","run_exp/static/audio/clip_16_quiz_intro.m4a","null","","","","","<div class='center'><p>Good job on the practice game! Now, you will be asked some true or false questions to make sure you really understand the rules of the game.</p><p> Press <b>'1'</b> on the keyboard for true and press <b>'2'</b> for false.</p></div>","","","","","","","","","","","","","","","","","",""
"","audio-keyboard-response","75","535614","0.0-48.0-2.0","""event"",""trial"",""time""
""fullscreenenter"",""0"",""4159""
","
","
","""event"",""trial"",""time""
""fullscreenenter"",""0"",""4159""
","
","13933.100000023842","run_exp/static/audio/clip_17_q1.m4a","49","","","","","","","","","","","","","","","","","","","","","","",""
"","correct","76","538063","0.0-49.0-0.0","""event"",""trial"",""time""
""fullscreenenter"",""0"",""4159""
","
","
","""event"",""trial"",""time""
""fullscreenenter"",""0"",""4159""
","
","null","run_exp/static/audio/clip_18_correct.m4a","null","","","","","<div class='center'><p>That's correct!</p></div>","","","","","","","","","","","","","","","","","",""
"","html-keyboard-response","77","539421","0.0-49.0-1.0","""event"",""trial"",""time""
""fullscreenenter"",""0"",""4159""
","
","
","""event"",""trial"",""time""
""fullscreenenter"",""0"",""4159""
","
","1355.699999988079","<div class='center'><p>That's correct!</p><p><b>[Press the space bar to continue]</b></p></div>","32","","","","","","","","","","","","","","","","","","","","","","",""
"","audio-keyboard-response","78","570233","0.0-49.0-2.0","""event"",""trial"",""time""
""fullscreenenter"",""0"",""4159""
","
","
","""event"",""trial"",""time""
""fullscreenenter"",""0"",""4159""
","
","30808","run_exp/static/audio/clip_20_q2.m4a","49","","","","","","","","","","","","","","","","","","","","","","",""
"","q2_err","79","576064","0.0-50.0-0.0","""event"",""trial"",""time""
""fullscreenenter"",""0"",""4159""
","
","
","""event"",""trial"",""time""
""fullscreenenter"",""0"",""4159""
","
","null","run_exp/static/audio/clip_21_wrong_q2.m4a","null","","","","","<div class='center'><p>That’s incorrect. Which pirate is the best may change during your time on the island.</p></div>","","","","","","","","","","","","","","","","","",""
"","html-keyboard-response","80","579159","0.0-50.0-1.0","""event"",""trial"",""time""
""fullscreenenter"",""0"",""4159""
","
","
","""event"",""trial"",""time""
""fullscreenenter"",""0"",""4159""
","
","3089.5","<div class='center'><p>That’s incorrect. Which pirate is the best may change during your time on the island.</p><p><b>[Press the space bar to continue]</b></p></div>","32","","","","","","","","","","","","","","","","","","","","","","",""
"","audio-keyboard-response","81","589249","0.0-50.0-2.0","""event"",""trial"",""time""
""fullscreenenter"",""0"",""4159""
","
","
","""event"",""trial"",""time""
""fullscreenenter"",""0"",""4159""
","
","10087.199999988079","run_exp/static/audio/clip_22_q3.m4a","49","","","","","","","","","","","","","","","","","","","","","","",""
"","q3_err","82","596038","0.0-51.0-0.0","""event"",""trial"",""time""
""fullscreenenter"",""0"",""4159""
","
","
","""event"",""trial"",""time""
""fullscreenenter"",""0"",""4159""
","
","null","run_exp/static/audio/clip_23_wrong_q3.m4a","null","","","","","<div class='center'><p>That’s incorrect. How good a pirate is at robbing ships will change from island to island!</p></div>","","","","","","","","","","","","","","","","","",""
"","html-keyboard-response","83","597370","0.0-51.0-1.0","""event"",""trial"",""time""
""fullscreenenter"",""0"",""4159""
","
","
","""event"",""trial"",""time""
""fullscreenenter"",""0"",""4159""
","
","1329.800000011921","<div class='center'><p>That’s incorrect. How good a pirate is at robbing ships will change from island to island!</p><p><b>[Press the space bar to continue]</b></p></div>","32","","","","","","","","","","","","","","","","","","","","","","",""
"","audio-keyboard-response","84","604391","0.0-51.0-2.0","""event"",""trial"",""time""
""fullscreenenter"",""0"",""4159""
","
","
","""event"",""trial"",""time""
""fullscreenenter"",""0"",""4159""
","
","7016.400000035763","run_exp/static/audio/clip_24_q4.m4a","49","","","","","","","","","","","","","","","","","","","","","","",""
"","correct","85","607088","0.0-52.0-0.0","""event"",""trial"",""time""
""fullscreenenter"",""0"",""4159""
","
","
","""event"",""trial"",""time""
""fullscreenenter"",""0"",""4159""
","
","null","run_exp/static/audio/clip_18_correct.m4a","null","","","","","<div class='center'><p>That's correct!</p></div>","","","","","","","","","","","","","","","","","",""
"","html-keyboard-response","86","608108","0.0-52.0-1.0","""event"",""trial"",""time""
""fullscreenenter"",""0"",""4159""
","
","
","""event"",""trial"",""time""
""fullscreenenter"",""0"",""4159""
","
","1017.3000000119209","<div class='center'><p>That's correct!</p><p><b>[Press the space bar to continue]</b></p></div>","32","","","","","","","","","","","","","","","","","","","","","","",""
"","q_all_err","87","614516","0.0-53.0-0.0","""event"",""trial"",""time""
""fullscreenenter"",""0"",""4159""
","
","
","""event"",""trial"",""time""
""fullscreenenter"",""0"",""4159""
","
","null","run_exp/static/audio/clip_26_quiz_redo.m4a","null","","","","","<div class='center'><p>Oops, you missed some questions. Now that you’ve heard the correct answers. Try the quiz again! </p></div>","","","","","","","","","","","","","","","","","",""
"","html-keyboard-response","88","617583","0.0-53.0-1.0","""event"",""trial"",""time""
""fullscreenenter"",""0"",""4159""
","
","
","""event"",""trial"",""time""
""fullscreenenter"",""0"",""4159""
","
","3065.399999976158","<div class='center'><p>Oops, you missed some questions. Now that you’ve heard the correct answers. Try the quiz again! </p><p><b>[Press the space bar to continue]</b></p></div>","32","","","","","","","","","","","","","","","","","","","","","","",""
"","audio-keyboard-response","89","621342","0.0-53.0-2.0","""event"",""trial"",""time""
""fullscreenenter"",""0"",""4159""
","
","
","""event"",""trial"",""time""
""fullscreenenter"",""0"",""4159""
","
","3757.300000011921","run_exp/static/audio/clip_17_q1.m4a","49","","","","","","","","","","","","","","","","","","","","","","",""
"","correct","90","623991","0.0-54.0-0.0","""event"",""trial"",""time""
""fullscreenenter"",""0"",""4159""
","
","
","""event"",""trial"",""time""
""fullscreenenter"",""0"",""4159""
","
","null","run_exp/static/audio/clip_18_correct.m4a","null","","","","","<div class='center'><p>That's correct!</p></div>","","","","","","","","","","","","","","","","","",""
"","html-keyboard-response","91","625295","0.0-54.0-1.0","""event"",""trial"",""time""
""fullscreenenter"",""0"",""4159""
","
","
","""event"",""trial"",""time""
""fullscreenenter"",""0"",""4159""
","
","1295.6000000238419","<div class='center'><p>That's correct!</p><p><b>[Press the space bar to continue]</b></p></div>","32","","","","","","","","","","","","","","","","","","","","","","",""
"","audio-keyboard-response","92","633356","0.0-54.0-2.0","""event"",""trial"",""time""
""fullscreenenter"",""0"",""4159""
","
","
","""event"",""trial"",""time""
""fullscreenenter"",""0"",""4159""
","
","8057.600000023842","run_exp/static/audio/clip_20_q2.m4a","50","","","","","","","","","","","","","","","","","","","","","","",""
"","correct","93","635972","0.0-55.0-0.0","""event"",""trial"",""time""
""fullscreenenter"",""0"",""4159""
","
","
","""event"",""trial"",""time""
""fullscreenenter"",""0"",""4159""
","
","null","run_exp/static/audio/clip_18_correct.m4a","null","","","","","<div class='center'><p>That's correct!</p></div>","","","","","","","","","","","","","","","","","",""
"","html-keyboard-response","94","637276","0.0-55.0-1.0","""event"",""trial"",""time""
""fullscreenenter"",""0"",""4159""
","
","
","""event"",""trial"",""time""
""fullscreenenter"",""0"",""4159""
","
","1300.8999999761581","<div class='center'><p>That's correct!</p><p><b>[Press the space bar to continue]</b></p></div>","32","","","","","","","","","","","","","","","","","","","","","","",""
"","audio-keyboard-response","95","644463","0.0-55.0-2.0","""event"",""trial"",""time""
""fullscreenenter"",""0"",""4159""
","
","
","""event"",""trial"",""time""
""fullscreenenter"",""0"",""4159""
","
","7183.199999988079","run_exp/static/audio/clip_22_q3.m4a","50","","","","","","","","","","","","","","","","","","","","","","",""
"","correct","96","647120","0.0-56.0-0.0","""event"",""trial"",""time""
""fullscreenenter"",""0"",""4159""
","
","
","""event"",""trial"",""time""
""fullscreenenter"",""0"",""4159""
","
","null","run_exp/static/audio/clip_18_correct.m4a","null","","","","","<div class='center'><p>That's correct!</p></div>","","","","","","","","","","","","","","","","","",""
"","html-keyboard-response","97","648067","0.0-56.0-1.0","""event"",""trial"",""time""
""fullscreenenter"",""0"",""4159""
","
","
","""event"",""trial"",""time""
""fullscreenenter"",""0"",""4159""
","
","943.6999999880791","<div class='center'><p>That's correct!</p><p><b>[Press the space bar to continue]</b></p></div>","32","","","","","","","","","","","","","","","","","","","","","","",""
"","audio-keyboard-response","98","653527","0.0-56.0-2.0","""event"",""trial"",""time""
""fullscreenenter"",""0"",""4159""
","
","
","""event"",""trial"",""time""
""fullscreenenter"",""0"",""4159""
","
","5452.900000035763","run_exp/static/audio/clip_24_q4.m4a","49","","","","","","","","","","","","","","","","","","","","","","",""
"","correct","99","656314","0.0-57.0-0.0","""event"",""trial"",""time""
""fullscreenenter"",""0"",""4159""
","
","
","""event"",""trial"",""time""
""fullscreenenter"",""0"",""4159""
","
","null","run_exp/static/audio/clip_18_correct.m4a","null","","","","","<div class='center'><p>That's correct!</p></div>","","","","","","","","","","","","","","","","","",""
"","html-keyboard-response","100","657132","0.0-57.0-1.0","""event"",""trial"",""time""
""fullscreenenter"",""0"",""4159""
","
","
","""event"",""trial"",""time""
""fullscreenenter"",""0"",""4159""
","
","814.7000000476837","<div class='center'><p>That's correct!</p><p><b>[Press the space bar to continue]</b></p></div>","32","","","","","","","","","","","","","","","","","","","","","","",""
"","q_all_corr","101","665880","0.0-58.0-0.0","""event"",""trial"",""time""
""fullscreenenter"",""0"",""4159""
","
","
","""event"",""trial"",""time""
""fullscreenenter"",""0"",""4159""
","
","null","run_exp/static/audio/clip_27_quiz_all_correct.m4a","null","","","","","<div class='center'><p>Good job! You’re now ready to move on to the real game! Remember this game will be difficult but don't get discouraged and try your best!</p></div>","","","","","","","","","","","","","","","","","",""
"","html-keyboard-response","102","838026","0.0-58.0-1.0","""event"",""trial"",""time""
""fullscreenenter"",""0"",""4159""
","
","
","""event"",""trial"",""time""
""fullscreenenter"",""0"",""4159""
","
","172135.60000002384","<div class='center'><p>Good job! You’re now ready to move on to the real game! Remember this game will be difficult but don't get discouraged and try your best!</p><p><b>[Press the space bar to continue]</b></p></div>","32","","","","","","","","","","","","","","","","","","","","","","",""
"","do_welcome","103","842068","0.0-59.0-0.0","""event"",""trial"",""time""
""fullscreenenter"",""0"",""4159""
","
","
","""event"",""trial"",""time""
""fullscreenenter"",""0"",""4159""
","
","null","","","","","","","","null","","","","","","","","","","","","","","","","",""
"","do_trial","104","848255","0.0-60.0-0.0","""event"",""trial"",""time""
""fullscreenenter"",""0"",""4159""
","
","
","""event"",""trial"",""time""
""fullscreenenter"",""0"",""4159""
","
","null","","","","","","","","null","1,1,0","0","forest","0","probe-116","0.6","0.3","0.1","","","","","","","","",""
"","html-keyboard-response","105","849274","0.0-60.0-1.0","""event"",""trial"",""time""
""fullscreenenter"",""0"",""4159""
","
","
","""event"",""trial"",""time""
""fullscreenenter"",""0"",""4159""
","
","null","<p></p>","null","","","","","","","","","","","","","","","","","","","","","","",""
"","do_trial","106","855993","0.0-61.0-0.0","""event"",""trial"",""time""
""fullscreenenter"",""0"",""4159""
","
","
","""event"",""trial"",""time""
""fullscreenenter"",""0"",""4159""
","
","2117.5","","","","","","","","50","1,0,0","0","forest","1","probe-68","0.6609905256598841","0.20532112442436912","0.13180076382929004","0","","","","","","","",""
"","html-keyboard-response","107","856997","0.0-61.0-1.0","""event"",""trial"",""time""
""fullscreenenter"",""0"",""4159""
","
","
","""event"",""trial"",""time""
""fullscreenenter"",""0"",""4159""
","
","null","<p></p>","null","","","","","","","","","","","","","","","","","","","","","","",""
"","do_trial","108","863284","0.0-62.0-0.0","""event"",""trial"",""time""
""fullscreenenter"",""0"",""4159""
","
","
","""event"",""trial"",""time""
""fullscreenenter"",""0"",""4159""
","
","1695.3999999761581","","","","","","","","49","1,1,0","0","forest","2","probe-155","0.5335619530155782","0.35677973593286505","0.10323430019474626","1","","","","","","","",""
"","html-keyboard-response","109","864288","0.0-62.0-1.0","""event"",""trial"",""time""
""fullscreenenter"",""0"",""4159""
","
","
","""event"",""trial"",""time""
""fullscreenenter"",""0"",""4159""
","
","null","<p></p>","null","","","","","","","","","","","","","","","","","","","","","","",""
"","do_trial","110","870596","0.0-63.0-0.0","""event"",""trial"",""time""
""fullscreenenter"",""0"",""4159""
","
","
","""event"",""trial"",""time""
""fullscreenenter"",""0"",""4159""
","
","1714.9000000357628","","","","","","","","51","1,0,0","0","forest","3","probe-211","0.608149080364298","0.3157519444604203","0.1859139944326283","0","","","","","","","",""
"","html-keyboard-response","111","871599","0.0-63.0-1.0","""event"",""trial"",""time""
""fullscreenenter"",""0"",""4159""
","
","
","""event"",""trial"",""time""
""fullscreenenter"",""0"",""4159""
","
","null","<p></p>","null","","","","","","","","","","","","","","","","","","","","","","",""
"","do_trial","112","876713","0.0-64.0-0.0","""event"",""trial"",""time""
""fullscreenenter"",""0"",""4159""
","
","
","""event"",""trial"",""time""
""fullscreenenter"",""0"",""4159""
","
","512.5","","","","","","","","50","0,0,1","0","forest","4","probe-55","0.66546416849072","0.32866392115682935","0.2598489975052724","0","","","","","","","",""
"","html-keyboard-response","113","877716","0.0-64.0-1.0","""event"",""trial"",""time""
""fullscreenenter"",""0"",""4159""
","
","
","""event"",""trial"",""time""
""fullscreenenter"",""0"",""4159""
","
","null","<p></p>","null","","","","","","","","","","","","","","","","","","","","","","",""
"","do_trial","114","882998","0.0-65.0-0.0","""event"",""trial"",""time""
""fullscreenenter"",""0"",""4159""
","
","
","""event"",""trial"",""time""
""fullscreenenter"",""0"",""4159""
","
","676.3000000119209","","","","","","","","49","0,1,0","0","forest","5","probe-43","0.6092162984685876","0.23632023804620855","0.20990187342691902","0","","","","","","","",""
"","html-keyboard-response","115","884002","0.0-65.0-1.0","""event"",""trial"",""time""
""fullscreenenter"",""0"",""4159""
","
","
","""event"",""trial"",""time""
""fullscreenenter"",""0"",""4159""
","
","null","<p></p>","null","","","","","","","","","","","","","","","","","","","","","","",""
"","do_trial","116","889234","0.0-66.0-0.0","""event"",""trial"",""time""
""fullscreenenter"",""0"",""4159""
","
","
","""event"",""trial"",""time""
""fullscreenenter"",""0"",""4159""
","
","642.8000000119209","","","","","","","","50","0,0,0","0","forest","6","probe-206","0.589127583431468","0.32388369803072303","0.20852525889615525","0","","","","","","","",""
"","html-keyboard-response","117","890238","0.0-66.0-1.0","""event"",""trial"",""time""
""fullscreenenter"",""0"",""4159""
","
","
","""event"",""trial"",""time""
""fullscreenenter"",""0"",""4159""
","
","null","<p></p>","null","","","","","","","","","","","","","","","","","","","","","","",""
"","do_trial","118","896476","0.0-67.0-0.0","""event"",""trial"",""time""
""fullscreenenter"",""0"",""4159""
","
","
","""event"",""trial"",""time""
""fullscreenenter"",""0"",""4159""
","
","1645.5","","","","","","","","51","0,0,0","0","forest","7","probe-223","0.6075431990244844","0.3784176326207374","0.07850138468564159","0","","","","","","","",""
"","html-keyboard-response","119","897480","0.0-67.0-1.0","""event"",""trial"",""time""
""fullscreenenter"",""0"",""4159""
","
","
","""event"",""trial"",""time""
""fullscreenenter"",""0"",""4159""
","
","null","<p></p>","null","","","","","","","","","","","","","","","","","","","","","","",""
"","do_trial","120","903022","0.0-68.0-0.0","""event"",""trial"",""time""
""fullscreenenter"",""0"",""4159""
","
","
","""event"",""trial"",""time""
""fullscreenenter"",""0"",""4159""
","
","937.6999999880791","","","","","","","","50","1,0,0","0","forest","8","probe-85","0.5735664021658889","0.34667330419537173","0.2247736595943224","0","","","","","","","",""
"","html-keyboard-response","121","904027","0.0-68.0-1.0","""event"",""trial"",""time""
""fullscreenenter"",""0"",""4159""
","
","
","""event"",""trial"",""time""
""fullscreenenter"",""0"",""4159""
","
","null","<p></p>","null","","","","","","","","","","","","","","","","","","","","","","",""
"","do_trial","122","909139","0.0-69.0-0.0","""event"",""trial"",""time""
""fullscreenenter"",""0"",""4159""
","
","
","""event"",""trial"",""time""
""fullscreenenter"",""0"",""4159""
","
","521.3999999761581","","","","","","","","50","1,1,1","0","forest","9","probe-120","0.7838061497457264","0.3846518126717302","0.16928008116154866","1","","","","","","","",""
"","html-keyboard-response","123","910143","0.0-69.0-1.0","""event"",""trial"",""time""
""fullscreenenter"",""0"",""4159""
","
","
","""event"",""trial"",""time""
""fullscreenenter"",""0"",""4159""
","
","null","<p></p>","null","","","","","","","","","","","","","","","","","","","","","","",""
"","do_trial","124","916545","0.0-70.0-0.0","""event"",""trial"",""time""
""fullscreenenter"",""0"",""4159""
","
","
","""event"",""trial"",""time""
""fullscreenenter"",""0"",""4159""
","
","1792.800000011921","","","","","","","","49","1,0,0","0","forest","10","probe-93","0.7667353080741488","0.3481370298877892","0.11212693156578031","1","","","","","","","",""
"","html-keyboard-response","125","917549","0.0-70.0-1.0","""event"",""trial"",""time""
""fullscreenenter"",""0"",""4159""
","
","
","""event"",""trial"",""time""
""fullscreenenter"",""0"",""4159""
","
","null","<p></p>","null","","","","","","","","","","","","","","","","","","","","","","",""
"","do_trial","126","923852","0.0-71.0-0.0","""event"",""trial"",""time""
""fullscreenenter"",""0"",""4159""
","
","
","""event"",""trial"",""time""
""fullscreenenter"",""0"",""4159""
","
","1716.6000000238419","","","","","","","","50","1,0,0","0","forest","11","probe-212","0.8267948632203251","0.25575966214406687","0.07912491966152814","0","","","","","","","",""
"","html-keyboard-response","127","924856","0.0-71.0-1.0","""event"",""trial"",""time""
""fullscreenenter"",""0"",""4159""
","
","
","""event"",""trial"",""time""
""fullscreenenter"",""0"",""4159""
","
","null","<p></p>","null","","","","","","","","","","","","","","","","","","","","","","",""
"","do_trial","128","930947","0.0-72.0-0.0","""event"",""trial"",""time""
""fullscreenenter"",""0"",""4159""
","
","
","""event"",""trial"",""time""
""fullscreenenter"",""0"",""4159""
","
","null","","","","","","","","null","1,0,0","0","forest","12","probe-145","0.5991403537859682","0.13250513291803806","0.19892929101186496","","","","","","","","",""
"","html-keyboard-response","129","931950","0.0-72.0-1.0","""event"",""trial"",""time""
""fullscreenenter"",""0"",""4159""
","
","
","""event"",""trial"",""time""
""fullscreenenter"",""0"",""4159""
","
","null","<p></p>","null","","","","","","","","","","","","","","","","","","","","","","",""
"","do_trial","130","937253","0.0-73.0-0.0","""event"",""trial"",""time""
""fullscreenenter"",""0"",""4159""
","
","
","""event"",""trial"",""time""
""fullscreenenter"",""0"",""4159""
","
","708.1999999880791","","","","","","","","51","0,0,0","0","forest","13","probe-10","0.636565334705137","0.09366303571601828","0.1372718457996642","0","","","","","","","",""
"","html-keyboard-response","131","938258","0.0-73.0-1.0","""event"",""trial"",""time""
""fullscreenenter"",""0"",""4159""
","
","
","""event"",""trial"",""time""
""fullscreenenter"",""0"",""4159""
","
","null","<p></p>","null","","","","","","","","","","","","","","","","","","","","","","",""
"","do_trial","132","943373","0.0-74.0-0.0","""event"",""trial"",""time""
""fullscreenenter"",""0"",""4159""
","
","
","""event"",""trial"",""time""
""fullscreenenter"",""0"",""4159""
","
","522.0999999642372","","","","","","","","51","1,0,0","0","forest","14","probe-139","0.6980885108604363","0.14385759520881045","0.15561777594554124","0","","","","","","","",""
"","html-keyboard-response","133","944377","0.0-74.0-1.0","""event"",""trial"",""time""
""fullscreenenter"",""0"",""4159""
","
","
","""event"",""trial"",""time""
""fullscreenenter"",""0"",""4159""
","
","null","<p></p>","null","","","","","","","","","","","","","","","","","","","","","","",""
"","do_trial","134","949239","0.0-75.0-0.0","""event"",""trial"",""time""
""fullscreenenter"",""0"",""4159""
","
","
","""event"",""trial"",""time""
""fullscreenenter"",""0"",""4159""
","
","274.7000000476837","","","","","","","","50","1,0,0","0","forest","15","probe-72","0.6592966516774682","0.1776311980392419","0.07165141535646603","0","","","","","","","",""
"","html-keyboard-response","135","950245","0.0-75.0-1.0","""event"",""trial"",""time""
""fullscreenenter"",""0"",""4159""
","
","
","""event"",""trial"",""time""
""fullscreenenter"",""0"",""4159""
","
","null","<p></p>","null","","","","","","","","","","","","","","","","","","","","","","",""
"","do_trial","136","954922","0.0-76.0-0.0","""event"",""trial"",""time""
""fullscreenenter"",""0"",""4159""
","
","
","""event"",""trial"",""time""
""fullscreenenter"",""0"",""4159""
","
","70.19999998807907","","","","","","","","50","1,0,1","0","forest","16","probe-87","0.6542146058778455","0.2442128321627394","0.07555062715344733","0","","","","","","","",""
"","html-keyboard-response","137","955926","0.0-76.0-1.0","""event"",""trial"",""time""
""fullscreenenter"",""0"",""4159""
","
","
","""event"",""trial"",""time""
""fullscreenenter"",""0"",""4159""
","
","null","<p></p>","null","","","","","","","","","","","","","","","","","","","","","","",""
"","do_trial","138","960566","0.0-77.0-0.0","""event"",""trial"",""time""
""fullscreenenter"",""0"",""4159""
","
","
","""event"",""trial"",""time""
""fullscreenenter"",""0"",""4159""
","
","16.599999964237213","","","","","","","","49","1,0,0","0","forest","17","probe-214","0.6746146454934006","0.311015362126084","0.06460993943321604","1","","","","","","","",""
"","html-keyboard-response","139","961570","0.0-77.0-1.0","""event"",""trial"",""time""
""fullscreenenter"",""0"",""4159""
","
","
","""event"",""trial"",""time""
""fullscreenenter"",""0"",""4159""
","
","null","<p></p>","null","","","","","","","","","","","","","","","","","","","","","","",""
"","do_trial","140","967525","0.0-78.0-0.0","""event"",""trial"",""time""
""fullscreenenter"",""0"",""4159""
","
","
","""event"",""trial"",""time""
""fullscreenenter"",""0"",""4159""
","
","1348.1000000238419","","","","","","","","50","0,0,1","0","forest","18","probe-180","0.5690071049285951","0.2563903728157032","0.15575438455114818","0","","","","","","","",""
"","html-keyboard-response","141","968529","0.0-78.0-1.0","""event"",""trial"",""time""
""fullscreenenter"",""0"",""4159""
","
","
","""event"",""trial"",""time""
""fullscreenenter"",""0"",""4159""
","
","null","<p></p>","null","","","","","","","","","","","","","","","","","","","","","","",""
"","do_trial","142","973313","0.0-79.0-0.0","""event"",""trial"",""time""
""fullscreenenter"",""0"",""4159""
","
","
","""event"",""trial"",""time""
""fullscreenenter"",""0"",""4159""
","
","187","","","","","","","","51","1,1,0","0","forest","19","probe-109","0.5877435866057982","0.16961326268744906","0.05184978161218693","0","","","","","","","",""
"","html-keyboard-response","143","974317","0.0-79.0-1.0","""event"",""trial"",""time""
""fullscreenenter"",""0"",""4159""
","
","
","""event"",""trial"",""time""
""fullscreenenter"",""0"",""4159""
","
","null","<p></p>","null","","","","","","","","","","","","","","","","","","","","","","",""
"","do_trial","144","979373","0.0-80.0-0.0","""event"",""trial"",""time""
""fullscreenenter"",""0"",""4159""
","
","
","""event"",""trial"",""time""
""fullscreenenter"",""0"",""4159""
","
","462","","","","","","","","50","1,0,0","0","forest","20","probe-33","0.6936200101669254","0.06335757790944223","0.18483965351249282","0","","","","","","","",""
"","html-keyboard-response","145","980377","0.0-80.0-1.0","""event"",""trial"",""time""
""fullscreenenter"",""0"",""4159""
","
","
","""event"",""trial"",""time""
""fullscreenenter"",""0"",""4159""
","
","null","<p></p>","null","","","","","","","","","","","","","","","","","","","","","","",""
"","do_trial","146","985498","0.0-81.0-0.0","""event"",""trial"",""time""
""fullscreenenter"",""0"",""4159""
","
","
","""event"",""trial"",""time""
""fullscreenenter"",""0"",""4159""
","
","531.3000000119209","","","","","","","","49","0,0,1","0","forest","21","probe-197","0.6560956211265222","0.13454586299186608","0.08597926632107881","0","","","","","","","",""
"","html-keyboard-response","147","986502","0.0-81.0-1.0","""event"",""trial"",""time""
""fullscreenenter"",""0"",""4159""
","
","
","""event"",""trial"",""time""
""fullscreenenter"",""0"",""4159""
","
","null","<p></p>","null","","","","","","","","","","","","","","","","","","","","","","",""
"","do_trial","148","991695","0.0-82.0-0.0","""event"",""trial"",""time""
""fullscreenenter"",""0"",""4159""
","
","
","""event"",""trial"",""time""
""fullscreenenter"",""0"",""4159""
","
","604.1000000238419","","","","","","","","49","0,0,0","0","forest","22","probe-178","0.7104465058459527","0.05718240683631512","0.11107565020782445","0","","","","","","","",""
"","html-keyboard-response","149","992699","0.0-82.0-1.0","""event"",""trial"",""time""
""fullscreenenter"",""0"",""4159""
","
","
","""event"",""trial"",""time""
""fullscreenenter"",""0"",""4159""
","
","null","<p></p>","null","","","","","","","","","","","","","","","","","","","","","","",""
"","do_trial","150","997749","0.0-83.0-0.0","""event"",""trial"",""time""
""fullscreenenter"",""0"",""4159""
","
","
","""event"",""trial"",""time""
""fullscreenenter"",""0"",""4159""
","
","467.2999999523163","","","","","","","","49","1,1,0","0","forest","23","probe-01","0.7568708181199998","0.3697216993000667","0.05426522117094873","1","","","","","","","",""
"","html-keyboard-response","151","998754","0.0-83.0-1.0","""event"",""trial"",""time""
""fullscreenenter"",""0"",""4159""
","
","
","""event"",""trial"",""time""
""fullscreenenter"",""0"",""4159""
","
","null","<p></p>","null","","","","","","","","","","","","","","","","","","","","","","",""
"","do_trial","152","1003985","0.0-84.0-0.0","""event"",""trial"",""time""
""fullscreenenter"",""0"",""4159""
","
","
","""event"",""trial"",""time""
""fullscreenenter"",""0"",""4159""
","
","647.2999999523163","","","","","","","","49","1,0,0","0","forest","24","probe-209","0.9475279102521995","0.48663267651731373","0.06479573584382341","1","","","","","","","",""
"","html-keyboard-response","153","1004989","0.0-84.0-1.0","""event"",""trial"",""time""
""fullscreenenter"",""0"",""4159""
","
","
","""event"",""trial"",""time""
""fullscreenenter"",""0"",""4159""
","
","null","<p></p>","null","","","","","","","","","","","","","","","","","","","","","","",""
"","do_trial","154","1010027","0.0-85.0-0.0","""event"",""trial"",""time""
""fullscreenenter"",""0"",""4159""
","
","
","""event"",""trial"",""time""
""fullscreenenter"",""0"",""4159""
","
","449.19999998807907","","","","","","","","49","0,0,1","0","forest","25","probe-05","0.7191769977148268","0.4935433705970956","0.16829483857629918","0","","","","","","","",""
"","html-keyboard-response","155","1011030","0.0-85.0-1.0","""event"",""trial"",""time""
""fullscreenenter"",""0"",""4159""
","
","
","""event"",""trial"",""time""
""fullscreenenter"",""0"",""4159""
","
","null","<p></p>","null","","","","","","","","","","","","","","","","","","","","","","",""
"","do_trial","156","1015948","0.0-86.0-0.0","""event"",""trial"",""time""
""fullscreenenter"",""0"",""4159""
","
","
","""event"",""trial"",""time""
""fullscreenenter"",""0"",""4159""
","
","324","","","","","","","","50","0,0,0","0","forest","26","probe-196","0.6055261852453393","0.40456451459867737","0.11622607630516918","0","","","","","","","",""
"","html-keyboard-response","157","1016952","0.0-86.0-1.0","""event"",""trial"",""time""
""fullscreenenter"",""0"",""4159""
","
","
","""event"",""trial"",""time""
""fullscreenenter"",""0"",""4159""
","
","null","<p></p>","null","","","","","","","","","","","","","","","","","","","","","","",""
"","do_trial","158","1022834","0.0-87.0-0.0","""event"",""trial"",""time""
""fullscreenenter"",""0"",""4159""
","
","
","""event"",""trial"",""time""
""fullscreenenter"",""0"",""4159""
","
","1291.800000011921","","","","","","","","51","1,0,0","0","forest","27","probe-205","0.4238923573143676","0.30784310310410823","0.12106909747533767","0","","","","","","","",""
"","html-keyboard-response","159","1023842","0.0-87.0-1.0","""event"",""trial"",""time""
""fullscreenenter"",""0"",""4159""
","
","
","""event"",""trial"",""time""
""fullscreenenter"",""0"",""4159""
","
","null","<p></p>","null","","","","","","","","","","","","","","","","","","","","","","",""
"","do_trial","160","1028435","0.0-88.0-0.0","""event"",""trial"",""time""
""fullscreenenter"",""0"",""4159""
","
","
","""event"",""trial"",""time""
""fullscreenenter"",""0"",""4159""
","
","0.5","","","","","","","","50","0,0,0","0","forest","28","probe-194","0.6268367857223501","0.27369452165801356","0.061919218969207955","0","","","","","","","",""
"","html-keyboard-response","161","1029442","0.0-88.0-1.0","""event"",""trial"",""time""
""fullscreenenter"",""0"",""4159""
","
","
","""event"",""trial"",""time""
""fullscreenenter"",""0"",""4159""
","
","null","<p></p>","null","","","","","","","","","","","","","","","","","","","","","","",""
"","do_trial","162","1034822","0.0-89.0-0.0","""event"",""trial"",""time""
""fullscreenenter"",""0"",""4159""
","
","
","""event"",""trial"",""time""
""fullscreenenter"",""0"",""4159""
","
","783.6999999880791","","","","","","","","49","1,0,0","0","forest","29","probe-114","0.7053322537458255","0.4023441856578689","0.05490190668308358","1","","","","","","","",""
"","html-keyboard-response","163","1035826","0.0-89.0-1.0","""event"",""trial"",""time""
""fullscreenenter"",""0"",""4159""
","
","
","""event"",""trial"",""time""
""fullscreenenter"",""0"",""4159""
","
","null","<p></p>","null","","","","","","","","","","","","","","","","","","","","","","",""
"","do_bye","164","1037341","0.0-90.0-0.0","""event"",""trial"",""time""
""fullscreenenter"",""0"",""4159""
","
","
","""event"",""trial"",""time""
""fullscreenenter"",""0"",""4159""
","
","null","","","","","","","","null","","","","","","","","","","","","","","","","",""
"","break","165","1157345","0.0-90.0-1.0","""event"",""trial"",""time""
""fullscreenenter"",""0"",""4159""
","
","
","""event"",""trial"",""time""
""fullscreenenter"",""0"",""4159""
","
","null","<div class='center'><p>Time to take a quick break! You have 2 minutes to rest, but you can move on sooner if you'd like.</p><p> Press the <b>space bar</b> to continue.</p></div>","null","","","","","","","","","","","","","","","","","","","","","","",""
"","do_travel","166","1166357","0.0-91.0-0.0","""event"",""trial"",""time""
""fullscreenenter"",""0"",""4159""
","
","
","""event"",""trial"",""time""
""fullscreenenter"",""0"",""4159""
","
","null","","","","","","","","null","","","","","","","","","","","","","","","","",""
"","do_welcome","167","1170378","0.0-91.0-1.0","""event"",""trial"",""time""
""fullscreenenter"",""0"",""4159""
","
","
","""event"",""trial"",""time""
""fullscreenenter"",""0"",""4159""
","
","null","","","","","","","","null","","","","","","","","","","","","","","","","",""
"","do_trial","168","1177678","0.0-92.0-0.0","""event"",""trial"",""time""
""fullscreenenter"",""0"",""4159""
","
","
","""event"",""trial"",""time""
""fullscreenenter"",""0"",""4159""
","
","2708","","","","","","","","49","1,0,0","1","mountain","30","probe-25","1","0.3130817503187938","0.3291777126480182","1","","","","","","","",""
"","html-keyboard-response","169","1178682","0.0-92.0-1.0","""event"",""trial"",""time""
""fullscreenenter"",""0"",""4159""
","
","
","""event"",""trial"",""time""
""fullscreenenter"",""0"",""4159""
","
","null","<p></p>","null","","","","","","","","","","","","","","","","","","","","","","",""
"","do_trial","170","1184348","0.0-93.0-0.0","""event"",""trial"",""time""
""fullscreenenter"",""0"",""4159""
","
","
","""event"",""trial"",""time""
""fullscreenenter"",""0"",""4159""
","
","1067.3999999761581","","","","","","","","50","1,0,1","1","mountain","31","probe-75","1","0.2126502622881177","0.3146657096188658","0","","","","","","","",""
"","html-keyboard-response","171","1185352","0.0-93.0-1.0","""event"",""trial"",""time""
""fullscreenenter"",""0"",""4159""
","
","
","""event"",""trial"",""time""
""fullscreenenter"",""0"",""4159""
","
","null","<p></p>","null","","","","","","","","","","","","","","","","","","","","","","",""
"","do_trial","172","1190503","0.0-94.0-0.0","""event"",""trial"",""time""
""fullscreenenter"",""0"",""4159""
","
","
","""event"",""trial"",""time""
""fullscreenenter"",""0"",""4159""
","
","559.8000000119209","","","","","","","","51","1,1,0","1","mountain","32","probe-163","1","0.28430899924057335","0.20954159127201188","0","","","","","","","",""
"","html-keyboard-response","173","1191507","0.0-94.0-1.0","""event"",""trial"",""time""
""fullscreenenter"",""0"",""4159""
","
","
","""event"",""trial"",""time""
""fullscreenenter"",""0"",""4159""
","
","null","<p></p>","null","","","","","","","","","","","","","","","","","","","","","","",""
"","do_trial","174","1196892","0.0-95.0-0.0","""event"",""trial"",""time""
""fullscreenenter"",""0"",""4159""
","
","
","""event"",""trial"",""time""
""fullscreenenter"",""0"",""4159""
","
","786.4000000357628","","","","","","","","50","0,0,0","1","mountain","33","probe-74","0.6154852944836585","0.3551888334752195","0.2177643907075516","0","","","","","","","",""
"","html-keyboard-response","175","1197896","0.0-95.0-1.0","""event"",""trial"",""time""
""fullscreenenter"",""0"",""4159""
","
","
","""event"",""trial"",""time""
""fullscreenenter"",""0"",""4159""
","
","null","<p></p>","null","","","","","","","","","","","","","","","","","","","","","","",""
"","do_trial","176","1204944","0.0-96.0-0.0","""event"",""trial"",""time""
""fullscreenenter"",""0"",""4159""
","
","
","""event"",""trial"",""time""
""fullscreenenter"",""0"",""4159""
","
","2456.800000011921","","","","","","","","49","1,1,0","1","mountain","34","probe-20","0.5848867684481832","0.2570724550613403","0.10968955979526566","1","","","","","","","",""
"","html-keyboard-response","177","1205947","0.0-96.0-1.0","""event"",""trial"",""time""
""fullscreenenter"",""0"",""4159""
","
","
","""event"",""trial"",""time""
""fullscreenenter"",""0"",""4159""
","
","null","<p></p>","null","","","","","","","","","","","","","","","","","","","","","","",""
"","do_trial","178","1211952","0.0-97.0-0.0","""event"",""trial"",""time""
""fullscreenenter"",""0"",""4159""
","
","
","""event"",""trial"",""time""
""fullscreenenter"",""0"",""4159""
","
","1412.1000000238419","","","","","","","","50","0,0,0","1","mountain","35","probe-182","0.45582067645566604","0.29484443270838273","0.13480029894594592","0","","","","","","","",""
"","html-keyboard-response","179","1212959","0.0-97.0-1.0","""event"",""trial"",""time""
""fullscreenenter"",""0"",""4159""
","
","
","""event"",""trial"",""time""
""fullscreenenter"",""0"",""4159""
","
","null","<p></p>","null","","","","","","","","","","","","","","","","","","","","","","",""
"","do_trial","180","1217993","0.0-98.0-0.0","""event"",""trial"",""time""
""fullscreenenter"",""0"",""4159""
","
","
","""event"",""trial"",""time""
""fullscreenenter"",""0"",""4159""
","
","437.4000000357628","","","","","","","","51","1,0,0","1","mountain","36","probe-105","0.3573806036328802","0.3575646327966709","0.21697342261747346","0","","","","","","","",""
"","html-keyboard-response","181","1218996","0.0-98.0-1.0","""event"",""trial"",""time""
""fullscreenenter"",""0"",""4159""
","
","
","""event"",""trial"",""time""
""fullscreenenter"",""0"",""4159""
","
","null","<p></p>","null","","","","","","","","","","","","","","","","","","","","","","",""
"","do_trial","182","1224531","0.0-99.0-0.0","""event"",""trial"",""time""
""fullscreenenter"",""0"",""4159""
","
","
","""event"",""trial"",""time""
""fullscreenenter"",""0"",""4159""
","
","937.5999999642372","","","","","","","","50","1,0,0","1","mountain","37","probe-230","0.4640135773352251","0.40419935598524775","0.17046782682485861","0","","","","","","","",""
"","html-keyboard-response","183","1225535","0.0-99.0-1.0","""event"",""trial"",""time""
""fullscreenenter"",""0"",""4159""
","
","
","""event"",""trial"",""time""
""fullscreenenter"",""0"",""4159""
","
","null","<p></p>","null","","","","","","","","","","","","","","","","","","","","","","",""
"","do_trial","184","1230124","0.0-100.0-0.0","""event"",""trial"",""time""
""fullscreenenter"",""0"",""4159""
","
","
","""event"",""trial"",""time""
""fullscreenenter"",""0"",""4159""
","
","0.5999999642372131","","","","","","","","49","1,1,0","1","mountain","38","probe-208","0.6170427069267559","0.3644555166449193","0.0725378755365674","1","","","","","","","",""
"","html-keyboard-response","185","1231128","0.0-100.0-1.0","""event"",""trial"",""time""
""fullscreenenter"",""0"",""4159""
","
","
","""event"",""trial"",""time""
""fullscreenenter"",""0"",""4159""
","
","null","<p></p>","null","","","","","","","","","","","","","","","","","","","","","","",""
"","do_trial","186","1238671","0.0-101.0-0.0","""event"",""trial"",""time""
""fullscreenenter"",""0"",""4159""
","
","
","""event"",""trial"",""time""
""fullscreenenter"",""0"",""4159""
","
","2940","","","","","","","","50","0,0,0","1","mountain","39","probe-04","0.5594790083933107","0.36471047004828316","0.10509178411952289","0","","","","","","","",""
"","html-keyboard-response","187","1239676","0.0-101.0-1.0","""event"",""trial"",""time""
""fullscreenenter"",""0"",""4159""
","
","
","""event"",""trial"",""time""
""fullscreenenter"",""0"",""4159""
","
","null","<p></p>","null","","","","","","","","","","","","","","","","","","","","","","",""
"","do_trial","188","1244713","0.0-102.0-0.0","""event"",""trial"",""time""
""fullscreenenter"",""0"",""4159""
","
","
","""event"",""trial"",""time""
""fullscreenenter"",""0"",""4159""
","
","429.30000001192093","","","","","","","","51","1,0,0","1","mountain","40","probe-17","0.3987874604216958","0.2540594520423947","0.18332111692107048","0","","","","","","","",""
"","html-keyboard-response","189","1245717","0.0-102.0-1.0","""event"",""trial"",""time""
""fullscreenenter"",""0"",""4159""
","
","
","""event"",""trial"",""time""
""fullscreenenter"",""0"",""4159""
","
","null","<p></p>","null","","","","","","","","","","","","","","","","","","","","","","",""
"","do_trial","190","1250729","0.0-103.0-0.0","""event"",""trial"",""time""
""fullscreenenter"",""0"",""4159""
","
","
","""event"",""trial"",""time""
""fullscreenenter"",""0"",""4159""
","
","414.7999999523163","","","","","","","","50","0,0,0","1","mountain","41","probe-64","0.3783456090189166","0.18876059909790727","0.25200280418930465","0","","","","","","","",""
"","html-keyboard-response","191","1251733","0.0-103.0-1.0","""event"",""trial"",""time""
""fullscreenenter"",""0"",""4159""
","
","
","""event"",""trial"",""time""
""fullscreenenter"",""0"",""4159""
","
","null","<p></p>","null","","","","","","","","","","","","","","","","","","","","","","",""
"","do_trial","192","1256692","0.0-104.0-0.0","""event"",""trial"",""time""
""fullscreenenter"",""0"",""4159""
","
","
","""event"",""trial"",""time""
""fullscreenenter"",""0"",""4159""
","
","344.19999998807907","","","","","","","","49","0,0,0","1","mountain","42","probe-149","0.19476750067184742","0.47252112871354046","0.3051716309676443","0","","","","","","","",""
"","html-keyboard-response","193","1257696","0.0-104.0-1.0","""event"",""trial"",""time""
""fullscreenenter"",""0"",""4159""
","
","
","""event"",""trial"",""time""
""fullscreenenter"",""0"",""4159""
","
","null","<p></p>","null","","","","","","","","","","","","","","","","","","","","","","",""
"","do_trial","194","1262561","0.0-105.0-0.0","""event"",""trial"",""time""
""fullscreenenter"",""0"",""4159""
","
","
","""event"",""trial"",""time""
""fullscreenenter"",""0"",""4159""
","
","271.19999998807907","","","","","","","","50","0,0,0","1","mountain","43","probe-129","0.10231058930198714","0.6539317942306916","0.27401875705363","0","","","","","","","",""
"","html-keyboard-response","195","1263564","0.0-105.0-1.0","""event"",""trial"",""time""
""fullscreenenter"",""0"",""4159""
","
","
","""event"",""trial"",""time""
""fullscreenenter"",""0"",""4159""
","
","null","<p></p>","null","","","","","","","","","","","","","","","","","","","","","","",""
"","do_trial","196","1268871","0.0-106.0-0.0","""event"",""trial"",""time""
""fullscreenenter"",""0"",""4159""
","
","
","""event"",""trial"",""time""
""fullscreenenter"",""0"",""4159""
","
","710.1999999880791","","","","","","","","51","0,0,0","1","mountain","44","probe-136","0.10621863406386801","0.5276171505511714","0.30995696585498267","0","","","","","","","",""
"","html-keyboard-response","197","1269876","0.0-106.0-1.0","""event"",""trial"",""time""
""fullscreenenter"",""0"",""4159""
","
","
","""event"",""trial"",""time""
""fullscreenenter"",""0"",""4159""
","
","null","<p></p>","null","","","","","","","","","","","","","","","","","","","","","","",""
"","do_trial","198","1274802","0.0-107.0-0.0","""event"",""trial"",""time""
""fullscreenenter"",""0"",""4159""
","
","
","""event"",""trial"",""time""
""fullscreenenter"",""0"",""4159""
","
","334.60000002384186","","","","","","","","50","0,1,1","1","mountain","45","probe-106","0.12926838901162396","0.5192736966429116","0.272977476251406","1","","","","","","","",""
"","html-keyboard-response","199","1275806","0.0-107.0-1.0","""event"",""trial"",""time""
""fullscreenenter"",""0"",""4159""
","
","
","""event"",""trial"",""time""
""fullscreenenter"",""0"",""4159""
","
","null","<p></p>","null","","","","","","","","","","","","","","","","","","","","","","",""
"","do_trial","200","1281434","0.0-108.0-0.0","""event"",""trial"",""time""
""fullscreenenter"",""0"",""4159""
","
","
","""event"",""trial"",""time""
""fullscreenenter"",""0"",""4159""
","
","1039.4000000357628","","","","","","","","50","0,1,0","1","mountain","46","probe-22","0.16803183036460753","0.5336187756837953","0.31669593607106006","1","","","","","","","",""
"","html-keyboard-response","201","1282438","0.0-108.0-1.0","""event"",""trial"",""time""
""fullscreenenter"",""0"",""4159""
","
","
","""event"",""trial"",""time""
""fullscreenenter"",""0"",""4159""
","
","null","<p></p>","null","","","","","","","","","","","","","","","","","","","","","","",""
"","do_trial","202","1287527","0.0-109.0-0.0","""event"",""trial"",""time""
""fullscreenenter"",""0"",""4159""
","
","
","""event"",""trial"",""time""
""fullscreenenter"",""0"",""4159""
","
","495","","","","","","","","49","0,1,0","1","mountain","47","probe-38","0.08336708961823516","0.5872381124080364","0.3568366105809424","0","","","","","","","",""
"","html-keyboard-response","203","1288531","0.0-109.0-1.0","""event"",""trial"",""time""
""fullscreenenter"",""0"",""4159""
","
","
","""event"",""trial"",""time""
""fullscreenenter"",""0"",""4159""
","
","null","<p></p>","null","","","","","","","","","","","","","","","","","","","","","","",""
"","do_trial","204","1293692","0.0-110.0-0.0","""event"",""trial"",""time""
""fullscreenenter"",""0"",""4159""
","
","
","""event"",""trial"",""time""
""fullscreenenter"",""0"",""4159""
","
","568.6999999880791","","","","","","","","51","1,1,0","1","mountain","48","probe-191","0.19159360695338698","0.5354309508196481","0.4176257286149156","0","","","","","","","",""
"","html-keyboard-response","205","1294696","0.0-110.0-1.0","""event"",""trial"",""time""
""fullscreenenter"",""0"",""4159""
","
","
","""event"",""trial"",""time""
""fullscreenenter"",""0"",""4159""
","
","null","<p></p>","null","","","","","","","","","","","","","","","","","","","","","","",""
"","do_trial","206","1299321","0.0-111.0-0.0","""event"",""trial"",""time""
""fullscreenenter"",""0"",""4159""
","
","
","""event"",""trial"",""time""
""fullscreenenter"",""0"",""4159""
","
","32.10000002384186","","","","","","","","50","0,0,0","1","mountain","49","probe-187","0.05119471790357668","0.5638392139367835","0.45363354889322494","0","","","","","","","",""
"","html-keyboard-response","207","1300325","0.0-111.0-1.0","""event"",""trial"",""time""
""fullscreenenter"",""0"",""4159""
","
","
","""event"",""trial"",""time""
""fullscreenenter"",""0"",""4159""
","
","null","<p></p>","null","","","","","","","","","","","","","","","","","","","","","","",""
"","do_trial","208","1305849","0.0-112.0-0.0","""event"",""trial"",""time""
""fullscreenenter"",""0"",""4159""
","
","
","""event"",""trial"",""time""
""fullscreenenter"",""0"",""4159""
","
","915.6999999880791","","","","","","","","49","0,1,0","1","mountain","50","probe-201","0.11651767006120073","0.4436175588018907","0.28599628580170333","0","","","","","","","",""
"","html-keyboard-response","209","1306853","0.0-112.0-1.0","""event"",""trial"",""time""
""fullscreenenter"",""0"",""4159""
","
","
","""event"",""trial"",""time""
""fullscreenenter"",""0"",""4159""
","
","null","<p></p>","null","","","","","","","","","","","","","","","","","","","","","","",""
"","do_trial","210","1312069","0.0-113.0-0.0","""event"",""trial"",""time""
""fullscreenenter"",""0"",""4159""
","
","
","""event"",""trial"",""time""
""fullscreenenter"",""0"",""4159""
","
","609.1999999880791","","","","","","","","50","0,1,1","1","mountain","51","probe-63","0.13963319014732922","0.46955387131316273","0.4416879691213844","1","","","","","","","",""
"","html-keyboard-response","211","1313073","0.0-113.0-1.0","""event"",""trial"",""time""
""fullscreenenter"",""0"",""4159""
","
","
","""event"",""trial"",""time""
""fullscreenenter"",""0"",""4159""
","
","null","<p></p>","null","","","","","","","","","","","","","","","","","","","","","","",""
"","do_trial","212","1318437","0.0-114.0-0.0","""event"",""trial"",""time""
""fullscreenenter"",""0"",""4159""
","
","
","""event"",""trial"",""time""
""fullscreenenter"",""0"",""4159""
","
","770.8000000119209","","","","","","","","51","0,0,0","1","mountain","52","probe-148","0.060175428119995066","0.4679648209191935","0.26754380380975185","0","","","","","","","",""
"","html-keyboard-response","213","1319442","0.0-114.0-1.0","""event"",""trial"",""time""
""fullscreenenter"",""0"",""4159""
","
","
","""event"",""trial"",""time""
""fullscreenenter"",""0"",""4159""
","
","null","<p></p>","null","","","","","","","","","","","","","","","","","","","","","","",""
"","do_trial","214","1324521","0.0-115.0-0.0","""event"",""trial"",""time""
""fullscreenenter"",""0"",""4159""
","
","
","""event"",""trial"",""time""
""fullscreenenter"",""0"",""4159""
","
","481.89999997615814","","","","","","","","50","0,0,0","1","mountain","53","probe-215","0.15084823207911688","0.5005461095733724","0.3933969639960222","0","","","","","","","",""
"","html-keyboard-response","215","1325525","0.0-115.0-1.0","""event"",""trial"",""time""
""fullscreenenter"",""0"",""4159""
","
","
","""event"",""trial"",""time""
""fullscreenenter"",""0"",""4159""
","
","null","<p></p>","null","","","","","","","","","","","","","","","","","","","","","","",""
"","do_trial","216","1330790","0.0-116.0-0.0","""event"",""trial"",""time""
""fullscreenenter"",""0"",""4159""
","
","
","""event"",""trial"",""time""
""fullscreenenter"",""0"",""4159""
","
","659.6999999880791","","","","","","","","49","0,0,0","1","mountain","54","probe-77","0.2212947454981447","0.5792047499392682","0.39247690473089103","0","","","","","","","",""
"","html-keyboard-response","217","1331794","0.0-116.0-1.0","""event"",""trial"",""time""
""fullscreenenter"",""0"",""4159""
","
","
","""event"",""trial"",""time""
""fullscreenenter"",""0"",""4159""
","
","null","<p></p>","null","","","","","","","","","","","","","","","","","","","","","","",""
"","do_trial","218","1336823","0.0-117.0-0.0","""event"",""trial"",""time""
""fullscreenenter"",""0"",""4159""
","
","
","""event"",""trial"",""time""
""fullscreenenter"",""0"",""4159""
","
","436.89999997615814","","","","","","","","50","0,1,0","1","mountain","55","probe-89","0.11488385294017484","0.6560694555827195","0.31916746564752535","1","","","","","","","",""
"","html-keyboard-response","219","1337827","0.0-117.0-1.0","""event"",""trial"",""time""
""fullscreenenter"",""0"",""4159""
","
","
","""event"",""trial"",""time""
""fullscreenenter"",""0"",""4159""
","
","null","<p></p>","null","","","","","","","","","","","","","","","","","","","","","","",""
"","do_trial","220","1343314","0.0-118.0-0.0","""event"",""trial"",""time""
""fullscreenenter"",""0"",""4159""
","
","
","""event"",""trial"",""time""
""fullscreenenter"",""0"",""4159""
","
","887","","","","","","","","50","0,0,0","1","mountain","56","probe-147","0.05519560237304649","0.6465307173819105","0.17179798741376748","0","","","","","","","",""
"","html-keyboard-response","221","1344318","0.0-118.0-1.0","""event"",""trial"",""time""
""fullscreenenter"",""0"",""4159""
","
","
","""event"",""trial"",""time""
""fullscreenenter"",""0"",""4159""
","
","null","<p></p>","null","","","","","","","","","","","","","","","","","","","","","","",""
"","do_trial","222","1349973","0.0-119.0-0.0","""event"",""trial"",""time""
""fullscreenenter"",""0"",""4159""
","
","
","""event"",""trial"",""time""
""fullscreenenter"",""0"",""4159""
","
","1058.5","","","","","","","","50","0,1,1","1","mountain","57","probe-73","0.27980034138481535","0.8260341771147072","0.13892754896753742","1","","","","","","","",""
"","html-keyboard-response","223","1350977","0.0-119.0-1.0","""event"",""trial"",""time""
""fullscreenenter"",""0"",""4159""
","
","
","""event"",""trial"",""time""
""fullscreenenter"",""0"",""4159""
","
","null","<p></p>","null","","","","","","","","","","","","","","","","","","","","","","",""
"","do_trial","224","1356323","0.0-120.0-0.0","""event"",""trial"",""time""
""fullscreenenter"",""0"",""4159""
","
","
","""event"",""trial"",""time""
""fullscreenenter"",""0"",""4159""
","
","759","","","","","","","","50","0,1,0","1","mountain","58","probe-88","0.1699641314781318","0.7122230827374842","0.21594044559065795","1","","","","","","","",""
"","html-keyboard-response","225","1357328","0.0-120.0-1.0","""event"",""trial"",""time""
""fullscreenenter"",""0"",""4159""
","
","
","""event"",""trial"",""time""
""fullscreenenter"",""0"",""4159""
","
","null","<p></p>","null","","","","","","","","","","","","","","","","","","","","","","",""
"","do_trial","226","1362716","0.0-121.0-0.0","""event"",""trial"",""time""
""fullscreenenter"",""0"",""4159""
","
","
","""event"",""trial"",""time""
""fullscreenenter"",""0"",""4159""
","
","804","","","","","","","","49","1,0,1","1","mountain","59","probe-11","0.15970710720119716","0.8967283458157493","0.2093215502841161","1","","","","","","","",""
"","html-keyboard-response","227","1363720","0.0-121.0-1.0","""event"",""trial"",""time""
""fullscreenenter"",""0"",""4159""
","
","
","""event"",""trial"",""time""
""fullscreenenter"",""0"",""4159""
","
","null","<p></p>","null","","","","","","","","","","","","","","","","","","","","","","",""
"","do_trial","228","1369040","0.0-122.0-0.0","""event"",""trial"",""time""
""fullscreenenter"",""0"",""4159""
","
","
","""event"",""trial"",""time""
""fullscreenenter"",""0"",""4159""
","
","722.7000000476837","","","","","","","","50","0,1,0","1","mountain","60","probe-82","0.15105892746422211","0.7366242555869689","0.2880257293282097","1","","","","","","","",""
"","html-keyboard-response","229","1370047","0.0-122.0-1.0","""event"",""trial"",""time""
""fullscreenenter"",""0"",""4159""
","
","
","""event"",""trial"",""time""
""fullscreenenter"",""0"",""4159""
","
","null","<p></p>","null","","","","","","","","","","","","","","","","","","","","","","",""
"","do_trial","230","1375502","0.0-123.0-0.0","""event"",""trial"",""time""
""fullscreenenter"",""0"",""4159""
","
","
","""event"",""trial"",""time""
""fullscreenenter"",""0"",""4159""
","
","855.1000000238419","","","","","","","","51","0,1,0","1","mountain","61","probe-27","0.2995713029787055","0.6727224585121713","0.3838613525360887","0","","","","","","","",""
"","html-keyboard-response","231","1376507","0.0-123.0-1.0","""event"",""trial"",""time""
""fullscreenenter"",""0"",""4159""
","
","
","""event"",""trial"",""time""
""fullscreenenter"",""0"",""4159""
","
","null","<p></p>","null","","","","","","","","","","","","","","","","","","","","","","",""
"","do_trial","232","1382322","0.0-124.0-0.0","""event"",""trial"",""time""
""fullscreenenter"",""0"",""4159""
","
","
","""event"",""trial"",""time""
""fullscreenenter"",""0"",""4159""
","
","1211.4000000357628","","","","","","","","50","0,0,1","1","mountain","62","probe-113","0.19007458471991748","0.6566467851437493","0.2662815278943853","0","","","","","","","",""
"","html-keyboard-response","233","1383326","0.0-124.0-1.0","""event"",""trial"",""time""
""fullscreenenter"",""0"",""4159""
","
","
","""event"",""trial"",""time""
""fullscreenenter"",""0"",""4159""
","
","null","<p></p>","null","","","","","","","","","","","","","","","","","","","","","","",""
"","do_trial","234","1388460","0.0-125.0-0.0","""event"",""trial"",""time""
""fullscreenenter"",""0"",""4159""
","
","
","""event"",""trial"",""time""
""fullscreenenter"",""0"",""4159""
","
","544.5","","","","","","","","49","0,1,0","1","mountain","63","probe-138","0.2878576598654058","0.7582803276018263","0.36257006352418786","0","","","","","","","",""
"","html-keyboard-response","235","1389464","0.0-125.0-1.0","""event"",""trial"",""time""
""fullscreenenter"",""0"",""4159""
","
","
","""event"",""trial"",""time""
""fullscreenenter"",""0"",""4159""
","
","null","<p></p>","null","","","","","","","","","","","","","","","","","","","","","","",""
"","do_trial","236","1394547","0.0-126.0-0.0","""event"",""trial"",""time""
""fullscreenenter"",""0"",""4159""
","
","
","""event"",""trial"",""time""
""fullscreenenter"",""0"",""4159""
","
","485.5","","","","","","","","49","1,1,0","1","mountain","64","probe-216","0.214306712907716","0.7469789682513904","0.16647687638936318","1","","","","","","","",""
"","html-keyboard-response","237","1395552","0.0-126.0-1.0","""event"",""trial"",""time""
""fullscreenenter"",""0"",""4159""
","
","
","""event"",""trial"",""time""
""fullscreenenter"",""0"",""4159""
","
","null","<p></p>","null","","","","","","","","","","","","","","","","","","","","","","",""
"","do_trial","238","1401049","0.0-127.0-0.0","""event"",""trial"",""time""
""fullscreenenter"",""0"",""4159""
","
","
","""event"",""trial"",""time""
""fullscreenenter"",""0"",""4159""
","
","906.4000000357628","","","","","","","","50","0,1,0","1","mountain","65","probe-181","0.10806656778521669","0.9388063152329059","0.15376369095298556","1","","","","","","","",""
"","html-keyboard-response","239","1402053","0.0-127.0-1.0","""event"",""trial"",""time""
""fullscreenenter"",""0"",""4159""
","
","
","""event"",""trial"",""time""
""fullscreenenter"",""0"",""4159""
","
","null","<p></p>","null","","","","","","","","","","","","","","","","","","","","","","",""
"","do_trial","240","1407638","0.0-128.0-0.0","""event"",""trial"",""time""
""fullscreenenter"",""0"",""4159""
","
","
","""event"",""trial"",""time""
""fullscreenenter"",""0"",""4159""
","
","997.5","","","","","","","","51","0,1,1","1","mountain","66","probe-112","0.1854654187817359","0.8382204579702467","0.38285966378637953","1","","","","","","","",""
"","html-keyboard-response","241","1408642","0.0-128.0-1.0","""event"",""trial"",""time""
""fullscreenenter"",""0"",""4159""
","
","
","""event"",""trial"",""time""
""fullscreenenter"",""0"",""4159""
","
","null","<p></p>","null","","","","","","","","","","","","","","","","","","","","","","",""
"","do_trial","242","1414142","0.0-129.0-0.0","""event"",""trial"",""time""
""fullscreenenter"",""0"",""4159""
","
","
","""event"",""trial"",""time""
""fullscreenenter"",""0"",""4159""
","
","898.8000000119209","","","","","","","","50","0,1,0","1","mountain","67","probe-162","0.09652800827753287","0.6825563550856658","0.20656108787004834","1","","","","","","","",""
"","html-keyboard-response","243","1415146","0.0-129.0-1.0","""event"",""trial"",""time""
""fullscreenenter"",""0"",""4159""
","
","
","""event"",""trial"",""time""
""fullscreenenter"",""0"",""4159""
","
","null","<p></p>","null","","","","","","","","","","","","","","","","","","","","","","",""
"","do_trial","244","1420712","0.0-130.0-0.0","""event"",""trial"",""time""
""fullscreenenter"",""0"",""4159""
","
","
","""event"",""trial"",""time""
""fullscreenenter"",""0"",""4159""
","
","968.5","","","","","","","","49","0,0,0","1","mountain","68","probe-31","0.12887229982387802","0.5838332650336774","0.2576407891027327","0","","","","","","","",""
"","html-keyboard-response","245","1421716","0.0-130.0-1.0","""event"",""trial"",""time""
""fullscreenenter"",""0"",""4159""
","
","
","""event"",""trial"",""time""
""fullscreenenter"",""0"",""4159""
","
","null","<p></p>","null","","","","","","","","","","","","","","","","","","","","","","",""
"","do_trial","246","1427013","0.0-131.0-0.0","""event"",""trial"",""time""
""fullscreenenter"",""0"",""4159""
","
","
","""event"",""trial"",""time""
""fullscreenenter"",""0"",""4159""
","
","708.4000000357628","","","","","","","","50","0,0,1","1","mountain","69","probe-111","0.2645750463768375","0.6139367284961837","0.23570785402050512","0","","","","","","","",""
"","html-keyboard-response","247","1428018","0.0-131.0-1.0","""event"",""trial"",""time""
""fullscreenenter"",""0"",""4159""
","
","
","""event"",""trial"",""time""
""fullscreenenter"",""0"",""4159""
","
","null","<p></p>","null","","","","","","","","","","","","","","","","","","","","","","",""
"","do_bye","248","1429533","0.0-132.0-0.0","""event"",""trial"",""time""
""fullscreenenter"",""0"",""4159""
","
","
","""event"",""trial"",""time""
""fullscreenenter"",""0"",""4159""
","
","null","","","","","","","","null","","","","","","","","","","","","","","","","",""
"","break","249","1442466","0.0-132.0-1.0","""event"",""trial"",""time""
""fullscreenenter"",""0"",""4159""
","
","
","""event"",""trial"",""time""
""fullscreenenter"",""0"",""4159""
","
","12930.5","<div class='center'><p>Time to take a quick break! You have 2 minutes to rest, but you can move on sooner if you'd like.</p><p> Press the <b>space bar</b> to continue.</p></div>","32","","","","","","","","","","","","","","","","","","","","","","",""
"","do_travel","250","1451472","0.0-133.0-0.0","""event"",""trial"",""time""
""fullscreenenter"",""0"",""4159""
","
","
","""event"",""trial"",""time""
""fullscreenenter"",""0"",""4159""
","
","null","","","","","","","","null","","","","","","","","","","","","","","","","",""
"","do_welcome","251","1455496","0.0-133.0-1.0","""event"",""trial"",""time""
""fullscreenenter"",""0"",""4159""
","
","
","""event"",""trial"",""time""
""fullscreenenter"",""0"",""4159""
","
","null","","","","","","","","null","","","","","","","","","","","","","","","","",""
"","do_trial","252","1462122","0.0-134.0-0.0","""event"",""trial"",""time""
""fullscreenenter"",""0"",""4159""
","
","
","""event"",""trial"",""time""
""fullscreenenter"",""0"",""4159""
","
","2036.2999999523163","","","","","","","","50","0,1,1","2","coast","70","probe-158","0.27516311899055074","1","0.5338934989357412","1","","","","","","","",""
"","html-keyboard-response","253","1463128","0.0-134.0-1.0","""event"",""trial"",""time""
""fullscreenenter"",""0"",""4159""
","
","
","""event"",""trial"",""time""
""fullscreenenter"",""0"",""4159""
","
","null","<p></p>","null","","","","","","","","","","","","","","","","","","","","","","",""
"","do_trial","254","1468965","0.0-135.0-0.0","""event"",""trial"",""time""
""fullscreenenter"",""0"",""4159""
","
","
","""event"",""trial"",""time""
""fullscreenenter"",""0"",""4159""
","
","1241","","","","","","","","49","0,1,0","2","coast","71","probe-29","0.3042301157737748","1","0.40042662648261257","0","","","","","","","",""
"","html-keyboard-response","255","1469970","0.0-135.0-1.0","""event"",""trial"",""time""
""fullscreenenter"",""0"",""4159""
","
","
","""event"",""trial"",""time""
""fullscreenenter"",""0"",""4159""
","
","null","<p></p>","null","","","","","","","","","","","","","","","","","","","","","","",""
"","do_trial","256","1475684","0.0-136.0-0.0","""event"",""trial"",""time""
""fullscreenenter"",""0"",""4159""
","
","
","""event"",""trial"",""time""
""fullscreenenter"",""0"",""4159""
","
","1105.199999988079","","","","","","","","51","0,0,1","2","coast","72","probe-100","0.2616091153475441","0.8373250911384937","0.22030608884814298","1","","","","","","","",""
"","html-keyboard-response","257","1476688","0.0-136.0-1.0","""event"",""trial"",""time""
""fullscreenenter"",""0"",""4159""
","
","
","""event"",""trial"",""time""
""fullscreenenter"",""0"",""4159""
","
","null","<p></p>","null","","","","","","","","","","","","","","","","","","","","","","",""
"","do_trial","258","1481949","0.0-137.0-0.0","""event"",""trial"",""time""
""fullscreenenter"",""0"",""4159""
","
","
","""event"",""trial"",""time""
""fullscreenenter"",""0"",""4159""
","
","676","","","","","","","","50","0,1,1","2","coast","73","probe-62","0.21125206759842538","0.652198681760077","0.3230531174748918","1","","","","","","","",""
