"success","trial_type","trial_index","time_elapsed","internal_node_id","interactions","blur_events","focus_events","fullscreenenter_events","fullscreenexit_events","rt","stimulus","key_press","subject_id","participant_id","age","gender","prompt","response","choice_outcomes","context_n","context_img_id","trial_n","probe_img_id","pR_red","pR_white","pR_black","outcome","contextArray_ind","validImageProbes","invalidImageProbes","pRew_Red","pRew_White","pRew_Black","availableForMemProbe","choice_blocks"
"true","fullscreen","0","3694","0.0-0.0","""event"",""trial"",""time""
""fullscreenenter"",""0"",""2725""
","
","
","""event"",""trial"",""time""
""fullscreenenter"",""0"",""2725""
","
","","","","","","","","","","","","","","","","","","","","","","","","","",""
"","pavlovia","1","3698","0.0-1.0","""event"",""trial"",""time""
""fullscreenenter"",""0"",""2725""
","
","
","""event"",""trial"",""time""
""fullscreenenter"",""0"",""2725""
","
","","","","","","","","","","","","","","","","","","","","","","","","","",""
"","instruc1","2","49043","0.0-2.0","""event"",""trial"",""time""
""fullscreenenter"",""0"",""2725""
","
","
","""event"",""trial"",""time""
""fullscreenenter"",""0"",""2725""
","
","null","run_exp/static/audio/clip_1_welcome.m4a","null","227","401","9","Female","<div class='center'><p>Welcome! This is the first part of the study. It will last ~30 minutes. In part 1 and part 2 of the study, you are the head captain of a pirate ship traveling around the world to different islands. You will play a few different games throughout these two parts. Here is an overview of them:</p><br><p>Part 1 (today)</p><p>1. Instructions, practice game, and quiz</p><p>2. Pick a pirate game on 6 different islands</p><br><p>Part 2 (tomorrow)</p><p>3. Pick a pirate game and memory game</p><p>4. Where did you see this ship? </p></div>","","","","","","","","","","","","","","","","","",""
"","html-keyboard-response","3","50047","0.0-3.0","""event"",""trial"",""time""
""fullscreenenter"",""0"",""2725""
","
","
","""event"",""trial"",""time""
""fullscreenenter"",""0"",""2725""
","
","1002.5","<div class='center'><p>Welcome! This is the first part of the study. It will last ~30 minutes. In part 1 and part 2 of the study, you are the head captain of a pirate ship traveling around the world to different islands. You will play a few different games throughout these two parts. Here is an overview of them:</p><br><p>Part 1 (today)</p><p>1. Instructions, practice game, and quiz</p><p>2. Pick a pirate game on 6 different islands</p><br><p>Part 2 (tomorrow)</p><p>3. Pick a pirate game and memory game</p><p>4. Where did you see this ship? </p><p><b>[Press the space bar to continue]</b></p></div>","32","","","","","","","","","","","","","","","","","","","","","","",""
"","instruc2","4","55381","0.0-4.0","""event"",""trial"",""time""
""fullscreenenter"",""0"",""2725""
","
","
","""event"",""trial"",""time""
""fullscreenenter"",""0"",""2725""
","
","null","run_exp/static/audio/clip_2_different_places.m4a","null","","","","","<div class='center'><p>Today, you’ll visit these 6 islands on your journey. You'll be able to see these islands from your ship.</p><p><img src='run_exp/static/images/contexts/all_contexts.png' height='500'></p></div>","","","","","","","","","","","","","","","","","",""
"","html-keyboard-response","5","56792","0.0-5.0","""event"",""trial"",""time""
""fullscreenenter"",""0"",""2725""
","
","
","""event"",""trial"",""time""
""fullscreenenter"",""0"",""2725""
","
","1409.699999999255","<div class='center'><p>Today, you’ll visit these 6 islands on your journey. You'll be able to see these islands from your ship.</p><p><img src='run_exp/static/images/contexts/all_contexts.png' height='500'></p><p><b>[Press the space bar to continue]</b></p></div>","32","","","","","","","","","","","","","","","","","","","","","","",""
"","instruc3","6","66504","0.0-6.0","""event"",""trial"",""time""
""fullscreenenter"",""0"",""2725""
","
","
","""event"",""trial"",""time""
""fullscreenenter"",""0"",""2725""
","
","null","run_exp/static/audio/clip_3_goal_of_game_1.m4a","null","","","","","<div class='center'><p> The pirates on your ship will rob other ships as they leave the island.</p> These ships have just sold their goods to the islanders, so they will be filled with lots and lots of gold.</p><p><img src='run_exp/static/images/tutorial/ship_center.png' height='400'></p></div>","","","","","","","","","","","","","","","","","",""
"","html-keyboard-response","7","67673","0.0-7.0","""event"",""trial"",""time""
""fullscreenenter"",""0"",""2725""
","
","
","""event"",""trial"",""time""
""fullscreenenter"",""0"",""2725""
","
","1168.4000000022352","<div class='center'><p> The pirates on your ship will rob other ships as they leave the island.</p> These ships have just sold their goods to the islanders, so they will be filled with lots and lots of gold.</p><p><img src='run_exp/static/images/tutorial/ship_center.png' height='400'></p><p><b>[Press the space bar to continue]</b></p></div>","32","","","","","","","","","","","","","","","","","","","","","","",""
"","instruc4","8","95668","0.0-8.0","""event"",""trial"",""time""
""fullscreenenter"",""0"",""2725""
","
","
","""event"",""trial"",""time""
""fullscreenenter"",""0"",""2725""
","
","null","run_exp/static/audio/clip_4_goal_of_game_2.m4a","null","","","","","<div class='center'><p>As the head captain, you do not have to rob any ships yourself. Another pirate will be doing the robbing for you. First, you will choose a pirate to rob the next ship.</p><p><img src='run_exp/static/images/tutorial/pirates_all_crop.png' height='200'></p><p>Then, you'll see if the pirate successfully robbed the ship of their gold. If they were successful, then you'll get a stack of gold coins like this:</p><p><img src='run_exp/static/images/tutorial/reward.png' height='150'></p><p> If they were <b>not</b> successful, then you'll get no gold coins, and you'll see a big red x like this: </p><p><img src='run_exp/static/images/tutorial/reward_no.png' height='150'></p><p> How much bonus money you make is based on how many gold coins you collect.</p><div>","","","","","","","","","","","","","","","","","",""
"","html-keyboard-response","9","96860","0.0-9.0","""event"",""trial"",""time""
""fullscreenenter"",""0"",""2725""
","
","
","""event"",""trial"",""time""
""fullscreenenter"",""0"",""2725""
","
","1190.9000000022352","<div class='center'><p>As the head captain, you do not have to rob any ships yourself. Another pirate will be doing the robbing for you. First, you will choose a pirate to rob the next ship.</p><p><img src='run_exp/static/images/tutorial/pirates_all_crop.png' height='200'></p><p>Then, you'll see if the pirate successfully robbed the ship of their gold. If they were successful, then you'll get a stack of gold coins like this:</p><p><img src='run_exp/static/images/tutorial/reward.png' height='150'></p><p> If they were <b>not</b> successful, then you'll get no gold coins, and you'll see a big red x like this: </p><p><img src='run_exp/static/images/tutorial/reward_no.png' height='150'></p><p> How much bonus money you make is based on how many gold coins you collect.</p<p><b>[Press the space bar to continue]</b></p></div>","32","","","","","","","","","","","","","","","","","","","","","","",""
"","instruc5","10","118841","0.0-10.0","""event"",""trial"",""time""
""fullscreenenter"",""0"",""2725""
","
","
","""event"",""trial"",""time""
""fullscreenenter"",""0"",""2725""
","
","21979.199999999255","run_exp/static/audio/clip_5_probabilistic.m4a","49","","","","","<div class='center'><p>Even the most skilled pirate can not rob EVERY ship.</p><p> Some ships will have very strong protections against pirate attacks.</p><p> Blue beard, here, is very, very good at robbing ships, but he won't be successful every time he tries to rob one.</p><p> You can press the <b>‘1’</b> key on the keyboard to choose him.</p><p> Try choosing him 10 times to see how often he succeeds at robbing a ship. </p><p><img src='run_exp/static/images/tutorial/blue.png' height='500'></p></div>","","","","","","","","","","","","","","","","","",""
"","html-keyboard-response","11","120346","0.0-11.0","""event"",""trial"",""time""
""fullscreenenter"",""0"",""2725""
","
","
","""event"",""trial"",""time""
""fullscreenenter"",""0"",""2725""
","
","null","<div class='center'><p><img src='run_exp/static/images/tutorial/blue_win.png' height='500'></p></div>","null","","","","","","","","","","","","","","","","","","","","","","",""
"","html-keyboard-response","12","121554","0.0-12.0","""event"",""trial"",""time""
""fullscreenenter"",""0"",""2725""
","
","
","""event"",""trial"",""time""
""fullscreenenter"",""0"",""2725""
","
","1206.800000000745","<div class='center'><img src='run_exp/static/images/tutorial/blue.png' height='500'></p></div>","49","","","","","","","","","","","","","","","","","","","","","","",""
"","html-keyboard-response","13","123056","0.0-13.0","""event"",""trial"",""time""
""fullscreenenter"",""0"",""2725""
","
","
","""event"",""trial"",""time""
""fullscreenenter"",""0"",""2725""
","
","null","<div class='center'><p><img src='run_exp/static/images/tutorial/blue_win.png' height='500'></p></div>","null","","","","","","","","","","","","","","","","","","","","","","",""
"","html-keyboard-response","14","123444","0.0-14.0","""event"",""trial"",""time""
""fullscreenenter"",""0"",""2725""
","
","
","""event"",""trial"",""time""
""fullscreenenter"",""0"",""2725""
","
","387","<div class='center'><img src='run_exp/static/images/tutorial/blue.png' height='500'></p></div>","49","","","","","","","","","","","","","","","","","","","","","","",""
"","html-keyboard-response","15","124948","0.0-15.0","""event"",""trial"",""time""
""fullscreenenter"",""0"",""2725""
","
","
","""event"",""trial"",""time""
""fullscreenenter"",""0"",""2725""
","
","null","<div class='center'><p><img src='run_exp/static/images/tutorial/blue_win.png' height='500'></p></div>","null","","","","","","","","","","","","","","","","","","","","","","",""
"","html-keyboard-response","16","125284","0.0-16.0","""event"",""trial"",""time""
""fullscreenenter"",""0"",""2725""
","
","
","""event"",""trial"",""time""
""fullscreenenter"",""0"",""2725""
","
","334.8999999985099","<div class='center'><img src='run_exp/static/images/tutorial/blue.png' height='500'></p></div>","49","","","","","","","","","","","","","","","","","","","","","","",""
"","html-keyboard-response","17","126788","0.0-17.0","""event"",""trial"",""time""
""fullscreenenter"",""0"",""2725""
","
","
","""event"",""trial"",""time""
""fullscreenenter"",""0"",""2725""
","
","null","<div class='center'><p><img src='run_exp/static/images/tutorial/blue_no_win.png' height='500'></p></div>","null","","","","","","","","","","","","","","","","","","","","","","",""
"","html-keyboard-response","18","127160","0.0-18.0","""event"",""trial"",""time""
""fullscreenenter"",""0"",""2725""
","
","
","""event"",""trial"",""time""
""fullscreenenter"",""0"",""2725""
","
","371","<div class='center'><img src='run_exp/static/images/tutorial/blue.png' height='500'></p></div>","49","","","","","","","","","","","","","","","","","","","","","","",""
"","html-keyboard-response","19","128661","0.0-19.0","""event"",""trial"",""time""
""fullscreenenter"",""0"",""2725""
","
","
","""event"",""trial"",""time""
""fullscreenenter"",""0"",""2725""
","
","null","<div class='center'><p><img src='run_exp/static/images/tutorial/blue_win.png' height='500'></p></div>","null","","","","","","","","","","","","","","","","","","","","","","",""
"","html-keyboard-response","20","128969","0.0-20.0","""event"",""trial"",""time""
""fullscreenenter"",""0"",""2725""
","
","
","""event"",""trial"",""time""
""fullscreenenter"",""0"",""2725""
","
","308","<div class='center'><img src='run_exp/static/images/tutorial/blue.png' height='500'></p></div>","49","","","","","","","","","","","","","","","","","","","","","","",""
"","html-keyboard-response","21","130472","0.0-21.0","""event"",""trial"",""time""
""fullscreenenter"",""0"",""2725""
","
","
","""event"",""trial"",""time""
""fullscreenenter"",""0"",""2725""
","
","null","<div class='center'><p><img src='run_exp/static/images/tutorial/blue_win.png' height='500'></p></div>","null","","","","","","","","","","","","","","","","","","","","","","",""
"","html-keyboard-response","22","130804","0.0-22.0","""event"",""trial"",""time""
""fullscreenenter"",""0"",""2725""
","
","
","""event"",""trial"",""time""
""fullscreenenter"",""0"",""2725""
","
","330.80000000074506","<div class='center'><img src='run_exp/static/images/tutorial/blue.png' height='500'></p></div>","49","","","","","","","","","","","","","","","","","","","","","","",""
"","html-keyboard-response","23","132306","0.0-23.0","""event"",""trial"",""time""
""fullscreenenter"",""0"",""2725""
","
","
","""event"",""trial"",""time""
""fullscreenenter"",""0"",""2725""
","
","null","<div class='center'><p><img src='run_exp/static/images/tutorial/blue_win.png' height='500'></p></div>","null","","","","","","","","","","","","","","","","","","","","","","",""
"","html-keyboard-response","24","132684","0.0-24.0","""event"",""trial"",""time""
""fullscreenenter"",""0"",""2725""
","
","
","""event"",""trial"",""time""
""fullscreenenter"",""0"",""2725""
","
","376.80000000074506","<div class='center'><img src='run_exp/static/images/tutorial/blue.png' height='500'></p></div>","49","","","","","","","","","","","","","","","","","","","","","","",""
"","html-keyboard-response","25","134189","0.0-25.0","""event"",""trial"",""time""
""fullscreenenter"",""0"",""2725""
","
","
","""event"",""trial"",""time""
""fullscreenenter"",""0"",""2725""
","
","null","<div class='center'><p><img src='run_exp/static/images/tutorial/blue_no_win.png' height='500'></p></div>","null","","","","","","","","","","","","","","","","","","","","","","",""
"","html-keyboard-response","26","134820","0.0-26.0","""event"",""trial"",""time""
""fullscreenenter"",""0"",""2725""
","
","
","""event"",""trial"",""time""
""fullscreenenter"",""0"",""2725""
","
","630.5","<div class='center'><img src='run_exp/static/images/tutorial/blue.png' height='500'></p></div>","49","","","","","","","","","","","","","","","","","","","","","","",""
"","html-keyboard-response","27","136323","0.0-27.0","""event"",""trial"",""time""
""fullscreenenter"",""0"",""2725""
","
","
","""event"",""trial"",""time""
""fullscreenenter"",""0"",""2725""
","
","null","<div class='center'><p><img src='run_exp/static/images/tutorial/blue_win.png' height='500'></p></div>","null","","","","","","","","","","","","","","","","","","","","","","",""
"","html-keyboard-response","28","136796","0.0-28.0","""event"",""trial"",""time""
""fullscreenenter"",""0"",""2725""
","
","
","""event"",""trial"",""time""
""fullscreenenter"",""0"",""2725""
","
","473","<div class='center'><img src='run_exp/static/images/tutorial/blue.png' height='500'></p></div>","49","","","","","","","","","","","","","","","","","","","","","","",""
"","html-keyboard-response","29","138298","0.0-29.0","""event"",""trial"",""time""
""fullscreenenter"",""0"",""2725""
","
","
","""event"",""trial"",""time""
""fullscreenenter"",""0"",""2725""
","
","null","<div class='center'><p><img src='run_exp/static/images/tutorial/blue_win.png' height='500'></p></div>","null","","","","","","","","","","","","","","","","","","","","","","",""
"","instruc6","30","143935","0.0-30.0","""event"",""trial"",""time""
""fullscreenenter"",""0"",""2725""
","
","
","""event"",""trial"",""time""
""fullscreenenter"",""0"",""2725""
","
","null","run_exp/static/audio/clip_6_blue_beard_outcome.m4a","null","","","","","<div class='center'><p> See, he succeeded in robbing the ships most of the time but not every time. </p></div>","","","","","","","","","","","","","","","","","",""
"","html-keyboard-response","31","145163","0.0-31.0","""event"",""trial"",""time""
""fullscreenenter"",""0"",""2725""
","
","
","""event"",""trial"",""time""
""fullscreenenter"",""0"",""2725""
","
","1226.8999999985099","<div class='center'><p> See, he succeeded in robbing the ships most of the time but not every time. </p><p><b>[Press the space bar to continue]</b></p></div>","32","","","","","","","","","","","","","","","","","","","","","","",""
"","audio-keyboard-response","32","164715","0.0-32.0","""event"",""trial"",""time""
""fullscreenenter"",""0"",""2725""
","
","
","""event"",""trial"",""time""
""fullscreenenter"",""0"",""2725""
","
","19550.5","run_exp/static/audio/clip_7_pick_pirate.m4a","49","","","","","","","","","","","","","","","","","","","","","","",""
"","audio-keyboard-response","33","168546","0.0-33.0-0.0","""event"",""trial"",""time""
""fullscreenenter"",""0"",""2725""
","
","
","""event"",""trial"",""time""
""fullscreenenter"",""0"",""2725""
","
","3829.300000000745","run_exp/static/audio/clip_8_chosen_pirate_win.m4a","32","","","","","","","","","","","","","","","","","","","","","","",""
"","audio-keyboard-response","34","170890","0.0-33.0-1.0","""event"",""trial"",""time""
""fullscreenenter"",""0"",""2725""
","
","
","""event"",""trial"",""time""
""fullscreenenter"",""0"",""2725""
","
","2344","run_exp/static/audio/clip_9_pick_a_pirate_again.m4a","51","","","","","","","","","","","","","","","","","","","","","","",""
"","audio-keyboard-response","35","177522","0.0-34.0-0.0","""event"",""trial"",""time""
""fullscreenenter"",""0"",""2725""
","
","
","""event"",""trial"",""time""
""fullscreenenter"",""0"",""2725""
","
","6629.900000002235","run_exp/static/audio/clip_10_chosen_pirate_loss.m4a","32","","","","","","","","","","","","","","","","","","","","","","",""
"","instruc9","36","183014","0.0-35.0-0.0","""event"",""trial"",""time""
""fullscreenenter"",""0"",""2725""
","
","
","""event"",""trial"",""time""
""fullscreenenter"",""0"",""2725""
","
","null","run_exp/static/audio/clip_11_time_out.m4a","null","","","","","<div class='center'><p>If you don’t make your choice fast enough, you’ll have to wait a few seconds before you can make another one. </p><p><img src='run_exp/static/images/miscellaneous/hurry_up.png' height='500'></p></div>","","","","","","","","","","","","","","","","","",""
"","html-keyboard-response","37","184110","0.0-35.0-1.0","""event"",""trial"",""time""
""fullscreenenter"",""0"",""2725""
","
","
","""event"",""trial"",""time""
""fullscreenenter"",""0"",""2725""
","
","1094.3999999985099","<div class='center'><p>If you don’t make your choice fast enough, you’ll have to wait a few seconds before you can make another one. </p><p><img src='run_exp/static/images/miscellaneous/hurry_up.png' height='500'></p><p><b>[Press the space bar to continue]</b></p></div>","32","","","","","","","","","","","","","","","","","","","","","","",""
"","instruc10","38","223208","0.0-35.0-2.0","""event"",""trial"",""time""
""fullscreenenter"",""0"",""2725""
","
","
","""event"",""trial"",""time""
""fullscreenenter"",""0"",""2725""
","
","null","run_exp/static/audio/clip_12_probe.m4a","null","","","","","<div class='center'><p>Once you've chosen a pirate, you’ll be shown the ship they are robbing. You will never rob the same ship twice. Ships can be told apart from one another by the image on them. These are the goods that they sell. See, this ship has a travel mug on it. </p><p> You’ll have to remember which island you saw each ship on. You will win more gold coins and hence more bonus money if you remember correctly! To help you remember, you can imagine a story. For example, here, you could imagine a mug full of water in the desert. Or, as another example, if on the forest island, your pirate robbed a ship with an apple on it, you could imagine an apple falling from a tree in the forest. </p><p><img src='run_exp/static/images/tutorial/example_probe.png' height='500'></p></div>","","","","","","","","","","","","","","","","","",""
"","html-keyboard-response","39","224308","0.0-35.0-3.0","""event"",""trial"",""time""
""fullscreenenter"",""0"",""2725""
","
","
","""event"",""trial"",""time""
""fullscreenenter"",""0"",""2725""
","
","1098.6000000014901","<div class='center'><p>Once you've chosen a pirate, you’ll be shown the ship they are robbing. You will never rob the same ship twice. Ships can be told apart from one another by the image on them. These are the goods that they sell. See, this ship has a travel mug on it. </p><p> You’ll have to remember which island you saw each ship on. You will win more gold coins and hence more bonus money if you remember correctly! To help you remember, you can imagine a story. For example, here, you could imagine a mug full of water in the desert. Or, as another example, if on the forest island, your pirate robbed a ship with an apple on it, you could imagine an apple falling from a tree in the forest. </p><p><img src='run_exp/static/images/tutorial/example_probe.png' height='500'></p><p><b>[Press the space bar to continue]</b></p></div>","32","","","","","","","","","","","","","","","","","","","","","","",""
"","instruc11","40","240739","0.0-35.0-4.0","""event"",""trial"",""time""
""fullscreenenter"",""0"",""2725""
","
","
","""event"",""trial"",""time""
""fullscreenenter"",""0"",""2725""
","
","null","run_exp/static/audio/clip_13_changepoint.m4a","null","","","","","<div class='center'><p>How successful a pirate is at robbing ships will depend on the island you’re on.</p><p> A pirate may have visited this island many times before and gained a lot of practice robbing ships there.</p><p>So, they’re more likely to be successful than a pirate who has never visited the island before.</p></div>","","","","","","","","","","","","","","","","","",""
"","html-keyboard-response","41","241451","0.0-35.0-5.0","""event"",""trial"",""time""
""fullscreenenter"",""0"",""2725""
","
","
","""event"",""trial"",""time""
""fullscreenenter"",""0"",""2725""
","
","711","<div class='center'><p>How successful a pirate is at robbing ships will depend on the island you’re on.</p><p> A pirate may have visited this island many times before and gained a lot of practice robbing ships there.</p><p>So, they’re more likely to be successful than a pirate who has never visited the island before.</p><p><b>[Press the space bar to continue]</b></p></div>","32","","","","","","","","","","","","","","","","","","","","","","",""
"","instruc12","42","282582","0.0-35.0-6.0","""event"",""trial"",""time""
""fullscreenenter"",""0"",""2725""
","
","
","""event"",""trial"",""time""
""fullscreenenter"",""0"",""2725""
","
","null","run_exp/static/audio/clip_14_drift.m4a","null","","","","","<div class='center'><p>How successful a pirate is at robbing ships can also change over the time spent on the island. </p><p> Ships may hear from islanders about the pirates coming and will improve their protections against the attack. This may make it harder to rob them.</p><p> Ships may also become lazy and weaken the strength of their protections. This may make it easier to rob them.</p><br><p>Things are always changing on the high seas! So, try your best to pay attention!</p><p><img src='run_exp/static/images/tutorial/contingency.png' height='500'></p></div>","","","","","","","","","","","","","","","","","",""
"","html-keyboard-response","43","284453","0.0-35.0-7.0","""event"",""trial"",""time""
""fullscreenenter"",""0"",""2725""
","
","
","""event"",""trial"",""time""
""fullscreenenter"",""0"",""2725""
","
","1869.7000000029802","<div class='center'><p>How successful a pirate is at robbing ships can also change over the time spent on the island. </p><p> Ships may hear from islanders about the pirates coming and will improve their protections against the attack. This may make it harder to rob them.</p><p> Ships may also become lazy and weaken the strength of their protections. This may make it easier to rob them.</p><br><p>Things are always changing on the high seas! So, try your best to pay attention!</p><p><img src='run_exp/static/images/tutorial/contingency.png' height='500'></p><p><b>[Press the space bar to continue]</b></p></div>","32","","","","","","","","","","","","","","","","","","","","","","",""
"","instruc13","44","319711","0.0-35.0-8.0","""event"",""trial"",""time""
""fullscreenenter"",""0"",""2725""
","
","
","""event"",""trial"",""time""
""fullscreenenter"",""0"",""2725""
","
","null","run_exp/static/audio/clip_15_summary.m4a","null","","","","","<div class='center'><p>Let's go over the instructions quickly again. You have two important things to do: </p><b><p> 1. Pick the pirate who is the best at robbing ships on the current island. </p></b><b><p> 2. Remember on which island a ship was robbed.</p> </b><p>The amount of bonus money you can win depends on both.</p><p><br><p>Let’s try a practice game. The game will start by showing you the pirates. First, pick a pirate using the <b> 1, 2, 3 </b> keys on your keyboard. When you are shown a ship, try to remember which island you’re on by making up a story.</p><p>This is just a practice game, so you’re not playing for money. </p><p> Good luck! This game will be very difficult but try your best!</p></div>","","","","","","","","","","","","","","","","","",""
"","html-keyboard-response","45","320333","0.0-35.0-9.0","""event"",""trial"",""time""
""fullscreenenter"",""0"",""2725""
","
","
","""event"",""trial"",""time""
""fullscreenenter"",""0"",""2725""
","
","621.5","<div class='center'><p>Let's go over the instructions quickly again. You have two important things to do: </p><b><p> 1. Pick the pirate who is the best at robbing ships on the current island. </p></b><b><p> 2. Remember on which island a ship was robbed.</p> </b><p>The amount of bonus money you can win depends on both.</p><p><br><p>Let’s try a practice game. The game will start by showing you the pirates. First, pick a pirate using the <b> 1, 2, 3 </b> keys on your keyboard. When you are shown a ship, try to remember which island you’re on by making up a story.</p><p>This is just a practice game, so you’re not playing for money. </p><p> Good luck! This game will be very difficult but try your best!</p><p><b>[Press the space bar to continue]</b></p></div>","32","","","","","","","","","","","","","","","","","","","","","","",""
"","do_welcome","46","324341","0.0-35.0-10.0","""event"",""trial"",""time""
""fullscreenenter"",""0"",""2725""
","
","
","""event"",""trial"",""time""
""fullscreenenter"",""0"",""2725""
","
","null","","","","","","","","null","","","","","","","","","","","","","","","","",""
"","do_trial","47","330484","0.0-35.0-11.0","""event"",""trial"",""time""
""fullscreenenter"",""0"",""2725""
","
","
","""event"",""trial"",""time""
""fullscreenenter"",""0"",""2725""
","
","1636.699999999255","","","","","","","","49","1,0,0","","","","","","","","","","","","","","","",""
"","html-keyboard-response","48","331491","0.0-36.0-0.0","""event"",""trial"",""time""
""fullscreenenter"",""0"",""2725""
","
","
","""event"",""trial"",""time""
""fullscreenenter"",""0"",""2725""
","
","null","<p></p>","null","","","","","","","","","","","","","","","","","","","","","","",""
"","do_trial","49","337495","0.0-36.0-1.0","""event"",""trial"",""time""
""fullscreenenter"",""0"",""2725""
","
","
","""event"",""trial"",""time""
""fullscreenenter"",""0"",""2725""
","
","1493.2000000029802","","","","","","","","49","1,1,0","","","","","","","","","","","","","","","",""
"","html-keyboard-response","50","338498","0.0-37.0-0.0","""event"",""trial"",""time""
""fullscreenenter"",""0"",""2725""
","
","
","""event"",""trial"",""time""
""fullscreenenter"",""0"",""2725""
","
","null","<p></p>","null","","","","","","","","","","","","","","","","","","","","","","",""
"","do_trial","51","344437","0.0-37.0-1.0","""event"",""trial"",""time""
""fullscreenenter"",""0"",""2725""
","
","
","""event"",""trial"",""time""
""fullscreenenter"",""0"",""2725""
","
","1430.199999999255","","","","","","","","50","1,0,1","","","","","","","","","","","","","","","",""
"","html-keyboard-response","52","345444","0.0-38.0-0.0","""event"",""trial"",""time""
""fullscreenenter"",""0"",""2725""
","
","
","""event"",""trial"",""time""
""fullscreenenter"",""0"",""2725""
","
","null","<p></p>","null","","","","","","","","","","","","","","","","","","","","","","",""
"","do_trial","53","351664","0.0-38.0-1.0","""event"",""trial"",""time""
""fullscreenenter"",""0"",""2725""
","
","
","""event"",""trial"",""time""
""fullscreenenter"",""0"",""2725""
","
","1711.6000000014901","","","","","","","","49","0,1,0","","","","","","","","","","","","","","","",""
"","html-keyboard-response","54","352670","0.0-39.0-0.0","""event"",""trial"",""time""
""fullscreenenter"",""0"",""2725""
","
","
","""event"",""trial"",""time""
""fullscreenenter"",""0"",""2725""
","
","null","<p></p>","null","","","","","","","","","","","","","","","","","","","","","","",""
"","do_trial","55","358657","0.0-39.0-1.0","""event"",""trial"",""time""
""fullscreenenter"",""0"",""2725""
","
","
","""event"",""trial"",""time""
""fullscreenenter"",""0"",""2725""
","
","1475.800000000745","","","","","","","","51","1,0,0","","","","","","","","","","","","","","","",""
"","do_bye","56","360165","0.0-40.0-0.0","""event"",""trial"",""time""
""fullscreenenter"",""0"",""2725""
","
","
","""event"",""trial"",""time""
""fullscreenenter"",""0"",""2725""
","
","null","","","","","","","","null","","","","","","","","","","","","","","","","",""
"","do_travel","57","369173","0.0-40.0-1.0","""event"",""trial"",""time""
""fullscreenenter"",""0"",""2725""
","
","
","""event"",""trial"",""time""
""fullscreenenter"",""0"",""2725""
","
","null","","","","","","","","null","","","","","","","","","","","","","","","","",""
"","do_welcome","58","373178","0.0-40.0-2.0","""event"",""trial"",""time""
""fullscreenenter"",""0"",""2725""
","
","
","""event"",""trial"",""time""
""fullscreenenter"",""0"",""2725""
","
","null","","","","","","","","null","","","","","","","","","","","","","","","","",""
"","do_trial","59","379358","0.0-40.0-3.0","""event"",""trial"",""time""
""fullscreenenter"",""0"",""2725""
","
","
","""event"",""trial"",""time""
""fullscreenenter"",""0"",""2725""
","
","1668.5999999977648","","","","","","","","51","1,0,0","","","","","","","","","","","","","","","",""
"","html-keyboard-response","60","380360","0.0-41.0-0.0","""event"",""trial"",""time""
""fullscreenenter"",""0"",""2725""
","
","
","""event"",""trial"",""time""
""fullscreenenter"",""0"",""2725""
","
","null","<p></p>","null","","","","","","","","","","","","","","","","","","","","","","",""
"","do_trial","61","386369","0.0-41.0-1.0","""event"",""trial"",""time""
""fullscreenenter"",""0"",""2725""
","
","
","""event"",""trial"",""time""
""fullscreenenter"",""0"",""2725""
","
","null","","","","","","","","null","1,0,1","","","","","","","","","","","","","","","",""
"","html-keyboard-response","62","387372","0.0-42.0-0.0","""event"",""trial"",""time""
""fullscreenenter"",""0"",""2725""
","
","
","""event"",""trial"",""time""
""fullscreenenter"",""0"",""2725""
","
","null","<p></p>","null","","","","","","","","","","","","","","","","","","","","","","",""
"","do_trial","63","392434","0.0-42.0-1.0","""event"",""trial"",""time""
""fullscreenenter"",""0"",""2725""
","
","
","""event"",""trial"",""time""
""fullscreenenter"",""0"",""2725""
","
","551","","","","","","","","50","1,0,1","","","","","","","","","","","","","","","",""
"","html-keyboard-response","64","393440","0.0-43.0-0.0","""event"",""trial"",""time""
""fullscreenenter"",""0"",""2725""
""fullscreenexit"",""65"",""395775""
","
","
","""event"",""trial"",""time""
""fullscreenenter"",""0"",""2725""
","""event"",""trial"",""time""
""fullscreenexit"",""65"",""395775""
","null","<p></p>","null","","","","","","","","","","","","","","","","","","","","","","",""
"","do_trial","65","398719","0.0-43.0-1.0","""event"",""trial"",""time""
""fullscreenenter"",""0"",""2725""
""fullscreenexit"",""65"",""395775""
","
","
","""event"",""trial"",""time""
""fullscreenenter"",""0"",""2725""
","""event"",""trial"",""time""
""fullscreenexit"",""65"",""395775""
","768.7000000029802","","","","","","","","50","1,1,0","","","","","","","","","","","","","","","",""
"","html-keyboard-response","66","399721","0.0-44.0-0.0","""event"",""trial"",""time""
""fullscreenenter"",""0"",""2725""
""fullscreenexit"",""65"",""395775""
","
","
","""event"",""trial"",""time""
""fullscreenenter"",""0"",""2725""
","""event"",""trial"",""time""
""fullscreenexit"",""65"",""395775""
","null","<p></p>","null","","","","","","","","","","","","","","","","","","","","","","",""
"","do_trial","67","405729","0.0-44.0-1.0","""event"",""trial"",""time""
""fullscreenenter"",""0"",""2725""
""fullscreenexit"",""65"",""395775""
","
","
","""event"",""trial"",""time""
""fullscreenenter"",""0"",""2725""
","""event"",""trial"",""time""
""fullscreenexit"",""65"",""395775""
","null","","","","","","","","null","0,0,1","","","","","","","","","","","","","","","",""
"","html-keyboard-response","68","406735","0.0-45.0-0.0","""event"",""trial"",""time""
""fullscreenenter"",""0"",""2725""
""fullscreenexit"",""65"",""395775""
","
","
","""event"",""trial"",""time""
""fullscreenenter"",""0"",""2725""
","""event"",""trial"",""time""
""fullscreenexit"",""65"",""395775""
","null","<p></p>","null","","","","","","","","","","","","","","","","","","","","","","",""
"","do_trial","69","412833","0.0-45.0-1.0","""event"",""trial"",""time""
""fullscreenenter"",""0"",""2725""
""fullscreenexit"",""65"",""395775""
","
","
","""event"",""trial"",""time""
""fullscreenenter"",""0"",""2725""
","""event"",""trial"",""time""
""fullscreenexit"",""65"",""395775""
","1590.7000000029802","","","","","","","","49","0,0,1","","","","","","","","","","","","","","","",""
"","html-keyboard-response","70","413836","0.0-46.0-0.0","""event"",""trial"",""time""
""fullscreenenter"",""0"",""2725""
""fullscreenexit"",""65"",""395775""
","
","
","""event"",""trial"",""time""
""fullscreenenter"",""0"",""2725""
","""event"",""trial"",""time""
""fullscreenexit"",""65"",""395775""
","null","<p></p>","null","","","","","","","","","","","","","","","","","","","","","","",""
"","do_trial","71","419344","0.0-46.0-1.0","""event"",""trial"",""time""
""fullscreenenter"",""0"",""2725""
""fullscreenexit"",""65"",""395775""
","
","
","""event"",""trial"",""time""
""fullscreenenter"",""0"",""2725""
","""event"",""trial"",""time""
""fullscreenexit"",""65"",""395775""
","997.5999999977648","","","","","","","","49","1,0,1","","","","","","","","","","","","","","","",""
"","html-keyboard-response","72","422864","0.0-47.0-0.0","""event"",""trial"",""time""
""fullscreenenter"",""0"",""2725""
""fullscreenexit"",""65"",""395775""
","
","
","""event"",""trial"",""time""
""fullscreenenter"",""0"",""2725""
","""event"",""trial"",""time""
""fullscreenexit"",""65"",""395775""
","3518.300000000745","<div class='center'><p><img src='run_exp/static/images/tutorial/prac_best_pirate.png'  height='500'></p></div>","49","","","","","","","","","","","","","","","","","","","","","","",""
"","html-keyboard-response","73","424127","0.0-48.0-0.0","""event"",""trial"",""time""
""fullscreenenter"",""0"",""2725""
""fullscreenexit"",""65"",""395775""
","
","
","""event"",""trial"",""time""
""fullscreenenter"",""0"",""2725""
","""event"",""trial"",""time""
""fullscreenexit"",""65"",""395775""
","1261.4000000022352","<div class='center'><p>That's correct! Red beard was the best.</p><p><b>[Press the space bar to continue]</b></p></div>","32","","","","","","","","","","","","","","","","","","","","","","",""
"","html-keyboard-response","74","427408","0.0-48.0-1.0","""event"",""trial"",""time""
""fullscreenenter"",""0"",""2725""
""fullscreenexit"",""65"",""395775""
","
","
","""event"",""trial"",""time""
""fullscreenenter"",""0"",""2725""
","""event"",""trial"",""time""
""fullscreenexit"",""65"",""395775""
","3280.099999997765","<div class='center'><p><img src='run_exp/static/images/tutorial/prac_source.png'  height='500'></p></div>","50","","","","","","","","","","","","","","","","","","","","","","",""
"","html-keyboard-response","75","428947","0.0-49.0-0.0","""event"",""trial"",""time""
""fullscreenenter"",""0"",""2725""
""fullscreenexit"",""65"",""395775""
","
","
","""event"",""trial"",""time""
""fullscreenenter"",""0"",""2725""
","""event"",""trial"",""time""
""fullscreenexit"",""65"",""395775""
","1539.2000000029802","<div class='center'><p>That's correct! You saw this ship on the cavern island.</p><p><b>[Press the space bar to continue]</b></p></div>","32","","","","","","","","","","","","","","","","","","","","","","",""
"","quiz_beginning","76","440399","0.0-49.0-1.0","""event"",""trial"",""time""
""fullscreenenter"",""0"",""2725""
""fullscreenexit"",""65"",""395775""
","
","
","""event"",""trial"",""time""
""fullscreenenter"",""0"",""2725""
","""event"",""trial"",""time""
""fullscreenexit"",""65"",""395775""
","null","run_exp/static/audio/clip_16_quiz_intro.m4a","null","","","","","<div class='center'><p>Good job on the practice game! Now, you will be asked some true or false questions to make sure you really understand the rules of the game.</p><p> Press <b>'1'</b> on the keyboard for true and press <b>'2'</b> for false.</p></div>","","","","","","","","","","","","","","","","","",""
"","audio-keyboard-response","77","445386","0.0-49.0-2.0","""event"",""trial"",""time""
""fullscreenenter"",""0"",""2725""
""fullscreenexit"",""65"",""395775""
","
","
","""event"",""trial"",""time""
""fullscreenenter"",""0"",""2725""
","""event"",""trial"",""time""
""fullscreenexit"",""65"",""395775""
","4985.300000000745","run_exp/static/audio/clip_17_q1.m4a","49","","","","","","","","","","","","","","","","","","","","","","",""
"","correct","78","447830","0.0-50.0-0.0","""event"",""trial"",""time""
""fullscreenenter"",""0"",""2725""
""fullscreenexit"",""65"",""395775""
","
","
","""event"",""trial"",""time""
""fullscreenenter"",""0"",""2725""
","""event"",""trial"",""time""
""fullscreenexit"",""65"",""395775""
","null","run_exp/static/audio/clip_18_correct.m4a","null","","","","","<div class='center'><p>That's correct!</p></div>","","","","","","","","","","","","","","","","","",""
"","html-keyboard-response","79","448924","0.0-50.0-1.0","""event"",""trial"",""time""
""fullscreenenter"",""0"",""2725""
""fullscreenexit"",""65"",""395775""
","
","
","""event"",""trial"",""time""
""fullscreenenter"",""0"",""2725""
","""event"",""trial"",""time""
""fullscreenexit"",""65"",""395775""
","1093.5999999977648","<div class='center'><p>That's correct!</p><p><b>[Press the space bar to continue]</b></p></div>","32","","","","","","","","","","","","","","","","","","","","","","",""
"","audio-keyboard-response","80","456966","0.0-50.0-2.0","""event"",""trial"",""time""
""fullscreenenter"",""0"",""2725""
""fullscreenexit"",""65"",""395775""
","
","
","""event"",""trial"",""time""
""fullscreenenter"",""0"",""2725""
","""event"",""trial"",""time""
""fullscreenexit"",""65"",""395775""
","8041.39999999851","run_exp/static/audio/clip_20_q2.m4a","50","","","","","","","","","","","","","","","","","","","","","","",""
"","correct","81","459370","0.0-51.0-0.0","""event"",""trial"",""time""
""fullscreenenter"",""0"",""2725""
""fullscreenexit"",""65"",""395775""
","
","
","""event"",""trial"",""time""
""fullscreenenter"",""0"",""2725""
","""event"",""trial"",""time""
""fullscreenexit"",""65"",""395775""
","null","run_exp/static/audio/clip_18_correct.m4a","null","","","","","<div class='center'><p>That's correct!</p></div>","","","","","","","","","","","","","","","","","",""
"","html-keyboard-response","82","459989","0.0-51.0-1.0","""event"",""trial"",""time""
""fullscreenenter"",""0"",""2725""
""fullscreenexit"",""65"",""395775""
","
","
","""event"",""trial"",""time""
""fullscreenenter"",""0"",""2725""
","""event"",""trial"",""time""
""fullscreenexit"",""65"",""395775""
","618.2000000029802","<div class='center'><p>That's correct!</p><p><b>[Press the space bar to continue]</b></p></div>","32","","","","","","","","","","","","","","","","","","","","","","",""
"","audio-keyboard-response","83","464899","0.0-51.0-2.0","""event"",""trial"",""time""
""fullscreenenter"",""0"",""2725""
""fullscreenexit"",""65"",""395775""
","
","
","""event"",""trial"",""time""
""fullscreenenter"",""0"",""2725""
","""event"",""trial"",""time""
""fullscreenexit"",""65"",""395775""
","4910","run_exp/static/audio/clip_22_q3.m4a","50","","","","","","","","","","","","","","","","","","","","","","",""
"","correct","84","467311","0.0-52.0-0.0","""event"",""trial"",""time""
""fullscreenenter"",""0"",""2725""
""fullscreenexit"",""65"",""395775""
","
","
","""event"",""trial"",""time""
""fullscreenenter"",""0"",""2725""
","""event"",""trial"",""time""
""fullscreenexit"",""65"",""395775""
","null","run_exp/static/audio/clip_18_correct.m4a","null","","","","","<div class='center'><p>That's correct!</p></div>","","","","","","","","","","","","","","","","","",""
"","html-keyboard-response","85","468022","0.0-52.0-1.0","""event"",""trial"",""time""
""fullscreenenter"",""0"",""2725""
""fullscreenexit"",""65"",""395775""
","
","
","""event"",""trial"",""time""
""fullscreenenter"",""0"",""2725""
","""event"",""trial"",""time""
""fullscreenexit"",""65"",""395775""
","710.1000000014901","<div class='center'><p>That's correct!</p><p><b>[Press the space bar to continue]</b></p></div>","32","","","","","","","","","","","","","","","","","","","","","","",""
"","audio-keyboard-response","86","470111","0.0-52.0-2.0","""event"",""trial"",""time""
""fullscreenenter"",""0"",""2725""
""fullscreenexit"",""65"",""395775""
","
","
","""event"",""trial"",""time""
""fullscreenenter"",""0"",""2725""
","""event"",""trial"",""time""
""fullscreenexit"",""65"",""395775""
","2088.39999999851","run_exp/static/audio/clip_24_q4.m4a","49","","","","","","","","","","","","","","","","","","","","","","",""
"","correct","87","472536","0.0-53.0-0.0","""event"",""trial"",""time""
""fullscreenenter"",""0"",""2725""
""fullscreenexit"",""65"",""395775""
","
","
","""event"",""trial"",""time""
""fullscreenenter"",""0"",""2725""
","""event"",""trial"",""time""
""fullscreenexit"",""65"",""395775""
","null","run_exp/static/audio/clip_18_correct.m4a","null","","","","","<div class='center'><p>That's correct!</p></div>","","","","","","","","","","","","","","","","","",""
"","html-keyboard-response","88","473099","0.0-53.0-1.0","""event"",""trial"",""time""
""fullscreenenter"",""0"",""2725""
""fullscreenexit"",""65"",""395775""
","
","
","""event"",""trial"",""time""
""fullscreenenter"",""0"",""2725""
","""event"",""trial"",""time""
""fullscreenexit"",""65"",""395775""
","562.8000000007451","<div class='center'><p>That's correct!</p><p><b>[Press the space bar to continue]</b></p></div>","32","","","","","","","","","","","","","","","","","","","","","","",""
"","q_all_corr","89","481592","0.0-54.0-0.0","""event"",""trial"",""time""
""fullscreenenter"",""0"",""2725""
""fullscreenexit"",""65"",""395775""
","
","
","""event"",""trial"",""time""
""fullscreenenter"",""0"",""2725""
","""event"",""trial"",""time""
""fullscreenexit"",""65"",""395775""
","null","run_exp/static/audio/clip_27_quiz_all_correct.m4a","null","","","","","<div class='center'><p>Good job! You’re now ready to move on to the real game! Remember this game will be difficult but don't get discouraged and try your best!</p></div>","","","","","","","","","","","","","","","","","",""
"","html-keyboard-response","90","482905","0.0-54.0-1.0","""event"",""trial"",""time""
""fullscreenenter"",""0"",""2725""
""fullscreenexit"",""65"",""395775""
","
","
","""event"",""trial"",""time""
""fullscreenenter"",""0"",""2725""
","""event"",""trial"",""time""
""fullscreenexit"",""65"",""395775""
","1312.5","<div class='center'><p>Good job! You’re now ready to move on to the real game! Remember this game will be difficult but don't get discouraged and try your best!</p><p><b>[Press the space bar to continue]</b></p></div>","32","","","","","","","","","","","","","","","","","","","","","","",""
"","do_welcome","91","486909","0.0-55.0-0.0","""event"",""trial"",""time""
""fullscreenenter"",""0"",""2725""
""fullscreenexit"",""65"",""395775""
","
","
","""event"",""trial"",""time""
""fullscreenenter"",""0"",""2725""
","""event"",""trial"",""time""
""fullscreenexit"",""65"",""395775""
","null","","","","","","","","null","","","","","","","","","","","","","","","","",""
"","do_trial","92","492596","0.0-56.0-0.0","""event"",""trial"",""time""
""fullscreenenter"",""0"",""2725""
""fullscreenexit"",""65"",""395775""
","
","
","""event"",""trial"",""time""
""fullscreenenter"",""0"",""2725""
","""event"",""trial"",""time""
""fullscreenexit"",""65"",""395775""
","1143.199999999255","","","","","","","","49","0,1,0","0","countryside","0","probe-40","0.6","0.3","0.1","0","","","","","","","",""
"","html-keyboard-response","93","493603","0.0-56.0-1.0","""event"",""trial"",""time""
""fullscreenenter"",""0"",""2725""
""fullscreenexit"",""65"",""395775""
","
","
","""event"",""trial"",""time""
""fullscreenenter"",""0"",""2725""
","""event"",""trial"",""time""
""fullscreenexit"",""65"",""395775""
","null","<p></p>","null","","","","","","","","","","","","","","","","","","","","","","",""
"","do_trial","94","498686","0.0-57.0-0.0","""event"",""trial"",""time""
""fullscreenenter"",""0"",""2725""
""fullscreenexit"",""65"",""395775""
","
","
","""event"",""trial"",""time""
""fullscreenenter"",""0"",""2725""
","""event"",""trial"",""time""
""fullscreenexit"",""65"",""395775""
","540.5","","","","","","","","50","0,0,0","0","countryside","1","probe-128","0.5396648881319955","0.22177276879272928","0.1310399039558607","0","","","","","","","",""
"","html-keyboard-response","95","499688","0.0-57.0-1.0","""event"",""trial"",""time""
""fullscreenenter"",""0"",""2725""
""fullscreenexit"",""65"",""395775""
","
","
","""event"",""trial"",""time""
""fullscreenenter"",""0"",""2725""
","""event"",""trial"",""time""
""fullscreenexit"",""65"",""395775""
","null","<p></p>","null","","","","","","","","","","","","","","","","","","","","","","",""
"","do_trial","96","504715","0.0-58.0-0.0","""event"",""trial"",""time""
""fullscreenenter"",""0"",""2725""
""fullscreenexit"",""65"",""395775""
","
","
","""event"",""trial"",""time""
""fullscreenenter"",""0"",""2725""
","""event"",""trial"",""time""
""fullscreenexit"",""65"",""395775""
","480.80000000074506","","","","","","","","51","0,0,0","0","countryside","2","probe-220","0.44004637406060343","0.2023619003500612","0.05994698469263895","0","","","","","","","",""
"","html-keyboard-response","97","505722","0.0-58.0-1.0","""event"",""trial"",""time""
""fullscreenenter"",""0"",""2725""
""fullscreenexit"",""65"",""395775""
","
","
","""event"",""trial"",""time""
""fullscreenenter"",""0"",""2725""
","""event"",""trial"",""time""
""fullscreenexit"",""65"",""395775""
","null","<p></p>","null","","","","","","","","","","","","","","","","","","","","","","",""
"","do_trial","98","510667","0.0-59.0-0.0","""event"",""trial"",""time""
""fullscreenenter"",""0"",""2725""
""fullscreenexit"",""65"",""395775""
","
","
","""event"",""trial"",""time""
""fullscreenenter"",""0"",""2725""
","""event"",""trial"",""time""
""fullscreenexit"",""65"",""395775""
","401","","","","","","","","49","1,0,0","0","countryside","3","probe-48","0.4537656164595046","0.18962797675696244","0.1997627647808722","1","","","","","","","",""
"","html-keyboard-response","99","511674","0.0-59.0-1.0","""event"",""trial"",""time""
""fullscreenenter"",""0"",""2725""
""fullscreenexit"",""65"",""395775""
","
","
","""event"",""trial"",""time""
""fullscreenenter"",""0"",""2725""
","""event"",""trial"",""time""
""fullscreenexit"",""65"",""395775""
","null","<p></p>","null","","","","","","","","","","","","","","","","","","","","","","",""
"","do_trial","100","516941","0.0-60.0-0.0","""event"",""trial"",""time""
""fullscreenenter"",""0"",""2725""
""fullscreenexit"",""65"",""395775""
","
","
","""event"",""trial"",""time""
""fullscreenenter"",""0"",""2725""
","""event"",""trial"",""time""
""fullscreenexit"",""65"",""395775""
","727.3000000007451","","","","","","","","50","0,0,0","0","countryside","4","probe-23","0.45267771647503935","0.20808653325670848","0.07018185391623087","0","","","","","","","",""
"","html-keyboard-response","101","517947","0.0-60.0-1.0","""event"",""trial"",""time""
""fullscreenenter"",""0"",""2725""
""fullscreenexit"",""65"",""395775""
","
","
","""event"",""trial"",""time""
""fullscreenenter"",""0"",""2725""
","""event"",""trial"",""time""
""fullscreenexit"",""65"",""395775""
","null","<p></p>","null","","","","","","","","","","","","","","","","","","","","","","",""
"","do_trial","102","522832","0.0-61.0-0.0","""event"",""trial"",""time""
""fullscreenenter"",""0"",""2725""
""fullscreenexit"",""65"",""395775""
","
","
","""event"",""trial"",""time""
""fullscreenenter"",""0"",""2725""
","""event"",""trial"",""time""
""fullscreenexit"",""65"",""395775""
","339.79999999701977","","","","","","","","51","1,0,1","0","countryside","5","probe-217","0.6260624084301011","0.1997459547544937","0.11036050599509974","1","","","","","","","",""
"","html-keyboard-response","103","523838","0.0-61.0-1.0","""event"",""trial"",""time""
""fullscreenenter"",""0"",""2725""
""fullscreenexit"",""65"",""395775""
","
","
","""event"",""trial"",""time""
""fullscreenenter"",""0"",""2725""
","""event"",""trial"",""time""
""fullscreenexit"",""65"",""395775""
","null","<p></p>","null","","","","","","","","","","","","","","","","","","","","","","",""
"","do_trial","104","529048","0.0-62.0-0.0","""event"",""trial"",""time""
""fullscreenenter"",""0"",""2725""
""fullscreenexit"",""65"",""395775""
","
","
","""event"",""trial"",""time""
""fullscreenenter"",""0"",""2725""
","""event"",""trial"",""time""
""fullscreenexit"",""65"",""395775""
","664","","","","","","","","49","1,1,1","0","countryside","6","probe-103","0.5264418631436495","0.23772585976744404","0.10160399295403108","1","","","","","","","",""
"","html-keyboard-response","105","530053","0.0-62.0-1.0","""event"",""trial"",""time""
""fullscreenenter"",""0"",""2725""
""fullscreenexit"",""65"",""395775""
","
","
","""event"",""trial"",""time""
""fullscreenenter"",""0"",""2725""
","""event"",""trial"",""time""
""fullscreenexit"",""65"",""395775""
","null","<p></p>","null","","","","","","","","","","","","","","","","","","","","","","",""
"","do_trial","106","535413","0.0-63.0-0.0","""event"",""trial"",""time""
""fullscreenenter"",""0"",""2725""
""fullscreenexit"",""65"",""395775""
","
","
","""event"",""trial"",""time""
""fullscreenenter"",""0"",""2725""
","""event"",""trial"",""time""
""fullscreenexit"",""65"",""395775""
","816.5","","","","","","","","50","0,0,0","0","countryside","7","probe-208","0.43393705721439935","0.2311190853335812","0.09379197446519523","0","","","","","","","",""
"","html-keyboard-response","107","536420","0.0-63.0-1.0","""event"",""trial"",""time""
""fullscreenenter"",""0"",""2725""
""fullscreenexit"",""65"",""395775""
","
","
","""event"",""trial"",""time""
""fullscreenenter"",""0"",""2725""
","""event"",""trial"",""time""
""fullscreenexit"",""65"",""395775""
","null","<p></p>","null","","","","","","","","","","","","","","","","","","","","","","",""
"","do_trial","108","541591","0.0-64.0-0.0","""event"",""trial"",""time""
""fullscreenenter"",""0"",""2725""
""fullscreenexit"",""65"",""395775""
","
","
","""event"",""trial"",""time""
""fullscreenenter"",""0"",""2725""
","""event"",""trial"",""time""
""fullscreenexit"",""65"",""395775""
","631.2000000029802","","","","","","","","50","1,0,0","0","countryside","8","probe-112","0.3628731529729062","0.1447494850468176","0.06300794153900584","0","","","","","","","",""
"","html-keyboard-response","109","542592","0.0-64.0-1.0","""event"",""trial"",""time""
""fullscreenenter"",""0"",""2725""
""fullscreenexit"",""65"",""395775""
","
","
","""event"",""trial"",""time""
""fullscreenenter"",""0"",""2725""
","""event"",""trial"",""time""
""fullscreenexit"",""65"",""395775""
","null","<p></p>","null","","","","","","","","","","","","","","","","","","","","","","",""
"","do_trial","110","547651","0.0-65.0-0.0","""event"",""trial"",""time""
""fullscreenenter"",""0"",""2725""
""fullscreenexit"",""65"",""395775""
","
","
","""event"",""trial"",""time""
""fullscreenenter"",""0"",""2725""
","""event"",""trial"",""time""
""fullscreenexit"",""65"",""395775""
","521.6000000014901","","","","","","","","49","0,0,0","0","countryside","9","probe-69","0.5665646529481788","0.2896341263573481","0.2803054979011931","0","","","","","","","",""
"","html-keyboard-response","111","548653","0.0-65.0-1.0","""event"",""trial"",""time""
""fullscreenenter"",""0"",""2725""
""fullscreenexit"",""65"",""395775""
","
","
","""event"",""trial"",""time""
""fullscreenenter"",""0"",""2725""
","""event"",""trial"",""time""
""fullscreenexit"",""65"",""395775""
","null","<p></p>","null","","","","","","","","","","","","","","","","","","","","","","",""
"","do_trial","112","553698","0.0-66.0-0.0","""event"",""trial"",""time""
""fullscreenenter"",""0"",""2725""
""fullscreenexit"",""65"",""395775""
","
","
","""event"",""trial"",""time""
""fullscreenenter"",""0"",""2725""
","""event"",""trial"",""time""
""fullscreenexit"",""65"",""395775""
","508.69999999925494","","","","","","","","51","1,0,0","0","countryside","10","probe-188","0.6231290362000936","0.30948417115531046","0.11810239416289847","0","","","","","","","",""
"","html-keyboard-response","113","554699","0.0-66.0-1.0","""event"",""trial"",""time""
""fullscreenenter"",""0"",""2725""
""fullscreenexit"",""65"",""395775""
","
","
","""event"",""trial"",""time""
""fullscreenenter"",""0"",""2725""
","""event"",""trial"",""time""
""fullscreenexit"",""65"",""395775""
","null","<p></p>","null","","","","","","","","","","","","","","","","","","","","","","",""
"","do_trial","114","559721","0.0-67.0-0.0","""event"",""trial"",""time""
""fullscreenenter"",""0"",""2725""
""fullscreenexit"",""65"",""395775""
","
","
","""event"",""trial"",""time""
""fullscreenenter"",""0"",""2725""
","""event"",""trial"",""time""
""fullscreenexit"",""65"",""395775""
","484","","","","","","","","49","1,1,0","0","countryside","11","probe-141","0.7395086984050131","0.3179921189879354","0.05869780224144882","1","","","","","","","",""
"","html-keyboard-response","115","560723","0.0-67.0-1.0","""event"",""trial"",""time""
""fullscreenenter"",""0"",""2725""
""fullscreenexit"",""65"",""395775""
","
","
","""event"",""trial"",""time""
""fullscreenenter"",""0"",""2725""
","""event"",""trial"",""time""
""fullscreenexit"",""65"",""395775""
","null","<p></p>","null","","","","","","","","","","","","","","","","","","","","","","",""
"","do_trial","116","566004","0.0-68.0-0.0","""event"",""trial"",""time""
""fullscreenenter"",""0"",""2725""
""fullscreenexit"",""65"",""395775""
","
","
","""event"",""trial"",""time""
""fullscreenenter"",""0"",""2725""
","""event"",""trial"",""time""
""fullscreenexit"",""65"",""395775""
","738.5","","","","","","","","49","1,0,0","0","countryside","12","probe-20","0.5599911006924828","0.20277738462389408","0.17223523136689103","1","","","","","","","",""
"","html-keyboard-response","117","567010","0.0-68.0-1.0","""event"",""trial"",""time""
""fullscreenenter"",""0"",""2725""
""fullscreenexit"",""65"",""395775""
","
","
","""event"",""trial"",""time""
""fullscreenenter"",""0"",""2725""
","""event"",""trial"",""time""
""fullscreenexit"",""65"",""395775""
","null","<p></p>","null","","","","","","","","","","","","","","","","","","","","","","",""
"","do_trial","118","571988","0.0-69.0-0.0","""event"",""trial"",""time""
""fullscreenenter"",""0"",""2725""
""fullscreenexit"",""65"",""395775""
","
","
","""event"",""trial"",""time""
""fullscreenenter"",""0"",""2725""
","""event"",""trial"",""time""
""fullscreenexit"",""65"",""395775""
","432","","","","","","","","49","1,1,0","0","countryside","13","probe-78","0.7134081264351955","0.3511088924609449","0.2384010440827437","1","","","","","","","",""
"","html-keyboard-response","119","572993","0.0-69.0-1.0","""event"",""trial"",""time""
""fullscreenenter"",""0"",""2725""
""fullscreenexit"",""65"",""395775""
","
","
","""event"",""trial"",""time""
""fullscreenenter"",""0"",""2725""
","""event"",""trial"",""time""
""fullscreenexit"",""65"",""395775""
","null","<p></p>","null","","","","","","","","","","","","","","","","","","","","","","",""
"","do_trial","120","578330","0.0-70.0-0.0","""event"",""trial"",""time""
""fullscreenenter"",""0"",""2725""
""fullscreenexit"",""65"",""395775""
","
","
","""event"",""trial"",""time""
""fullscreenenter"",""0"",""2725""
","""event"",""trial"",""time""
""fullscreenexit"",""65"",""395775""
","792.3000000007451","","","","","","","","50","1,0,0","0","countryside","14","probe-05","0.7028144027417678","0.3416471932917791","0.13104739347837663","0","","","","","","","",""
"","html-keyboard-response","121","579332","0.0-70.0-1.0","""event"",""trial"",""time""
""fullscreenenter"",""0"",""2725""
""fullscreenexit"",""65"",""395775""
","
","
","""event"",""trial"",""time""
""fullscreenenter"",""0"",""2725""
","""event"",""trial"",""time""
""fullscreenexit"",""65"",""395775""
","null","<p></p>","null","","","","","","","","","","","","","","","","","","","","","","",""
"","do_trial","122","584370","0.0-71.0-0.0","""event"",""trial"",""time""
""fullscreenenter"",""0"",""2725""
""fullscreenexit"",""65"",""395775""
","
","
","""event"",""trial"",""time""
""fullscreenenter"",""0"",""2725""
","""event"",""trial"",""time""
""fullscreenexit"",""65"",""395775""
","498.1000000014901","","","","","","","","49","1,0,0","0","countryside","15","probe-49","0.6429312784728891","0.1106396998815733","0.12235103392246412","1","","","","","","","",""
"","html-keyboard-response","123","585374","0.0-71.0-1.0","""event"",""trial"",""time""
""fullscreenenter"",""0"",""2725""
""fullscreenexit"",""65"",""395775""
","
","
","""event"",""trial"",""time""
""fullscreenenter"",""0"",""2725""
","""event"",""trial"",""time""
""fullscreenexit"",""65"",""395775""
","null","<p></p>","null","","","","","","","","","","","","","","","","","","","","","","",""
"","do_trial","124","590504","0.0-72.0-0.0","""event"",""trial"",""time""
""fullscreenenter"",""0"",""2725""
""fullscreenexit"",""65"",""395775""
","
","
","""event"",""trial"",""time""
""fullscreenenter"",""0"",""2725""
","""event"",""trial"",""time""
""fullscreenexit"",""65"",""395775""
","583.6999999992549","","","","","","","","49","0,0,0","0","countryside","16","probe-154","0.7906348178763466","0.06327066794255957","0.05404807132858218","0","","","","","","","",""
"","html-keyboard-response","125","591510","0.0-72.0-1.0","""event"",""trial"",""time""
""fullscreenenter"",""0"",""2725""
""fullscreenexit"",""65"",""395775""
","
","
","""event"",""trial"",""time""
""fullscreenenter"",""0"",""2725""
","""event"",""trial"",""time""
""fullscreenexit"",""65"",""395775""
","null","<p></p>","null","","","","","","","","","","","","","","","","","","","","","","",""
"","do_trial","126","597088","0.0-73.0-0.0","""event"",""trial"",""time""
""fullscreenenter"",""0"",""2725""
""fullscreenexit"",""65"",""395775""
","
","
","""event"",""trial"",""time""
""fullscreenenter"",""0"",""2725""
","""event"",""trial"",""time""
""fullscreenexit"",""65"",""395775""
","1037.2999999970198","","","","","","","","51","1,0,0","0","countryside","17","probe-35","0.789793684978379","0.16578484890590411","0.057915335601707175","0","","","","","","","",""
"","html-keyboard-response","127","598094","0.0-73.0-1.0","""event"",""trial"",""time""
""fullscreenenter"",""0"",""2725""
""fullscreenexit"",""65"",""395775""
","
","
","""event"",""trial"",""time""
""fullscreenenter"",""0"",""2725""
","""event"",""trial"",""time""
""fullscreenexit"",""65"",""395775""
","null","<p></p>","null","","","","","","","","","","","","","","","","","","","","","","",""
"","do_trial","128","603579","0.0-74.0-0.0","""event"",""trial"",""time""
""fullscreenenter"",""0"",""2725""
""fullscreenexit"",""65"",""395775""
","
","
","""event"",""trial"",""time""
""fullscreenenter"",""0"",""2725""
","""event"",""trial"",""time""
""fullscreenexit"",""65"",""395775""
","945.3000000007451","","","","","","","","49","1,1,0","0","countryside","18","probe-207","0.61372460470074","0.15176424457916654","0.13482845770261542","1","","","","","","","",""
"","html-keyboard-response","129","604585","0.0-74.0-1.0","""event"",""trial"",""time""
""fullscreenenter"",""0"",""2725""
""fullscreenexit"",""65"",""395775""
","
","
","""event"",""trial"",""time""
""fullscreenenter"",""0"",""2725""
","""event"",""trial"",""time""
""fullscreenexit"",""65"",""395775""
","null","<p></p>","null","","","","","","","","","","","","","","","","","","","","","","",""
"","do_trial","130","610386","0.0-75.0-0.0","""event"",""trial"",""time""
""fullscreenenter"",""0"",""2725""
""fullscreenexit"",""65"",""395775""
","
","
","""event"",""trial"",""time""
""fullscreenenter"",""0"",""2725""
","""event"",""trial"",""time""
""fullscreenexit"",""65"",""395775""
","1255.7999999970198","","","","","","","","49","1,0,0","0","countryside","19","probe-100","0.6784468196567701","0.22006434442513328","0.09947569056869297","1","","","","","","","",""
"","html-keyboard-response","131","611388","0.0-75.0-1.0","""event"",""trial"",""time""
""fullscreenenter"",""0"",""2725""
""fullscreenexit"",""65"",""395775""
","
","
","""event"",""trial"",""time""
""fullscreenenter"",""0"",""2725""
","""event"",""trial"",""time""
""fullscreenexit"",""65"",""395775""
","null","<p></p>","null","","","","","","","","","","","","","","","","","","","","","","",""
"","do_trial","132","618820","0.0-76.0-0.0","""event"",""trial"",""time""
""fullscreenenter"",""0"",""2725""
""fullscreenexit"",""65"",""395775""
","
","
","""event"",""trial"",""time""
""fullscreenenter"",""0"",""2725""
","""event"",""trial"",""time""
""fullscreenexit"",""65"",""395775""
","2885.89999999851","","","","","","","","51","1,0,0","0","countryside","20","probe-56","0.7626492676677255","0.14741148351428757","0.26364850263765965","0","","","","","","","",""
"","html-keyboard-response","133","619824","0.0-76.0-1.0","""event"",""trial"",""time""
""fullscreenenter"",""0"",""2725""
""fullscreenexit"",""65"",""395775""
","
","
","""event"",""trial"",""time""
""fullscreenenter"",""0"",""2725""
","""event"",""trial"",""time""
""fullscreenexit"",""65"",""395775""
","null","<p></p>","null","","","","","","","","","","","","","","","","","","","","","","",""
"","do_trial","134","625173","0.0-77.0-0.0","""event"",""trial"",""time""
""fullscreenenter"",""0"",""2725""
""fullscreenexit"",""65"",""395775""
","
","
","""event"",""trial"",""time""
""fullscreenenter"",""0"",""2725""
","""event"",""trial"",""time""
""fullscreenexit"",""65"",""395775""
","811.2000000029802","","","","","","","","49","1,0,1","0","countryside","21","probe-201","0.6363055082885319","0.34313767690148517","0.194760221552897","1","","","","","","","",""
"","html-keyboard-response","135","626178","0.0-77.0-1.0","""event"",""trial"",""time""
""fullscreenenter"",""0"",""2725""
""fullscreenexit"",""65"",""395775""
","
","
","""event"",""trial"",""time""
""fullscreenenter"",""0"",""2725""
","""event"",""trial"",""time""
""fullscreenexit"",""65"",""395775""
","null","<p></p>","null","","","","","","","","","","","","","","","","","","","","","","",""
"","do_trial","136","631316","0.0-78.0-0.0","""event"",""trial"",""time""
""fullscreenenter"",""0"",""2725""
""fullscreenexit"",""65"",""395775""
","
","
","""event"",""trial"",""time""
""fullscreenenter"",""0"",""2725""
","""event"",""trial"",""time""
""fullscreenexit"",""65"",""395775""
","598","","","","","","","","49","1,1,1","0","countryside","22","probe-39","0.8350539207099472","0.3493209319928117","0.14852886712070754","1","","","","","","","",""
"","html-keyboard-response","137","632320","0.0-78.0-1.0","""event"",""trial"",""time""
""fullscreenenter"",""0"",""2725""
""fullscreenexit"",""65"",""395775""
","
","
","""event"",""trial"",""time""
""fullscreenenter"",""0"",""2725""
","""event"",""trial"",""time""
""fullscreenexit"",""65"",""395775""
","null","<p></p>","null","","","","","","","","","","","","","","","","","","","","","","",""
"","do_trial","138","637948","0.0-79.0-0.0","""event"",""trial"",""time""
""fullscreenenter"",""0"",""2725""
""fullscreenexit"",""65"",""395775""
","
","
","""event"",""trial"",""time""
""fullscreenenter"",""0"",""2725""
","""event"",""trial"",""time""
""fullscreenexit"",""65"",""395775""
","1085.800000000745","","","","","","","","49","1,0,0","0","countryside","23","probe-182","0.8075740283109555","0.37202487672535745","0.07178283840644128","1","","","","","","","",""
"","html-keyboard-response","139","638952","0.0-79.0-1.0","""event"",""trial"",""time""
""fullscreenenter"",""0"",""2725""
""fullscreenexit"",""65"",""395775""
","
","
","""event"",""trial"",""time""
""fullscreenenter"",""0"",""2725""
","""event"",""trial"",""time""
""fullscreenexit"",""65"",""395775""
","null","<p></p>","null","","","","","","","","","","","","","","","","","","","","","","",""
"","do_trial","140","644302","0.0-80.0-0.0","""event"",""trial"",""time""
""fullscreenenter"",""0"",""2725""
""fullscreenexit"",""65"",""395775""
","
","
","""event"",""trial"",""time""
""fullscreenenter"",""0"",""2725""
","""event"",""trial"",""time""
""fullscreenexit"",""65"",""395775""
","807.6000000014901","","","","","","","","49","1,0,0","0","countryside","24","probe-166","0.716014094717707","0.3666419818945419","0.24349500322704587","1","","","","","","","",""
"","html-keyboard-response","141","645308","0.0-80.0-1.0","""event"",""trial"",""time""
""fullscreenenter"",""0"",""2725""
""fullscreenexit"",""65"",""395775""
","
","
","""event"",""trial"",""time""
""fullscreenenter"",""0"",""2725""
","""event"",""trial"",""time""
""fullscreenexit"",""65"",""395775""
","null","<p></p>","null","","","","","","","","","","","","","","","","","","","","","","",""
"","do_trial","142","650402","0.0-81.0-0.0","""event"",""trial"",""time""
""fullscreenenter"",""0"",""2725""
""fullscreenexit"",""65"",""395775""
","
","
","""event"",""trial"",""time""
""fullscreenenter"",""0"",""2725""
","""event"",""trial"",""time""
""fullscreenexit"",""65"",""395775""
","549.2999999970198","","","","","","","","51","1,0,0","0","countryside","25","probe-176","0.6711430282262916","0.46287138462755517","0.14014702619594313","0","","","","","","","",""
"","html-keyboard-response","143","651403","0.0-81.0-1.0","""event"",""trial"",""time""
""fullscreenenter"",""0"",""2725""
""fullscreenexit"",""65"",""395775""
","
","
","""event"",""trial"",""time""
""fullscreenenter"",""0"",""2725""
","""event"",""trial"",""time""
""fullscreenexit"",""65"",""395775""
","null","<p></p>","null","","","","","","","","","","","","","","","","","","","","","","",""
"","do_trial","144","656552","0.0-82.0-0.0","""event"",""trial"",""time""
""fullscreenenter"",""0"",""2725""
""fullscreenexit"",""65"",""395775""
","
","
","""event"",""trial"",""time""
""fullscreenenter"",""0"",""2725""
","""event"",""trial"",""time""
""fullscreenexit"",""65"",""395775""
","606.5","","","","","","","","50","0,0,0","0","countryside","26","probe-80","0.5726203198865482","0.4235925237359088","0.1441144669995154","0","","","","","","","",""
"","html-keyboard-response","145","657559","0.0-82.0-1.0","""event"",""trial"",""time""
""fullscreenenter"",""0"",""2725""
""fullscreenexit"",""65"",""395775""
","
","
","""event"",""trial"",""time""
""fullscreenenter"",""0"",""2725""
","""event"",""trial"",""time""
""fullscreenexit"",""65"",""395775""
","null","<p></p>","null","","","","","","","","","","","","","","","","","","","","","","",""
"","do_trial","146","662980","0.0-83.0-0.0","""event"",""trial"",""time""
""fullscreenenter"",""0"",""2725""
""fullscreenexit"",""65"",""395775""
","
","
","""event"",""trial"",""time""
""fullscreenenter"",""0"",""2725""
","""event"",""trial"",""time""
""fullscreenexit"",""65"",""395775""
","879","","","","","","","","49","1,0,0","0","countryside","27","probe-13","0.7748948404185132","0.3849365392939825","0.2245774253441156","1","","","","","","","",""
"","html-keyboard-response","147","663985","0.0-83.0-1.0","""event"",""trial"",""time""
""fullscreenenter"",""0"",""2725""
""fullscreenexit"",""65"",""395775""
","
","
","""event"",""trial"",""time""
""fullscreenenter"",""0"",""2725""
","""event"",""trial"",""time""
""fullscreenexit"",""65"",""395775""
","null","<p></p>","null","","","","","","","","","","","","","","","","","","","","","","",""
"","do_trial","148","669391","0.0-84.0-0.0","""event"",""trial"",""time""
""fullscreenenter"",""0"",""2725""
""fullscreenexit"",""65"",""395775""
","
","
","""event"",""trial"",""time""
""fullscreenenter"",""0"",""2725""
","""event"",""trial"",""time""
""fullscreenexit"",""65"",""395775""
","864.4000000022352","","","","","","","","49","0,0,0","0","countryside","28","probe-93","0.6236312925711007","0.27544383132830197","0.11018275544000104","0","","","","","","","",""
"","html-keyboard-response","149","670397","0.0-84.0-1.0","""event"",""trial"",""time""
""fullscreenenter"",""0"",""2725""
""fullscreenexit"",""65"",""395775""
","
","
","""event"",""trial"",""time""
""fullscreenenter"",""0"",""2725""
","""event"",""trial"",""time""
""fullscreenexit"",""65"",""395775""
","null","<p></p>","null","","","","","","","","","","","","","","","","","","","","","","",""
"","do_trial","150","675081","0.0-85.0-0.0","""event"",""trial"",""time""
""fullscreenenter"",""0"",""2725""
""fullscreenexit"",""65"",""395775""
","
","
","""event"",""trial"",""time""
""fullscreenenter"",""0"",""2725""
","""event"",""trial"",""time""
""fullscreenexit"",""65"",""395775""
","143.39999999850988","","","","","","","","49","0,0,0","0","countryside","29","probe-120","0.6332280958527738","0.31686046793605976","0.2986338332549221","0","","","","","","","",""
"","html-keyboard-response","151","676082","0.0-85.0-1.0","""event"",""trial"",""time""
""fullscreenenter"",""0"",""2725""
""fullscreenexit"",""65"",""395775""
","
","
","""event"",""trial"",""time""
""fullscreenenter"",""0"",""2725""
","""event"",""trial"",""time""
""fullscreenexit"",""65"",""395775""
","null","<p></p>","null","","","","","","","","","","","","","","","","","","","","","","",""
"","do_bye","152","677586","0.0-86.0-0.0","""event"",""trial"",""time""
""fullscreenenter"",""0"",""2725""
""fullscreenexit"",""65"",""395775""
","
","
","""event"",""trial"",""time""
""fullscreenenter"",""0"",""2725""
","""event"",""trial"",""time""
""fullscreenexit"",""65"",""395775""
","null","","","","","","","","null","","","","","","","","","","","","","","","","",""
"","break","153","679243","0.0-86.0-1.0","""event"",""trial"",""time""
""fullscreenenter"",""0"",""2725""
""fullscreenexit"",""65"",""395775""
","
","
","""event"",""trial"",""time""
""fullscreenenter"",""0"",""2725""
","""event"",""trial"",""time""
""fullscreenexit"",""65"",""395775""
","1655.699999999255","<div class='center'><p>Time to take a quick break! You have 2 minutes to rest, but you can move on sooner if you'd like.</p><p> Press the <b>space bar</b> to continue.</p></div>","32","","","","","","","","","","","","","","","","","","","","","","",""
"","do_travel","154","688250","0.0-87.0-0.0","""event"",""trial"",""time""
""fullscreenenter"",""0"",""2725""
""fullscreenexit"",""65"",""395775""
","
","
","""event"",""trial"",""time""
""fullscreenenter"",""0"",""2725""
","""event"",""trial"",""time""
""fullscreenexit"",""65"",""395775""
","null","","","","","","","","null","","","","","","","","","","","","","","","","",""
"","do_welcome","155","692256","0.0-87.0-1.0","""event"",""trial"",""time""
""fullscreenenter"",""0"",""2725""
""fullscreenexit"",""65"",""395775""
","
","
","""event"",""trial"",""time""
""fullscreenenter"",""0"",""2725""
","""event"",""trial"",""time""
""fullscreenexit"",""65"",""395775""
","null","","","","","","","","null","","","","","","","","","","","","","","","","",""
"","do_trial","156","697578","0.0-88.0-0.0","""event"",""trial"",""time""
""fullscreenenter"",""0"",""2725""
""fullscreenexit"",""65"",""395775""
","
","
","""event"",""trial"",""time""
""fullscreenenter"",""0"",""2725""
","""event"",""trial"",""time""
""fullscreenexit"",""65"",""395775""
","777.8000000007451","","","","","","","","49","1,0,0","1","city","30","probe-34","1","0.28032172223899293","0.2970773054911032","1","","","","","","","",""
"","html-keyboard-response","157","698583","0.0-88.0-1.0","""event"",""trial"",""time""
""fullscreenenter"",""0"",""2725""
""fullscreenexit"",""65"",""395775""
","
","
","""event"",""trial"",""time""
""fullscreenenter"",""0"",""2725""
","""event"",""trial"",""time""
""fullscreenexit"",""65"",""395775""
","null","<p></p>","null","","","","","","","","","","","","","","","","","","","","","","",""
"","do_trial","158","703883","0.0-89.0-0.0","""event"",""trial"",""time""
""fullscreenenter"",""0"",""2725""
""fullscreenexit"",""65"",""395775""
","
","
","""event"",""trial"",""time""
""fullscreenenter"",""0"",""2725""
","""event"",""trial"",""time""
""fullscreenexit"",""65"",""395775""
","754.4000000022352","","","","","","","","50","1,0,1","1","city","31","probe-19","1","0.1806595192027222","0.1553708458426874","0","","","","","","","",""
"","html-keyboard-response","159","704889","0.0-89.0-1.0","""event"",""trial"",""time""
""fullscreenenter"",""0"",""2725""
""fullscreenexit"",""65"",""395775""
","
","
","""event"",""trial"",""time""
""fullscreenenter"",""0"",""2725""
","""event"",""trial"",""time""
""fullscreenexit"",""65"",""395775""
","null","<p></p>","null","","","","","","","","","","","","","","","","","","","","","","",""
"","do_trial","160","709882","0.0-90.0-0.0","""event"",""trial"",""time""
""fullscreenenter"",""0"",""2725""
""fullscreenexit"",""65"",""395775""
","
","
","""event"",""trial"",""time""
""fullscreenenter"",""0"",""2725""
","""event"",""trial"",""time""
""fullscreenexit"",""65"",""395775""
","446.80000000074506","","","","","","","","51","1,0,1","1","city","32","probe-65","1","0.18377549956565836","0.2298364068806109","1","","","","","","","",""
"","html-keyboard-response","161","710888","0.0-90.0-1.0","""event"",""trial"",""time""
""fullscreenenter"",""0"",""2725""
""fullscreenexit"",""65"",""395775""
","
","
","""event"",""trial"",""time""
""fullscreenenter"",""0"",""2725""
","""event"",""trial"",""time""
""fullscreenexit"",""65"",""395775""
","null","<p></p>","null","","","","","","","","","","","","","","","","","","","","","","",""
"","do_trial","162","716043","0.0-91.0-0.0","""event"",""trial"",""time""
""fullscreenenter"",""0"",""2725""
""fullscreenexit"",""65"",""395775""
","
","
","""event"",""trial"",""time""
""fullscreenenter"",""0"",""2725""
","""event"",""trial"",""time""
""fullscreenexit"",""65"",""395775""
","607.5","","","","","","","","50","0,0,0","1","city","33","probe-90","0.8537533148270928","0.0501297717514705","0.25528410098269727","0","","","","","","","",""
"","html-keyboard-response","163","717049","0.0-91.0-1.0","""event"",""trial"",""time""
""fullscreenenter"",""0"",""2725""
""fullscreenexit"",""65"",""395775""
","
","
","""event"",""trial"",""time""
""fullscreenenter"",""0"",""2725""
","""event"",""trial"",""time""
""fullscreenexit"",""65"",""395775""
","null","<p></p>","null","","","","","","","","","","","","","","","","","","","","","","",""
"","do_trial","164","723108","0.0-92.0-0.0","""event"",""trial"",""time""
""fullscreenenter"",""0"",""2725""
""fullscreenexit"",""65"",""395775""
","
","
","""event"",""trial"",""time""
""fullscreenenter"",""0"",""2725""
","""event"",""trial"",""time""
""fullscreenexit"",""65"",""395775""
","1519.800000000745","","","","","","","","49","1,0,0","1","city","34","probe-04","0.7112954756194076","0.2593829187730248","0.16434430947374445","1","","","","","","","",""
"","html-keyboard-response","165","724114","0.0-92.0-1.0","""event"",""trial"",""time""
""fullscreenenter"",""0"",""2725""
""fullscreenexit"",""65"",""395775""
","
","
","""event"",""trial"",""time""
""fullscreenenter"",""0"",""2725""
","""event"",""trial"",""time""
""fullscreenexit"",""65"",""395775""
","null","<p></p>","null","","","","","","","","","","","","","","","","","","","","","","",""
"","do_trial","166","729322","0.0-93.0-0.0","""event"",""trial"",""time""
""fullscreenenter"",""0"",""2725""
""fullscreenexit"",""65"",""395775""
","
","
","""event"",""trial"",""time""
""fullscreenenter"",""0"",""2725""
","""event"",""trial"",""time""
""fullscreenexit"",""65"",""395775""
","662.1999999992549","","","","","","","","49","1,0,0","1","city","35","probe-127","0.7376089242852215","0.20998285331209604","0.3086370449818951","1","","","","","","","",""
"","html-keyboard-response","167","730328","0.0-93.0-1.0","""event"",""trial"",""time""
""fullscreenenter"",""0"",""2725""
""fullscreenexit"",""65"",""395775""
","
","
","""event"",""trial"",""time""
""fullscreenenter"",""0"",""2725""
","""event"",""trial"",""time""
""fullscreenexit"",""65"",""395775""
","null","<p></p>","null","","","","","","","","","","","","","","","","","","","","","","",""
"","do_trial","168","735091","0.0-94.0-0.0","""event"",""trial"",""time""
""fullscreenenter"",""0"",""2725""
""fullscreenexit"",""65"",""395775""
","
","
","""event"",""trial"",""time""
""fullscreenenter"",""0"",""2725""
","""event"",""trial"",""time""
""fullscreenexit"",""65"",""395775""
","218.60000000149012","","","","","","","","51","1,0,0","1","city","36","probe-147","0.6757665084470503","0.2159186016808086","0.06255753935729402","0","","","","","","","",""
"","html-keyboard-response","169","736098","0.0-94.0-1.0","""event"",""trial"",""time""
""fullscreenenter"",""0"",""2725""
""fullscreenexit"",""65"",""395775""
","
","
","""event"",""trial"",""time""
""fullscreenenter"",""0"",""2725""
","""event"",""trial"",""time""
""fullscreenexit"",""65"",""395775""
","null","<p></p>","null","","","","","","","","","","","","","","","","","","","","","","",""
"","do_trial","170","742013","0.0-95.0-0.0","""event"",""trial"",""time""
""fullscreenenter"",""0"",""2725""
""fullscreenexit"",""65"",""395775""
","
","
","""event"",""trial"",""time""
""fullscreenenter"",""0"",""2725""
","""event"",""trial"",""time""
""fullscreenexit"",""65"",""395775""
","1369.5","","","","","","","","49","1,0,0","1","city","37","probe-106","0.6460654109450644","0.165465819075802","0.0759821755603569","1","","","","","","","",""
"","html-keyboard-response","171","743015","0.0-95.0-1.0","""event"",""trial"",""time""
""fullscreenenter"",""0"",""2725""
""fullscreenexit"",""65"",""395775""
","
","
","""event"",""trial"",""time""
""fullscreenenter"",""0"",""2725""
","""event"",""trial"",""time""
""fullscreenexit"",""65"",""395775""
","null","<p></p>","null","","","","","","","","","","","","","","","","","","","","","","",""
"","do_trial","172","748258","0.0-96.0-0.0","""event"",""trial"",""time""
""fullscreenenter"",""0"",""2725""
""fullscreenexit"",""65"",""395775""
","
","
","""event"",""trial"",""time""
""fullscreenenter"",""0"",""2725""
","""event"",""trial"",""time""
""fullscreenexit"",""65"",""395775""
","697.0999999977648","","","","","","","","49","1,0,0","1","city","38","probe-183","0.6893277309837041","0.1442717932191035","0.08502864886095571","1","","","","","","","",""
"","html-keyboard-response","173","749264","0.0-96.0-1.0","""event"",""trial"",""time""
""fullscreenenter"",""0"",""2725""
""fullscreenexit"",""65"",""395775""
","
","
","""event"",""trial"",""time""
""fullscreenenter"",""0"",""2725""
","""event"",""trial"",""time""
""fullscreenexit"",""65"",""395775""
","null","<p></p>","null","","","","","","","","","","","","","","","","","","","","","","",""
"","do_trial","174","754198","0.0-97.0-0.0","""event"",""trial"",""time""
""fullscreenenter"",""0"",""2725""
""fullscreenexit"",""65"",""395775""
","
","
","""event"",""trial"",""time""
""fullscreenenter"",""0"",""2725""
","""event"",""trial"",""time""
""fullscreenexit"",""65"",""395775""
","392.3999999985099","","","","","","","","49","0,0,0","1","city","39","probe-12","0.6842995597798064","0.2791570718370725","0.10595340238310641","0","","","","","","","",""
"","html-keyboard-response","175","755204","0.0-97.0-1.0","""event"",""trial"",""time""
""fullscreenenter"",""0"",""2725""
""fullscreenexit"",""65"",""395775""
","
","
","""event"",""trial"",""time""
""fullscreenenter"",""0"",""2725""
","""event"",""trial"",""time""
""fullscreenexit"",""65"",""395775""
","null","<p></p>","null","","","","","","","","","","","","","","","","","","","","","","",""
"","do_trial","176","760910","0.0-98.0-0.0","""event"",""trial"",""time""
""fullscreenenter"",""0"",""2725""
""fullscreenexit"",""65"",""395775""
","
","
","""event"",""trial"",""time""
""fullscreenenter"",""0"",""2725""
","""event"",""trial"",""time""
""fullscreenexit"",""65"",""395775""
","1160.5","","","","","","","","49","1,0,0","1","city","40","probe-08","0.7643848282043446","0.19612812369886587","0.05285600404126056","1","","","","","","","",""
"","html-keyboard-response","177","761915","0.0-98.0-1.0","""event"",""trial"",""time""
""fullscreenenter"",""0"",""2725""
""fullscreenexit"",""65"",""395775""
","
","
","""event"",""trial"",""time""
""fullscreenenter"",""0"",""2725""
","""event"",""trial"",""time""
""fullscreenexit"",""65"",""395775""
","null","<p></p>","null","","","","","","","","","","","","","","","","","","","","","","",""
"","do_trial","178","767042","0.0-99.0-0.0","""event"",""trial"",""time""
""fullscreenenter"",""0"",""2725""
""fullscreenexit"",""65"",""395775""
","
","
","""event"",""trial"",""time""
""fullscreenenter"",""0"",""2725""
","""event"",""trial"",""time""
""fullscreenexit"",""65"",""395775""
","585.5999999977648","","","","","","","","49","1,0,0","1","city","41","probe-168","0.7736568593152761","0.14904337662757633","0.16632012129759813","1","","","","","","","",""
"","html-keyboard-response","179","768046","0.0-99.0-1.0","""event"",""trial"",""time""
""fullscreenenter"",""0"",""2725""
""fullscreenexit"",""65"",""395775""
","
","
","""event"",""trial"",""time""
""fullscreenenter"",""0"",""2725""
","""event"",""trial"",""time""
""fullscreenexit"",""65"",""395775""
","null","<p></p>","null","","","","","","","","","","","","","","","","","","","","","","",""
"","do_trial","180","772907","0.0-100.0-0.0","""event"",""trial"",""time""
""fullscreenenter"",""0"",""2725""
""fullscreenexit"",""65"",""395775""
","
","
","""event"",""trial"",""time""
""fullscreenenter"",""0"",""2725""
","""event"",""trial"",""time""
""fullscreenexit"",""65"",""395775""
","322","","","","","","","","51","0,0,0","1","city","42","probe-222","0.45393533821705845","0.18610177223128788","0.3898007584949235","0","","","","","","","",""
"","html-keyboard-response","181","773914","0.0-100.0-1.0","""event"",""trial"",""time""
""fullscreenenter"",""0"",""2725""
""fullscreenexit"",""65"",""395775""
","
","
","""event"",""trial"",""time""
""fullscreenenter"",""0"",""2725""
","""event"",""trial"",""time""
""fullscreenexit"",""65"",""395775""
","null","<p></p>","null","","","","","","","","","","","","","","","","","","","","","","",""
"","do_trial","182","779010","0.0-101.0-0.0","""event"",""trial"",""time""
""fullscreenenter"",""0"",""2725""
""fullscreenexit"",""65"",""395775""
","
","
","""event"",""trial"",""time""
""fullscreenenter"",""0"",""2725""
","""event"",""trial"",""time""
""fullscreenexit"",""65"",""395775""
","551","","","","","","","","51","0,0,1","1","city","43","probe-175","0.36623468053300684","0.07289430100602043","0.6659602724196404","1","","","","","","","",""
"","html-keyboard-response","183","780014","0.0-101.0-1.0","""event"",""trial"",""time""
""fullscreenenter"",""0"",""2725""
""fullscreenexit"",""65"",""395775""
","
","
","""event"",""trial"",""time""
""fullscreenenter"",""0"",""2725""
","""event"",""trial"",""time""
""fullscreenexit"",""65"",""395775""
","null","<p></p>","null","","","","","","","","","","","","","","","","","","","","","","",""
"","do_trial","184","785324","0.0-102.0-0.0","""event"",""trial"",""time""
""fullscreenenter"",""0"",""2725""
""fullscreenexit"",""65"",""395775""
","
","
","""event"",""trial"",""time""
""fullscreenenter"",""0"",""2725""
","""event"",""trial"",""time""
""fullscreenexit"",""65"",""395775""
","764.4000000022352","","","","","","","","50","0,0,1","1","city","44","probe-85","0.17349412692563446","0.0799028916223645","0.5171248586902504","0","","","","","","","",""
"","html-keyboard-response","185","786330","0.0-102.0-1.0","""event"",""trial"",""time""
""fullscreenenter"",""0"",""2725""
""fullscreenexit"",""65"",""395775""
","
","
","""event"",""trial"",""time""
""fullscreenenter"",""0"",""2725""
","""event"",""trial"",""time""
""fullscreenexit"",""65"",""395775""
","null","<p></p>","null","","","","","","","","","","","","","","","","","","","","","","",""
"","do_trial","186","791604","0.0-103.0-0.0","""event"",""trial"",""time""
""fullscreenenter"",""0"",""2725""
""fullscreenexit"",""65"",""395775""
","
","
","""event"",""trial"",""time""
""fullscreenenter"",""0"",""2725""
","""event"",""trial"",""time""
""fullscreenexit"",""65"",""395775""
","730.8000000007451","","","","","","","","49","1,0,0","1","city","45","probe-30","0.3363264949912936","0.08578450892431262","0.5450387372628372","1","","","","","","","",""
"","html-keyboard-response","187","792610","0.0-103.0-1.0","""event"",""trial"",""time""
""fullscreenenter"",""0"",""2725""
""fullscreenexit"",""65"",""395775""
","
","
","""event"",""trial"",""time""
""fullscreenenter"",""0"",""2725""
","""event"",""trial"",""time""
""fullscreenexit"",""65"",""395775""
","null","<p></p>","null","","","","","","","","","","","","","","","","","","","","","","",""
"","do_trial","188","797723","0.0-104.0-0.0","""event"",""trial"",""time""
""fullscreenenter"",""0"",""2725""
""fullscreenexit"",""65"",""395775""
","
","
","""event"",""trial"",""time""
""fullscreenenter"",""0"",""2725""
","""event"",""trial"",""time""
""fullscreenexit"",""65"",""395775""
","567.3000000007451","","","","","","","","51","0,0,0","1","city","46","probe-205","0.39364819975061943","0.16832362337000306","0.5109558932502618","0","","","","","","","",""
"","html-keyboard-response","189","798729","0.0-104.0-1.0","""event"",""trial"",""time""
""fullscreenenter"",""0"",""2725""
""fullscreenexit"",""65"",""395775""
","
","
","""event"",""trial"",""time""
""fullscreenenter"",""0"",""2725""
","""event"",""trial"",""time""
""fullscreenexit"",""65"",""395775""
","null","<p></p>","null","","","","","","","","","","","","","","","","","","","","","","",""
"","do_trial","190","803846","0.0-105.0-0.0","""event"",""trial"",""time""
""fullscreenenter"",""0"",""2725""
""fullscreenexit"",""65"",""395775""
","
","
","""event"",""trial"",""time""
""fullscreenenter"",""0"",""2725""
","""event"",""trial"",""time""
""fullscreenexit"",""65"",""395775""
","574.3999999985099","","","","","","","","50","1,1,1","1","city","47","probe-46","0.3608858332211192","0.0559265765575698","0.471859462909232","1","","","","","","","",""
"","html-keyboard-response","191","804852","0.0-105.0-1.0","""event"",""trial"",""time""
""fullscreenenter"",""0"",""2725""
""fullscreenexit"",""65"",""395775""
","
","
","""event"",""trial"",""time""
""fullscreenenter"",""0"",""2725""
","""event"",""trial"",""time""
""fullscreenexit"",""65"",""395775""
","null","<p></p>","null","","","","","","","","","","","","","","","","","","","","","","",""
"","do_trial","192","809973","0.0-106.0-0.0","""event"",""trial"",""time""
""fullscreenenter"",""0"",""2725""
""fullscreenexit"",""65"",""395775""
","
","
","""event"",""trial"",""time""
""fullscreenenter"",""0"",""2725""
","""event"",""trial"",""time""
""fullscreenexit"",""65"",""395775""
","575.3000000007451","","","","","","","","49","1,0,0","1","city","48","probe-179","0.3518096701967913","0.15198064230069513","0.5078919160989027","1","","","","","","","",""
"","html-keyboard-response","193","810979","0.0-106.0-1.0","""event"",""trial"",""time""
""fullscreenenter"",""0"",""2725""
""fullscreenexit"",""65"",""395775""
","
","
","""event"",""trial"",""time""
""fullscreenenter"",""0"",""2725""
","""event"",""trial"",""time""
""fullscreenexit"",""65"",""395775""
","null","<p></p>","null","","","","","","","","","","","","","","","","","","","","","","",""
"","do_trial","194","816329","0.0-107.0-0.0","""event"",""trial"",""time""
""fullscreenenter"",""0"",""2725""
""fullscreenexit"",""65"",""395775""
","
","
","""event"",""trial"",""time""
""fullscreenenter"",""0"",""2725""
","""event"",""trial"",""time""
""fullscreenexit"",""65"",""395775""
","808.6999999992549","","","","","","","","49","0,1,0","1","city","49","probe-139","0.23592365633700838","0.06509061245028931","0.5664419305953333","0","","","","","","","",""
"","html-keyboard-response","195","817335","0.0-107.0-1.0","""event"",""trial"",""time""
""fullscreenenter"",""0"",""2725""
""fullscreenexit"",""65"",""395775""
","
","
","""event"",""trial"",""time""
""fullscreenenter"",""0"",""2725""
","""event"",""trial"",""time""
""fullscreenexit"",""65"",""395775""
","null","<p></p>","null","","","","","","","","","","","","","","","","","","","","","","",""
"","do_trial","196","822692","0.0-108.0-0.0","""event"",""trial"",""time""
""fullscreenenter"",""0"",""2725""
""fullscreenexit"",""65"",""395775""
","
","
","""event"",""trial"",""time""
""fullscreenenter"",""0"",""2725""
","""event"",""trial"",""time""
""fullscreenexit"",""65"",""395775""
","814.0999999977648","","","","","","","","51","0,0,0","1","city","50","probe-114","0.06466995500711245","0.0787426206270553","0.5246401694339007","0","","","","","","","",""
"","html-keyboard-response","197","823695","0.0-108.0-1.0","""event"",""trial"",""time""
""fullscreenenter"",""0"",""2725""
""fullscreenexit"",""65"",""395775""
","
","
","""event"",""trial"",""time""
""fullscreenenter"",""0"",""2725""
","""event"",""trial"",""time""
""fullscreenexit"",""65"",""395775""
","null","<p></p>","null","","","","","","","","","","","","","","","","","","","","","","",""
"","do_trial","198","828652","0.0-109.0-0.0","""event"",""trial"",""time""
""fullscreenenter"",""0"",""2725""
""fullscreenexit"",""65"",""395775""
","
","
","""event"",""trial"",""time""
""fullscreenenter"",""0"",""2725""
","""event"",""trial"",""time""
""fullscreenexit"",""65"",""395775""
","410.4000000022352","","","","","","","","50","0,0,0","1","city","51","probe-226","0.22666963579915128","0.07993888838927513","0.6537267307486327","0","","","","","","","",""
"","html-keyboard-response","199","829655","0.0-109.0-1.0","""event"",""trial"",""time""
""fullscreenenter"",""0"",""2725""
""fullscreenexit"",""65"",""395775""
","
","
","""event"",""trial"",""time""
""fullscreenenter"",""0"",""2725""
","""event"",""trial"",""time""
""fullscreenexit"",""65"",""395775""
","null","<p></p>","null","","","","","","","","","","","","","","","","","","","","","","",""
"","do_trial","200","834595","0.0-110.0-0.0","""event"",""trial"",""time""
""fullscreenenter"",""0"",""2725""
""fullscreenexit"",""65"",""395775""
","
","
","""event"",""trial"",""time""
""fullscreenenter"",""0"",""2725""
","""event"",""trial"",""time""
""fullscreenexit"",""65"",""395775""
","401","","","","","","","","50","0,1,1","1","city","52","probe-25","0.17589186306977947","0.08720512198617453","0.583950095343911","1","","","","","","","",""
"","html-keyboard-response","201","835602","0.0-110.0-1.0","""event"",""trial"",""time""
""fullscreenenter"",""0"",""2725""
""fullscreenexit"",""65"",""395775""
","
","
","""event"",""trial"",""time""
""fullscreenenter"",""0"",""2725""
","""event"",""trial"",""time""
""fullscreenexit"",""65"",""395775""
","null","<p></p>","null","","","","","","","","","","","","","","","","","","","","","","",""
"","do_trial","202","840659","0.0-111.0-0.0","""event"",""trial"",""time""
""fullscreenenter"",""0"",""2725""
""fullscreenexit"",""65"",""395775""
","
","
","""event"",""trial"",""time""
""fullscreenenter"",""0"",""2725""
","""event"",""trial"",""time""
""fullscreenexit"",""65"",""395775""
","511.3999999985099","","","","","","","","50","0,0,1","1","city","53","probe-118","0.3600401879160497","0.19431511832225284","0.6348553015221583","0","","","","","","","",""
"","html-keyboard-response","203","841662","0.0-111.0-1.0","""event"",""trial"",""time""
""fullscreenenter"",""0"",""2725""
""fullscreenexit"",""65"",""395775""
","
","
","""event"",""trial"",""time""
""fullscreenenter"",""0"",""2725""
","""event"",""trial"",""time""
""fullscreenexit"",""65"",""395775""
","null","<p></p>","null","","","","","","","","","","","","","","","","","","","","","","",""
"","do_trial","204","846511","0.0-112.0-0.0","""event"",""trial"",""time""
""fullscreenenter"",""0"",""2725""
""fullscreenexit"",""65"",""395775""
","
","
","""event"",""trial"",""time""
""fullscreenenter"",""0"",""2725""
","""event"",""trial"",""time""
""fullscreenexit"",""65"",""395775""
","304.19999999925494","","","","","","","","49","0,0,1","1","city","54","probe-180","0.3887782102046707","0.15608569676338543","0.6339650918443265","0","","","","","","","",""
"","html-keyboard-response","205","847517","0.0-112.0-1.0","""event"",""trial"",""time""
""fullscreenenter"",""0"",""2725""
""fullscreenexit"",""65"",""395775""
","
","
","""event"",""trial"",""time""
""fullscreenenter"",""0"",""2725""
","""event"",""trial"",""time""
""fullscreenexit"",""65"",""395775""
","null","<p></p>","null","","","","","","","","","","","","","","","","","","","","","","",""
"","do_trial","206","852455","0.0-113.0-0.0","""event"",""trial"",""time""
""fullscreenenter"",""0"",""2725""
""fullscreenexit"",""65"",""395775""
","
","
","""event"",""trial"",""time""
""fullscreenenter"",""0"",""2725""
","""event"",""trial"",""time""
""fullscreenexit"",""65"",""395775""
","394","","","","","","","","51","1,0,0","1","city","55","probe-121","0.403157335872986","0.16831390840580174","0.5597039150269026","0","","","","","","","",""
"","html-keyboard-response","207","853459","0.0-113.0-1.0","""event"",""trial"",""time""
""fullscreenenter"",""0"",""2725""
""fullscreenexit"",""65"",""395775""
","
","
","""event"",""trial"",""time""
""fullscreenenter"",""0"",""2725""
","""event"",""trial"",""time""
""fullscreenexit"",""65"",""395775""
","null","<p></p>","null","","","","","","","","","","","","","","","","","","","","","","",""
"","do_trial","208","858392","0.0-114.0-0.0","""event"",""trial"",""time""
""fullscreenenter"",""0"",""2725""
""fullscreenexit"",""65"",""395775""
","
","
","""event"",""trial"",""time""
""fullscreenenter"",""0"",""2725""
","""event"",""trial"",""time""
""fullscreenexit"",""65"",""395775""
","386.70000000298023","","","","","","","","49","1,0,1","1","city","56","probe-54","0.34295743047690275","0.1682345330980008","0.7091567494649362","1","","","","","","","",""
"","html-keyboard-response","209","859398","0.0-114.0-1.0","""event"",""trial"",""time""
""fullscreenenter"",""0"",""2725""
""fullscreenexit"",""65"",""395775""
","
","
","""event"",""trial"",""time""
""fullscreenenter"",""0"",""2725""
","""event"",""trial"",""time""
""fullscreenexit"",""65"",""395775""
","null","<p></p>","null","","","","","","","","","","","","","","","","","","","","","","",""
"","do_trial","210","864421","0.0-115.0-0.0","""event"",""trial"",""time""
""fullscreenenter"",""0"",""2725""
""fullscreenexit"",""65"",""395775""
","
","
","""event"",""trial"",""time""
""fullscreenenter"",""0"",""2725""
","""event"",""trial"",""time""
""fullscreenexit"",""65"",""395775""
","477.4000000022352","","","","","","","","51","0,0,1","1","city","57","probe-68","0.42644529292045186","0.21887812849903265","0.6471210750493233","1","","","","","","","",""
"","html-keyboard-response","211","865427","0.0-115.0-1.0","""event"",""trial"",""time""
""fullscreenenter"",""0"",""2725""
""fullscreenexit"",""65"",""395775""
","
","
","""event"",""trial"",""time""
""fullscreenenter"",""0"",""2725""
","""event"",""trial"",""time""
""fullscreenexit"",""65"",""395775""
","null","<p></p>","null","","","","","","","","","","","","","","","","","","","","","","",""
"","do_trial","212","870510","0.0-116.0-0.0","""event"",""trial"",""time""
""fullscreenenter"",""0"",""2725""
""fullscreenexit"",""65"",""395775""
","
","
","""event"",""trial"",""time""
""fullscreenenter"",""0"",""2725""
","""event"",""trial"",""time""
""fullscreenexit"",""65"",""395775""
","543.1999999992549","","","","","","","","49","0,1,0","1","city","58","probe-109","0.29929743528826036","0.17312026979306647","0.6144422226071203","0","","","","","","","",""
"","html-keyboard-response","213","871517","0.0-116.0-1.0","""event"",""trial"",""time""
""fullscreenenter"",""0"",""2725""
""fullscreenexit"",""65"",""395775""
","
","
","""event"",""trial"",""time""
""fullscreenenter"",""0"",""2725""
","""event"",""trial"",""time""
""fullscreenexit"",""65"",""395775""
","null","<p></p>","null","","","","","","","","","","","","","","","","","","","","","","",""
"","do_trial","214","876211","0.0-117.0-0.0","""event"",""trial"",""time""
""fullscreenenter"",""0"",""2725""
""fullscreenexit"",""65"",""395775""
","
","
","""event"",""trial"",""time""
""fullscreenenter"",""0"",""2725""
","""event"",""trial"",""time""
""fullscreenexit"",""65"",""395775""
","152","","","","","","","","49","0,0,0","1","city","59","probe-218","0.23719949854660033","0.2112506422835802","0.6706362715073089","0","","","","","","","",""
"","html-keyboard-response","215","877217","0.0-117.0-1.0","""event"",""trial"",""time""
""fullscreenenter"",""0"",""2725""
""fullscreenexit"",""65"",""395775""
","
","
","""event"",""trial"",""time""
""fullscreenenter"",""0"",""2725""
","""event"",""trial"",""time""
""fullscreenexit"",""65"",""395775""
