"success","trial_type","trial_index","time_elapsed","internal_node_id","interactions","blur_events","focus_events","fullscreenenter_events","fullscreenexit_events","rt","stimulus","key_press","subject_id","participant_id","age","gender","prompt","response","choice_outcomes","context_n","context_img_id","trial_n","probe_img_id","pR_red","pR_white","pR_black","outcome","contextArray_ind","validImageProbes","invalidImageProbes","pRew_Red","pRew_White","pRew_Black","availableForMemProbe","choice_blocks"
"true","fullscreen","0","5286","0.0-0.0","""event"",""trial"",""time""
""fullscreenenter"",""0"",""4282""
","
","
","""event"",""trial"",""time""
""fullscreenenter"",""0"",""4282""
","
","","","","","","","","","","","","","","","","","","","","","","","","","",""
"","pavlovia","1","5288","0.0-1.0","""event"",""trial"",""time""
""fullscreenenter"",""0"",""4282""
","
","
","""event"",""trial"",""time""
""fullscreenenter"",""0"",""4282""
","
","","","","","","","","","","","","","","","","","","","","","","","","","",""
"","instruc1","2","50375","0.0-2.0","""event"",""trial"",""time""
""fullscreenenter"",""0"",""4282""
","
","
","""event"",""trial"",""time""
""fullscreenenter"",""0"",""4282""
","
","null","run_exp/static/audio/clip_1_welcome.m4a","null","1463","1692","19","Male","<div class='center'><p>Welcome! This is the first part of the study. It will last ~30 minutes. In part 1 and part 2 of the study, you are the head captain of a pirate ship traveling around the world to different islands. You will play a few different games throughout these two parts. Here is an overview of them:</p><br><p>Part 1 (today)</p><p>1. Instructions, practice game, and quiz</p><p>2. Pick a pirate game on 6 different islands</p><br><p>Part 2 (tomorrow)</p><p>3. Pick a pirate game and memory game</p><p>4. Where did you see this ship? </p></div>","","","","","","","","","","","","","","","","","",""
"","html-keyboard-response","3","51496","0.0-3.0","""event"",""trial"",""time""
""fullscreenenter"",""0"",""4282""
","
","
","""event"",""trial"",""time""
""fullscreenenter"",""0"",""4282""
","
","1120.699999988079","<div class='center'><p>Welcome! This is the first part of the study. It will last ~30 minutes. In part 1 and part 2 of the study, you are the head captain of a pirate ship traveling around the world to different islands. You will play a few different games throughout these two parts. Here is an overview of them:</p><br><p>Part 1 (today)</p><p>1. Instructions, practice game, and quiz</p><p>2. Pick a pirate game on 6 different islands</p><br><p>Part 2 (tomorrow)</p><p>3. Pick a pirate game and memory game</p><p>4. Where did you see this ship? </p><p><b>[Press the space bar to continue]</b></p></div>","32","","","","","","","","","","","","","","","","","","","","","","",""
"","instruc2","4","56815","0.0-4.0","""event"",""trial"",""time""
""fullscreenenter"",""0"",""4282""
","
","
","""event"",""trial"",""time""
""fullscreenenter"",""0"",""4282""
","
","null","run_exp/static/audio/clip_2_different_places.m4a","null","","","","","<div class='center'><p>Today, you’ll visit these 6 islands on your journey. You'll be able to see these islands from your ship.</p><p><img src='run_exp/static/images/contexts/all_contexts.png' height='500'></p></div>","","","","","","","","","","","","","","","","","",""
"","html-keyboard-response","5","62802","0.0-5.0","""event"",""trial"",""time""
""fullscreenenter"",""0"",""4282""
","
","
","""event"",""trial"",""time""
""fullscreenenter"",""0"",""4282""
","
","5986.099999964237","<div class='center'><p>Today, you’ll visit these 6 islands on your journey. You'll be able to see these islands from your ship.</p><p><img src='run_exp/static/images/contexts/all_contexts.png' height='500'></p><p><b>[Press the space bar to continue]</b></p></div>","32","","","","","","","","","","","","","","","","","","","","","","",""
"","instruc3","6","72495","0.0-6.0","""event"",""trial"",""time""
""fullscreenenter"",""0"",""4282""
","
","
","""event"",""trial"",""time""
""fullscreenenter"",""0"",""4282""
","
","null","run_exp/static/audio/clip_3_goal_of_game_1.m4a","null","","","","","<div class='center'><p> The pirates on your ship will rob other ships as they leave the island.</p> These ships have just sold their goods to the islanders, so they will be filled with lots and lots of gold.</p><p><img src='run_exp/static/images/tutorial/ship_center.png' height='400'></p></div>","","","","","","","","","","","","","","","","","",""
"","html-keyboard-response","7","85651","0.0-7.0","""event"",""trial"",""time""
""fullscreenenter"",""0"",""4282""
","
","
","""event"",""trial"",""time""
""fullscreenenter"",""0"",""4282""
","
","13155.5","<div class='center'><p> The pirates on your ship will rob other ships as they leave the island.</p> These ships have just sold their goods to the islanders, so they will be filled with lots and lots of gold.</p><p><img src='run_exp/static/images/tutorial/ship_center.png' height='400'></p><p><b>[Press the space bar to continue]</b></p></div>","32","","","","","","","","","","","","","","","","","","","","","","",""
"","instruc4","8","113618","0.0-8.0","""event"",""trial"",""time""
""fullscreenenter"",""0"",""4282""
","
","
","""event"",""trial"",""time""
""fullscreenenter"",""0"",""4282""
","
","null","run_exp/static/audio/clip_4_goal_of_game_2.m4a","null","","","","","<div class='center'><p>As the head captain, you do not have to rob any ships yourself. Another pirate will be doing the robbing for you. First, you will choose a pirate to rob the next ship.</p><p><img src='run_exp/static/images/tutorial/pirates_all_crop.png' height='200'></p><p>Then, you'll see if the pirate successfully robbed the ship of their gold. If they were successful, then you'll get a stack of gold coins like this:</p><p><img src='run_exp/static/images/tutorial/reward.png' height='150'></p><p> If they were <b>not</b> successful, then you'll get no gold coins, and you'll see a big red x like this: </p><p><img src='run_exp/static/images/tutorial/reward_no.png' height='150'></p><p> How much bonus money you make is based on how many gold coins you collect.</p><div>","","","","","","","","","","","","","","","","","",""
"","html-keyboard-response","9","159468","0.0-9.0","""event"",""trial"",""time""
""fullscreenenter"",""0"",""4282""
","
","
","""event"",""trial"",""time""
""fullscreenenter"",""0"",""4282""
","
","45849.09999996424","<div class='center'><p>As the head captain, you do not have to rob any ships yourself. Another pirate will be doing the robbing for you. First, you will choose a pirate to rob the next ship.</p><p><img src='run_exp/static/images/tutorial/pirates_all_crop.png' height='200'></p><p>Then, you'll see if the pirate successfully robbed the ship of their gold. If they were successful, then you'll get a stack of gold coins like this:</p><p><img src='run_exp/static/images/tutorial/reward.png' height='150'></p><p> If they were <b>not</b> successful, then you'll get no gold coins, and you'll see a big red x like this: </p><p><img src='run_exp/static/images/tutorial/reward_no.png' height='150'></p><p> How much bonus money you make is based on how many gold coins you collect.</p<p><b>[Press the space bar to continue]</b></p></div>","32","","","","","","","","","","","","","","","","","","","","","","",""
"","instruc5","10","178567","0.0-10.0","""event"",""trial"",""time""
""fullscreenenter"",""0"",""4282""
","
","
","""event"",""trial"",""time""
""fullscreenenter"",""0"",""4282""
","
","19098.19999998808","run_exp/static/audio/clip_5_probabilistic.m4a","49","","","","","<div class='center'><p>Even the most skilled pirate can not rob EVERY ship.</p><p> Some ships will have very strong protections against pirate attacks.</p><p> Blue beard, here, is very, very good at robbing ships, but he won't be successful every time he tries to rob one.</p><p> You can press the <b>‘1’</b> key on the keyboard to choose him.</p><p> Try choosing him 10 times to see how often he succeeds at robbing a ship. </p><p><img src='run_exp/static/images/tutorial/blue.png' height='500'></p></div>","","","","","","","","","","","","","","","","","",""
"","html-keyboard-response","11","180084","0.0-11.0","""event"",""trial"",""time""
""fullscreenenter"",""0"",""4282""
","
","
","""event"",""trial"",""time""
""fullscreenenter"",""0"",""4282""
","
","null","<div class='center'><p><img src='run_exp/static/images/tutorial/blue_win.png' height='500'></p></div>","null","","","","","","","","","","","","","","","","","","","","","","",""
"","html-keyboard-response","12","181085","0.0-12.0","""event"",""trial"",""time""
""fullscreenenter"",""0"",""4282""
","
","
","""event"",""trial"",""time""
""fullscreenenter"",""0"",""4282""
","
","1000.8999999761581","<div class='center'><img src='run_exp/static/images/tutorial/blue.png' height='500'></p></div>","49","","","","","","","","","","","","","","","","","","","","","","",""
"","html-keyboard-response","13","182587","0.0-13.0","""event"",""trial"",""time""
""fullscreenenter"",""0"",""4282""
","
","
","""event"",""trial"",""time""
""fullscreenenter"",""0"",""4282""
","
","null","<div class='center'><p><img src='run_exp/static/images/tutorial/blue_win.png' height='500'></p></div>","null","","","","","","","","","","","","","","","","","","","","","","",""
"","html-keyboard-response","14","182974","0.0-14.0","""event"",""trial"",""time""
""fullscreenenter"",""0"",""4282""
","
","
","""event"",""trial"",""time""
""fullscreenenter"",""0"",""4282""
","
","386.69999998807907","<div class='center'><img src='run_exp/static/images/tutorial/blue.png' height='500'></p></div>","49","","","","","","","","","","","","","","","","","","","","","","",""
"","html-keyboard-response","15","184485","0.0-15.0","""event"",""trial"",""time""
""fullscreenenter"",""0"",""4282""
","
","
","""event"",""trial"",""time""
""fullscreenenter"",""0"",""4282""
","
","null","<div class='center'><p><img src='run_exp/static/images/tutorial/blue_win.png' height='500'></p></div>","null","","","","","","","","","","","","","","","","","","","","","","",""
"","html-keyboard-response","16","184813","0.0-16.0","""event"",""trial"",""time""
""fullscreenenter"",""0"",""4282""
","
","
","""event"",""trial"",""time""
""fullscreenenter"",""0"",""4282""
","
","328.30000001192093","<div class='center'><img src='run_exp/static/images/tutorial/blue.png' height='500'></p></div>","49","","","","","","","","","","","","","","","","","","","","","","",""
"","html-keyboard-response","17","186318","0.0-17.0","""event"",""trial"",""time""
""fullscreenenter"",""0"",""4282""
","
","
","""event"",""trial"",""time""
""fullscreenenter"",""0"",""4282""
","
","null","<div class='center'><p><img src='run_exp/static/images/tutorial/blue_no_win.png' height='500'></p></div>","null","","","","","","","","","","","","","","","","","","","","","","",""
"","html-keyboard-response","18","186661","0.0-18.0","""event"",""trial"",""time""
""fullscreenenter"",""0"",""4282""
","
","
","""event"",""trial"",""time""
""fullscreenenter"",""0"",""4282""
","
","343.19999998807907","<div class='center'><img src='run_exp/static/images/tutorial/blue.png' height='500'></p></div>","49","","","","","","","","","","","","","","","","","","","","","","",""
"","html-keyboard-response","19","188168","0.0-19.0","""event"",""trial"",""time""
""fullscreenenter"",""0"",""4282""
","
","
","""event"",""trial"",""time""
""fullscreenenter"",""0"",""4282""
","
","null","<div class='center'><p><img src='run_exp/static/images/tutorial/blue_win.png' height='500'></p></div>","null","","","","","","","","","","","","","","","","","","","","","","",""
"","html-keyboard-response","20","188510","0.0-20.0","""event"",""trial"",""time""
""fullscreenenter"",""0"",""4282""
","
","
","""event"",""trial"",""time""
""fullscreenenter"",""0"",""4282""
","
","341.19999998807907","<div class='center'><img src='run_exp/static/images/tutorial/blue.png' height='500'></p></div>","49","","","","","","","","","","","","","","","","","","","","","","",""
"","html-keyboard-response","21","190019","0.0-21.0","""event"",""trial"",""time""
""fullscreenenter"",""0"",""4282""
","
","
","""event"",""trial"",""time""
""fullscreenenter"",""0"",""4282""
","
","null","<div class='center'><p><img src='run_exp/static/images/tutorial/blue_win.png' height='500'></p></div>","null","","","","","","","","","","","","","","","","","","","","","","",""
"","html-keyboard-response","22","190534","0.0-22.0","""event"",""trial"",""time""
""fullscreenenter"",""0"",""4282""
","
","
","""event"",""trial"",""time""
""fullscreenenter"",""0"",""4282""
","
","514.3999999761581","<div class='center'><img src='run_exp/static/images/tutorial/blue.png' height='500'></p></div>","49","","","","","","","","","","","","","","","","","","","","","","",""
"","html-keyboard-response","23","192048","0.0-23.0","""event"",""trial"",""time""
""fullscreenenter"",""0"",""4282""
","
","
","""event"",""trial"",""time""
""fullscreenenter"",""0"",""4282""
","
","null","<div class='center'><p><img src='run_exp/static/images/tutorial/blue_win.png' height='500'></p></div>","null","","","","","","","","","","","","","","","","","","","","","","",""
"","html-keyboard-response","24","192648","0.0-24.0","""event"",""trial"",""time""
""fullscreenenter"",""0"",""4282""
","
","
","""event"",""trial"",""time""
""fullscreenenter"",""0"",""4282""
","
","599.8999999761581","<div class='center'><img src='run_exp/static/images/tutorial/blue.png' height='500'></p></div>","49","","","","","","","","","","","","","","","","","","","","","","",""
"","html-keyboard-response","25","194156","0.0-25.0","""event"",""trial"",""time""
""fullscreenenter"",""0"",""4282""
","
","
","""event"",""trial"",""time""
""fullscreenenter"",""0"",""4282""
","
","null","<div class='center'><p><img src='run_exp/static/images/tutorial/blue_no_win.png' height='500'></p></div>","null","","","","","","","","","","","","","","","","","","","","","","",""
"","html-keyboard-response","26","194630","0.0-26.0","""event"",""trial"",""time""
""fullscreenenter"",""0"",""4282""
","
","
","""event"",""trial"",""time""
""fullscreenenter"",""0"",""4282""
","
","473.5","<div class='center'><img src='run_exp/static/images/tutorial/blue.png' height='500'></p></div>","49","","","","","","","","","","","","","","","","","","","","","","",""
"","html-keyboard-response","27","196137","0.0-27.0","""event"",""trial"",""time""
""fullscreenenter"",""0"",""4282""
","
","
","""event"",""trial"",""time""
""fullscreenenter"",""0"",""4282""
","
","null","<div class='center'><p><img src='run_exp/static/images/tutorial/blue_win.png' height='500'></p></div>","null","","","","","","","","","","","","","","","","","","","","","","",""
"","html-keyboard-response","28","197311","0.0-28.0","""event"",""trial"",""time""
""fullscreenenter"",""0"",""4282""
","
","
","""event"",""trial"",""time""
""fullscreenenter"",""0"",""4282""
","
","1173.4000000357628","<div class='center'><img src='run_exp/static/images/tutorial/blue.png' height='500'></p></div>","49","","","","","","","","","","","","","","","","","","","","","","",""
"","html-keyboard-response","29","198821","0.0-29.0","""event"",""trial"",""time""
""fullscreenenter"",""0"",""4282""
","
","
","""event"",""trial"",""time""
""fullscreenenter"",""0"",""4282""
","
","null","<div class='center'><p><img src='run_exp/static/images/tutorial/blue_win.png' height='500'></p></div>","null","","","","","","","","","","","","","","","","","","","","","","",""
"","instruc6","30","204183","0.0-30.0","""event"",""trial"",""time""
""fullscreenenter"",""0"",""4282""
","
","
","""event"",""trial"",""time""
""fullscreenenter"",""0"",""4282""
","
","null","run_exp/static/audio/clip_6_blue_beard_outcome.m4a","null","","","","","<div class='center'><p> See, he succeeded in robbing the ships most of the time but not every time. </p></div>","","","","","","","","","","","","","","","","","",""
"","html-keyboard-response","31","205312","0.0-31.0","""event"",""trial"",""time""
""fullscreenenter"",""0"",""4282""
","
","
","""event"",""trial"",""time""
""fullscreenenter"",""0"",""4282""
","
","1128.0999999642372","<div class='center'><p> See, he succeeded in robbing the ships most of the time but not every time. </p><p><b>[Press the space bar to continue]</b></p></div>","32","","","","","","","","","","","","","","","","","","","","","","",""
"","audio-keyboard-response","32","224425","0.0-32.0","""event"",""trial"",""time""
""fullscreenenter"",""0"",""4282""
","
","
","""event"",""trial"",""time""
""fullscreenenter"",""0"",""4282""
","
","19113.100000023842","run_exp/static/audio/clip_7_pick_pirate.m4a","51","","","","","","","","","","","","","","","","","","","","","","",""
"","audio-keyboard-response","33","226697","0.0-33.0-0.0","""event"",""trial"",""time""
""fullscreenenter"",""0"",""4282""
","
","
","""event"",""trial"",""time""
""fullscreenenter"",""0"",""4282""
","
","2271.099999964237","run_exp/static/audio/clip_8_chosen_pirate_win.m4a","32","","","","","","","","","","","","","","","","","","","","","","",""
"","audio-keyboard-response","34","230211","0.0-33.0-1.0","""event"",""trial"",""time""
""fullscreenenter"",""0"",""4282""
","
","
","""event"",""trial"",""time""
""fullscreenenter"",""0"",""4282""
","
","3512.699999988079","run_exp/static/audio/clip_9_pick_a_pirate_again.m4a","51","","","","","","","","","","","","","","","","","","","","","","",""
"","audio-keyboard-response","35","232066","0.0-34.0-0.0","""event"",""trial"",""time""
""fullscreenenter"",""0"",""4282""
","
","
","""event"",""trial"",""time""
""fullscreenenter"",""0"",""4282""
","
","1854.3999999761581","run_exp/static/audio/clip_10_chosen_pirate_loss.m4a","32","","","","","","","","","","","","","","","","","","","","","","",""
"","instruc9","36","237564","0.0-35.0-0.0","""event"",""trial"",""time""
""fullscreenenter"",""0"",""4282""
","
","
","""event"",""trial"",""time""
""fullscreenenter"",""0"",""4282""
","
","null","run_exp/static/audio/clip_11_time_out.m4a","null","","","","","<div class='center'><p>If you don’t make your choice fast enough, you’ll have to wait a few seconds before you can make another one. </p><p><img src='run_exp/static/images/miscellaneous/hurry_up.png' height='500'></p></div>","","","","","","","","","","","","","","","","","",""
"","html-keyboard-response","37","238090","0.0-35.0-1.0","""event"",""trial"",""time""
""fullscreenenter"",""0"",""4282""
","
","
","""event"",""trial"",""time""
""fullscreenenter"",""0"",""4282""
","
","526.3000000119209","<div class='center'><p>If you don’t make your choice fast enough, you’ll have to wait a few seconds before you can make another one. </p><p><img src='run_exp/static/images/miscellaneous/hurry_up.png' height='500'></p><p><b>[Press the space bar to continue]</b></p></div>","32","","","","","","","","","","","","","","","","","","","","","","",""
"","instruc10","38","277183","0.0-35.0-2.0","""event"",""trial"",""time""
""fullscreenenter"",""0"",""4282""
","
","
","""event"",""trial"",""time""
""fullscreenenter"",""0"",""4282""
","
","null","run_exp/static/audio/clip_12_probe.m4a","null","","","","","<div class='center'><p>Once you've chosen a pirate, you’ll be shown the ship they are robbing. You will never rob the same ship twice. Ships can be told apart from one another by the image on them. These are the goods that they sell. See, this ship has a travel mug on it. </p><p> You’ll have to remember which island you saw each ship on. You will win more gold coins and hence more bonus money if you remember correctly! To help you remember, you can imagine a story. For example, here, you could imagine a mug full of water in the desert. Or, as another example, if on the forest island, your pirate robbed a ship with an apple on it, you could imagine an apple falling from a tree in the forest. </p><p><img src='run_exp/static/images/tutorial/example_probe.png' height='500'></p></div>","","","","","","","","","","","","","","","","","",""
"","html-keyboard-response","39","280623","0.0-35.0-3.0","""event"",""trial"",""time""
""fullscreenenter"",""0"",""4282""
","
","
","""event"",""trial"",""time""
""fullscreenenter"",""0"",""4282""
","
","3438.699999988079","<div class='center'><p>Once you've chosen a pirate, you’ll be shown the ship they are robbing. You will never rob the same ship twice. Ships can be told apart from one another by the image on them. These are the goods that they sell. See, this ship has a travel mug on it. </p><p> You’ll have to remember which island you saw each ship on. You will win more gold coins and hence more bonus money if you remember correctly! To help you remember, you can imagine a story. For example, here, you could imagine a mug full of water in the desert. Or, as another example, if on the forest island, your pirate robbed a ship with an apple on it, you could imagine an apple falling from a tree in the forest. </p><p><img src='run_exp/static/images/tutorial/example_probe.png' height='500'></p><p><b>[Press the space bar to continue]</b></p></div>","32","","","","","","","","","","","","","","","","","","","","","","",""
"","instruc11","40","297044","0.0-35.0-4.0","""event"",""trial"",""time""
""fullscreenenter"",""0"",""4282""
","
","
","""event"",""trial"",""time""
""fullscreenenter"",""0"",""4282""
","
","null","run_exp/static/audio/clip_13_changepoint.m4a","null","","","","","<div class='center'><p>How successful a pirate is at robbing ships will depend on the island you’re on.</p><p> A pirate may have visited this island many times before and gained a lot of practice robbing ships there.</p><p>So, they’re more likely to be successful than a pirate who has never visited the island before.</p></div>","","","","","","","","","","","","","","","","","",""
"","html-keyboard-response","41","299744","0.0-35.0-5.0","""event"",""trial"",""time""
""fullscreenenter"",""0"",""4282""
","
","
","""event"",""trial"",""time""
""fullscreenenter"",""0"",""4282""
","
","2700.300000011921","<div class='center'><p>How successful a pirate is at robbing ships will depend on the island you’re on.</p><p> A pirate may have visited this island many times before and gained a lot of practice robbing ships there.</p><p>So, they’re more likely to be successful than a pirate who has never visited the island before.</p><p><b>[Press the space bar to continue]</b></p></div>","32","","","","","","","","","","","","","","","","","","","","","","",""
"","instruc12","42","340843","0.0-35.0-6.0","""event"",""trial"",""time""
""fullscreenenter"",""0"",""4282""
","
","
","""event"",""trial"",""time""
""fullscreenenter"",""0"",""4282""
","
","null","run_exp/static/audio/clip_14_drift.m4a","null","","","","","<div class='center'><p>How successful a pirate is at robbing ships can also change over the time spent on the island. </p><p> Ships may hear from islanders about the pirates coming and will improve their protections against the attack. This may make it harder to rob them.</p><p> Ships may also become lazy and weaken the strength of their protections. This may make it easier to rob them.</p><br><p>Things are always changing on the high seas! So, try your best to pay attention!</p><p><img src='run_exp/static/images/tutorial/contingency.png' height='500'></p></div>","","","","","","","","","","","","","","","","","",""
"","html-keyboard-response","43","346925","0.0-35.0-7.0","""event"",""trial"",""time""
""fullscreenenter"",""0"",""4282""
","
","
","""event"",""trial"",""time""
""fullscreenenter"",""0"",""4282""
","
","6081.099999964237","<div class='center'><p>How successful a pirate is at robbing ships can also change over the time spent on the island. </p><p> Ships may hear from islanders about the pirates coming and will improve their protections against the attack. This may make it harder to rob them.</p><p> Ships may also become lazy and weaken the strength of their protections. This may make it easier to rob them.</p><br><p>Things are always changing on the high seas! So, try your best to pay attention!</p><p><img src='run_exp/static/images/tutorial/contingency.png' height='500'></p><p><b>[Press the space bar to continue]</b></p></div>","32","","","","","","","","","","","","","","","","","","","","","","",""
"","instruc13","44","382123","0.0-35.0-8.0","""event"",""trial"",""time""
""fullscreenenter"",""0"",""4282""
","
","
","""event"",""trial"",""time""
""fullscreenenter"",""0"",""4282""
","
","null","run_exp/static/audio/clip_15_summary.m4a","null","","","","","<div class='center'><p>Let's go over the instructions quickly again. You have two important things to do: </p><b><p> 1. Pick the pirate who is the best at robbing ships on the current island. </p></b><b><p> 2. Remember on which island a ship was robbed.</p> </b><p>The amount of bonus money you can win depends on both.</p><p><br><p>Let’s try a practice game. The game will start by showing you the pirates. First, pick a pirate using the <b> 1, 2, 3 </b> keys on your keyboard. When you are shown a ship, try to remember which island you’re on by making up a story.</p><p>This is just a practice game, so you’re not playing for money. </p><p> Good luck! This game will be very difficult but try your best!</p></div>","","","","","","","","","","","","","","","","","",""
"","html-keyboard-response","45","384217","0.0-35.0-9.0","""event"",""trial"",""time""
""fullscreenenter"",""0"",""4282""
","
","
","""event"",""trial"",""time""
""fullscreenenter"",""0"",""4282""
","
","2093","<div class='center'><p>Let's go over the instructions quickly again. You have two important things to do: </p><b><p> 1. Pick the pirate who is the best at robbing ships on the current island. </p></b><b><p> 2. Remember on which island a ship was robbed.</p> </b><p>The amount of bonus money you can win depends on both.</p><p><br><p>Let’s try a practice game. The game will start by showing you the pirates. First, pick a pirate using the <b> 1, 2, 3 </b> keys on your keyboard. When you are shown a ship, try to remember which island you’re on by making up a story.</p><p>This is just a practice game, so you’re not playing for money. </p><p> Good luck! This game will be very difficult but try your best!</p><p><b>[Press the space bar to continue]</b></p></div>","32","","","","","","","","","","","","","","","","","","","","","","",""
"","do_welcome","46","388234","0.0-35.0-10.0","""event"",""trial"",""time""
""fullscreenenter"",""0"",""4282""
","
","
","""event"",""trial"",""time""
""fullscreenenter"",""0"",""4282""
","
","null","","","","","","","","null","","","","","","","","","","","","","","","","",""
"","do_trial","47","394249","0.0-35.0-11.0","""event"",""trial"",""time""
""fullscreenenter"",""0"",""4282""
","
","
","""event"",""trial"",""time""
""fullscreenenter"",""0"",""4282""
","
","null","","","","","","","","null","1,0,0","","","","","","","","","","","","","","","",""
"","html-keyboard-response","48","395252","0.0-36.0-0.0","""event"",""trial"",""time""
""fullscreenenter"",""0"",""4282""
","
","
","""event"",""trial"",""time""
""fullscreenenter"",""0"",""4282""
","
","null","<p></p>","null","","","","","","","","","","","","","","","","","","","","","","",""
"","do_trial","49","400391","0.0-36.0-1.0","""event"",""trial"",""time""
""fullscreenenter"",""0"",""4282""
","
","
","""event"",""trial"",""time""
""fullscreenenter"",""0"",""4282""
","
","635.8000000119209","","","","","","","","51","1,0,0","","","","","","","","","","","","","","","",""
"","html-keyboard-response","50","401399","0.0-37.0-0.0","""event"",""trial"",""time""
""fullscreenenter"",""0"",""4282""
","
","
","""event"",""trial"",""time""
""fullscreenenter"",""0"",""4282""
","
","null","<p></p>","null","","","","","","","","","","","","","","","","","","","","","","",""
"","do_trial","51","407708","0.0-37.0-1.0","""event"",""trial"",""time""
""fullscreenenter"",""0"",""4282""
","
","
","""event"",""trial"",""time""
""fullscreenenter"",""0"",""4282""
","
","1800.3999999761581","","","","","","","","51","1,1,0","","","","","","","","","","","","","","","",""
"","html-keyboard-response","52","408715","0.0-38.0-0.0","""event"",""trial"",""time""
""fullscreenenter"",""0"",""4282""
","
","
","""event"",""trial"",""time""
""fullscreenenter"",""0"",""4282""
","
","null","<p></p>","null","","","","","","","","","","","","","","","","","","","","","","",""
"","do_trial","53","413974","0.0-38.0-1.0","""event"",""trial"",""time""
""fullscreenenter"",""0"",""4282""
","
","
","""event"",""trial"",""time""
""fullscreenenter"",""0"",""4282""
","
","743.5","","","","","","","","49","1,0,1","","","","","","","","","","","","","","","",""
"","html-keyboard-response","54","414980","0.0-39.0-0.0","""event"",""trial"",""time""
""fullscreenenter"",""0"",""4282""
","
","
","""event"",""trial"",""time""
""fullscreenenter"",""0"",""4282""
","
","null","<p></p>","null","","","","","","","","","","","","","","","","","","","","","","",""
"","do_trial","55","420157","0.0-39.0-1.0","""event"",""trial"",""time""
""fullscreenenter"",""0"",""4282""
","
","
","""event"",""trial"",""time""
""fullscreenenter"",""0"",""4282""
","
","669.5","","","","","","","","50","0,1,0","","","","","","","","","","","","","","","",""
"","html-keyboard-response","56","421163","0.0-40.0-0.0","""event"",""trial"",""time""
""fullscreenenter"",""0"",""4282""
","
","
","""event"",""trial"",""time""
""fullscreenenter"",""0"",""4282""
","
","null","<p></p>","null","","","","","","","","","","","","","","","","","","","","","","",""
"","do_trial","57","426340","0.0-40.0-1.0","""event"",""trial"",""time""
""fullscreenenter"",""0"",""4282""
","
","
","""event"",""trial"",""time""
""fullscreenenter"",""0"",""4282""
","
","670.8999999761581","","","","","","","","50","1,0,0","","","","","","","","","","","","","","","",""
"","do_bye","58","427857","0.0-41.0-0.0","""event"",""trial"",""time""
""fullscreenenter"",""0"",""4282""
","
","
","""event"",""trial"",""time""
""fullscreenenter"",""0"",""4282""
","
","null","","","","","","","","null","","","","","","","","","","","","","","","","",""
"","do_travel","59","436863","0.0-41.0-1.0","""event"",""trial"",""time""
""fullscreenenter"",""0"",""4282""
","
","
","""event"",""trial"",""time""
""fullscreenenter"",""0"",""4282""
","
","null","","","","","","","","null","","","","","","","","","","","","","","","","",""
"","do_welcome","60","440867","0.0-41.0-2.0","""event"",""trial"",""time""
""fullscreenenter"",""0"",""4282""
","
","
","""event"",""trial"",""time""
""fullscreenenter"",""0"",""4282""
","
","null","","","","","","","","null","","","","","","","","","","","","","","","","",""
"","do_trial","61","446515","0.0-41.0-3.0","""event"",""trial"",""time""
""fullscreenenter"",""0"",""4282""
","
","
","""event"",""trial"",""time""
""fullscreenenter"",""0"",""4282""
","
","1145.5","","","","","","","","51","1,0,0","","","","","","","","","","","","","","","",""
"","html-keyboard-response","62","447526","0.0-42.0-0.0","""event"",""trial"",""time""
""fullscreenenter"",""0"",""4282""
","
","
","""event"",""trial"",""time""
""fullscreenenter"",""0"",""4282""
","
","null","<p></p>","null","","","","","","","","","","","","","","","","","","","","","","",""
"","do_trial","63","452758","0.0-42.0-1.0","""event"",""trial"",""time""
""fullscreenenter"",""0"",""4282""
","
","
","""event"",""trial"",""time""
""fullscreenenter"",""0"",""4282""
","
","721.4000000357628","","","","","","","","49","1,0,1","","","","","","","","","","","","","","","",""
"","html-keyboard-response","64","453761","0.0-43.0-0.0","""event"",""trial"",""time""
""fullscreenenter"",""0"",""4282""
","
","
","""event"",""trial"",""time""
""fullscreenenter"",""0"",""4282""
","
","null","<p></p>","null","","","","","","","","","","","","","","","","","","","","","","",""
"","do_trial","65","458313","0.0-43.0-1.0","""event"",""trial"",""time""
""fullscreenenter"",""0"",""4282""
","
","
","""event"",""trial"",""time""
""fullscreenenter"",""0"",""4282""
","
","43.5","","","","","","","","50","1,1,0","","","","","","","","","","","","","","","",""
"","html-keyboard-response","66","459318","0.0-44.0-0.0","""event"",""trial"",""time""
""fullscreenenter"",""0"",""4282""
","
","
","""event"",""trial"",""time""
""fullscreenenter"",""0"",""4282""
","
","null","<p></p>","null","","","","","","","","","","","","","","","","","","","","","","",""
"","do_trial","67","464381","0.0-44.0-1.0","""event"",""trial"",""time""
""fullscreenenter"",""0"",""4282""
","
","
","""event"",""trial"",""time""
""fullscreenenter"",""0"",""4282""
","
","553","","","","","","","","49","0,0,1","","","","","","","","","","","","","","","",""
"","html-keyboard-response","68","465387","0.0-45.0-0.0","""event"",""trial"",""time""
""fullscreenenter"",""0"",""4282""
","
","
","""event"",""trial"",""time""
""fullscreenenter"",""0"",""4282""
","
","null","<p></p>","null","","","","","","","","","","","","","","","","","","","","","","",""
"","do_trial","69","470448","0.0-45.0-1.0","""event"",""trial"",""time""
""fullscreenenter"",""0"",""4282""
","
","
","""event"",""trial"",""time""
""fullscreenenter"",""0"",""4282""
","
","555.5","","","","","","","","51","1,0,1","","","","","","","","","","","","","","","",""
"","html-keyboard-response","70","474489","0.0-46.0-0.0","""event"",""trial"",""time""
""fullscreenenter"",""0"",""4282""
","
","
","""event"",""trial"",""time""
""fullscreenenter"",""0"",""4282""
","
","4040.199999988079","<div class='center'><p><img src='run_exp/static/images/tutorial/prac_best_pirate.png'  height='500'></p></div>","49","","","","","","","","","","","","","","","","","","","","","","",""
"","html-keyboard-response","71","476409","0.0-47.0-0.0","""event"",""trial"",""time""
""fullscreenenter"",""0"",""4282""
","
","
","""event"",""trial"",""time""
""fullscreenenter"",""0"",""4282""
","
","1919.800000011921","<div class='center'><p>That's correct! Red beard was the best.</p><p><b>[Press the space bar to continue]</b></p></div>","32","","","","","","","","","","","","","","","","","","","","","","",""
"","html-keyboard-response","72","479700","0.0-47.0-1.0","""event"",""trial"",""time""
""fullscreenenter"",""0"",""4282""
","
","
","""event"",""trial"",""time""
""fullscreenenter"",""0"",""4282""
","
","3289.800000011921","<div class='center'><p><img src='run_exp/static/images/tutorial/prac_source.png'  height='500'></p></div>","50","","","","","","","","","","","","","","","","","","","","","","",""
"","html-keyboard-response","73","480738","0.0-48.0-0.0","""event"",""trial"",""time""
""fullscreenenter"",""0"",""4282""
","
","
","""event"",""trial"",""time""
""fullscreenenter"",""0"",""4282""
","
","1037.6000000238419","<div class='center'><p>That's correct! You saw this ship on the cavern island.</p><p><b>[Press the space bar to continue]</b></p></div>","32","","","","","","","","","","","","","","","","","","","","","","",""
"","quiz_beginning","74","491921","0.0-48.0-1.0","""event"",""trial"",""time""
""fullscreenenter"",""0"",""4282""
","
","
","""event"",""trial"",""time""
""fullscreenenter"",""0"",""4282""
","
","null","run_exp/static/audio/clip_16_quiz_intro.m4a","null","","","","","<div class='center'><p>Good job on the practice game! Now, you will be asked some true or false questions to make sure you really understand the rules of the game.</p><p> Press <b>'1'</b> on the keyboard for true and press <b>'2'</b> for false.</p></div>","","","","","","","","","","","","","","","","","",""
"","audio-keyboard-response","75","496755","0.0-48.0-2.0","""event"",""trial"",""time""
""fullscreenenter"",""0"",""4282""
","
","
","""event"",""trial"",""time""
""fullscreenenter"",""0"",""4282""
","
","4834.199999988079","run_exp/static/audio/clip_17_q1.m4a","49","","","","","","","","","","","","","","","","","","","","","","",""
"","correct","76","499161","0.0-49.0-0.0","""event"",""trial"",""time""
""fullscreenenter"",""0"",""4282""
","
","
","""event"",""trial"",""time""
""fullscreenenter"",""0"",""4282""
","
","null","run_exp/static/audio/clip_18_correct.m4a","null","","","","","<div class='center'><p>That's correct!</p></div>","","","","","","","","","","","","","","","","","",""
"","html-keyboard-response","77","500043","0.0-49.0-1.0","""event"",""trial"",""time""
""fullscreenenter"",""0"",""4282""
","
","
","""event"",""trial"",""time""
""fullscreenenter"",""0"",""4282""
","
","881.8999999761581","<div class='center'><p>That's correct!</p><p><b>[Press the space bar to continue]</b></p></div>","32","","","","","","","","","","","","","","","","","","","","","","",""
"","audio-keyboard-response","78","506813","0.0-49.0-2.0","""event"",""trial"",""time""
""fullscreenenter"",""0"",""4282""
","
","
","""event"",""trial"",""time""
""fullscreenenter"",""0"",""4282""
","
","6769.5","run_exp/static/audio/clip_20_q2.m4a","50","","","","","","","","","","","","","","","","","","","","","","",""
"","correct","79","509200","0.0-50.0-0.0","""event"",""trial"",""time""
""fullscreenenter"",""0"",""4282""
","
","
","""event"",""trial"",""time""
""fullscreenenter"",""0"",""4282""
","
","null","run_exp/static/audio/clip_18_correct.m4a","null","","","","","<div class='center'><p>That's correct!</p></div>","","","","","","","","","","","","","","","","","",""
"","html-keyboard-response","80","509892","0.0-50.0-1.0","""event"",""trial"",""time""
""fullscreenenter"",""0"",""4282""
","
","
","""event"",""trial"",""time""
""fullscreenenter"",""0"",""4282""
","
","691.5999999642372","<div class='center'><p>That's correct!</p><p><b>[Press the space bar to continue]</b></p></div>","32","","","","","","","","","","","","","","","","","","","","","","",""
"","audio-keyboard-response","81","517709","0.0-50.0-2.0","""event"",""trial"",""time""
""fullscreenenter"",""0"",""4282""
","
","
","""event"",""trial"",""time""
""fullscreenenter"",""0"",""4282""
","
","7816.5","run_exp/static/audio/clip_22_q3.m4a","50","","","","","","","","","","","","","","","","","","","","","","",""
"","correct","82","520101","0.0-51.0-0.0","""event"",""trial"",""time""
""fullscreenenter"",""0"",""4282""
","
","
","""event"",""trial"",""time""
""fullscreenenter"",""0"",""4282""
","
","null","run_exp/static/audio/clip_18_correct.m4a","null","","","","","<div class='center'><p>That's correct!</p></div>","","","","","","","","","","","","","","","","","",""
"","html-keyboard-response","83","520830","0.0-51.0-1.0","""event"",""trial"",""time""
""fullscreenenter"",""0"",""4282""
","
","
","""event"",""trial"",""time""
""fullscreenenter"",""0"",""4282""
","
","728.1999999880791","<div class='center'><p>That's correct!</p><p><b>[Press the space bar to continue]</b></p></div>","32","","","","","","","","","","","","","","","","","","","","","","",""
"","audio-keyboard-response","84","527335","0.0-51.0-2.0","""event"",""trial"",""time""
""fullscreenenter"",""0"",""4282""
","
","
","""event"",""trial"",""time""
""fullscreenenter"",""0"",""4282""
","
","6505.300000011921","run_exp/static/audio/clip_24_q4.m4a","49","","","","","","","","","","","","","","","","","","","","","","",""
"","correct","85","529741","0.0-52.0-0.0","""event"",""trial"",""time""
""fullscreenenter"",""0"",""4282""
","
","
","""event"",""trial"",""time""
""fullscreenenter"",""0"",""4282""
","
","null","run_exp/static/audio/clip_18_correct.m4a","null","","","","","<div class='center'><p>That's correct!</p></div>","","","","","","","","","","","","","","","","","",""
"","html-keyboard-response","86","530607","0.0-52.0-1.0","""event"",""trial"",""time""
""fullscreenenter"",""0"",""4282""
","
","
","""event"",""trial"",""time""
""fullscreenenter"",""0"",""4282""
","
","865.5","<div class='center'><p>That's correct!</p><p><b>[Press the space bar to continue]</b></p></div>","32","","","","","","","","","","","","","","","","","","","","","","",""
"","q_all_corr","87","539101","0.0-53.0-0.0","""event"",""trial"",""time""
""fullscreenenter"",""0"",""4282""
","
","
","""event"",""trial"",""time""
""fullscreenenter"",""0"",""4282""
","
","null","run_exp/static/audio/clip_27_quiz_all_correct.m4a","null","","","","","<div class='center'><p>Good job! You’re now ready to move on to the real game! Remember this game will be difficult but don't get discouraged and try your best!</p></div>","","","","","","","","","","","","","","","","","",""
"","html-keyboard-response","88","540834","0.0-53.0-1.0","""event"",""trial"",""time""
""fullscreenenter"",""0"",""4282""
","
","
","""event"",""trial"",""time""
""fullscreenenter"",""0"",""4282""
","
","1731.8999999761581","<div class='center'><p>Good job! You’re now ready to move on to the real game! Remember this game will be difficult but don't get discouraged and try your best!</p><p><b>[Press the space bar to continue]</b></p></div>","32","","","","","","","","","","","","","","","","","","","","","","",""
"","do_welcome","89","544840","0.0-54.0-0.0","""event"",""trial"",""time""
""fullscreenenter"",""0"",""4282""
","
","
","""event"",""trial"",""time""
""fullscreenenter"",""0"",""4282""
","
","null","","","","","","","","null","","","","","","","","","","","","","","","","",""
"","do_trial","90","550936","0.0-55.0-0.0","""event"",""trial"",""time""
""fullscreenenter"",""0"",""4282""
","
","
","""event"",""trial"",""time""
""fullscreenenter"",""0"",""4282""
","
","1571.5","","","","","","","","49","1,0,0","0","city","0","probe-199","0.6","0.3","0.1","1","","","","","","","",""
"","html-keyboard-response","91","551944","0.0-55.0-1.0","""event"",""trial"",""time""
""fullscreenenter"",""0"",""4282""
","
","
","""event"",""trial"",""time""
""fullscreenenter"",""0"",""4282""
","
","null","<p></p>","null","","","","","","","","","","","","","","","","","","","","","","",""
"","do_trial","92","556826","0.0-56.0-0.0","""event"",""trial"",""time""
""fullscreenenter"",""0"",""4282""
","
","
","""event"",""trial"",""time""
""fullscreenenter"",""0"",""4282""
","
","348.69999998807907","","","","","","","","50","1,0,0","0","city","1","probe-19","0.6033430975197325","0.3163368394699142","0.07606623159623661","0","","","","","","","",""
"","html-keyboard-response","93","557834","0.0-56.0-1.0","""event"",""trial"",""time""
""fullscreenenter"",""0"",""4282""
","
","
","""event"",""trial"",""time""
""fullscreenenter"",""0"",""4282""
","
","null","<p></p>","null","","","","","","","","","","","","","","","","","","","","","","",""
"","do_trial","94","562641","0.0-57.0-0.0","""event"",""trial"",""time""
""fullscreenenter"",""0"",""4282""
","
","
","""event"",""trial"",""time""
""fullscreenenter"",""0"",""4282""
","
","282.7000000476837","","","","","","","","51","1,0,0","0","city","2","probe-93","0.669382881225605","0.30859506678588494","0.09300732054369902","0","","","","","","","",""
"","html-keyboard-response","95","563647","0.0-57.0-1.0","""event"",""trial"",""time""
""fullscreenenter"",""0"",""4282""
","
","
","""event"",""trial"",""time""
""fullscreenenter"",""0"",""4282""
","
","null","<p></p>","null","","","","","","","","","","","","","","","","","","","","","","",""
"","do_trial","96","568669","0.0-58.0-0.0","""event"",""trial"",""time""
""fullscreenenter"",""0"",""4282""
","
","
","""event"",""trial"",""time""
""fullscreenenter"",""0"",""4282""
","
","494.80000001192093","","","","","","","","49","1,0,0","0","city","3","probe-114","0.5245893641821059","0.46960351678152235","0.0855122368217534","1","","","","","","","",""
"","html-keyboard-response","97","569675","0.0-58.0-1.0","""event"",""trial"",""time""
""fullscreenenter"",""0"",""4282""
","
","
","""event"",""trial"",""time""
""fullscreenenter"",""0"",""4282""
","
","null","<p></p>","null","","","","","","","","","","","","","","","","","","","","","","",""
"","do_trial","98","574986","0.0-59.0-0.0","""event"",""trial"",""time""
""fullscreenenter"",""0"",""4282""
","
","
","""event"",""trial"",""time""
""fullscreenenter"",""0"",""4282""
","
","779.0999999642372","","","","","","","","49","1,0,0","0","city","4","probe-200","0.5489897569894433","0.34234757138413613","0.08405876288954475","1","","","","","","","",""
"","html-keyboard-response","99","575991","0.0-59.0-1.0","""event"",""trial"",""time""
""fullscreenenter"",""0"",""4282""
","
","
","""event"",""trial"",""time""
""fullscreenenter"",""0"",""4282""
","
","null","<p></p>","null","","","","","","","","","","","","","","","","","","","","","","",""
"","do_trial","100","580892","0.0-60.0-0.0","""event"",""trial"",""time""
""fullscreenenter"",""0"",""4282""
","
","
","""event"",""trial"",""time""
""fullscreenenter"",""0"",""4282""
","
","376.5999999642372","","","","","","","","49","1,0,0","0","city","5","probe-210","0.6256857918982595","0.20349612983628326","0.06927786108470332","1","","","","","","","",""
"","html-keyboard-response","101","581900","0.0-60.0-1.0","""event"",""trial"",""time""
""fullscreenenter"",""0"",""4282""
","
","
","""event"",""trial"",""time""
""fullscreenenter"",""0"",""4282""
","
","null","<p></p>","null","","","","","","","","","","","","","","","","","","","","","","",""
"","do_trial","102","586711","0.0-61.0-0.0","""event"",""trial"",""time""
""fullscreenenter"",""0"",""4282""
","
","
","""event"",""trial"",""time""
""fullscreenenter"",""0"",""4282""
","
","283.30000001192093","","","","","","","","49","0,0,0","0","city","6","probe-170","0.6632146103602036","0.19510551415935623","0.11366599879620788","0","","","","","","","",""
"","html-keyboard-response","103","587717","0.0-61.0-1.0","""event"",""trial"",""time""
""fullscreenenter"",""0"",""4282""
","
","
","""event"",""trial"",""time""
""fullscreenenter"",""0"",""4282""
","
","null","<p></p>","null","","","","","","","","","","","","","","","","","","","","","","",""
"","do_trial","104","592264","0.0-62.0-0.0","""event"",""trial"",""time""
""fullscreenenter"",""0"",""4282""
","
","
","""event"",""trial"",""time""
""fullscreenenter"",""0"",""4282""
","
","11.099999964237213","","","","","","","","49","1,0,0","0","city","7","probe-07","0.657578204368863","0.1894663955128513","0.10698069265307099","1","","","","","","","",""
"","html-keyboard-response","105","593270","0.0-62.0-1.0","""event"",""trial"",""time""
""fullscreenenter"",""0"",""4282""
","
","
","""event"",""trial"",""time""
""fullscreenenter"",""0"",""4282""
","
","null","<p></p>","null","","","","","","","","","","","","","","","","","","","","","","",""
"","do_trial","106","598188","0.0-63.0-0.0","""event"",""trial"",""time""
""fullscreenenter"",""0"",""4282""
","
","
","""event"",""trial"",""time""
""fullscreenenter"",""0"",""4282""
","
","386.39999997615814","","","","","","","","49","0,0,0","0","city","8","probe-218","0.4521934980539477","0.08700355740169446","0.08555010148862849","0","","","","","","","",""
"","html-keyboard-response","107","599192","0.0-63.0-1.0","""event"",""trial"",""time""
""fullscreenenter"",""0"",""4282""
","
","
","""event"",""trial"",""time""
""fullscreenenter"",""0"",""4282""
","
","null","<p></p>","null","","","","","","","","","","","","","","","","","","","","","","",""
"","do_trial","108","603999","0.0-64.0-0.0","""event"",""trial"",""time""
""fullscreenenter"",""0"",""4282""
","
","
","""event"",""trial"",""time""
""fullscreenenter"",""0"",""4282""
","
","273.5","","","","","","","","49","1,0,0","0","city","9","probe-117","0.4221110316492165","0.06113750585685656","0.19094903595558863","1","","","","","","","",""
"","html-keyboard-response","109","605007","0.0-64.0-1.0","""event"",""trial"",""time""
""fullscreenenter"",""0"",""4282""
","
","
","""event"",""trial"",""time""
""fullscreenenter"",""0"",""4282""
","
","null","<p></p>","null","","","","","","","","","","","","","","","","","","","","","","",""
"","do_trial","110","610168","0.0-65.0-0.0","""event"",""trial"",""time""
""fullscreenenter"",""0"",""4282""
","
","
","""event"",""trial"",""time""
""fullscreenenter"",""0"",""4282""
","
","626.6999999880791","","","","","","","","49","0,0,0","0","city","10","probe-29","0.35079562109750756","0.16295843293507983","0.12701956966991465","0","","","","","","","",""
"","html-keyboard-response","111","611174","0.0-65.0-1.0","""event"",""trial"",""time""
""fullscreenenter"",""0"",""4282""
","
","
","""event"",""trial"",""time""
""fullscreenenter"",""0"",""4282""
","
","null","<p></p>","null","","","","","","","","","","","","","","","","","","","","","","",""
"","do_trial","112","616140","0.0-66.0-0.0","""event"",""trial"",""time""
""fullscreenenter"",""0"",""4282""
","
","
","""event"",""trial"",""time""
""fullscreenenter"",""0"",""4282""
","
","444.39999997615814","","","","","","","","49","1,0,0","0","city","11","probe-178","0.532748732696759","0.24269792323647163","0.07993646090734613","1","","","","","","","",""
"","html-keyboard-response","113","617148","0.0-66.0-1.0","""event"",""trial"",""time""
""fullscreenenter"",""0"",""4282""
","
","
","""event"",""trial"",""time""
""fullscreenenter"",""0"",""4282""
","
","null","<p></p>","null","","","","","","","","","","","","","","","","","","","","","","",""
"","do_trial","114","622091","0.0-67.0-0.0","""event"",""trial"",""time""
""fullscreenenter"",""0"",""4282""
","
","
","""event"",""trial"",""time""
""fullscreenenter"",""0"",""4282""
","
","407.0999999642372","","","","","","","","49","0,1,0","0","city","12","probe-24","0.6671368108969332","0.3622692406360589","0.10367779985348463","0","","","","","","","",""
"","html-keyboard-response","115","623097","0.0-67.0-1.0","""event"",""trial"",""time""
""fullscreenenter"",""0"",""4282""
","
","
","""event"",""trial"",""time""
""fullscreenenter"",""0"",""4282""
","
","null","<p></p>","null","","","","","","","","","","","","","","","","","","","","","","",""
"","do_trial","116","627943","0.0-68.0-0.0","""event"",""trial"",""time""
""fullscreenenter"",""0"",""4282""
","
","
","""event"",""trial"",""time""
""fullscreenenter"",""0"",""4282""
","
","324.69999998807907","","","","","","","","51","0,0,0","0","city","13","probe-58","0.7059320665812321","0.20068042308873588","0.08244300227237311","0","","","","","","","",""
"","html-keyboard-response","117","628945","0.0-68.0-1.0","""event"",""trial"",""time""
""fullscreenenter"",""0"",""4282""
","
","
","""event"",""trial"",""time""
""fullscreenenter"",""0"",""4282""
","
","null","<p></p>","null","","","","","","","","","","","","","","","","","","","","","","",""
"","do_trial","118","633772","0.0-69.0-0.0","""event"",""trial"",""time""
""fullscreenenter"",""0"",""4282""
","
","
","""event"",""trial"",""time""
""fullscreenenter"",""0"",""4282""
","
","291.69999998807907","","","","","","","","50","1,0,0","0","city","14","probe-67","0.6256877542929492","0.19527665255100488","0.08063171806844353","0","","","","","","","",""
"","html-keyboard-response","119","634780","0.0-69.0-1.0","""event"",""trial"",""time""
""fullscreenenter"",""0"",""4282""
","
","
","""event"",""trial"",""time""
""fullscreenenter"",""0"",""4282""
","
","null","<p></p>","null","","","","","","","","","","","","","","","","","","","","","","",""
"","do_trial","120","639637","0.0-70.0-0.0","""event"",""trial"",""time""
""fullscreenenter"",""0"",""4282""
","
","
","""event"",""trial"",""time""
""fullscreenenter"",""0"",""4282""
","
","321.39999997615814","","","","","","","","49","1,0,0","0","city","15","probe-196","0.480181561976727","0.3433580895635884","0.11253236029299236","1","","","","","","","",""
"","html-keyboard-response","121","640643","0.0-70.0-1.0","""event"",""trial"",""time""
""fullscreenenter"",""0"",""4282""
","
","
","""event"",""trial"",""time""
""fullscreenenter"",""0"",""4282""
","
","null","<p></p>","null","","","","","","","","","","","","","","","","","","","","","","",""
"","do_trial","122","645492","0.0-71.0-0.0","""event"",""trial"",""time""
""fullscreenenter"",""0"",""4282""
","
","
","""event"",""trial"",""time""
""fullscreenenter"",""0"",""4282""
","
","321.69999998807907","","","","","","","","49","1,0,0","0","city","16","probe-68","0.5751343876848817","0.29693555074097644","0.07203350876474136","1","","","","","","","",""
"","html-keyboard-response","123","646498","0.0-71.0-1.0","""event"",""trial"",""time""
""fullscreenenter"",""0"",""4282""
","
","
","""event"",""trial"",""time""
""fullscreenenter"",""0"",""4282""
","
","null","<p></p>","null","","","","","","","","","","","","","","","","","","","","","","",""
"","do_trial","124","651211","0.0-72.0-0.0","""event"",""trial"",""time""
""fullscreenenter"",""0"",""4282""
","
","
","""event"",""trial"",""time""
""fullscreenenter"",""0"",""4282""
","
","179.89999997615814","","","","","","","","49","1,0,0","0","city","17","probe-82","0.6169173750884195","0.27249713592351243","0.21070699877241922","1","","","","","","","",""
"","html-keyboard-response","125","652218","0.0-72.0-1.0","""event"",""trial"",""time""
""fullscreenenter"",""0"",""4282""
","
","
","""event"",""trial"",""time""
""fullscreenenter"",""0"",""4282""
","
","null","<p></p>","null","","","","","","","","","","","","","","","","","","","","","","",""
"","do_trial","126","657439","0.0-73.0-0.0","""event"",""trial"",""time""
""fullscreenenter"",""0"",""4282""
","
","
","""event"",""trial"",""time""
""fullscreenenter"",""0"",""4282""
","
","685.0999999642372","","","","","","","","49","0,0,0","0","city","18","probe-183","0.5160098049567544","0.251777186547728","0.17667024483640845","0","","","","","","","",""
"","html-keyboard-response","127","658447","0.0-73.0-1.0","""event"",""trial"",""time""
""fullscreenenter"",""0"",""4282""
","
","
","""event"",""trial"",""time""
""fullscreenenter"",""0"",""4282""
","
","null","<p></p>","null","","","","","","","","","","","","","","","","","","","","","","",""
"","do_trial","128","663300","0.0-74.0-0.0","""event"",""trial"",""time""
""fullscreenenter"",""0"",""4282""
","
","
","""event"",""trial"",""time""
""fullscreenenter"",""0"",""4282""
","
","327.89999997615814","","","","","","","","49","1,0,0","0","city","19","probe-175","0.6474675262804402","0.29395680183269973","0.20890225625723005","1","","","","","","","",""
"","html-keyboard-response","129","664309","0.0-74.0-1.0","""event"",""trial"",""time""
""fullscreenenter"",""0"",""4282""
","
","
","""event"",""trial"",""time""
""fullscreenenter"",""0"",""4282""
","
","null","<p></p>","null","","","","","","","","","","","","","","","","","","","","","","",""
"","do_trial","130","669084","0.0-75.0-0.0","""event"",""trial"",""time""
""fullscreenenter"",""0"",""4282""
","
","
","""event"",""trial"",""time""
""fullscreenenter"",""0"",""4282""
","
","251.10000002384186","","","","","","","","49","1,0,0","0","city","20","probe-91","0.5746473012088651","0.34244928669905134","0.1449629168142569","1","","","","","","","",""
"","html-keyboard-response","131","670090","0.0-75.0-1.0","""event"",""trial"",""time""
""fullscreenenter"",""0"",""4282""
","
","
","""event"",""trial"",""time""
""fullscreenenter"",""0"",""4282""
","
","null","<p></p>","null","","","","","","","","","","","","","","","","","","","","","","",""
"","do_trial","132","674623","0.0-76.0-0.0","""event"",""trial"",""time""
""fullscreenenter"",""0"",""4282""
","
","
","""event"",""trial"",""time""
""fullscreenenter"",""0"",""4282""
","
","0.10000002384185791","","","","","","","","49","0,1,0","0","city","21","probe-53","0.489634366473218","0.4014324695571875","0.08855481158437481","0","","","","","","","",""
"","html-keyboard-response","133","675629","0.0-76.0-1.0","""event"",""trial"",""time""
""fullscreenenter"",""0"",""4282""
","
","
","""event"",""trial"",""time""
""fullscreenenter"",""0"",""4282""
","
","null","<p></p>","null","","","","","","","","","","","","","","","","","","","","","","",""
"","do_trial","134","680312","0.0-77.0-0.0","""event"",""trial"",""time""
""fullscreenenter"",""0"",""4282""
","
","
","""event"",""trial"",""time""
""fullscreenenter"",""0"",""4282""
","
","155.89999997615814","","","","","","","","49","0,0,0","0","city","22","probe-216","0.615601320426538","0.2201366334402971","0.12820683963796767","0","","","","","","","",""
"","html-keyboard-response","135","681318","0.0-77.0-1.0","""event"",""trial"",""time""
""fullscreenenter"",""0"",""4282""
","
","
","""event"",""trial"",""time""
""fullscreenenter"",""0"",""4282""
","
","null","<p></p>","null","","","","","","","","","","","","","","","","","","","","","","",""
"","do_trial","136","686448","0.0-78.0-0.0","""event"",""trial"",""time""
""fullscreenenter"",""0"",""4282""
","
","
","""event"",""trial"",""time""
""fullscreenenter"",""0"",""4282""
","
","603.3000000119209","","","","","","","","49","0,0,0","0","city","23","probe-177","0.6289214431612471","0.28571908382357697","0.23780730771285008","0","","","","","","","",""
"","html-keyboard-response","137","687456","0.0-78.0-1.0","""event"",""trial"",""time""
""fullscreenenter"",""0"",""4282""
","
","
","""event"",""trial"",""time""
""fullscreenenter"",""0"",""4282""
","
","null","<p></p>","null","","","","","","","","","","","","","","","","","","","","","","",""
"","do_trial","138","693115","0.0-79.0-0.0","""event"",""trial"",""time""
""fullscreenenter"",""0"",""4282""
","
","
","""event"",""trial"",""time""
""fullscreenenter"",""0"",""4282""
","
","1138.8999999761581","","","","","","","","50","1,0,0","0","city","24","probe-81","0.6553608545267089","0.25972157080170594","0.09424754174773448","0","","","","","","","",""
"","html-keyboard-response","139","694121","0.0-79.0-1.0","""event"",""trial"",""time""
""fullscreenenter"",""0"",""4282""
","
","
","""event"",""trial"",""time""
""fullscreenenter"",""0"",""4282""
","
","null","<p></p>","null","","","","","","","","","","","","","","","","","","","","","","",""
"","do_trial","140","698919","0.0-80.0-0.0","""event"",""trial"",""time""
""fullscreenenter"",""0"",""4282""
","
","
","""event"",""trial"",""time""
""fullscreenenter"",""0"",""4282""
","
","265.5999999642372","","","","","","","","51","1,0,0","0","city","25","probe-118","0.6135297750301987","0.21984621243955982","0.06777953306920559","0","","","","","","","",""
"","html-keyboard-response","141","699927","0.0-80.0-1.0","""event"",""trial"",""time""
""fullscreenenter"",""0"",""4282""
","
","
","""event"",""trial"",""time""
""fullscreenenter"",""0"",""4282""
","
","null","<p></p>","null","","","","","","","","","","","","","","","","","","","","","","",""
"","do_trial","142","704652","0.0-81.0-0.0","""event"",""trial"",""time""
""fullscreenenter"",""0"",""4282""
","
","
","""event"",""trial"",""time""
""fullscreenenter"",""0"",""4282""
","
","198.69999998807907","","","","","","","","49","1,0,0","0","city","26","probe-217","0.6805890656353987","0.22147316465510336","0.12486466657973726","1","","","","","","","",""
"","html-keyboard-response","143","705656","0.0-81.0-1.0","""event"",""trial"",""time""
""fullscreenenter"",""0"",""4282""
","
","
","""event"",""trial"",""time""
""fullscreenenter"",""0"",""4282""
","
","null","<p></p>","null","","","","","","","","","","","","","","","","","","","","","","",""
"","do_trial","144","710509","0.0-82.0-0.0","""event"",""trial"",""time""
""fullscreenenter"",""0"",""4282""
","
","
","""event"",""trial"",""time""
""fullscreenenter"",""0"",""4282""
","
","324.5","","","","","","","","49","1,0,0","0","city","27","probe-40","0.523316813065474","0.3015947417264318","0.25522335367833426","1","","","","","","","",""
"","html-keyboard-response","145","711517","0.0-82.0-1.0","""event"",""trial"",""time""
""fullscreenenter"",""0"",""4282""
","
","
","""event"",""trial"",""time""
""fullscreenenter"",""0"",""4282""
","
","null","<p></p>","null","","","","","","","","","","","","","","","","","","","","","","",""
"","do_trial","146","716367","0.0-83.0-0.0","""event"",""trial"",""time""
""fullscreenenter"",""0"",""4282""
","
","
","""event"",""trial"",""time""
""fullscreenenter"",""0"",""4282""
","
","327.4000000357628","","","","","","","","49","1,0,0","0","city","28","probe-224","0.5449806016293646","0.21976437277707386","0.2689204770988632","1","","","","","","","",""
"","html-keyboard-response","147","717376","0.0-83.0-1.0","""event"",""trial"",""time""
""fullscreenenter"",""0"",""4282""
","
","
","""event"",""trial"",""time""
""fullscreenenter"",""0"",""4282""
","
","null","<p></p>","null","","","","","","","","","","","","","","","","","","","","","","",""
"","do_trial","148","722432","0.0-84.0-0.0","""event"",""trial"",""time""
""fullscreenenter"",""0"",""4282""
","
","
","""event"",""trial"",""time""
""fullscreenenter"",""0"",""4282""
","
","525.6000000238419","","","","","","","","49","1,0,0","0","city","29","probe-97","0.631331910621734","0.37885740112532307","0.1876250584729614","1","","","","","","","",""
"","html-keyboard-response","149","723448","0.0-84.0-1.0","""event"",""trial"",""time""
""fullscreenenter"",""0"",""4282""
","
","
","""event"",""trial"",""time""
""fullscreenenter"",""0"",""4282""
","
","null","<p></p>","null","","","","","","","","","","","","","","","","","","","","","","",""
"","do_bye","150","724963","0.0-85.0-0.0","""event"",""trial"",""time""
""fullscreenenter"",""0"",""4282""
","
","
","""event"",""trial"",""time""
""fullscreenenter"",""0"",""4282""
","
","null","","","","","","","","null","","","","","","","","","","","","","","","","",""
"","break","151","747533","0.0-85.0-1.0","""event"",""trial"",""time""
""fullscreenenter"",""0"",""4282""
","
","
","""event"",""trial"",""time""
""fullscreenenter"",""0"",""4282""
","
","22569","<div class='center'><p>Time to take a quick break! You have 2 minutes to rest, but you can move on sooner if you'd like.</p><p> Press the <b>space bar</b> to continue.</p></div>","32","","","","","","","","","","","","","","","","","","","","","","",""
"","do_travel","152","756536","0.0-86.0-0.0","""event"",""trial"",""time""
""fullscreenenter"",""0"",""4282""
","
","
","""event"",""trial"",""time""
""fullscreenenter"",""0"",""4282""
","
","null","","","","","","","","null","","","","","","","","","","","","","","","","",""
"","do_welcome","153","760552","0.0-86.0-1.0","""event"",""trial"",""time""
""fullscreenenter"",""0"",""4282""
","
","
","""event"",""trial"",""time""
""fullscreenenter"",""0"",""4282""
","
","null","","","","","","","","null","","","","","","","","","","","","","","","","",""
"","do_trial","154","766967","0.0-87.0-0.0","""event"",""trial"",""time""
""fullscreenenter"",""0"",""4282""
","
","
","""event"",""trial"",""time""
""fullscreenenter"",""0"",""4282""
","
","1881.199999988079","","","","","","","","50","1,1,0","1","forest","30","probe-134","1","0.23987302606802907","0.059335116808732574","1","","","","","","","",""
"","html-keyboard-response","155","767968","0.0-87.0-1.0","""event"",""trial"",""time""
""fullscreenenter"",""0"",""4282""
","
","
","""event"",""trial"",""time""
""fullscreenenter"",""0"",""4282""
","
","null","<p></p>","null","","","","","","","","","","","","","","","","","","","","","","",""
"","do_trial","156","772944","0.0-88.0-0.0","""event"",""trial"",""time""
""fullscreenenter"",""0"",""4282""
","
","
","""event"",""trial"",""time""
""fullscreenenter"",""0"",""4282""
","
","449.80000001192093","","","","","","","","51","1,1,0","1","forest","31","probe-42","1","0.35454721235320064","0.09312028408344514","0","","","","","","","",""
"","html-keyboard-response","157","773953","0.0-88.0-1.0","""event"",""trial"",""time""
""fullscreenenter"",""0"",""4282""
","
","
","""event"",""trial"",""time""
""fullscreenenter"",""0"",""4282""
","
","null","<p></p>","null","","","","","","","","","","","","","","","","","","","","","","",""
"","do_trial","158","778807","0.0-89.0-0.0","""event"",""trial"",""time""
""fullscreenenter"",""0"",""4282""
","
","
","""event"",""trial"",""time""
""fullscreenenter"",""0"",""4282""
","
","323.10000002384186","","","","","","","","49","1,1,0","1","forest","32","probe-179","1","0.4123556361464262","0.11782995973591649","1","","","","","","","",""
"","html-keyboard-response","159","779813","0.0-89.0-1.0","""event"",""trial"",""time""
""fullscreenenter"",""0"",""4282""
","
","
","""event"",""trial"",""time""
""fullscreenenter"",""0"",""4282""
","
","null","<p></p>","null","","","","","","","","","","","","","","","","","","","","","","",""
"","do_trial","160","784766","0.0-90.0-0.0","""event"",""trial"",""time""
""fullscreenenter"",""0"",""4282""
","
","
","""event"",""trial"",""time""
""fullscreenenter"",""0"",""4282""
","
","421.5999999642372","","","","","","","","50","1,0,1","1","forest","33","probe-184","0.8609533809151086","0.4011105213904337","0.05246192240426312","0","","","","","","","",""
"","html-keyboard-response","161","785772","0.0-90.0-1.0","""event"",""trial"",""time""
""fullscreenenter"",""0"",""4282""
","
","
","""event"",""trial"",""time""
""fullscreenenter"",""0"",""4282""
","
","null","<p></p>","null","","","","","","","","","","","","","","","","","","","","","","",""
"","do_trial","162","790345","0.0-91.0-0.0","""event"",""trial"",""time""
""fullscreenenter"",""0"",""4282""
","
","
","""event"",""trial"",""time""
""fullscreenenter"",""0"",""4282""
","
","40.69999998807907","","","","","","","","51","0,0,0","1","forest","34","probe-206","0.705020319726194","0.42176791582964485","0.06669042860281771","0","","","","","","","",""
"","html-keyboard-response","163","791352","0.0-91.0-1.0","""event"",""trial"",""time""
""fullscreenenter"",""0"",""4282""
","
","
","""event"",""trial"",""time""
""fullscreenenter"",""0"",""4282""
","
","null","<p></p>","null","","","","","","","","","","","","","","","","","","","","","","",""
"","do_trial","164","796067","0.0-92.0-0.0","""event"",""trial"",""time""
""fullscreenenter"",""0"",""4282""
","
","
","""event"",""trial"",""time""
""fullscreenenter"",""0"",""4282""
","
","188.5","","","","","","","","49","0,0,0","1","forest","35","probe-03","0.7434039141175549","0.374507333802518","0.0771760440039546","0","","","","","","","",""
"","html-keyboard-response","165","797073","0.0-92.0-1.0","""event"",""trial"",""time""
""fullscreenenter"",""0"",""4282""
","
","
","""event"",""trial"",""time""
""fullscreenenter"",""0"",""4282""
","
","null","<p></p>","null","","","","","","","","","","","","","","","","","","","","","","",""
"","do_trial","166","801894","0.0-93.0-0.0","""event"",""trial"",""time""
""fullscreenenter"",""0"",""4282""
","
","
","""event"",""trial"",""time""
""fullscreenenter"",""0"",""4282""
","
","300.10000002384186","","","","","","","","50","0,0,0","1","forest","36","probe-56","0.7778248680497589","0.3787754845121701","0.14579822202919576","0","","","","","","","",""
"","html-keyboard-response","167","802900","0.0-93.0-1.0","""event"",""trial"",""time""
""fullscreenenter"",""0"",""4282""
","
","
","""event"",""trial"",""time""
""fullscreenenter"",""0"",""4282""
","
","null","<p></p>","null","","","","","","","","","","","","","","","","","","","","","","",""
"","do_trial","168","807971","0.0-94.0-0.0","""event"",""trial"",""time""
""fullscreenenter"",""0"",""4282""
","
","
","""event"",""trial"",""time""
""fullscreenenter"",""0"",""4282""
","
","537.8000000119209","","","","","","","","49","1,0,0","1","forest","37","probe-226","0.8460165933315983","0.2200246658789572","0.08354239504809648","1","","","","","","","",""
"","html-keyboard-response","169","808974","0.0-94.0-1.0","""event"",""trial"",""time""
""fullscreenenter"",""0"",""4282""
","
","
","""event"",""trial"",""time""
""fullscreenenter"",""0"",""4282""
","
","null","<p></p>","null","","","","","","","","","","","","","","","","","","","","","","",""
"","do_trial","170","813833","0.0-95.0-0.0","""event"",""trial"",""time""
""fullscreenenter"",""0"",""4282""
","
","
","""event"",""trial"",""time""
""fullscreenenter"",""0"",""4282""
","
","338.60000002384186","","","","","","","","50","1,0,0","1","forest","38","probe-185","0.7895157130641536","0.17583103247311888","0.22297581000084057","0","","","","","","","",""
"","html-keyboard-response","171","814838","0.0-95.0-1.0","""event"",""trial"",""time""
""fullscreenenter"",""0"",""4282""
","
","
","""event"",""trial"",""time""
""fullscreenenter"",""0"",""4282""
","
","null","<p></p>","null","","","","","","","","","","","","","","","","","","","","","","",""
"","do_trial","172","819654","0.0-96.0-0.0","""event"",""trial"",""time""
""fullscreenenter"",""0"",""4282""
","
","
","""event"",""trial"",""time""
""fullscreenenter"",""0"",""4282""
","
","281.19999998807907","","","","","","","","51","1,0,0","1","forest","39","probe-145","0.7089117942446872","0.2677527351361268","0.14269241182283762","0","","","","","","","",""
"","html-keyboard-response","173","820660","0.0-96.0-1.0","""event"",""trial"",""time""
""fullscreenenter"",""0"",""4282""
","
","
","""event"",""trial"",""time""
""fullscreenenter"",""0"",""4282""
","
","null","<p></p>","null","","","","","","","","","","","","","","","","","","","","","","",""
"","do_trial","174","825447","0.0-97.0-0.0","""event"",""trial"",""time""
""fullscreenenter"",""0"",""4282""
","
","
","""event"",""trial"",""time""
""fullscreenenter"",""0"",""4282""
","
","251.80000001192093","","","","","","","","51","1,0,0","1","forest","40","probe-164","0.547380739011945","0.09728509470009432","0.10061804279396473","0","","","","","","","",""
"","html-keyboard-response","175","826455","0.0-97.0-1.0","""event"",""trial"",""time""
""fullscreenenter"",""0"",""4282""
","
","
","""event"",""trial"",""time""
""fullscreenenter"",""0"",""4282""
","
","null","<p></p>","null","","","","","","","","","","","","","","","","","","","","","","",""
"","do_trial","176","831267","0.0-98.0-0.0","""event"",""trial"",""time""
""fullscreenenter"",""0"",""4282""
","
","
","""event"",""trial"",""time""
""fullscreenenter"",""0"",""4282""
","
","288.69999998807907","","","","","","","","49","1,0,0","1","forest","41","probe-80","0.4290698102546431","0.05872643429209247","0.2856421579244438","1","","","","","","","",""
"","html-keyboard-response","177","832273","0.0-98.0-1.0","""event"",""trial"",""time""
""fullscreenenter"",""0"",""4282""
","
","
","""event"",""trial"",""time""
""fullscreenenter"",""0"",""4282""
","
","null","<p></p>","null","","","","","","","","","","","","","","","","","","","","","","",""
"","do_trial","178","837224","0.0-99.0-0.0","""event"",""trial"",""time""
""fullscreenenter"",""0"",""4282""
","
","
","""event"",""trial"",""time""
""fullscreenenter"",""0"",""4282""
","
","423.19999998807907","","","","","","","","49","0,0,0","1","forest","42","probe-95","0.21077790336878136","0.15529139316969187","0.320986152273153","0","","","","","","","",""
"","html-keyboard-response","179","838229","0.0-99.0-1.0","""event"",""trial"",""time""
""fullscreenenter"",""0"",""4282""
","
","
","""event"",""trial"",""time""
""fullscreenenter"",""0"",""4282""
","
","null","<p></p>","null","","","","","","","","","","","","","","","","","","","","","","",""
"","do_trial","180","843107","0.0-100.0-0.0","""event"",""trial"",""time""
""fullscreenenter"",""0"",""4282""
","
","
","""event"",""trial"",""time""
""fullscreenenter"",""0"",""4282""
","
","349.5","","","","","","","","49","0,1,0","1","forest","43","probe-132","0.1457047977034597","0.22386888220814738","0.29641408703156996","0","","","","","","","",""
"","html-keyboard-response","181","844115","0.0-100.0-1.0","""event"",""trial"",""time""
""fullscreenenter"",""0"",""4282""
","
","
","""event"",""trial"",""time""
""fullscreenenter"",""0"",""4282""
","
","null","<p></p>","null","","","","","","","","","","","","","","","","","","","","","","",""
"","do_trial","182","848973","0.0-101.0-0.0","""event"",""trial"",""time""
""fullscreenenter"",""0"",""4282""
","
","
","""event"",""trial"",""time""
""fullscreenenter"",""0"",""4282""
","
","328","","","","","","","","50","0,0,0","1","forest","44","probe-31","0.18548510839938093","0.19980825555014783","0.39340925916301045","0","","","","","","","",""
"","html-keyboard-response","183","849978","0.0-101.0-1.0","""event"",""trial"",""time""
""fullscreenenter"",""0"",""4282""
","
","
","""event"",""trial"",""time""
""fullscreenenter"",""0"",""4282""
","
","null","<p></p>","null","","","","","","","","","","","","","","","","","","","","","","",""
"","do_trial","184","855142","0.0-102.0-0.0","""event"",""trial"",""time""
""fullscreenenter"",""0"",""4282""
","
","
","""event"",""trial"",""time""
""fullscreenenter"",""0"",""4282""
","
","632.6999999880791","","","","","","","","50","0,0,0","1","forest","45","probe-205","0.10655534198900644","0.13170872525745564","0.4885830170103889","0","","","","","","","",""
"","html-keyboard-response","185","856149","0.0-102.0-1.0","""event"",""trial"",""time""
""fullscreenenter"",""0"",""4282""
","
","
","""event"",""trial"",""time""
""fullscreenenter"",""0"",""4282""
","
","null","<p></p>","null","","","","","","","","","","","","","","","","","","","","","","",""
"","do_trial","186","860976","0.0-103.0-0.0","""event"",""trial"",""time""
""fullscreenenter"",""0"",""4282""
","
","
","""event"",""trial"",""time""
""fullscreenenter"",""0"",""4282""
","
","303.5","","","","","","","","51","0,0,0","1","forest","46","probe-150","0.13825391608287357","0.15890313993568658","0.4219759392555706","0","","","","","","","",""
"","html-keyboard-response","187","861984","0.0-103.0-1.0","""event"",""trial"",""time""
""fullscreenenter"",""0"",""4282""
","
","
","""event"",""trial"",""time""
""fullscreenenter"",""0"",""4282""
","
","null","<p></p>","null","","","","","","","","","","","","","","","","","","","","","","",""
"","do_trial","188","866915","0.0-104.0-0.0","""event"",""trial"",""time""
""fullscreenenter"",""0"",""4282""
","
","
","""event"",""trial"",""time""
""fullscreenenter"",""0"",""4282""
","
","395.7999999523163","","","","","","","","51","0,0,1","1","forest","47","probe-38","0.29198716135276037","0.3216868323470151","0.6296477363700191","1","","","","","","","",""
"","html-keyboard-response","189","867923","0.0-104.0-1.0","""event"",""trial"",""time""
""fullscreenenter"",""0"",""4282""
","
","
","""event"",""trial"",""time""
""fullscreenenter"",""0"",""4282""
","
","null","<p></p>","null","","","","","","","","","","","","","","","","","","","","","","",""
"","do_trial","190","872828","0.0-105.0-0.0","""event"",""trial"",""time""
""fullscreenenter"",""0"",""4282""
","
","
","""event"",""trial"",""time""
""fullscreenenter"",""0"",""4282""
","
","376.89999997615814","","","","","","","","51","0,0,0","1","forest","48","probe-47","0.2714875904468536","0.3739244433788749","0.7349254476450847","0","","","","","","","",""
"","html-keyboard-response","191","873832","0.0-105.0-1.0","""event"",""trial"",""time""
""fullscreenenter"",""0"",""4282""
","
","
","""event"",""trial"",""time""
""fullscreenenter"",""0"",""4282""
","
","null","<p></p>","null","","","","","","","","","","","","","","","","","","","","","","",""
"","do_trial","192","878658","0.0-106.0-0.0","""event"",""trial"",""time""
""fullscreenenter"",""0"",""4282""
","
","
","""event"",""trial"",""time""
""fullscreenenter"",""0"",""4282""
","
","300.30000001192093","","","","","","","","49","0,0,1","1","forest","49","probe-116","0.28354441275596076","0.38809349457143916","0.6861476330118526","0","","","","","","","",""
"","html-keyboard-response","193","879664","0.0-106.0-1.0","""event"",""trial"",""time""
""fullscreenenter"",""0"",""4282""
","
","
","""event"",""trial"",""time""
""fullscreenenter"",""0"",""4282""
","
","null","<p></p>","null","","","","","","","","","","","","","","","","","","","","","","",""
"","do_trial","194","884445","0.0-107.0-0.0","""event"",""trial"",""time""
""fullscreenenter"",""0"",""4282""
","
","
","""event"",""trial"",""time""
""fullscreenenter"",""0"",""4282""
","
","256.60000002384186","","","","","","","","51","0,1,1","1","forest","50","probe-60","0.18654903989334223","0.4251506028543433","0.6391566051569846","1","","","","","","","",""
"","html-keyboard-response","195","885451","0.0-107.0-1.0","""event"",""trial"",""time""
""fullscreenenter"",""0"",""4282""
","
","
","""event"",""trial"",""time""
""fullscreenenter"",""0"",""4282""
","
","null","<p></p>","null","","","","","","","","","","","","","","","","","","","","","","",""
"","do_trial","196","890244","0.0-108.0-0.0","""event"",""trial"",""time""
""fullscreenenter"",""0"",""4282""
","
","
","""event"",""trial"",""time""
""fullscreenenter"",""0"",""4282""
","
","268.89999997615814","","","","","","","","51","0,1,1","1","forest","51","probe-09","0.1534994676243816","0.5335388584683186","0.5657424248840988","1","","","","","","","",""
"","html-keyboard-response","197","891250","0.0-108.0-1.0","""event"",""trial"",""time""
""fullscreenenter"",""0"",""4282""
","
","
","""event"",""trial"",""time""
""fullscreenenter"",""0"",""4282""
","
","null","<p></p>","null","","","","","","","","","","","","","","","","","","","","","","",""
"","do_trial","198","895919","0.0-109.0-0.0","""event"",""trial"",""time""
""fullscreenenter"",""0"",""4282""
","
","
","""event"",""trial"",""time""
""fullscreenenter"",""0"",""4282""
","
","139.89999997615814","","","","","","","","51","0,0,1","1","forest","52","probe-50","0.07790256744805993","0.503636486776231","0.635760472950884","1","","","","","","","",""
"","html-keyboard-response","199","896924","0.0-109.0-1.0","""event"",""trial"",""time""
""fullscreenenter"",""0"",""4282""
","
","
","""event"",""trial"",""time""
""fullscreenenter"",""0"",""4282""
","
","null","<p></p>","null","","","","","","","","","","","","","","","","","","","","","","",""
"","do_trial","200","901721","0.0-110.0-0.0","""event"",""trial"",""time""
""fullscreenenter"",""0"",""4282""
","
","
","""event"",""trial"",""time""
""fullscreenenter"",""0"",""4282""
","
","269.9000000357628","","","","","","","","51","0,1,0","1","forest","53","probe-108","0.11325295418653397","0.3790125623488412","0.5093036243340305","0","","","","","","","",""
"","html-keyboard-response","201","902729","0.0-110.0-1.0","""event"",""trial"",""time""
""fullscreenenter"",""0"",""4282""
","
","
","""event"",""trial"",""time""
""fullscreenenter"",""0"",""4282""
","
","null","<p></p>","null","","","","","","","","","","","","","","","","","","","","","","",""
"","do_trial","202","907484","0.0-111.0-0.0","""event"",""trial"",""time""
""fullscreenenter"",""0"",""4282""
","
","
","""event"",""trial"",""time""
""fullscreenenter"",""0"",""4282""
","
","230.69999998807907","","","","","","","","51","0,1,1","1","forest","54","probe-149","0.08575179981338897","0.40991620350726493","0.37617397951245524","1","","","","","","","",""
"","html-keyboard-response","203","908500","0.0-111.0-1.0","""event"",""trial"",""time""
""fullscreenenter"",""0"",""4282""
","
","
","""event"",""trial"",""time""
""fullscreenenter"",""0"",""4282""
","
","null","<p></p>","null","","","","","","","","","","","","","","","","","","","","","","",""
"","do_trial","204","913346","0.0-112.0-0.0","""event"",""trial"",""time""
""fullscreenenter"",""0"",""4282""
","
","
","""event"",""trial"",""time""
""fullscreenenter"",""0"",""4282""
","
","323.5999999642372","","","","","","","","51","0,1,1","1","forest","55","probe-130","0.17860551358791224","0.5766937250683679","0.5227272607140895","1","","","","","","","",""
"","html-keyboard-response","205","914351","0.0-112.0-1.0","""event"",""trial"",""time""
""fullscreenenter"",""0"",""4282""
","
","
","""event"",""trial"",""time""
""fullscreenenter"",""0"",""4282""
","
","null","<p></p>","null","","","","","","","","","","","","","","","","","","","","","","",""
"","do_trial","206","919464","0.0-113.0-0.0","""event"",""trial"",""time""
""fullscreenenter"",""0"",""4282""
","
","
","""event"",""trial"",""time""
""fullscreenenter"",""0"",""4282""
","
","586.5","","","","","","","","51","0,0,1","1","forest","56","probe-28","0.06435759736460143","0.4329053571019946","0.5750605057808432","1","","","","","","","",""
"","html-keyboard-response","207","920466","0.0-113.0-1.0","""event"",""trial"",""time""
""fullscreenenter"",""0"",""4282""
","
","
","""event"",""trial"",""time""
""fullscreenenter"",""0"",""4282""
","
","null","<p></p>","null","","","","","","","","","","","","","","","","","","","","","","",""
"","do_trial","208","925365","0.0-114.0-0.0","""event"",""trial"",""time""
""fullscreenenter"",""0"",""4282""
","
","
","""event"",""trial"",""time""
""fullscreenenter"",""0"",""4282""
","
","366.80000001192093","","","","","","","","51","0,0,0","1","forest","57","probe-159","0.26371090587648516","0.40392681018102083","0.41746901673946996","0","","","","","","","",""
"","html-keyboard-response","209","926371","0.0-114.0-1.0","""event"",""trial"",""time""
""fullscreenenter"",""0"",""4282""
","
","
","""event"",""trial"",""time""
""fullscreenenter"",""0"",""4282""
","
","null","<p></p>","null","","","","","","","","","","","","","","","","","","","","","","",""
"","do_trial","210","931373","0.0-115.0-0.0","""event"",""trial"",""time""
""fullscreenenter"",""0"",""4282""
","
","
","""event"",""trial"",""time""
""fullscreenenter"",""0"",""4282""
","
","470.80000001192093","","","","","","","","51","0,0,0","1","forest","58","probe-109","0.07931819387734315","0.42386762728240335","0.35560647614672214","0","","","","","","","",""
"","html-keyboard-response","211","932379","0.0-115.0-1.0","""event"",""trial"",""time""
""fullscreenenter"",""0"",""4282""
","
","
","""event"",""trial"",""time""
""fullscreenenter"",""0"",""4282""
","
","null","<p></p>","null","","","","","","","","","","","","","","","","","","","","","","",""
"","do_trial","212","937263","0.0-116.0-0.0","""event"",""trial"",""time""
""fullscreenenter"",""0"",""4282""
","
","
","""event"",""trial"",""time""
""fullscreenenter"",""0"",""4282""
","
","360.60000002384186","","","","","","","","51","0,0,1","1","forest","59","probe-122","0.12791965954931686","0.35002662010047253","0.5112557458749911","1","","","","","","","",""
"","html-keyboard-response","213","938271","0.0-116.0-1.0","""event"",""trial"",""time""
""fullscreenenter"",""0"",""4282""
","
","
","""event"",""trial"",""time""
""fullscreenenter"",""0"",""4282""
","
","null","<p></p>","null","","","","","","","","","","","","","","","","","","","","","","",""
"","do_trial","214","943201","0.0-117.0-0.0","""event"",""trial"",""time""
""fullscreenenter"",""0"",""4282""
","
","
","""event"",""trial"",""time""
""fullscreenenter"",""0"",""4282""
","
","402.7000000476837","","","","","","","","51","1,1,0","1","forest","60","probe-126","0.18444769252692034","0.4462596081475904","0.48514153382318875","0","","","","","","","",""
"","html-keyboard-response","215","944207","0.0-117.0-1.0","""event"",""trial"",""time""
""fullscreenenter"",""0"",""4282""
","
","
","""event"",""trial"",""time""
""fullscreenenter"",""0"",""4282""
","
","null","<p></p>","null","","","","","","","","","","","","","","","","","","","","","","",""
"","do_trial","216","949162","0.0-118.0-0.0","""event"",""trial"",""time""
""fullscreenenter"",""0"",""4282""
","
","
","""event"",""trial"",""time""
""fullscreenenter"",""0"",""4282""
","
","419.69999998807907","","","","","","","","50","0,0,0","1","forest","61","probe-64","0.12748960082293775","0.5037182239068776","0.49961895243640875","0","","","","","","","",""
"","html-keyboard-response","217","950164","0.0-118.0-1.0","""event"",""trial"",""time""
""fullscreenenter"",""0"",""4282""
","
","
","""event"",""trial"",""time""
""fullscreenenter"",""0"",""4282""
","
","null","<p></p>","null","","","","","","","","","","","","","","","","","","","","","","",""
"","do_trial","218","955032","0.0-119.0-0.0","""event"",""trial"",""time""
""fullscreenenter"",""0"",""4282""
","
","
","""event"",""trial"",""time""
""fullscreenenter"",""0"",""4282""
","
","344","","","","","","","","49","0,1,1","1","forest","62","probe-201","0.16250440445554504","0.5703590719082997","0.4732776521227467","0","","","","","","","",""
"","html-keyboard-response","219","956040","0.0-119.0-1.0","""event"",""trial"",""time""
""fullscreenenter"",""0"",""4282""
","
","
","""event"",""trial"",""time""
""fullscreenenter"",""0"",""4282""
","
","null","<p></p>","null","","","","","","","","","","","","","","","","","","","","","","",""
"","do_trial","220","960685","0.0-120.0-0.0","""event"",""trial"",""time""
""fullscreenenter"",""0"",""4282""
","
","
","""event"",""trial"",""time""
""fullscreenenter"",""0"",""4282""
","
","115.90000003576279","","","","","","","","51","0,1,0","1","forest","63","probe-169","0.1060122295080655","0.4692740735604481","0.5439186017979531","0","","","","","","","",""
"","html-keyboard-response","221","961689","0.0-120.0-1.0","""event"",""trial"",""time""
""fullscreenenter"",""0"",""4282""
","
","
","""event"",""trial"",""time""
""fullscreenenter"",""0"",""4282""
","
","null","<p></p>","null","","","","","","","","","","","","","","","","","","","","","","",""
"","do_trial","222","966301","0.0-121.0-0.0","""event"",""trial"",""time""
""fullscreenenter"",""0"",""4282""
","
","
","""event"",""trial"",""time""
""fullscreenenter"",""0"",""4282""
","
","83.89999997615814","","","","","","","","51","0,0,0","1","forest","64","probe-181","0.07770838303574637","0.43352163847373243","0.6353899635400655","0","","","","","","","",""
"","html-keyboard-response","223","967309","0.0-121.0-1.0","""event"",""trial"",""time""
""fullscreenenter"",""0"",""4282""
","
","
","""event"",""trial"",""time""
""fullscreenenter"",""0"",""4282""
","
","null","<p></p>","null","","","","","","","","","","","","","","","","","","","","","","",""
"","do_trial","224","972244","0.0-122.0-0.0","""event"",""trial"",""time""
""fullscreenenter"",""0"",""4282""
","
","
","""event"",""trial"",""time""
""fullscreenenter"",""0"",""4282""
","
","399.5999999642372","","","","","","","","51","0,0,0","1","forest","65","probe-22","0.06720660419621102","0.37154949249298896","0.7407082692238831","0","","","","","","","",""
"","html-keyboard-response","225","973252","0.0-122.0-1.0","""event"",""trial"",""time""
""fullscreenenter"",""0"",""4282""
","
","
","""event"",""trial"",""time""
""fullscreenenter"",""0"",""4282""
","
","null","<p></p>","null","","","","","","","","","","","","","","","","","","","","","","",""
"","do_trial","226","978108","0.0-123.0-0.0","""event"",""trial"",""time""
""fullscreenenter"",""0"",""4282""
","
","
","""event"",""trial"",""time""
""fullscreenenter"",""0"",""4282""
","
","329.7000000476837","","","","","","","","49","0,1,1","1","forest","66","probe-115","0.10762795555948002","0.3665030124408733","0.5563082353149593","0","","","","","","","",""
"","html-keyboard-response","227","979115","0.0-123.0-1.0","""event"",""trial"",""time""
""fullscreenenter"",""0"",""4282""
","
","
","""event"",""trial"",""time""
""fullscreenenter"",""0"",""4282""
","
","null","<p></p>","null","","","","","","","","","","","","","","","","","","","","","","",""
"","do_trial","228","984081","0.0-124.0-0.0","""event"",""trial"",""time""
""fullscreenenter"",""0"",""4282""
","
","
","""event"",""trial"",""time""
""fullscreenenter"",""0"",""4282""
","
","434.5999999642372","","","","","","","","49","1,0,1","1","forest","67","probe-89","0.2119764777136388","0.39422376842340634","0.6650935995553009","1","","","","","","","",""
"","html-keyboard-response","229","985085","0.0-124.0-1.0","""event"",""trial"",""time""
""fullscreenenter"",""0"",""4282""
","
","
","""event"",""trial"",""time""
""fullscreenenter"",""0"",""4282""
","
","null","<p></p>","null","","","","","","","","","","","","","","","","","","","","","","",""
"","do_trial","230","990426","0.0-125.0-0.0","""event"",""trial"",""time""
""fullscreenenter"",""0"",""4282""
","
","
","""event"",""trial"",""time""
""fullscreenenter"",""0"",""4282""
","
","811.3999999761581","","","","","","","","50","0,0,1","1","forest","68","probe-128","0.12512668951414027","0.31667273610388236","0.7061554715058911","0","","","","","","","",""
"","html-keyboard-response","231","991428","0.0-125.0-1.0","""event"",""trial"",""time""
""fullscreenenter"",""0"",""4282""
","
","
","""event"",""trial"",""time""
""fullscreenenter"",""0"",""4282""
","
","null","<p></p>","null","","","","","","","","","","","","","","","","","","","","","","",""
"","do_trial","232","996285","0.0-126.0-0.0","""event"",""trial"",""time""
""fullscreenenter"",""0"",""4282""
","
","
","""event"",""trial"",""time""
""fullscreenenter"",""0"",""4282""
","
","324","","","","","","","","49","1,1,1","1","forest","69","probe-120","0.06569534461605228","0.24758484030134487","0.6777008497924817","1","","","","","","","",""
"","html-keyboard-response","233","997289","0.0-126.0-1.0","""event"",""trial"",""time""
""fullscreenenter"",""0"",""4282""
","
","
","""event"",""trial"",""time""
""fullscreenenter"",""0"",""4282""
","
","null","<p></p>","null","","","","","","","","","","","","","","","","","","","","","","",""
"","do_bye","234","998803","0.0-127.0-0.0","""event"",""trial"",""time""
""fullscreenenter"",""0"",""4282""
","
","
","""event"",""trial"",""time""
""fullscreenenter"",""0"",""4282""
","
","null","","","","","","","","null","","","","","","","","","","","","","","","","",""
"","break","235","1033499","0.0-127.0-1.0","""event"",""trial"",""time""
""fullscreenenter"",""0"",""4282""
","
","
","""event"",""trial"",""time""
""fullscreenenter"",""0"",""4282""
","
","34695.19999998808","<div class='center'><p>Time to take a quick break! You have 2 minutes to rest, but you can move on sooner if you'd like.</p><p> Press the <b>space bar</b> to continue.</p></div>","32","","","","","","","","","","","","","","","","","","","","","","",""
"","do_travel","236","1042513","0.0-128.0-0.0","""event"",""trial"",""time""
""fullscreenenter"",""0"",""4282""
","
","
","""event"",""trial"",""time""
""fullscreenenter"",""0"",""4282""
","
","null","","","","","","","","null","","","","","","","","","","","","","","","","",""
"","do_welcome","237","1046522","0.0-128.0-1.0","""event"",""trial"",""time""
""fullscreenenter"",""0"",""4282""
","
","
","""event"",""trial"",""time""
""fullscreenenter"",""0"",""4282""
","
","null","","","","","","","","null","","","","","","","","","","","","","","","","",""
"","do_trial","238","1053024","0.0-129.0-0.0","""event"",""trial"",""time""
""fullscreenenter"",""0"",""4282""
","
","
","""event"",""trial"",""time""
""fullscreenenter"",""0"",""4282""
","
","1969.0999999642372","","","","","","","","51","0,0,1","2","mountain","70","probe-54","0.06763618038451057","0.15701277741048147","1","1","","","","","","","",""
"","html-keyboard-response","239","1054031","0.0-129.0-1.0","""event"",""trial"",""time""
""fullscreenenter"",""0"",""4282""
","
","
","""event"",""trial"",""time""
""fullscreenenter"",""0"",""4282""
","
","null","<p></p>","null","","","","","","","","","","","","","","","","","","","","","","",""
"","do_trial","240","1059032","0.0-130.0-0.0","""event"",""trial"",""time""
""fullscreenenter"",""0"",""4282""
","
","
","""event"",""trial"",""time""
""fullscreenenter"",""0"",""4282""
","
","470.9000000357628","","","","","","","","50","1,0,1","2","mountain","71","probe-221","0.09827588171516612","0.2647816061589241","1","0","","","","","","","",""
"","html-keyboard-response","241","1060040","0.0-130.0-1.0","""event"",""trial"",""time""
""fullscreenenter"",""0"",""4282""
","
","
","""event"",""trial"",""time""
""fullscreenenter"",""0"",""4282""
","
","null","<p></p>","null","","","","","","","","","","","","","","","","","","","","","","",""
"","do_trial","242","1065245","0.0-131.0-0.0","""event"",""trial"",""time""
""fullscreenenter"",""0"",""4282""
","
","
","""event"",""trial"",""time""
""fullscreenenter"",""0"",""4282""
","
","678.5","","","","","","","","49","0,0,1","2","mountain","72","probe-84","0.0743376261537649","0.18320480745395867","0.8270871046181064","0","","","","","","","",""
"","html-keyboard-response","243","1066247","0.0-131.0-1.0","""event"",""trial"",""time""
""fullscreenenter"",""0"",""4282""
","
","
","""event"",""trial"",""time""
""fullscreenenter"",""0"",""4282""
","
","null","<p></p>","null","","","","","","","","","","","","","","","","","","","","","","",""
"","do_trial","244","1071035","0.0-132.0-0.0","""event"",""trial"",""time""
""fullscreenenter"",""0"",""4282""
","
","
","""event"",""trial"",""time""
""fullscreenenter"",""0"",""4282""
","
","255.5999999642372","","","","","","","","51","0,0,1","2","mountain","73","probe-162","0.09574920512262246","0.19342868182169845","0.7743722720710673","1","","","","","","","",""
"","html-keyboard-response","245","1072041","0.0-132.0-1.0","""event"",""trial"",""time""
""fullscreenenter"",""0"",""4282""
","
","
","""event"",""trial"",""time""
""fullscreenenter"",""0"",""4282""
","
","null","<p></p>","null","","","","","","","","","","","","","","","","","","","","","","",""
"","do_trial","246","1076806","0.0-133.0-0.0","""event"",""trial"",""time""
""fullscreenenter"",""0"",""4282""
","
","
","""event"",""trial"",""time""
""fullscreenenter"",""0"",""4282""
","
","239.0999999642372","","","","","","","","50","0,0,0","2","mountain","74","probe-215","0.07444610608146629","0.2909322204953426","0.6910071386202645","0","","","","","","","",""
"","html-keyboard-response","247","1077812","0.0-133.0-1.0","""event"",""trial"",""time""
""fullscreenenter"",""0"",""4282""
","
","
","""event"",""trial"",""time""
""fullscreenenter"",""0"",""4282""
","
","null","<p></p>","null","","","","","","","","","","","","","","","","","","","","","","",""
"","do_trial","248","1082685","0.0-134.0-0.0","""event"",""trial"",""time""
""fullscreenenter"",""0"",""4282""
","
","
","""event"",""trial"",""time""
""fullscreenenter"",""0"",""4282""
","
","340.2000000476837","","","","","","","","49","0,1,1","2","mountain","75","probe-137","0.10413329546560121","0.41519261184313005","0.6209103345905546","0","","","","","","","",""
"","html-keyboard-response","249","1083691","0.0-134.0-1.0","""event"",""trial"",""time""
""fullscreenenter"",""0"",""4282""
","
","
","""event"",""trial"",""time""
""fullscreenenter"",""0"",""4282""
","
","null","<p></p>","null","","","","","","","","","","","","","","","","","","","","","","",""
"","do_trial","250","1088534","0.0-135.0-0.0","""event"",""trial"",""time""
""fullscreenenter"",""0"",""4282""
","
","
","""event"",""trial"",""time""
""fullscreenenter"",""0"",""4282""
","
","317.5999999642372","","","","","","","","51","0,0,0","2","mountain","76","probe-61","0.11156992397336563","0.374498779295656","0.5715670727116283","0","","","","","","","",""
"","html-keyboard-response","251","1089541","0.0-135.0-1.0","""event"",""trial"",""time""
""fullscreenenter"",""0"",""4282""
","
","
","""event"",""trial"",""time""
""fullscreenenter"",""0"",""4282""
","
","null","<p></p>","null","","","","","","","","","","","","","","","","","","","","","","",""
"","do_trial","252","1095087","0.0-136.0-0.0","""event"",""trial"",""time""
""fullscreenenter"",""0"",""4282""
","
","
","""event"",""trial"",""time""
""fullscreenenter"",""0"",""4282""
","
","1020.3000000119209","","","","","","","","49","0,0,1","2","mountain","77","probe-94","0.1103115795457481","0.43932547814821976","0.587135378074832","0","","","","","","","",""
"","html-keyboard-response","253","1096095","0.0-136.0-1.0","""event"",""trial"",""time""
""fullscreenenter"",""0"",""4282""
","
","
","""event"",""trial"",""time""
""fullscreenenter"",""0"",""4282""
","
","null","<p></p>","null","","","","","","","","","","","","","","","","","","","","","","",""
"","do_trial","254","1101012","0.0-137.0-0.0","""event"",""trial"",""time""
""fullscreenenter"",""0"",""4282""
","
","
","""event"",""trial"",""time""
""fullscreenenter"",""0"",""4282""
","
","387.30000001192093","","","","","","","","50","0,0,0","2","mountain","78","probe-55","0.1047240621653298","0.4354380236752914","0.3572071454339333","0","","","","","","","",""
"","html-keyboard-response","255","1102020","0.0-137.0-1.0","""event"",""trial"",""time""
""fullscreenenter"",""0"",""4282""
","
","
","""event"",""trial"",""time""
""fullscreenenter"",""0"",""4282""
","
","null","<p></p>","null","","","","","","","","","","","","","","","","","","","","","","",""
"","do_trial","256","1106890","0.0-138.0-0.0","""event"",""trial"",""time""
""fullscreenenter"",""0"",""4282""
","
","
","""event"",""trial"",""time""
""fullscreenenter"",""0"",""4282""
","
","334.39999997615814","","","","","","","","51","0,1,1","2","mountain","79","probe-36","0.13571434694059772","0.5076449058227829","0.41964535396306735","1","","","","","","","",""
"","html-keyboard-response","257","1107896","0.0-138.0-1.0","""event"",""trial"",""time""
""fullscreenenter"",""0"",""4282""
","
","
","""event"",""trial"",""time""
""fullscreenenter"",""0"",""4282""
","
","null","<p></p>","null","","","","","","","","","","","","","","","","","","","","","","",""
"","do_trial","258","1112971","0.0-139.0-0.0","""event"",""trial"",""time""
""fullscreenenter"",""0"",""4282""
","
","
","""event"",""trial"",""time""
""fullscreenenter"",""0"",""4282""
","
","539","","","","","","","","51","0,1,1","2","mountain","80","probe-211","0.16976419379191474","0.6729654446955203","0.4149133049740528","1","","","","","","","",""
"","html-keyboard-response","259","1113975","0.0-139.0-1.0","""event"",""trial"",""time""
""fullscreenenter"",""0"",""4282""
","
","
","""event"",""trial"",""time""
""fullscreenenter"",""0"",""4282""
","
","null","<p></p>","null","","","","","","","","","","","","","","","","","","","","","","",""
"","do_trial","260","1118926","0.0-140.0-0.0","""event"",""trial"",""time""
""fullscreenenter"",""0"",""4282""
","
","
","""event"",""trial"",""time""
""fullscreenenter"",""0"",""4282""
","
","428.69999998807907","","","","","","","","51","0,1,0","2","mountain","81","probe-21","0.07188646472800458","0.8426552929378381","0.4184313862217979","0","","","","","","","",""
"","html-keyboard-response","261","1119930","0.0-140.0-1.0","""event"",""trial"",""time""
""fullscreenenter"",""0"",""4282""
","
","
","""event"",""trial"",""time""
""fullscreenenter"",""0"",""4282""
","
","null","<p></p>","null","","","","","","","","","","","","","","","","","","","","","","",""
