"success","trial_type","trial_index","time_elapsed","internal_node_id","rt","stimulus","key_press","subject_id","response","choice_outcomes","context_n","context_img_id","trial_n","probe_img_id","pR_red","pR_white","pR_black","outcome","contextArray_ind","validImageProbes","invalidImageProbes","pRew_Red","pRew_White","pRew_Black","availableForMemProbe","choice_blocks"
"true","fullscreen","0","11683","0.0-0.0","","","","","","","","","","","","","","","","","","","","","",""
"","pavlovia","1","11687","0.0-1.0","","","","","","","","","","","","","","","","","","","","","",""
"","html-keyboard-response","2","133975","0.0-2.0","122286.3999999999","<div class='center'><p>Welcome! This is the first day of the experiment which will last ~30 minutes. In this experiment, you are the head captain of a pirate ship traveling around the world to different places. You will complete several different tasks during this experiment. Here is an overview of these tasks:</p><br><p>Day 1</p><p>1. Tutorial and quiz</p><p>2. Pick a pirate game in 6 different places</p><br><p>Day 2</p><p>3. Pick a pirate game and memory game</p><p>4. Final questions and payment</p><br><p>If you complete the entire experiment, you will receive $15 and a possible bonus payment.</p><p><b>[Press the space bar to begin the tutorial]</b></p></div>","32","61017d3331333228be3346ee","","","","","","","","","","","","","","","","","",""
"","html-keyboard-response","3","143987","0.0-3.0","10010.19999999972","<div class='center'><p>You are the head captain of a pirate ship.</p><p> Your pirates rob other ships as they leave the marketplace port.</p> These ships have just sold all their goods at the marketplace, so they have lots and lots of gold on them.</p><p><img src='run_exp/static/images/ship_center.png' height='400'></p><p><b>[Press the space bar to continue]</b></p></div>","32","","","","","","","","","","","","","","","","","","",""
"","html-keyboard-response","4","161509","0.0-4.0","17520.299999999814","<div class='center'><p>As the head captain, you do not have to rob any ships yourself.</p><p>You get to choose which pirate you want to rob the next ship. </p><p>If they are successful at robbing the ship, then you will get gold coins.</p><p> If they are not successful, then you will get no gold coins.</p><p> The more coins you collect, the more bonus money you will win. So, choose your pirate wisely.</p><p><img src='run_exp/static/images/goal.png' height='400'></p><p><b>[Press the space bar to continue]</b></p><div>","32","","","","","","","","","","","","","","","","","","",""
"","html-keyboard-response","5","175016","0.0-5.0","13505.399999999907","<div class='center'><p>Even the most skilled pirate will not be able to rob EVERY ship.</p><p> Some ships will have very strong defenses against attacks.</p><p> For example, blue beard, here,  is very good at robbing ships.</p><p> You can press the <b>‘1’</b> button on the keyboard to choose him.</p><p> Try choosing him 10 times to see how often he is successful at robbing ships. </p><p><img src='run_exp/static/images/blue.png' height='500'></p></div>","49","","","","","","","","","","","","","","","","","","",""
"","html-keyboard-response","6","176518","0.0-6.0","null","<br><br><br><br><p><img src='run_exp/static/images/blue_win.png' height='500'></p>","null","","","","","","","","","","","","","","","","","","",""
"","html-keyboard-response","7","176558","0.0-7.0","39.299999999813735","<br><br><br><br><p><img src='run_exp/static/images/blue.png' height='500'></p>","49","","","","","","","","","","","","","","","","","","",""
"","html-keyboard-response","8","178060","0.0-8.0","null","<br><br><br><br><p><img src='run_exp/static/images/blue_win.png' height='500'></p>","null","","","","","","","","","","","","","","","","","","",""
"","html-keyboard-response","9","180218","0.0-9.0","2156","<br><br><br><br><p><img src='run_exp/static/images/blue.png' height='500'></p>","49","","","","","","","","","","","","","","","","","","",""
"","html-keyboard-response","10","181719","0.0-10.0","null","<br><br><br><br><p><img src='run_exp/static/images/blue_win.png' height='500'></p>","null","","","","","","","","","","","","","","","","","","",""
"","html-keyboard-response","11","181848","0.0-11.0","127.29999999981374","<br><br><br><br><p><img src='run_exp/static/images/blue.png' height='500'></p>","49","","","","","","","","","","","","","","","","","","",""
"","html-keyboard-response","12","183350","0.0-12.0","null","<br><br><br><br><p><img src='run_exp/static/images/blue_no_win.png' height='500'></p>","null","","","","","","","","","","","","","","","","","","",""
"","html-keyboard-response","13","184728","0.0-13.0","1377.1000000000931","<br><br><br><br><p><img src='run_exp/static/images/blue.png' height='500'></p>","49","","","","","","","","","","","","","","","","","","",""
"","html-keyboard-response","14","186229","0.0-14.0","null","<br><br><br><br><p><img src='run_exp/static/images/blue_win.png' height='500'></p>","null","","","","","","","","","","","","","","","","","","",""
"","html-keyboard-response","15","188192","0.0-15.0","1960.9000000003725","<br><br><br><br><p><img src='run_exp/static/images/blue.png' height='500'></p>","49","","","","","","","","","","","","","","","","","","",""
"","html-keyboard-response","16","189693","0.0-16.0","null","<br><br><br><br><p><img src='run_exp/static/images/blue_win.png' height='500'></p>","null","","","","","","","","","","","","","","","","","","",""
"","html-keyboard-response","17","190796","0.0-17.0","1101.1999999997206","<br><br><br><br><p><img src='run_exp/static/images/blue.png' height='500'></p>","49","","","","","","","","","","","","","","","","","","",""
"","html-keyboard-response","18","192297","0.0-18.0","null","<br><br><br><br><p><img src='run_exp/static/images/blue_win.png' height='500'></p>","null","","","","","","","","","","","","","","","","","","",""
"","html-keyboard-response","19","193129","0.0-19.0","830.0999999996275","<br><br><br><br><p><img src='run_exp/static/images/blue.png' height='500'></p>","49","","","","","","","","","","","","","","","","","","",""
"","html-keyboard-response","20","194631","0.0-20.0","null","<br><br><br><br><p><img src='run_exp/static/images/blue_no_win.png' height='500'></p>","null","","","","","","","","","","","","","","","","","","",""
"","html-keyboard-response","21","195449","0.0-21.0","816.5","<br><br><br><br><p><img src='run_exp/static/images/blue.png' height='500'></p>","49","","","","","","","","","","","","","","","","","","",""
"","html-keyboard-response","22","196950","0.0-22.0","null","<br><br><br><br><p><img src='run_exp/static/images/blue_win.png' height='500'></p>","null","","","","","","","","","","","","","","","","","","",""
"","html-keyboard-response","23","198890","0.0-23.0","1938.8000000002794","<br><br><br><br><p><img src='run_exp/static/images/blue.png' height='500'></p>","49","","","","","","","","","","","","","","","","","","",""
"","html-keyboard-response","24","200392","0.0-24.0","null","<br><br><br><br><p><img src='run_exp/static/images/blue_win.png' height='500'></p>","null","","","","","","","","","","","","","","","","","","",""
"","html-keyboard-response","25","204579","0.0-25.0","4186.799999999814","<div class='center'><p> See, he was successful at robbing the ships most of the time but not every time. </p><p><b>[Press the space bar to continue]</b></p></div>","32","","","","","","","","","","","","","","","","","","",""
"","html-keyboard-response","26","215329","0.0-26.0","10747.5","<div class='center'><p>In the game, you will get to choose which of three pirates you want to rob the next ship. <p>Press the <b>‘1’</b> button on your keyboard to pick the pirate with the red beard.</p><p> Press <b>‘2’</b> to pick the pirate with the white beard.</p><p> Press <b>‘3’</b> to pick the pirate with the black beard.</p><p>Try picking a pirate now!</p><p><img src='run_exp/static/images/all_pirates.png' height='500'></p></div>","50","","","","","","","","","","","","","","","","","","",""
"","html-keyboard-response","27","218216","0.0-27.0-0.0","2884.899999999907","<div class='center'><p>This pirate was successful at robbing the ship!</p><p><img src='run_exp/static/images/white_win.png' height='500'></p><p><b>[Press the space bar to continue]</b></p></div>","32","","","","","","","","","","","","","","","","","","",""
"","html-keyboard-response","28","220308","0.0-27.0-1.0","2090.5","<div class='center'><p>Now try choosing another</p><p><img src='run_exp/static/images/all_pirates.png' height='500'></p></div>","50","","","","","","","","","","","","","","","","","","",""
"","html-keyboard-response","29","221735","0.0-28.0-0.0","1425.6000000000931","<div class='center'><p>This pirate was not successful at robbing the ship!</p><p><img src='run_exp/static/images/white_no_win.png' height='500'></p><p><b>[Press the space bar to continue]</b></p></div>","32","","","","","","","","","","","","","","","","","","",""
"","html-keyboard-response","30","231704","0.0-29.0-0.0","9968.399999999907","<div class='center'><p>You’ll stop at these 6 places on your journey.</p><p><img src='run_exp/static/images/all_contexts.png' height='500'></p><p><b>[Press the space bar to continue]</b></p></div>","32","","","","","","","","","","","","","","","","","","",""
"","html-keyboard-response","31","240826","0.0-29.0-1.0","9120.200000000186","<div class='center'><p>How good a pirate is at robbing ships will depend on the current place.</p><p> Some pirates will have been to the place before, and will have more experience robbing ships there.</p><p>So, they will be more successful at stealing gold and bringing it back to you.</p><p><b>[Press the space bar to continue]</b></p></div>","32","","","","","","","","","","","","","","","","","","",""
"","html-keyboard-response","32","264406","0.0-29.0-2.0","23579","<div class='center'><p>How successful a pirate is at robbing ships can also change in a place.<p> Ships may hear about the pirates coming and will improve their defenses. This may make it more difficult to rob them.</p><p> Ships may also grow lazy and lower their defenses. This may make it easier to rob them.</p><br><p>Things are always changing on the high seas! So, try your best to pay attention!</p><p><img src='run_exp/static/images/contingency.png' height='500'></p><p><b>[Press the space bar to continue]</b></p></div>","32","","","","","","","","","","","","","","","","","","",""
"","html-keyboard-response","33","310547","0.0-29.0-3.0","46139.39999999991","<div class='center'><p>Once you choose a pirate to rob a ship, you’ll be shown the ship they are robbing.</p><p>The ship will have a picture of the item they sold at the marketplace.</p><p> Try your best to remember the ship and where you saw the ship.</p><p> You’ll have to remember this for later, and remembering this correctly will help you win more bonus money!</p><p>You can remember the ship by remembering the item they sold at the marketplace</p><p>A helpful strategy is to try to come up with a story of the chosen pirate and ship’s item interacting with the scene.</p><p> For example, a ship might have sold travel mugs and you could imagine red beard walking through the city with a travel mug. </p><p>Or imagine an apple falling from a tree into white beard's hands in the forest.</p><p><img src='run_exp/static/images/example_probe.png' height='500'></p><p><b>[Press the space bar to continue]</b></p></div>","32","","","","","","","","","","","","","","","","","","",""
"","html-keyboard-response","34","316366","0.0-29.0-4.0","5818.0999999996275","<div class='center'><p>If you don’t make your choice fast enough, you’ll have to wait a few seconds before you can make another one. </p><p>You can’t win more gold. You just have to sit and wait.</p><p><img src='run_exp/static/images/hurry_up.png' height='500'></p><p><b>[Press the space bar to continue]</b></p></div>","32","","","","","","","","","","","","","","","","","","",""
"","html-keyboard-response","35","406645","0.0-29.0-5.0","90277.20000000019","<div class='center'><p>Again, you have two important things to do: </p><b><p> 1. Pick the pirate who you think will be most successful at robbing the next ship.</p></b><b><p> 2. Remember where a pirate robbed a ship.</p> </b><p>Both are important in determining how much bonus money you’ll win.</p><br><p>Let’s try a practice game. The game will start by showing you the pirates. First pick a pirate using the <b> 1, 2, 3 </b> buttons on your keyboard. When you are shown a ship, try to remember the place you’re in by making up a story.</p><p> You only have 3 seconds to pick a pirate, so please make a choice quickly! If you are too slow, you’ll have to wait a bit during the time out.</p><p> Don’t feel rushed, but please do try to make a choice every time.</p><p>How good a pirate is at robbing a ship will change depending on the place they are in and how good the defenses are of the ship.</p> <p>This is just a practice game, so you’re not playing for money. </p><p>You’ll receive a bag which may or may not contain gold coins.</p><p> In the real game, though, you’ll be able to see whether or not you received the gold coins.</p><p> Good luck, remember press <b>'1'</b> to choose red beard, <b>'2'</b> to choose white beard, and <b>'3'</b> to choose black beard</p><p><b>[Press the space bar to begin the practice game]</b></p></div>","32","","","","","","","","","","","","","","","","","","",""
"","do_trial_prac","36","412947","0.0-29.0-6.0","1794.3000000002794","","","","50","","","","","","","","","","","","","","","","",""
"","do_trial_prac","37","418954","0.0-29.0-7.0","null","","","","null","","","","","","","","","","","","","","","","",""
"","do_trial_prac","38","424977","0.0-29.0-8.0","1518","","","","51","","","","","","","","","","","","","","","","",""
"","do_trial_prac","39","431073","0.0-29.0-9.0","1590.5","","","","49","","","","","","","","","","","","","","","","",""
"","do_trial_prac","40","438160","0.0-29.0-10.0","2582.4000000003725","","","","51","","","","","","","","","","","","","","","","",""
"","html-keyboard-response","41","482493","0.0-29.0-11.0","44331","<div class='center'><p>Great job on the practice game!</p><p> Now, you will be asked you some true or false questions to make sure you really understand the rules of the game.</p><p> Press <b>'1'</b> on the keyboard for true and press <b>'2'</b> for false.</p><p><b>[Press the space bar to begin the quiz]</b></p></div>","32","","","","","","","","","","","","","","","","","","",""
"","html-keyboard-response","42","487043","0.0-29.0-12.0","4549","<div class='center'><p>You win bonus money by making choices as fast as possible.</p><p>Press 1 for true and press  2 for false.</p></div>","50","","","","","","","","","","","","","","","","","","",""
"","html-keyboard-response","43","488027","0.0-30.0-0.0","982.7000000001863","<br><br><br><br><p>That's correct!</p> <p><b>[press the space bar to continue with the quiz]</b></p>","32","","","","","","","","","","","","","","","","","","",""
"","html-keyboard-response","44","496640","0.0-30.0-1.0","8611.700000000186","<div class='center'><p>You press the <b>‘3’</b> button on the keyboard to choose the red bearded pirate? </p><p>Press 1 for true and press  2 for false.</p></div>","50","","","","","","","","","","","","","","","","","","",""
"","html-keyboard-response","45","497663","0.0-31.0-0.0","1021.7000000001863","<br><br><br><br><p>That's correct!</p> <p><b>[press the space bar to continue with the quiz]</b></p>","32","","","","","","","","","","","","","","","","","","",""
"","html-keyboard-response","46","500419","0.0-31.0-1.0","2754.7000000001863","<div class='center'><p>A pirate will always be equally successful at robbing ships in each place</p><p>Press 1 for true and press  2 for false.</p></div>","50","","","","","","","","","","","","","","","","","","",""
"","html-keyboard-response","47","500957","0.0-32.0-0.0","536.7999999998137","<br><br><br><br><p>That's correct!</p> <p><b>[press the space bar to continue with the quiz]</b></p>","32","","","","","","","","","","","","","","","","","","",""
"","html-keyboard-response","48","502605","0.0-32.0-1.0","1647.5","<div class='center'><p>You should remember the place where a pirate robbed a ship.</p><p>Press 1 for true and press  2 for false.</p></div>","49","","","","","","","","","","","","","","","","","","",""
"","html-keyboard-response","49","503084","0.0-33.0-0.0","470","<br><br><br><br><p>That's correct!</p> <p><b>[press the space bar to continue with the quiz]</b></p>","32","","","","","","","","","","","","","","","","","","",""
"","html-keyboard-response","50","504776","0.0-34.0-0.0","1688.9000000003725","<br><br><br><br><p>Good job! You’re now ready to move on to the real game!</p> <p><br>[press the space bar to begin!]</br></p>","32","","","","","","","","","","","","","","","","","","",""
"","do_welcome","51","506281","0.0-35.0-0.0","null","","","","null","","","","","","","","","","","","","","","","",""
"","do_trial","52","512901","0.0-36.0-0.0","2058.2000000001863","","","","49","1,0,0","0","coast","0","probe-21","1","0.4","0.1","1","","","","","","","",""
"","do_trial","53","518959","0.0-37.0-0.0","null","","","","null","1,0,0","0","coast","1","probe-193","1","0.3411156980557021","0.14374873915251393","","","","","","","","",""
"","do_trial","54","524918","0.0-38.0-0.0","1402.300000000745","","","","50","1,0,0","0","coast","2","probe-234","1","0.44703688948170545","0.16667566574042839","0","","","","","","","",""
"","do_trial","55","531580","0.0-39.0-0.0","2105.7000000001863","","","","51","1,0,0","0","coast","3","probe-96","1","0.46595322836794056","0.0907198027215857","0","","","","","","","",""
"","do_trial","56","538439","0.0-40.0-0.0","2301.2000000001863","","","","49","0,1,0","0","coast","4","probe-04","0.6489207963766824","0.5479161908434198","0.2436002166735439","0","","","","","","","",""
"","do_trial","57","545651","0.0-41.0-0.0","2655.7999999998137","","","","49","0,0,0","0","coast","5","probe-224","0.6586243473090326","0.5525518647460848","0.18334619833434906","0","","","","","","","",""
"","do_trial","58","551708","0.0-42.0-0.0","null","","","","null","1,0,1","0","coast","6","probe-74","0.7148621193979645","0.43125291042422403","0.16174254598739907","","","","","","","","",""
"","do_trial","59","557571","0.0-43.0-0.0","1304.6000000005588","","","","50","1,1,0","0","coast","7","probe-75","0.7403617647006105","0.4348471118628126","0.17546880647307483","1","","","","","","","",""
"","do_trial","60","563803","0.0-44.0-0.0","1675.9000000003725","","","","51","1,1,0","0","coast","8","probe-51","0.7169800463378367","0.3803170238314186","0.10056460818070663","0","","","","","","","",""
"","do_trial","61","571098","0.0-45.0-0.0","2720.5999999996275","","","","51","1,0,0","0","coast","9","probe-71","0.7270880811703656","0.39893966203217124","0.2264327450281821","0","","","","","","","",""
"","do_trial","62","578612","0.0-46.0-0.0","2957.4000000003725","","","","49","0,1,1","0","coast","10","probe-66","0.6228103532841966","0.39863616871274654","0.4083298267360668","0","","","","","","","",""
"","do_trial","63","585746","0.0-47.0-0.0","2575.7999999998137","","","","49","0,1,0","0","coast","11","probe-46","0.5008071826087369","0.47292731873131155","0.5610148843731907","0","","","","","","","",""
"","do_trial","64","592916","0.0-48.0-0.0","2613.2000000001863","","","","50","1,1,1","0","coast","12","probe-98","0.2891101777586214","0.5712082697030819","0.6738201754251822","1","","","","","","","",""
"","do_trial","65","598972","0.0-49.0-0.0","null","","","","null","0,1,0","0","coast","13","probe-211","0.2576895052602325","0.4344617331148389","0.7656168415556107","","","","","","","","",""
"","do_trial","66","605505","0.0-50.0-0.0","1976","","","","50","0,1,1","0","coast","14","probe-148","0.1354780491854625","0.5114316347501792","0.8737396382901206","1","","","","","","","",""
"","do_trial","67","611942","0.0-51.0-0.0","1880.2000000001863","","","","49","0,0,0","0","coast","15","probe-210","0.15087516877029905","0.4586869460989799","0.8765887812220748","0","","","","","","","",""
"","do_trial","68","618527","0.0-52.0-0.0","2027.3999999994412","","","","49","0,0,1","0","coast","16","probe-102","0.2889108741633148","0.5268918079353556","0.9197008161532518","0","","","","","","","",""
"","do_trial","69","625979","0.0-53.0-0.0","2895.399999999441","","","","51","1,1,1","0","coast","17","probe-68","0.3446684719739492","0.616766897545021","0.9145441621714296","1","","","","","","","",""
"","do_trial","70","633153","0.0-54.0-0.0","2617.100000000559","","","","50","1,1,1","0","coast","18","probe-221","0.29056651065579203","0.5301698405856693","0.9123477928451965","1","","","","","","","",""
"","do_trial","71","639282","0.0-55.0-0.0","1571.2000000001863","","","","50","0,1,1","0","coast","19","probe-128","0.22542566097908626","0.5495972045423172","0.7373610483231636","1","","","","","","","",""
"","do_trial","72","645340","0.0-56.0-0.0","null","","","","null","0,0,0","0","coast","20","probe-203","0.19203950625864621","0.4520325015342224","0.8273334914719084","","","","","","","","",""
"","do_trial","73","650350","0.0-57.0-0.0","454.90000000037253","","","","51","0,1,1","0","coast","21","probe-137","0.12824157471037592","0.3535075978534156","0.8036576769382888","1","","","","","","","",""
"","do_trial","74","656525","0.0-58.0-0.0","1617.7000000001863","","","","50","0,0,0","0","coast","22","probe-205","0.17484446646221335","0.2299098835844391","0.713879595105542","0","","","","","","","",""
"","do_trial","75","662583","0.0-59.0-0.0","null","","","","null","0,0,1","0","coast","23","probe-45","0.09245160856515477","0.2539640696698812","0.8287878532879889","","","","","","","","",""
"","do_trial","76","667717","0.0-60.0-0.0","578.0999999996275","","","","49","0,0,1","0","coast","24","probe-02","0.07694604061528859","0.23833489725933535","0.7362752779406643","0","","","","","","","",""
"","do_trial","77","673946","0.0-61.0-0.0","1671.9000000003725","","","","50","0,1,1","0","coast","25","probe-29","0.08094519551380687","0.3183666382796423","0.7120843708225367","1","","","","","","","",""
"","do_trial","78","680510","0.0-62.0-0.0","2007.5","","","","50","1,0,1","0","coast","26","probe-140","0.18850999694632187","0.4297523470853028","0.8082669103179447","0","","","","","","","",""
"","do_trial","79","686279","0.0-63.0-0.0","1213","","","","51","0,1,1","0","coast","27","probe-217","0.08211496872475946","0.4468172884210723","0.7796273386963202","1","","","","","","","",""
"","do_trial","80","692714","0.0-64.0-0.0","1876.699999999255","","","","49","0,1,1","0","coast","28","probe-09","0.07088020277631281","0.5326574257542283","0.8514066646677803","0","","","","","","","",""
"","do_trial","81","699483","0.0-65.0-0.0","2212.5999999996275","","","","49","0,0,1","0","coast","29","probe-88","0.08620867874919794","0.48705246762629295","0.7820651164706632","0","","","","","","","",""
"","do_trial","82","705893","0.0-66.0-0.0","1852.5","","","","51","0,1,1","0","coast","30","probe-24","0.06626957862240737","0.5095177447532107","0.6761395703889781","1","","","","","","","",""
"","do_trial","83","712262","0.0-67.0-0.0","1812.2999999998137","","","","50","0,0,1","0","coast","31","probe-151","0.05276014026139201","0.3433993532287741","0.8226038358283084","0","","","","","","","",""
"","do_trial","84","718319","0.0-68.0-0.0","null","","","","null","0,1,1","0","coast","32","probe-42","0.09267337201600181","0.3784680424422566","0.891570455599486","","","","","","","","",""
"","do_trial","85","723250","0.0-69.0-0.0","373.8999999994412","","","","51","0,0,1","0","coast","33","probe-97","0.13338807070644637","0.3380783028089488","0.8958006295719403","1","","","","","","","",""
"","do_trial","86","730309","0.0-70.0-0.0","2501.4000000003725","","","","51","1,1,1","0","coast","34","probe-81","0.15253780723128738","0.41052979692172736","0.8438066516537517","1","","","","","","","",""
"","do_trial","87","736283","0.0-71.0-0.0","1417.7000000001863","","","","51","0,0,0","0","coast","35","probe-61","0.1783300026200196","0.29003834615602064","0.752448540821557","0","","","","","","","",""
"","do_trial","88","743052","0.0-72.0-0.0","2213.600000000559","","","","50","0,0,1","0","coast","36","probe-176","0.2704000322416574","0.3519475994723555","0.7184976564503875","0","","","","","","","",""
"","do_trial","89","749108","0.0-73.0-0.0","null","","","","null","0,1,1","0","coast","37","probe-219","0.16400622621902244","0.29938985136223717","0.8116850461921934","","","","","","","","",""
"","do_trial","90","755143","0.0-74.0-0.0","1476","","","","50","0,1,1","0","coast","38","probe-156","0.195739816358624","0.44087511285451914","0.8268551840493903","1","","","","","","","",""
"","do_trial","91","762212","0.0-75.0-0.0","2511.4000000003725","","","","51","0,0,1","0","coast","39","probe-108","0.33946277350294163","0.4672897670941616","0.7064073820022027","1","","","","","","","",""
"","do_bye","92","763716","0.0-76.0-0.0","null","","","","null","","","","","","","","","","","","","","","","",""
"","do_travel","93","769719","0.0-77.0-0.0","null","","","","null","","","","","","","","","","","","","","","","",""
"","do_welcome","94","771224","0.0-77.0-1.0","null","","","","null","","","","","","","","","","","","","","","","",""
"","do_trial","95","777924","0.0-78.0-0.0","2141.5","","","","49","1,0,1","1","mountain","40","probe-220","0.5037960425206034","0.4403127844924201","1","1","","","","","","","",""
"","do_trial","96","783980","0.0-79.0-0.0","null","","","","null","0,0,1","1","mountain","41","probe-161","0.49309316498497263","0.5238940130585037","1","","","","","","","","",""
"","do_trial","97","789751","0.0-80.0-0.0","1214","","","","49","0,1,1","1","mountain","42","probe-188","0.29706095858465126","0.5164997223321186","1","0","","","","","","","",""
"","do_trial","98","795726","0.0-81.0-0.0","1418.199999999255","","","","50","0,1,1","1","mountain","43","probe-214","0.33334927290398847","0.5096920115074086","1","1","","","","","","","",""
"","do_trial","99","801811","0.0-82.0-0.0","1528.0999999996275","","","","50","0,0,1","1","mountain","44","probe-123","0.2020768227452141","0.60795582468219","0.8835154358720071","0","","","","","","","",""
"","do_trial","100","808986","0.0-83.0-0.0","2617.399999999441","","","","50","1,0,0","1","mountain","45","probe-168","0.31939772812737305","0.49681942650053984","0.8373976085576419","0","","","","","","","",""
"","do_trial","101","814802","0.0-84.0-0.0","1260.3999999994412","","","","51","0,1,1","1","mountain","46","probe-26","0.28916632734163433","0.6062638842474896","0.8482670249571268","1","","","","","","","",""
"","do_trial","102","821762","0.0-85.0-0.0","2402.7999999998137","","","","51","0,0,1","1","mountain","47","probe-235","0.16114755594095354","0.5280346980384099","0.8464786585535578","1","","","","","","","",""
"","do_trial","103","828170","0.0-86.0-0.0","1851.5","","","","49","0,0,1","1","mountain","48","probe-146","0.10351734115094767","0.5176017129476035","0.8793211874811732","0","","","","","","","",""
"","do_trial","104","835338","0.0-87.0-0.0","2610","","","","49","0,0,1","1","mountain","49","probe-30","0.05283415605451698","0.4129806849725857","0.7460123588551248","0","","","","","","","",""
"","do_trial","105","841514","0.0-88.0-0.0","1619","","","","50","0,1,0","1","mountain","50","probe-41","0.07590331692785367","0.6048949139408016","0.44067098280347095","1","","","","","","","",""
"","do_trial","106","848132","0.0-89.0-0.0","2061.5","","","","50","0,0,1","1","mountain","51","probe-39","0.10360688015017568","0.643418893314279","0.4426542921738581","0","","","","","","","",""
"","do_trial","107","853199","0.0-90.0-0.0","510.29999999981374","","","","51","0,1,0","1","mountain","52","probe-117","0.08478513993096487","0.544142023133057","0.22836140174550182","0","","","","","","","",""
"","do_trial","108","858123","0.0-91.0-0.0","367.29999999981374","","","","50","0,1,1","1","mountain","53","probe-240","0.1571854114496027","0.6296546652672295","0.23690243693837026","1","","","","","","","",""
"","do_trial","109","865252","0.0-92.0-0.0","2571.9000000003725","","","","50","0,1,0","1","mountain","54","probe-55","0.1714198118859508","0.7016136402926774","0.3088601723243708","1","","","","","","","",""
"","do_trial","110","871386","0.0-93.0-0.0","1578.2000000001863","","","","49","0,1,0","1","mountain","55","probe-125","0.09585123529469186","0.8459935499938394","0.34286394986020136","0","","","","","","","",""
"","do_trial","111","877371","0.0-94.0-0.0","1428.5","","","","51","0,1,0","1","mountain","56","probe-18","0.1095642825040033","0.8777734408244345","0.3421102925463444","0","","","","","","","",""
"","do_trial","112","882376","0.0-95.0-0.0","447.59999999962747","","","","51","0,1,0","1","mountain","57","probe-85","0.07525645002113972","0.8163302267023745","0.4968910925168941","0","","","","","","","",""
"","do_trial","113","887339","0.0-96.0-0.0","407.70000000018626","","","","50","0,1,0","1","mountain","58","probe-91","0.08174409413639572","0.772684752673839","0.42580773750878875","1","","","","","","","",""
"","do_trial","114","893596","0.0-97.0-0.0","1700.4000000003725","","","","49","0,0,0","1","mountain","59","probe-201","0.21861587420881798","0.6566545087137122","0.4606283152065212","0","","","","","","","",""
"","do_trial","115","899445","0.0-98.0-0.0","1293","","","","49","0,1,1","1","mountain","60","probe-38","0.20226939272472358","0.7716400352176532","0.502522062039414","0","","","","","","","",""
"","do_trial","116","904715","0.0-99.0-0.0","712.5999999996275","","","","49","1,1,1","1","mountain","61","probe-232","0.202375891108821","0.9337706162341306","0.4457705002035292","1","","","","","","","",""
"","do_trial","117","911118","0.0-100.0-0.0","1845.6000000005588","","","","50","0,1,1","1","mountain","62","probe-14","0.12888877746406047","0.8760927091162944","0.5925389237727228","1","","","","","","","",""
"","do_trial","118","917583","0.0-101.0-0.0","1908.4000000003725","","","","50","1,0,0","1","mountain","63","probe-105","0.11373000451426218","0.913652052982395","0.4326390888613081","0","","","","","","","",""
"","do_trial","119","922681","0.0-102.0-0.0","542.0999999996275","","","","51","0,1,0","1","mountain","64","probe-37","0.1351929244186715","0.9260471151476248","0.2835265400386004","0","","","","","","","",""
"","do_trial","120","928445","0.0-103.0-0.0","1207.9000000003725","","","","50","1,1,0","1","mountain","65","probe-92","0.19394977589983636","0.8525101740059909","0.3433443726389948","1","","","","","","","",""
"","do_trial","121","934682","0.0-104.0-0.0","1679.800000000745","","","","49","0,0,0","1","mountain","66","probe-189","0.0647907375747","0.8203126036807088","0.3655242006831446","0","","","","","","","",""
"","do_trial","122","941141","0.0-105.0-0.0","1903.4000000003725","","","","49","0,1,0","1","mountain","67","probe-237","0.11292234663026954","0.7847926259294491","0.34429211830440837","0","","","","","","","",""
"","do_trial","123","946276","0.0-106.0-0.0","577.3000000007451","","","","51","0,1,0","1","mountain","68","probe-228","0.06499794021093101","0.7673641378245967","0.35753376193620584","0","","","","","","","",""
"","do_trial","124","951643","0.0-107.0-0.0","809.8000000007451","","","","50","0,1,0","1","mountain","69","probe-22","0.05543038402488049","0.9016267501328922","0.28151212632264805","1","","","","","","","",""
"","do_trial","125","957345","0.0-108.0-0.0","1145.5","","","","50","1,1,1","1","mountain","70","probe-173","0.16446726792755248","0.8829182908291646","0.4511511820769949","1","","","","","","","",""
"","do_trial","126","963958","0.0-109.0-0.0","2056.2999999998137","","","","49","0,0,1","1","mountain","71","probe-73","0.10966303163510802","0.8916990059883194","0.32948241943646284","0","","","","","","","",""
"","do_trial","127","969513","0.0-110.0-0.0","997.3999999994412","","","","50","1,1,1","1","mountain","72","probe-78","0.06129450816653807","0.94105712151976","0.4363935721720432","1","","","","","","","",""
"","do_trial","128","976372","0.0-111.0-0.0","2303","","","","49","0,1,0","1","mountain","73","probe-223","0.11555479984411533","0.9237263831785734","0.41400291633557246","0","","","","","","","",""
"","do_trial","129","982035","0.0-112.0-0.0","1105.5","","","","50","0,1,0","1","mountain","74","probe-163","0.23269664918981142","0.8834167930026774","0.3504584060557248","1","","","","","","","",""
"","do_trial","130","987679","0.0-113.0-0.0","1087.5","","","","50","0,1,1","1","mountain","75","probe-131","0.14656315584378252","0.8205006455199869","0.4474466092146239","1","","","","","","","",""
"","do_trial","131","993621","0.0-114.0-0.0","1380.7000000001863","","","","50","0,0,0","1","mountain","76","probe-194","0.062380171600155396","0.8004624294459841","0.372480732479453","0","","","","","","","",""
"","do_trial","132","999075","0.0-115.0-0.0","898.3999999994412","","","","51","1,1,0","1","mountain","77","probe-218","0.14738898427822594","0.7696483411473943","0.21765354549611815","0","","","","","","","",""
"","do_trial","133","1005132","0.0-116.0-0.0","null","","","","null","0,1,1","1","mountain","78","probe-169","0.17674670821753666","0.7742542318164573","0.23586386086587055","","","","","","","","",""
"","do_trial","134","1010250","0.0-117.0-0.0","561.2999999998137","","","","51","0,1,0","1","mountain","79","probe-239","0.22538771811945568","0.8030475482237445","0.2335094618868996","0","","","","","","","",""
"","do_bye","135","1011755","0.0-118.0-0.0","null","","","","null","","","","","","","","","","","","","","","","",""
"","do_travel","136","1017757","0.0-119.0-0.0","null","","","","null","","","","","","","","","","","","","","","","",""
"","do_welcome","137","1019261","0.0-119.0-1.0","null","","","","null","","","","","","","","","","","","","","","","",""
"","do_trial","138","1025841","0.0-120.0-0.0","2019.7000000001863","","","","49","1,1,0","2","countryside","80","probe-143","0.23104075374242977","1","0.3580907035806491","1","","","","","","","",""
"","do_trial","139","1032823","0.0-121.0-0.0","2424.7000000001863","","","","50","0,1,0","2","countryside","81","probe-158","0.23944754033690274","1","0.3725771948501722","1","","","","","","","",""
"","do_trial","140","1039984","0.0-122.0-0.0","2605","","","","51","0,1,0","2","countryside","82","probe-19","0.243573406860205","1","0.36463292592919166","0","","","","","","","",""
"","do_trial","141","1045618","0.0-123.0-0.0","1076.1000000005588","","","","51","0,1,0","2","countryside","83","probe-174","0.14630542920098802","1","0.49985308904493236","0","","","","","","","",""
"","do_trial","142","1051675","0.0-124.0-0.0","null","","","","null","0,1,1","2","countryside","84","probe-182","0.1492983362506965","0.9105850488790179","0.4847844032781994","","","","","","","","",""
"","do_trial","143","1057402","0.0-125.0-0.0","1171.5","","","","50","1,1,1","2","countryside","85","probe-08","0.236524028980999","0.8979572498783017","0.5850985450852195","1","","","","","","","",""
"","do_trial","144","1063638","0.0-126.0-0.0","1680","","","","49","0,1,1","2","countryside","86","probe-106","0.17681117116838707","0.9072473454251616","0.3408373207771051","0","","","","","","","",""
"","do_trial","145","1069270","0.0-127.0-0.0","1075.300000000745","","","","50","0,0,1","2","countryside","87","probe-13","0.05501546396465448","0.8795831798226837","0.45615019783058125","0","","","","","","","",""
"","do_trial","146","1074955","0.0-128.0-0.0","1127.7999999998137","","","","51","0,1,0","2","countryside","88","probe-147","0.06242968409584137","0.9476583452502584","0.3716417685436542","0","","","","","","","",""
"","do_trial","147","1080258","0.0-129.0-0.0","743.2999999998137","","","","51","0,1,1","2","countryside","89","probe-23","0.09420003784853354","0.9171833067952915","0.41171114781800333","1","","","","","","","",""
"","do_trial","148","1086583","0.0-130.0-0.0","1768","","","","51","0,0,1","2","countryside","90","probe-155","0.17047154460130406","0.4595195328451136","0.6133170429978446","1","","","","","","","",""
"","do_trial","149","1093040","0.0-131.0-0.0","1901","","","","49","0,0,1","2","countryside","91","probe-192","0.2790520259302558","0.23785556413191625","0.517796704631206","0","","","","","","","",""
"","do_trial","150","1099019","0.0-132.0-0.0","1421.7000000001863","","","","49","0,0,0","2","countryside","92","probe-89","0.31157829523654396","0.1281042675994214","0.5581298990990671","0","","","","","","","",""
"","do_trial","151","1103977","0.0-133.0-0.0","399.8999999994412","","","","49","0,0,0","2","countryside","93","probe-133","0.3997294265055503","0.08506185570314599","0.5611439673249496","0","","","","","","","",""
"","do_trial","152","1109207","0.0-134.0-0.0","671.6000000005588","","","","50","1,0,1","2","countryside","94","probe-69","0.36970089678689955","0.08050569081064379","0.5929161139968232","0","","","","","","","",""
"","do_trial","153","1115543","0.0-135.0-0.0","1779.5","","","","50","0,0,0","2","countryside","95","probe-115","0.30016273326122755","0.06040848033507061","0.5238268715377007","0","","","","","","","",""
"","do_trial","154","1121113","0.0-136.0-0.0","1014.2000000001863","","","","51","1,1,1","2","countryside","96","probe-213","0.390756762852845","0.10259192069900808","0.6697443856774663","1","","","","","","","",""
"","do_trial","155","1127737","0.0-137.0-0.0","2066.699999999255","","","","51","0,0,0","2","countryside","97","probe-62","0.4887099671645217","0.10211812508491068","0.6819769466454931","0","","","","","","","",""
"","do_trial","156","1134030","0.0-138.0-0.0","1736.2999999998137","","","","50","0,0,1","2","countryside","98","probe-136","0.30997040189544556","0.06790715731566421","0.6330814096129802","0","","","","","","","",""
"","do_trial","157","1139336","0.0-139.0-0.0","749.4000000003725","","","","49","0,1,1","2","countryside","99","probe-77","0.3910756569219016","0.21115377437236987","0.6085247703778996","0","","","","","","","",""
"","do_trial","158","1144647","0.0-140.0-0.0","753.7000000001863","","","","49","0,0,1","2","countryside","100","probe-110","0.3994293660334814","0.09373976648447492","0.6853871154409518","0","","","","","","","",""
"","do_trial","159","1149501","0.0-141.0-0.0","298","","","","50","0,0,1","2","countryside","101","probe-152","0.30027824872418224","0.08365704761972814","0.8196461625459697","0","","","","","","","",""
"","do_trial","160","1155264","0.0-142.0-0.0","1207","","","","50","1,0,1","2","countryside","102","probe-36","0.42265492438689917","0.23112383669495612","0.7631314253142643","0","","","","","","","",""
"","do_trial","161","1160642","0.0-143.0-0.0","820.5","","","","51","0,0,1","2","countryside","103","probe-160","0.39108389903389923","0.2937183852553153","0.6923194574099023","1","","","","","","","",""
"","do_trial","162","1166461","0.0-144.0-0.0","1263.0999999996275","","","","51","0,0,1","2","countryside","104","probe-183","0.32841714459946025","0.11041272555530647","0.6940917723611378","1","","","","","","","",""
"","do_trial","163","1172178","0.0-145.0-0.0","1159.4000000003725","","","","51","1,1,1","2","countryside","105","probe-15","0.4586619978326433","0.2210163018694096","0.7763148885213161","1","","","","","","","",""
"","do_trial","164","1178196","0.0-146.0-0.0","1459.8999999994412","","","","51","0,0,1","2","countryside","106","probe-05","0.479671914123792","0.18592989942311375","0.8658925071043102","1","","","","","","","",""
"","do_trial","165","1184208","0.0-147.0-0.0","1456.1000000005588","","","","51","0,0,1","2","countryside","107","probe-171","0.3622479656110312","0.09049819906827622","0.8467534136463796","1","","","","","","","",""
"","do_trial","166","1191471","0.0-148.0-0.0","2706.5","","","","51","0,0,1","2","countryside","108","probe-162","0.44952412182678764","0.1948239965490611","0.8282592513586934","1","","","","","","","",""
"","do_trial","167","1198064","0.0-149.0-0.0","2035.7999999998137","","","","50","0,0,0","2","countryside","109","probe-153","0.5079970925542747","0.1720420238475638","0.8174477605491792","0","","","","","","","",""
"","do_trial","168","1203063","0.0-150.0-0.0","441.70000000018626","","","","51","0,0,1","2","countryside","110","probe-142","0.5117964511699373","0.10567630114522572","0.906751103305894","1","","","","","","","",""
"","do_trial","169","1209944","0.0-151.0-0.0","2324.5999999996275","","","","49","0,0,1","2","countryside","111","probe-141","0.41741437203362225","0.15595879746566904","0.8853939058153003","0","","","","","","","",""
"","do_trial","170","1214991","0.0-152.0-0.0","489.90000000037253","","","","51","0,0,1","2","countryside","112","probe-124","0.22092435427585078","0.2495953488111217","0.8610617469148352","1","","","","","","","",""
"","do_trial","171","1221887","0.0-153.0-0.0","2338.399999999441","","","","51","1,1,1","2","countryside","113","probe-204","0.2732307441819711","0.33614520815637167","0.7639869718721934","1","","","","","","","",""
"","do_trial","172","1227888","0.0-154.0-0.0","1444.2999999998137","","","","51","0,0,1","2","countryside","114","probe-215","0.3370026731229789","0.33236607762798237","0.7295759020244842","1","","","","","","","",""
"","do_trial","173","1233722","0.0-155.0-0.0","1273.5","","","","51","1,1,0","2","countryside","115","probe-172","0.1984114870292541","0.4091545378291372","0.7215481022832184","0","","","","","","","",""
"","do_trial","174","1239477","0.0-156.0-0.0","1199.7000000001863","","","","50","0,0,1","2","countryside","116","probe-231","0.06655607894461521","0.29904285043901374","0.8789421318199578","0","","","","","","","",""
"","do_trial","175","1245001","0.0-157.0-0.0","967.2000000001863","","","","51","0,0,0","2","countryside","117","probe-53","0.2100851740597524","0.050905287079311815","0.7008299870941141","0","","","","","","","",""
"","do_trial","176","1249995","0.0-158.0-0.0","434.90000000037253","","","","49","0,0,1","2","countryside","118","probe-65","0.26572689161385643","0.08847210165767418","0.7680262786988853","0","","","","","","","",""
"","do_trial","177","1255518","0.0-159.0-0.0","966.5","","","","50","1,0,1","2","countryside","119","probe-31","0.4367854623735854","0.07788487651740772","0.7560422963941313","0","","","","","","","",""
"","do_bye","178","1257022","0.0-160.0-0.0","null","","","","null","","","","","","","","","","","","","","","","",""
"","do_travel","179","1263025","0.0-161.0-0.0","null","","","","null","","","","","","","","","","","","","","","","",""
"","do_welcome","180","1264529","0.0-161.0-1.0","null","","","","null","","","","","","","","","","","","","","","","",""
"","do_trial","181","1270659","0.0-162.0-0.0","1573.5","","","","49","1,0,1","3","city","120","probe-56","0.43185955925249014","0.12829501574552574","1","1","","","","","","","",""
"","do_trial","182","1276610","0.0-163.0-0.0","1395.2999999998137","","","","50","1,0,1","3","city","121","probe-132","0.44153752164950716","0.06743005869639886","1","0","","","","","","","",""
"","do_trial","183","1282814","0.0-164.0-0.0","1646.7000000001863","","","","50","0,0,1","3","city","122","probe-111","0.5940375940086006","0.1349181067059753","1","0","","","","","","","",""
"","do_trial","184","1288741","0.0-165.0-0.0","1371","","","","50","1,0,1","3","city","123","probe-179","0.45050152987468145","0.1683923267813063","1","0","","","","","","","",""
"","do_trial","185","1293632","0.0-166.0-0.0","333.1000000005588","","","","51","1,1,1","3","city","124","probe-185","0.34332223057393846","0.18434866883940573","0.9303855709690505","1","","","","","","","",""
"","do_trial","186","1299859","0.0-167.0-0.0","1671.2999999998137","","","","51","0,0,1","3","city","125","probe-03","0.367822932674576","0.17073159113912698","0.9338002225801727","1","","","","","","","",""
"","do_trial","187","1306045","0.0-168.0-0.0","1629.6000000005588","","","","51","1,0,1","3","city","126","probe-170","0.42419918663350437","0.13116050921196543","0.6813175739593157","1","","","","","","","",""
"","do_trial","188","1312315","0.0-169.0-0.0","1714.7000000001863","","","","51","1,0,0","3","city","127","probe-54","0.4348584730458434","0.06566910965516722","0.6727644013424142","0","","","","","","","",""
"","do_trial","189","1317815","0.0-170.0-0.0","943.1000000005588","","","","50","1,0,1","3","city","128","probe-06","0.5573428090016238","0.05977972910728616","0.7475884548212953","0","","","","","","","",""
"","do_trial","190","1323501","0.0-171.0-0.0","1128","","","","49","0,0,1","3","city","129","probe-107","0.36780518380969307","0.09670455546435376","0.8648191110828606","0","","","","","","","",""
"","do_trial","191","1329020","0.0-172.0-0.0","962.7000000001863","","","","49","1,0,1","3","city","130","probe-118","0.636877538239041","0.06874976748016805","0.7046398349027067","1","","","","","","","",""
"","do_trial","192","1335992","0.0-173.0-0.0","2414.5","","","","49","0,0,1","3","city","131","probe-47","0.69045303161487","0.11715237535325822","0.595459996496907","0","","","","","","","",""
"","do_trial","193","1340859","0.0-174.0-0.0","309.40000000037253","","","","51","1,0,1","3","city","132","probe-83","0.8202437330944454","0.09310444366624754","0.5730949864383221","1","","","","","","","",""
"","do_trial","194","1346042","0.0-175.0-0.0","626.0999999996275","","","","51","1,0,1","3","city","133","probe-135","0.6893715776757404","0.08865385176157364","0.6030472793813725","1","","","","","","","",""
"","do_trial","195","1352688","0.0-176.0-0.0","2088.9000000003725","","","","51","1,0,1","3","city","134","probe-165","0.7223555471415452","0.08499393022765798","0.4386978475560238","1","","","","","","","",""
"","do_trial","196","1358745","0.0-177.0-0.0","null","","","","null","1,0,1","3","city","135","probe-32","0.758566406004471","0.2525089357653639","0.5022687975870944","","","","","","","","",""
"","do_trial","197","1363773","0.0-178.0-0.0","471.90000000037253","","","","51","1,0,0","3","city","136","probe-99","0.8716977334446113","0.08225160961926183","0.5426554314774038","0","","","","","","","",""
"","do_trial","198","1369831","0.0-179.0-0.0","null","","","","null","1,0,1","3","city","137","probe-119","0.9365720870564858","0.0873971992603517","0.5492737573044764","","","","","","","","",""
"","do_trial","199","1375042","0.0-180.0-0.0","655.2999999998137","","","","50","1,0,1","3","city","138","probe-233","0.86048165302786","0.127333618260695","0.4903451112488388","0","","","","","","","",""
"","do_trial","200","1381152","0.0-181.0-0.0","1552.4000000003725","","","","50","1,0,0","3","city","139","probe-67","0.8457123460736827","0.1299542392981232","0.5469170738751278","0","","","","","","","",""
"","do_trial","201","1386596","0.0-182.0-0.0","887.4000000003725","","","","51","1,0,1","3","city","140","probe-198","0.6420371260237121","0.29391591666218364","0.6348390982106056","1","","","","","","","",""
"","do_trial","202","1392653","0.0-183.0-0.0","null","","","","null","1,0,0","3","city","141","probe-79","0.811349089296711","0.31457048267325477","0.4566993006537311","","","","","","","","",""
"","do_trial","203","1399900","0.0-184.0-0.0","2690.2999999998137","","","","51","1,1,0","3","city","142","probe-35","0.7932892473766284","0.36808257251393905","0.3989510369056821","0","","","","","","","",""
"","do_trial","204","1406969","0.0-185.0-0.0","2512.2999999998137","","","","50","1,1,0","3","city","143","probe-227","0.8286566011140342","0.1806577356566276","0.37897704589461745","1","","","","","","","",""
"","do_trial","205","1413665","0.0-186.0-0.0","2139.2000000001863","","","","50","0,0,0","3","city","144","probe-181","0.7880617981704622","0.07577702088249107","0.3962281892257661","0","","","","","","","",""
"","do_trial","206","1419953","0.0-187.0-0.0","1731.7999999998137","","","","50","1,0,0","3","city","145","probe-216","0.8044738168945704","0.12679387432456893","0.44022323074080355","0","","","","","","","",""
"","do_trial","207","1427168","0.0-188.0-0.0","2658.7000000001863","","","","49","1,1,0","3","city","146","probe-226","0.9069340551840989","0.2481371574275788","0.3932634690973753","1","","","","","","","",""
"","do_trial","208","1433434","0.0-189.0-0.0","1710.2999999998137","","","","49","1,0,0","3","city","147","probe-28","0.8007159588696332","0.14176973068588564","0.3951709998889155","1","","","","","","","",""
"","do_trial","209","1439492","0.0-190.0-0.0","null","","","","null","1,0,0","3","city","148","probe-72","0.850501269953338","0.2504772602605273","0.2874843673551078","","","","","","","","",""
"","do_trial","210","1445312","0.0-191.0-0.0","1262.5","","","","50","1,0,1","3","city","149","probe-10","0.8346431205704302","0.07545115741227403","0.4853747743400134","0","","","","","","","",""
"","do_trial","211","1450092","0.0-192.0-0.0","224.29999999981374","","","","51","1,1,0","3","city","150","probe-126","0.8700996443972947","0.1721739655077333","0.4991252672751948","0","","","","","","","",""
"","do_trial","212","1454905","0.0-193.0-0.0","251.29999999981374","","","","49","1,0,1","3","city","151","probe-138","0.8668171109662209","0.09198066700276983","0.5249056333665914","1","","","","","","","",""
"","do_trial","213","1461882","0.0-194.0-0.0","2420.5999999996275","","","","49","1,0,0","3","city","152","probe-43","0.8529303380130051","0.09947278427321952","0.5018772086034562","1","","","","","","","",""
"","do_trial","214","1468540","0.0-195.0-0.0","2102","","","","49","1,0,0","3","city","153","probe-44","0.7880185484749536","0.17201063243197676","0.5283567589513326","1","","","","","","","",""
"","do_trial","215","1475886","0.0-196.0-0.0","2790.5","","","","49","1,0,0","3","city","154","probe-11","0.7548959217926223","0.0955561127770449","0.481205305435754","1","","","","","","","",""
"","do_trial","216","1481944","0.0-197.0-0.0","null","","","","null","1,0,0","3","city","155","probe-95","0.8092582135420818","0.10234176265940059","0.5478008863736854","","","","","","","","",""
"","do_trial","217","1487883","0.0-198.0-0.0","1382.7000000001863","","","","50","1,1,0","3","city","156","probe-195","0.8198116057425958","0.13817446759076152","0.6320491599597257","1","","","","","","","",""
"","do_trial","218","1494237","0.0-199.0-0.0","1797.2000000001863","","","","50","1,0,0","3","city","157","probe-50","0.9022200853323535","0.05935777404110182","0.4750124538154781","0","","","","","","","",""
"","do_trial","219","1500294","0.0-200.0-0.0","null","","","","null","1,0,0","3","city","158","probe-100","0.7963849911892658","0.09976078677654796","0.4154496421295336","","","","","","","","",""
"","do_trial","220","1506563","0.0-201.0-0.0","1711.7000000001863","","","","50","1,0,0","3","city","159","probe-196","0.7877494478292713","0.09830800877295603","0.33836686738092503","0","","","","","","","",""
"","do_bye","221","1508067","0.0-202.0-0.0","null","","","","null","","","","","","","","","","","","","","","","",""
"","do_travel","222","1514070","0.0-203.0-0.0","null","","","","null","","","","","","","","","","","","","","","","",""
"","do_welcome","223","1515574","0.0-203.0-1.0","null","","","","null","","","","","","","","","","","","","","","","",""
"","do_trial","224","1521634","0.0-204.0-0.0","1502.6000000005588","","","","49","1,0,0","4","highway","160","probe-49","1","0.07011417007077002","0.3919370275929711","1","","","","","","","",""
"","do_trial","225","1527690","0.0-205.0-0.0","null","","","","null","1,0,0","4","highway","161","probe-175","1","0.12163262341325956","0.3046470652864781","","","","","","","","",""
"","do_trial","226","1533380","0.0-206.0-0.0","1129","","","","50","1,0,0","4","highway","162","probe-207","1","0.11335360381856614","0.09546480726207285","0","","","","","","","",""
"","do_trial","227","1538745","0.0-207.0-0.0","808.4000000003725","","","","50","1,0,0","4","highway","163","probe-17","1","0.08911449389014088","0.20316598149685217","0","","","","","","","",""
"","do_trial","228","1544269","0.0-208.0-0.0","967.7000000001863","","","","51","1,1,0","4","highway","164","probe-166","0.9013723709816219","0.2268547488049715","0.21694241844179624","0","","","","","","","",""
"","do_trial","229","1549419","0.0-209.0-0.0","592.5999999996275","","","","50","1,0,0","4","highway","165","probe-94","0.8250339122882323","0.33122891396200316","0.19836959537766788","0","","","","","","","",""
"","do_trial","230","1554646","0.0-210.0-0.0","670.2000000001863","","","","49","1,1,0","4","highway","166","probe-104","0.7292582354115448","0.35879269227879157","0.30078069419788384","1","","","","","","","",""
"","do_trial","231","1559984","0.0-211.0-0.0","781.7000000001863","","","","49","1,0,0","4","highway","167","probe-48","0.7266356621264227","0.21597837505833906","0.40253761775846775","1","","","","","","","",""
"","do_trial","232","1566206","0.0-212.0-0.0","1665.2000000001863","","","","49","1,0,0","4","highway","168","probe-177","0.7890943405709946","0.18408008506121745","0.37388739556314726","1","","","","","","","",""
"","do_trial","233","1571461","0.0-213.0-0.0","697.2000000001863","","","","49","1,1,1","4","highway","169","probe-127","0.6044650409172306","0.19774747759265524","0.42032112861771986","1","","","","","","","",""
"","do_trial","234","1577606","0.0-214.0-0.0","1588","","","","49","0,1,0","4","highway","170","probe-07","0.520759254977245","0.5802936231709871","0.249092448396622","0","","","","","","","",""
"","do_trial","235","1582566","0.0-215.0-0.0","401.70000000018626","","","","49","1,1,0","4","highway","171","probe-82","0.4938091942153016","0.844587442555007","0.21034849722281185","1","","","","","","","",""
"","do_trial","236","1589386","0.0-216.0-0.0","2263.7000000001863","","","","49","1,1,0","4","highway","172","probe-121","0.5203666324711564","0.7279067662038626","0.1254366806681079","1","","","","","","","",""
"","do_trial","237","1595070","0.0-217.0-0.0","1127.9000000003725","","","","49","0,1,0","4","highway","173","probe-109","0.5193075905706853","0.7718256974268424","0.15978108565441285","0","","","","","","","",""
"","do_trial","238","1601073","0.0-218.0-0.0","1446.2000000001863","","","","50","0,1,0","4","highway","174","probe-27","0.39405140953769296","0.8497194432355419","0.11725948497896424","1","","","","","","","",""
"","do_trial","239","1607056","0.0-219.0-0.0","1425.2000000001863","","","","50","0,1,0","4","highway","175","probe-76","0.51490347569571","0.8220981524963462","0.11646282313766003","1","","","","","","","",""
"","do_trial","240","1612716","0.0-220.0-0.0","1101.7000000001863","","","","50","0,1,0","4","highway","176","probe-186","0.6187645063388469","0.7741063712246158","0.0776681627209336","1","","","","","","","",""
"","do_trial","241","1618207","0.0-221.0-0.0","935.0999999996275","","","","50","1,1,0","4","highway","177","probe-93","0.543114271085636","0.863920668500907","0.2364077119456986","1","","","","","","","",""
"","do_trial","242","1624510","0.0-222.0-0.0","1744.7000000001863","","","","51","0,1,0","4","highway","178","probe-103","0.4928738716142327","0.9118871233740667","0.21455708415326688","0","","","","","","","",""
"","do_trial","243","1629451","0.0-223.0-0.0","385.29999999981374","","","","50","1,1,0","4","highway","179","probe-25","0.5797646119695491","0.932904965715937","0.21073782229121985","1","","","","","","","",""
"","do_trial","244","1635509","0.0-224.0-0.0","null","","","","null","1,1,0","4","highway","180","probe-12","0.40521509568598457","0.755557517592047","0.13809474639419025","","","","","","","","",""
"","do_trial","245","1640387","0.0-225.0-0.0","321.8999999994412","","","","50","0,1,0","4","highway","181","probe-101","0.4623586939523818","0.8837673617894667","0.1702516827656077","1","","","","","","","",""
"","do_trial","246","1646648","0.0-226.0-0.0","1704.0999999996275","","","","51","1,1,1","4","highway","182","probe-236","0.3755219818524412","0.7206635575217827","0.15392148652954435","1","","","","","","","",""
"","do_trial","247","1653714","0.0-227.0-0.0","2510.5","","","","51","0,1,0","4","highway","183","probe-64","0.2606930646075586","0.7563645386791502","0.09175366916920265","0","","","","","","","",""
"","do_trial","248","1659129","0.0-228.0-0.0","857.5999999996275","","","","50","0,1,0","4","highway","184","probe-63","0.34263826228570643","0.8882077437082133","0.13568495389526963","1","","","","","","","",""
"","do_trial","249","1665187","0.0-229.0-0.0","null","","","","null","1,0,0","4","highway","185","probe-87","0.5242832281774008","0.6699333522767329","0.06754428352503836","","","","","","","","",""
"","do_trial","250","1670738","0.0-230.0-0.0","994.9000000003725","","","","50","1,1,0","4","highway","186","probe-139","0.5774588245602857","0.7244054352754526","0.06268091058111219","1","","","","","","","",""
"","do_trial","251","1675970","0.0-231.0-0.0","675.2000000001863","","","","50","0,0,0","4","highway","187","probe-208","0.4820067216720335","0.7621524442668797","0.1885042128917731","0","","","","","","","",""
"","do_trial","252","1683234","0.0-232.0-0.0","2707.2000000001863","","","","49","0,1,0","4","highway","188","probe-58","0.4087670358102684","0.8678358592938186","0.08529858050763847","0","","","","","","","",""
"","do_trial","253","1690462","0.0-233.0-0.0","2671.2999999998137","","","","50","0,0,0","4","highway","189","probe-113","0.37476142785603717","0.7736626590376563","0.13468193218967658","0","","","","","","","",""
"","do_trial","254","1697050","0.0-234.0-0.0","2031.300000000745","","","","50","1,1,0","4","highway","190","probe-145","0.37832230427028535","0.8852917352618067","0.05415172217269571","1","","","","","","","",""
"","do_trial","255","1702781","0.0-235.0-0.0","1174.2000000001863","","","","50","1,1,0","4","highway","191","probe-191","0.3907143602305946","0.9311171797737456","0.20258697754756327","1","","","","","","","",""
"","do_trial","256","1708237","0.0-236.0-0.0","899.7000000001863","","","","50","1,1,0","4","highway","192","probe-238","0.3829050958684193","0.846212373662959","0.07936564228473547","1","","","","","","","",""
"","do_trial","257","1713505","0.0-237.0-0.0","711","","","","50","0,1,0","4","highway","193","probe-112","0.4451587332653109","0.8667420044792986","0.12225000785999723","1","","","","","","","",""
"","do_trial","258","1718384","0.0-238.0-0.0","322","","","","50","0,0,0","4","highway","194","probe-184","0.4253928402576657","0.9418475624078694","0.1212144258625825","0","","","","","","","",""
"","do_trial","259","1723537","0.0-239.0-0.0","597","","","","50","1,1,0","4","highway","195","probe-40","0.4133894104714003","0.8113841169487392","0.13020198622618073","1","","","","","","","",""
"","do_trial","260","1729596","0.0-240.0-0.0","null","","","","null","0,1,1","4","highway","196","probe-130","0.3292199981884194","0.7819040585833581","0.12660280825619705","","","","","","","","",""
"","do_trial","261","1734576","0.0-241.0-0.0","423.40000000037253","","","","50","1,1,0","4","highway","197","probe-57","0.3786671668256962","0.874596682274776","0.062228261301854014","1","","","","","","","",""
"","do_trial","262","1739574","0.0-242.0-0.0","438.5","","","","49","0,1,0","4","highway","198","probe-222","0.4389007558904377","0.939413591114909","0.16980509804608282","0","","","","","","","",""
"","do_trial","263","1745086","0.0-243.0-0.0","956.7999999998137","","","","50","1,1,0","4","highway","199","probe-122","0.48273593190280295","0.8401787091206159","0.14929013351307616","1","","","","","","","",""
"","do_bye","264","1746591","0.0-244.0-0.0","null","","","","null","","","","","","","","","","","","","","","","",""
"","do_travel","265","1752593","0.0-245.0-0.0","null","","","","null","","","","","","","","","","","","","","","","",""
"","do_welcome","266","1754098","0.0-245.0-1.0","null","","","","null","","","","","","","","","","","","","","","","",""
"","do_trial","267","1760597","0.0-246.0-0.0","1941.1000000005588","","","","50","1,1,0","5","forest","200","probe-197","0.6422939870008983","1","0.20824183096979754","1","","","","","","","",""
"","do_trial","268","1765711","0.0-247.0-0.0","555.8000000007451","","","","50","1,1,1","5","forest","201","probe-116","0.6094280695413967","1","0.3386210266941009","1","","","","","","","",""
"","do_trial","269","1770544","0.0-248.0-0.0","276.1000000005588","","","","50","1,1,0","5","forest","202","probe-114","0.4787827962187803","1","0.12471218083766861","1","","","","","","","",""
"","do_trial","270","1775391","0.0-249.0-0.0","290.90000000037253","","","","50","0,1,0","5","forest","203","probe-225","0.6296350519666484","1","0.05593338835784864","1","","","","","","","",""
"","do_trial","271","1780492","0.0-250.0-0.0","544.2000000001863","","","","50","1,1,0","5","forest","204","probe-150","0.44898196848503136","0.9299807266425643","0.2131793094284449","1","","","","","","","",""
"","do_trial","272","1785302","0.0-251.0-0.0","251.90000000037253","","","","50","0,1,0","5","forest","205","probe-187","0.33481588142592467","0.7642918970901827","0.16660288739964071","1","","","","","","","",""
"","do_trial","273","1790507","0.0-252.0-0.0","646.3000000007451","","","","50","1,0,0","5","forest","206","probe-59","0.30605474325556287","0.8240283248546092","0.17207406189744057","0","","","","","","","",""
"","do_trial","274","1795175","0.0-253.0-0.0","111.29999999981374","","","","51","1,1,0","5","forest","207","probe-180","0.233034241345337","0.9396387315614376","0.21944599562758516","0","","","","","","","",""
"","do_trial","275","1799984","0.0-254.0-0.0","251.70000000018626","","","","49","0,1,0","5","forest","208","probe-164","0.27220692769390736","0.9376451595399192","0.22024536668629696","0","","","","","","","",""
"","do_trial","276","1804841","0.0-255.0-0.0","299.79999999981374","","","","50","1,1,1","5","forest","209","probe-229","0.4495412400891607","0.9091583415472333","0.2045963125820706","1","","","","","","","",""
"","do_trial","277","1809586","0.0-256.0-0.0","188.09999999962747","","","","50","1,0,1","5","forest","210","probe-157","0.5365808869283035","0.6060073960947278","0.2853322602895248","0","","","","","","","",""
"","do_trial","278","1814812","0.0-257.0-0.0","670.7000000001863","","","","50","0,0,1","5","forest","211","probe-80","0.6822417933186337","0.4540219976389363","0.3880209041826146","0","","","","","","","",""
"","do_trial","279","1819454","0.0-258.0-0.0","85.90000000037253","","","","49","1,0,0","5","forest","212","probe-202","0.8229108505097698","0.4037508294838213","0.48867292645668914","1","","","","","","","",""
"","do_trial","280","1824359","0.0-259.0-0.0","348.1000000005588","","","","49","1,0,1","5","forest","213","probe-70","0.7457379279085781","0.24407614852497392","0.5287631931028675","1","","","","","","","",""
"","do_trial","281","1829209","0.0-260.0-0.0","291.1000000005588","","","","51","1,1,0","5","forest","214","probe-90","0.8187966646860327","0.12011075930413918","0.4406744734279339","0","","","","","","","",""
"","do_trial","282","1834392","0.0-261.0-0.0","626.0999999996275","","","","49","1,0,1","5","forest","215","probe-86","0.8280080305007971","0.0782954491789514","0.5513242112270503","1","","","","","","","",""
"","do_trial","283","1839270","0.0-262.0-0.0","321.79999999981374","","","","50","1,0,0","5","forest","216","probe-167","0.7654061417819267","0.07542802711267274","0.3600816758758954","0","","","","","","","",""
"","do_trial","284","1843998","0.0-263.0-0.0","171.1000000005588","","","","49","1,1,0","5","forest","217","probe-120","0.8684162559761919","0.12442966411103841","0.31177157410556944","1","","","","","","","",""
"","do_trial","285","1849262","0.0-264.0-0.0","704.7999999998137","","","","49","0,0,0","5","forest","218","probe-84","0.7771297519216515","0.1818859058408766","0.15694190741963784","0","","","","","","","",""
"","do_trial","286","1854270","0.0-265.0-0.0","450.70000000018626","","","","50","1,0,0","5","forest","219","probe-159","0.8246694576053807","0.1161065050972995","0.2810571287365027","0","","","","","","","",""
"","do_trial","287","1859120","0.0-266.0-0.0","293.3999999994412","","","","51","1,0,0","5","forest","220","probe-129","0.8180911127700626","0.0836268823982089","0.3148660273924944","0","","","","","","","",""
"","do_trial","288","1863966","0.0-267.0-0.0","289.29999999981374","","","","51","1,0,0","5","forest","221","probe-190","0.9233190531080564","0.24520336367795445","0.4174947918606268","0","","","","","","","",""
"","do_trial","289","1868882","0.0-268.0-0.0","359.20000000018626","","","","50","1,1,1","5","forest","222","probe-33","0.7757250363162096","0.23389994836716363","0.44911443589941846","1","","","","","","","",""
"","do_trial","290","1874242","0.0-269.0-0.0","803.7999999998137","","","","50","1,0,0","5","forest","223","probe-154","0.7848487317183633","0.141704604665343","0.5397094014150328","0","","","","","","","",""
"","do_trial","291","1879107","0.0-270.0-0.0","307.8999999994412","","","","50","0,0,0","5","forest","224","probe-149","0.7351971885294296","0.08408459763632856","0.560008847869532","0","","","","","","","",""
"","do_trial","292","1884645","0.0-271.0-0.0","983","","","","49","1,0,1","5","forest","225","probe-230","0.7512090634991266","0.10470771513013874","0.4074974176123044","1","","","","","","","",""
"","do_trial","293","1890112","0.0-272.0-0.0","907.7999999998137","","","","50","0,0,1","5","forest","226","probe-60","0.765670735456417","0.2263756909861502","0.4342527330538974","0","","","","","","","",""
"","do_trial","294","1896255","0.0-273.0-0.0","1586.5999999996275","","","","50","1,0,1","5","forest","227","probe-134","0.7821299483972805","0.15876885596095786","0.4740329585913896","0","","","","","","","",""
"","do_trial","295","1901197","0.0-274.0-0.0","385.5","","","","51","1,0,1","5","forest","228","probe-199","0.6889051459267759","0.2355949772974406","0.5188034442512547","1","","","","","","","",""
"","do_trial","296","1906307","0.0-275.0-0.0","553.7000000001863","","","","49","1,0,1","5","forest","229","probe-212","0.7488207576991702","0.30724447995856663","0.5491976931813173","1","","","","","","","",""
"","do_trial","297","1911500","0.0-276.0-0.0","635.7999999998137","","","","51","1,0,0","5","forest","230","probe-20","0.901850501300532","0.376383508500967","0.48315716693493294","0","","","","","","","",""
"","do_trial","298","1917556","0.0-277.0-0.0","null","","","","null","1,0,0","5","forest","231","probe-34","0.8075437025916832","0.5397396380073439","0.33067586244059854","","","","","","","","",""
"","do_trial","299","1925111","0.0-278.0-0.0","2996","","","","50","1,0,1","5","forest","232","probe-200","0.8533108788928899","0.46970075036022013","0.35819005277528887","0","","","","","","","",""
"","do_trial","300","1929913","0.0-279.0-0.0","245.3999999994412","","","","49","0,0,0","5","forest","233","probe-178","0.8220057310931267","0.405343314651301","0.3632706382530118","0","","","","","","","",""
"","do_trial","301","1935004","0.0-280.0-0.0","532.8999999994412","","","","51","1,1,1","5","forest","234","probe-206","0.7943556349098291","0.28651699143207515","0.41287369582075223","1","","","","","","","",""
"","do_trial","302","1941063","0.0-281.0-0.0","null","","","","null","0,0,0","5","forest","235","probe-52","0.7710709563886153","0.22383023945962308","0.45752608098886155","","","","","","","","",""
"","do_trial","303","1947128","0.0-282.0-0.0","1508.5999999996275","","","","50","1,0,1","5","forest","236","probe-209","0.8789708624831721","0.14101900800354883","0.44667380724968875","0","","","","","","","",""
"","do_trial","304","1952135","0.0-283.0-0.0","449.5","","","","51","1,0,0","5","forest","237","probe-144","0.7597490224548353","0.28798863507820294","0.48589470044702093","0","","","","","","","",""
"","do_trial","305","1958859","0.0-284.0-0.0","2164.800000000745","","","","50","1,0,0","5","forest","238","probe-01","0.8051835367496404","0.13222429540316938","0.39303748485218054","0","","","","","","","",""
"","do_trial","306","1963836","0.0-285.0-0.0","419.79999999981374","","","","49","1,1,0","5","forest","239","probe-16","0.7344265613304708","0.14360250352962056","0.49587326765216033","1","","","","","","","",""
"","do_bye","307","1965340","0.0-286.0-0.0","null","","","","null","","","","","","","","","","","","","","","","",""
"","html-keyboard-response","308","1971127","0.0-286.0-1.0","5784.800000000745","<div class='center'>You are all done with the first part of the experiment! Thank you for participating. Tomorrow, you will recieve an invite to participate in the next phase of the experiment which you must complete by the end of the day. <p><b>[Press the space bar to end the experiment]</b></p></div>","32","","","","","","","","","","","","0,2,1,5,4,3","20,192,233,95,3,223,73,74,50,70,65,45,97,210,147,209,101,67,220,127,202,136,204,44,1,28,139,216,8,87,23,150,41,96,80,60,175,218,155,107,219,160,187,213,122,167,25,234,145,29,40,38,116,239,54,124,17,84,90,200,37,231,13,104,36,91,188,236,227,21,172,72,77,222,162,130,193,217,168,238,142,157,18,173,181,7,105,12,146,22,154,191,88,132,68,114,212,61,135,76,109,151,35,159,182,14,4,170,161,152,141,140,123,203,214,171,230,52,64,30,55,131,110,178,184,2,169,53,5,106,117,46,82,134,164,31,98,118,232,66,197,78,34,226,180,215,225,27,71,9,125,137,42,43,10,94,194,49,99,195,48,174,206,16,165,93,103,47,176,126,6,81,120,108,26,75,185,92,102,24,11,100,235,63,62,86,138,207,57,112,144,190,237,111,183,39,129,56,221,121,196,115,113,224,149,186,58,179,163,228,156,79,201,69,89,85,166,119,83,158,128,189,32,153,148,229,59,133,198,211,19,33,199,177,205,51,208,143,0,15","11,17,6,14,1,7,5,2,10,18,16,12,4,3,13,0,15,9,8","1,0.9270962550441603,0.8056107023174275,0.7689170748625425,0.7842290652320696,0.8600894683972602,0.8050645174952082,0.7568401571706163,0.7306303988300046,0.8108873853494573,0.7297009724313969,0.587386751470048,0.5821300304730805,0.35013581653179976,0.3543998790437945,0.22731104517246117,0.370268495948054,0.43093603384208984,0.39814315897880703,0.3111193879393983,0.40034247877749934,0.3841974619594408,0.5193353959985684,0.31325879531728473,0.33355700383210507,0.5062132171666037,0.3947553130873546,0.40614159056163135,0.44450115959629516,0.37753936237148206,0.4848569757356769,0.449268972377022,0.4284977613028535,0.4624969423133111,0.4953744564104352,0.4277027112222943,0.4015561678734263,0.42447628685451416,0.17870875038210435,0.2562370335226575,0.23244210097401016,0.17694596984652194,0.37135126039762545,0.5564137197193979,0.7275930159442081,0.6289536909036244,0.7440708146497345,0.8695856275290329,0.8174203774749929,0.8092717693807385,0.8701258642976253,0.7910596068889061,0.7573423325388999,0.8242334303767411,0.8093405891095661,0.9322056164989192,0.8789688693794129,0.8998593464158424,0.8172221000359681,0.7169242630953039,1,0.9349062744351256,0.9361419485639997,0.9023887922836022,0.7394116166742194,0.6868597541419622,0.7528169425967424,0.7831508166304577,0.7947753458572975,0.8399969193782724,0.5802067770832929,0.23259357348711263,0.2481270491659336,0.10159872924382199,0.05517334254298566,0.06290048833502195,0.05860885324185848,0.08678142184157393,0.10152372817734982,0.07762806602965981,0.20612623864870863,0.25599387386899336,0.2431982367051689,0.2355623161151783,0.058082549902696845,0.24299852921486456,0.23025846660518645,0.16968128781306813,0.24478424108534008,0.1896303326300368,0.13150285696195166,0.1154864280782634,0.11520723782820978,0.12348068939833397,0.11925551620164994,0.06613111886007104,0.16664532595745493,0.09645911534241008,0.19090409108547113,0.18436477777292917,0.18150958763974567,0.08007189408404276,0.14487940631092885,0.13296732964382085,0.13676836434092665,0.06141109650736154,0.18485852242476664,0.235240356724486,0.13654772266028803,0.07062811164959125,0.12667100477415993,0.2749773402233328,0.21439709106556312,0.23438515627084788,0.22374744627231127,0.1069933218374318,0.21858478091400155,0.05391402407637205,0.16146697718702058,0.05572299635006891,0.11313248787267394,0.21556225261510903,0.10260749042879615,0.05369618885151222,0.1969910043400287,0.2118967434551378,0.1692216427875678,0.1864919365165971,0.2612204821598419,0.24555393155607916,0.31419820167488016,0.2323920396754468,0.216641549649236,0.24093770891059074,0.10180743351805291,0.1888242270000097,0.27559334329427393,0.23122860634788958,0.1053467288812901,0.3268639527886548,0.6749058100737488,0.7877367963732764,0.853869172758204,0.7446840681835368,0.7311255608676769,0.8021477369227948,0.8460690532517735,0.8382430634515547,0.907710113964621,0.9389068882474509,1,0.8112491824697284,0.6252757455174995,0.7279841750855832,0.8462738494799222,0.7944818167248275,0.8543047182541449,0.856621108586229,0.8305050090005311,0.7615571963158897,0.6901113223547733,0.7041611456154304,0.3954664576393037,0.2764115918031615,0.22800375817523985,0.22319283874473023,0.09344044368532498,0.06636199477709442,0.11321429358742023,0.17195664750948558,0.26228733395439574,0.2806071399591633,0.22523539820114713,0.18777742796813296,0.11209620442359387,0.07582674937591122,0.06354418519054629,0.057744865594867426,0.17895616120365154,0.1401297289606942","0.07408816085857378,0.07997582620537289,0.10669721465754486,0.13937962217352318,0.09650358334549351,0.08892242541902576,0.10305326759119042,0.16564373732546536,0.17498055826030873,0.07795227904122333,0.42707434481133383,0.6221158569947497,0.663523500970525,0.6006133805738754,0.803003015265975,0.8248831021647776,0.8131345030054457,0.7684795102233274,0.77465072897446,0.8056996307341242,0.8380960658140589,0.768879366574685,0.6395892581909717,0.773859672916319,0.816855787627256,0.821856252881915,0.6730451446381445,0.7464733958367836,0.7812087503472352,0.5047927241008334,1,0.9454178218104179,0.9245839645097422,0.8601332168069493,0.7144537357967934,0.8212925145794832,0.8253125166999401,0.8334293893539514,0.9057447015232738,0.8355969369686345,0.7652857276695627,0.6201903148554606,0.5433735728306739,0.6046494782438928,0.4520287049877991,0.3267788597128894,0.3987905302652259,0.3972106738034296,0.4683974185367727,0.2944397286243663,0.3503759876163312,0.30127766587384364,0.16988935978222963,0.15549510858857166,0.2527550314257917,0.28150993474874586,0.3907602643216196,0.520187132349027,0.4771403528185849,0.33308644303980756,0.4853199786223656,0.516073355442819,0.5245095532570466,0.45436724170761744,0.5024562257047558,0.5268328167778643,0.29972857462536445,0.374853020751996,0.40012846234166366,0.5013104750725313,0.6881974386891931,0.6675170606312512,0.6372348175520202,0.7559294145359121,0.8781377052976029,0.8814883587549258,0.8630384303575632,0.8714725215934683,0.9462829650262542,0.8909584411797752,0.9451910524891617,0.9063869868581134,0.9188859118895705,0.905330687040448,0.841454797942645,0.9105668505720518,0.9331113160317044,0.811526836996984,0.7964412390290587,0.7679834642573649,1,0.8557306080452399,0.7736895053370636,0.8610862003028642,0.7010457678280142,0.6820583409900332,0.6423873634845265,0.6514980741591841,0.7440850708503014,0.704734357085009,0.6840962190561978,0.7069468064147977,0.5595272501080154,0.5311913980656244,0.5383473898731251,0.4805433649945938,0.5271331851132329,0.5600613294851865,0.4269555389804485,0.42664669297162966,0.39825668122523816,0.3626398342710662,0.3352272687999286,0.3722012355426533,0.2923092681822312,0.3954105042313219,0.4341564965967495,0.3706288866951384,0.43734885126580725,0.4572191230029759,0.44394559485617185,0.39766051455410234,0.5282772100672217,0.6264523216779877,0.4813942655182195,0.29856121935346003,0.42342499681372703,0.3865041876489498,0.3402578901204428,0.53691296153413,0.5423092872397443,0.3975820129368013,0.4938272987801616,0.28482139649432026,0.2504448981976259,0.3119474931997736,0.29521715142963023,0.489201580798038,0.5456446772047682,0.38712860680614425,0.19270895833571927,0.18306842995338543,0.2015832147329275,0.13977502570711045,0.2136166552963069,0.2663475685249265,0.23817034306191795,0.1529009725251602,0.12824419717305965,0.08560827781777258,0.08660980480538441,0.14522071511251125,0.18314989495380446,0.12304259676291844,0.16357920628856612,0.05100456634686401,0.1714131903673177,0.09952338796243776,0.07864314427390104,0.05803884744939685,0.05566760490155002,0.1202843258690973,0.11825779875479225,0.19302739498165952,0.17882146765491833,0.167071332071776,0.2619773879462633,0.3581967662008208,0.3451541352821483,0.3732407760639033,0.4987425715252691,0.45289803403952733,0.49592448711321196,0.44095343174577006,0.4051567735534618,0.48445191281931416,0.4024640500504322,0.26029712230834723,0.3157267590336342,0.3367711852807044","0.5638872711470845,0.5923929839025187,0.6575807083144167,0.46275295251691206,0.3482528171915429,0.5328334050380602,0.40808829335628416,0.34095739860046964,0.4023281159904047,0.24095283384084987,0.19155729084907094,0.2627535543619981,0.20511767710511788,0.051662757152022856,0.06556516339699807,0.1806209926892952,0.056290047537548474,0.23508949491165873,0.14484203962720157,0.15944907744847847,0.2245571739888566,0.19670591037877538,0.24618134545132692,0.19752696213565954,0.07648527732094024,0.08892083978446987,0.05374782654050616,0.08907633731175324,0.06187982364305479,0.11375470313666665,0.06929649575449086,0.2144872166079648,0.06685853019145375,0.11329492614092358,0.14645689573753104,0.18146757868692454,0.21700874834092088,0.18410826216718787,0.2197153063876715,0.20443469438072265,0.07811565743970322,0.06676080986122583,0.14915759008012003,0.06426387030076011,0.11993915645439022,0.08294019578342968,0.09776252523093995,0.268690142080233,0.2842648875694835,0.1890772331366799,0.1672533577236544,0.27917826291054526,0.1779684745198547,0.22931824831429906,0.09314968924834867,0.06460562964837427,0.12440289145908784,0.14686679755639281,0.08594362501811517,0.16329387808581325,0.13361725555774637,0.06902577535851454,0.13559175784432498,0.20617985813766865,0.14809108581251962,0.12499478209428624,0.2164866597808744,0.10641084304721492,0.13067789371700747,0.17024728818152704,0.2824843209889182,0.30016437297739146,0.37683120152130645,0.2693480965872268,0.3496178641483937,0.31253140277136515,0.36439480650036105,0.23943075146984785,0.2831422168945431,0.3028217089499481,0.3207343697948102,0.4514789625903675,0.3877312097631899,0.48580596416717564,0.4879375464573577,0.3698135504755972,0.5498605007539195,0.3763638957351225,0.3416570893705436,0.26352843430593126,0.39257282115374653,0.2331444103594108,0.22648413980948978,0.38007226454160076,0.34725785910720747,0.46368868224313875,0.4885735629826348,0.4164419003687469,0.4390394350307527,0.37310710711075873,0.5741548012406265,0.6029439138182062,0.6955421725687695,0.7099950009664857,0.5994853040671931,0.693631757124237,0.7395931527066381,0.8308638287955379,0.9334928307702488,0.8138715258952097,0.72399646322505,0.7121012575597284,0.831129183547441,0.8215697349553315,0.9263912918036921,0.8928100336355539,0.905410317102499,0.7424539657955319,0.618655307449429,0.8280153517825076,1,0.9152005140200966,0.8699838507081955,0.8185817715389487,0.8043424979861218,0.7125212836382409,0.7535580886063385,0.7982585104137165,0.8581327251871136,0.8692581126059884,0.8167442903466782,0.8101935379824035,0.754428823784373,0.9009245754593844,0.8338651251225601,0.7901464739145275,0.7855184722724683,0.7420980979523739,0.7173844014034262,0.5657014480315571,0.58307800831861,0.6347643738530847,0.5165280005225938,0.4012959418203127,0.45682981850562365,0.4106669487254983,0.37071539181092683,0.2954780371440992,0.4535317215945814,0.5833120172079833,0.5555304569991073,0.6343005894745372,0.6553674684752113,0.594791384876972,0.5069173171272305,0.4309186745475202,0.522176339237561,0.45101339541408486,0.35432480663782856,0.3831849552231761,0.4267118986351513,0.47971495322390445,0.5026345667546442,0.5817089335990354,0.6620520365218736,0.7169253332568843,0.6458483814471466,0.6559190794230217,0.6460034742571711,0.8632696093274197,0.863095851143357,0.8798008419661258,0.945150771172008,0.8722043847864712,0.8270189798965148,0.8214161530700195,0.75184248884072,0.6874744129446231,0.6507039882111356,0.6667174582233287","165,160,169,40,86,126,49,87,122,164,200,88,47,45,43,89,166,167,44,209,83,128,123,82,120,42,124,121,201,80,129,48,125,81,127,205,46,85,204,206,163,207,168,208,203,162,202","1,5,3,1,2,6,1,4,1,1,1,1,1,4,1,1,3,1,2,1,1,1,3,1,1,1,5,2,6,1,1,2,3,1,1,1,4,4,1,1,1,1,3,1,1,1,1,3,3,5,1,1,1,4,1,1,1,5,1,2"
