"success","trial_type","trial_index","time_elapsed","internal_node_id","interactions","blur_events","focus_events","fullscreenenter_events","fullscreenexit_events","rt","stimulus","key_press","subject_id","participant_id","age","gender","prompt","response","choice_outcomes","context_n","context_img_id","trial_n","probe_img_id","pR_red","pR_white","pR_black","outcome","contextArray_ind","validImageProbes","invalidImageProbes","pRew_Red","pRew_White","pRew_Black","availableForMemProbe","choice_blocks"
"true","fullscreen","0","3030","0.0-0.0","""event"",""trial"",""time""
""fullscreenenter"",""0"",""2080""
","
","
","""event"",""trial"",""time""
""fullscreenenter"",""0"",""2080""
","
","","","","","","","","","","","","","","","","","","","","","","","","","",""
"","pavlovia","1","3036","0.0-1.0","""event"",""trial"",""time""
""fullscreenenter"",""0"",""2080""
","
","
","""event"",""trial"",""time""
""fullscreenenter"",""0"",""2080""
","
","","","","","","","","","","","","","","","","","","","","","","","","","",""
"","instruc1","2","48155","0.0-2.0","""event"",""trial"",""time""
""fullscreenenter"",""0"",""2080""
","
","
","""event"",""trial"",""time""
""fullscreenenter"",""0"",""2080""
","
","null","run_exp/static/audio/clip_1_welcome.m4a","null","300","937","16","Female","<div class='center'><p>Welcome! This is the first part of the study. It will last ~30 minutes. In part 1 and part 2 of the study, you are the head captain of a pirate ship traveling around the world to different islands. You will play a few different games throughout these two parts. Here is an overview of them:</p><br><p>Part 1 (today)</p><p>1. Instructions, practice game, and quiz</p><p>2. Pick a pirate game on 6 different islands</p><br><p>Part 2 (tomorrow)</p><p>3. Pick a pirate game and memory game</p><p>4. Where did you see this ship? </p></div>","","","","","","","","","","","","","","","","","",""
"","html-keyboard-response","3","65643","0.0-3.0","""event"",""trial"",""time""
""fullscreenenter"",""0"",""2080""
","
","
","""event"",""trial"",""time""
""fullscreenenter"",""0"",""2080""
","
","17479.200000000186","<div class='center'><p>Welcome! This is the first part of the study. It will last ~30 minutes. In part 1 and part 2 of the study, you are the head captain of a pirate ship traveling around the world to different islands. You will play a few different games throughout these two parts. Here is an overview of them:</p><br><p>Part 1 (today)</p><p>1. Instructions, practice game, and quiz</p><p>2. Pick a pirate game on 6 different islands</p><br><p>Part 2 (tomorrow)</p><p>3. Pick a pirate game and memory game</p><p>4. Where did you see this ship? </p><p><b>[Press the space bar to continue]</b></p></div>","32","","","","","","","","","","","","","","","","","","","","","","",""
"","instruc2","4","71058","0.0-4.0","""event"",""trial"",""time""
""fullscreenenter"",""0"",""2080""
","
","
","""event"",""trial"",""time""
""fullscreenenter"",""0"",""2080""
","
","null","run_exp/static/audio/clip_2_different_places.m4a","null","","","","","<div class='center'><p>Today, you’ll visit these 6 islands on your journey. You'll be able to see these islands from your ship.</p><p><img src='run_exp/static/images/contexts/all_contexts.png' height='500'></p></div>","","","","","","","","","","","","","","","","","",""
"","html-keyboard-response","5","73601","0.0-5.0","""event"",""trial"",""time""
""fullscreenenter"",""0"",""2080""
","
","
","""event"",""trial"",""time""
""fullscreenenter"",""0"",""2080""
","
","2536","<div class='center'><p>Today, you’ll visit these 6 islands on your journey. You'll be able to see these islands from your ship.</p><p><img src='run_exp/static/images/contexts/all_contexts.png' height='500'></p><p><b>[Press the space bar to continue]</b></p></div>","32","","","","","","","","","","","","","","","","","","","","","","",""
"","instruc3","6","83324","0.0-6.0","""event"",""trial"",""time""
""fullscreenenter"",""0"",""2080""
","
","
","""event"",""trial"",""time""
""fullscreenenter"",""0"",""2080""
","
","null","run_exp/static/audio/clip_3_goal_of_game_1.m4a","null","","","","","<div class='center'><p> The pirates on your ship will rob other ships as they leave the island.</p> These ships have just sold their goods to the islanders, so they will be filled with lots and lots of gold.</p><p><img src='run_exp/static/images/tutorial/ship_center.png' height='400'></p></div>","","","","","","","","","","","","","","","","","",""
"","html-keyboard-response","7","92099","0.0-7.0","""event"",""trial"",""time""
""fullscreenenter"",""0"",""2080""
","
","
","""event"",""trial"",""time""
""fullscreenenter"",""0"",""2080""
","
","8771.100000000093","<div class='center'><p> The pirates on your ship will rob other ships as they leave the island.</p> These ships have just sold their goods to the islanders, so they will be filled with lots and lots of gold.</p><p><img src='run_exp/static/images/tutorial/ship_center.png' height='400'></p><p><b>[Press the space bar to continue]</b></p></div>","32","","","","","","","","","","","","","","","","","","","","","","",""
"","instruc4","8","120122","0.0-8.0","""event"",""trial"",""time""
""fullscreenenter"",""0"",""2080""
","
","
","""event"",""trial"",""time""
""fullscreenenter"",""0"",""2080""
","
","null","run_exp/static/audio/clip_4_goal_of_game_2.m4a","null","","","","","<div class='center'><p>As the head captain, you do not have to rob any ships yourself. Another pirate will be doing the robbing for you. First, you will choose a pirate to rob the next ship.</p><p><img src='run_exp/static/images/tutorial/pirates_all_crop.png' height='200'></p><p>Then, you'll see if the pirate successfully robbed the ship of their gold. If they were successful, then you'll get a stack of gold coins like this:</p><p><img src='run_exp/static/images/tutorial/reward.png' height='150'></p><p> If they were <b>not</b> successful, then you'll get no gold coins, and you'll see a big red x like this: </p><p><img src='run_exp/static/images/tutorial/reward_no.png' height='150'></p><p> How much bonus money you make is based on how many gold coins you collect.</p><div>","","","","","","","","","","","","","","","","","",""
"","html-keyboard-response","9","126122","0.0-9.0","""event"",""trial"",""time""
""fullscreenenter"",""0"",""2080""
","
","
","""event"",""trial"",""time""
""fullscreenenter"",""0"",""2080""
","
","5994.600000000093","<div class='center'><p>As the head captain, you do not have to rob any ships yourself. Another pirate will be doing the robbing for you. First, you will choose a pirate to rob the next ship.</p><p><img src='run_exp/static/images/tutorial/pirates_all_crop.png' height='200'></p><p>Then, you'll see if the pirate successfully robbed the ship of their gold. If they were successful, then you'll get a stack of gold coins like this:</p><p><img src='run_exp/static/images/tutorial/reward.png' height='150'></p><p> If they were <b>not</b> successful, then you'll get no gold coins, and you'll see a big red x like this: </p><p><img src='run_exp/static/images/tutorial/reward_no.png' height='150'></p><p> How much bonus money you make is based on how many gold coins you collect.</p<p><b>[Press the space bar to continue]</b></p></div>","32","","","","","","","","","","","","","","","","","","","","","","",""
"","instruc5","10","153502","0.0-10.0","""event"",""trial"",""time""
""fullscreenenter"",""0"",""2080""
","
","
","""event"",""trial"",""time""
""fullscreenenter"",""0"",""2080""
","
","27376.19999999972","run_exp/static/audio/clip_5_probabilistic.m4a","49","","","","","<div class='center'><p>Even the most skilled pirate can not rob EVERY ship.</p><p> Some ships will have very strong protections against pirate attacks.</p><p> Blue beard, here, is very, very good at robbing ships, but he won't be successful every time he tries to rob one.</p><p> You can press the <b>‘1’</b> key on the keyboard to choose him.</p><p> Try choosing him 10 times to see how often he succeeds at robbing a ship. </p><p><img src='run_exp/static/images/tutorial/blue.png' height='500'></p></div>","","","","","","","","","","","","","","","","","",""
"","html-keyboard-response","11","155016","0.0-11.0","""event"",""trial"",""time""
""fullscreenenter"",""0"",""2080""
","
","
","""event"",""trial"",""time""
""fullscreenenter"",""0"",""2080""
","
","null","<div class='center'><p><img src='run_exp/static/images/tutorial/blue_win.png' height='500'></p></div>","null","","","","","","","","","","","","","","","","","","","","","","",""
"","html-keyboard-response","12","157310","0.0-12.0","""event"",""trial"",""time""
""fullscreenenter"",""0"",""2080""
","
","
","""event"",""trial"",""time""
""fullscreenenter"",""0"",""2080""
","
","2290.6999999997206","<div class='center'><img src='run_exp/static/images/tutorial/blue.png' height='500'></p></div>","49","","","","","","","","","","","","","","","","","","","","","","",""
"","html-keyboard-response","13","158816","0.0-13.0","""event"",""trial"",""time""
""fullscreenenter"",""0"",""2080""
","
","
","""event"",""trial"",""time""
""fullscreenenter"",""0"",""2080""
","
","null","<div class='center'><p><img src='run_exp/static/images/tutorial/blue_win.png' height='500'></p></div>","null","","","","","","","","","","","","","","","","","","","","","","",""
"","html-keyboard-response","14","160091","0.0-14.0","""event"",""trial"",""time""
""fullscreenenter"",""0"",""2080""
","
","
","""event"",""trial"",""time""
""fullscreenenter"",""0"",""2080""
","
","1271.6000000000931","<div class='center'><img src='run_exp/static/images/tutorial/blue.png' height='500'></p></div>","49","","","","","","","","","","","","","","","","","","","","","","",""
"","html-keyboard-response","15","161594","0.0-15.0","""event"",""trial"",""time""
""fullscreenenter"",""0"",""2080""
","
","
","""event"",""trial"",""time""
""fullscreenenter"",""0"",""2080""
","
","null","<div class='center'><p><img src='run_exp/static/images/tutorial/blue_win.png' height='500'></p></div>","null","","","","","","","","","","","","","","","","","","","","","","",""
"","html-keyboard-response","16","161839","0.0-16.0","""event"",""trial"",""time""
""fullscreenenter"",""0"",""2080""
","
","
","""event"",""trial"",""time""
""fullscreenenter"",""0"",""2080""
","
","241.6999999997206","<div class='center'><img src='run_exp/static/images/tutorial/blue.png' height='500'></p></div>","49","","","","","","","","","","","","","","","","","","","","","","",""
"","html-keyboard-response","17","163353","0.0-17.0","""event"",""trial"",""time""
""fullscreenenter"",""0"",""2080""
","
","
","""event"",""trial"",""time""
""fullscreenenter"",""0"",""2080""
","
","null","<div class='center'><p><img src='run_exp/static/images/tutorial/blue_no_win.png' height='500'></p></div>","null","","","","","","","","","","","","","","","","","","","","","","",""
"","html-keyboard-response","18","166206","0.0-18.0","""event"",""trial"",""time""
""fullscreenenter"",""0"",""2080""
","
","
","""event"",""trial"",""time""
""fullscreenenter"",""0"",""2080""
","
","2849.8000000002794","<div class='center'><img src='run_exp/static/images/tutorial/blue.png' height='500'></p></div>","49","","","","","","","","","","","","","","","","","","","","","","",""
"","html-keyboard-response","19","167720","0.0-19.0","""event"",""trial"",""time""
""fullscreenenter"",""0"",""2080""
","
","
","""event"",""trial"",""time""
""fullscreenenter"",""0"",""2080""
","
","null","<div class='center'><p><img src='run_exp/static/images/tutorial/blue_win.png' height='500'></p></div>","null","","","","","","","","","","","","","","","","","","","","","","",""
"","html-keyboard-response","20","169073","0.0-20.0","""event"",""trial"",""time""
""fullscreenenter"",""0"",""2080""
","
","
","""event"",""trial"",""time""
""fullscreenenter"",""0"",""2080""
","
","1348.6000000000931","<div class='center'><img src='run_exp/static/images/tutorial/blue.png' height='500'></p></div>","49","","","","","","","","","","","","","","","","","","","","","","",""
"","html-keyboard-response","21","170577","0.0-21.0","""event"",""trial"",""time""
""fullscreenenter"",""0"",""2080""
","
","
","""event"",""trial"",""time""
""fullscreenenter"",""0"",""2080""
","
","null","<div class='center'><p><img src='run_exp/static/images/tutorial/blue_win.png' height='500'></p></div>","null","","","","","","","","","","","","","","","","","","","","","","",""
"","html-keyboard-response","22","170605","0.0-22.0","""event"",""trial"",""time""
""fullscreenenter"",""0"",""2080""
","
","
","""event"",""trial"",""time""
""fullscreenenter"",""0"",""2080""
","
","26.600000000093132","<div class='center'><img src='run_exp/static/images/tutorial/blue.png' height='500'></p></div>","49","","","","","","","","","","","","","","","","","","","","","","",""
"","html-keyboard-response","23","172108","0.0-23.0","""event"",""trial"",""time""
""fullscreenenter"",""0"",""2080""
","
","
","""event"",""trial"",""time""
""fullscreenenter"",""0"",""2080""
","
","null","<div class='center'><p><img src='run_exp/static/images/tutorial/blue_win.png' height='500'></p></div>","null","","","","","","","","","","","","","","","","","","","","","","",""
"","html-keyboard-response","24","172176","0.0-24.0","""event"",""trial"",""time""
""fullscreenenter"",""0"",""2080""
","
","
","""event"",""trial"",""time""
""fullscreenenter"",""0"",""2080""
","
","64.3000000002794","<div class='center'><img src='run_exp/static/images/tutorial/blue.png' height='500'></p></div>","49","","","","","","","","","","","","","","","","","","","","","","",""
"","html-keyboard-response","25","173687","0.0-25.0","""event"",""trial"",""time""
""fullscreenenter"",""0"",""2080""
","
","
","""event"",""trial"",""time""
""fullscreenenter"",""0"",""2080""
","
","null","<div class='center'><p><img src='run_exp/static/images/tutorial/blue_no_win.png' height='500'></p></div>","null","","","","","","","","","","","","","","","","","","","","","","",""
"","html-keyboard-response","26","176143","0.0-26.0","""event"",""trial"",""time""
""fullscreenenter"",""0"",""2080""
","
","
","""event"",""trial"",""time""
""fullscreenenter"",""0"",""2080""
","
","2453","<div class='center'><img src='run_exp/static/images/tutorial/blue.png' height='500'></p></div>","49","","","","","","","","","","","","","","","","","","","","","","",""
"","html-keyboard-response","27","177649","0.0-27.0","""event"",""trial"",""time""
""fullscreenenter"",""0"",""2080""
","
","
","""event"",""trial"",""time""
""fullscreenenter"",""0"",""2080""
","
","null","<div class='center'><p><img src='run_exp/static/images/tutorial/blue_win.png' height='500'></p></div>","null","","","","","","","","","","","","","","","","","","","","","","",""
"","html-keyboard-response","28","179020","0.0-28.0","""event"",""trial"",""time""
""fullscreenenter"",""0"",""2080""
","
","
","""event"",""trial"",""time""
""fullscreenenter"",""0"",""2080""
","
","1367.6999999997206","<div class='center'><img src='run_exp/static/images/tutorial/blue.png' height='500'></p></div>","49","","","","","","","","","","","","","","","","","","","","","","",""
"","html-keyboard-response","29","180533","0.0-29.0","""event"",""trial"",""time""
""fullscreenenter"",""0"",""2080""
","
","
","""event"",""trial"",""time""
""fullscreenenter"",""0"",""2080""
","
","null","<div class='center'><p><img src='run_exp/static/images/tutorial/blue_win.png' height='500'></p></div>","null","","","","","","","","","","","","","","","","","","","","","","",""
"","instruc6","30","186207","0.0-30.0","""event"",""trial"",""time""
""fullscreenenter"",""0"",""2080""
","
","
","""event"",""trial"",""time""
""fullscreenenter"",""0"",""2080""
","
","null","run_exp/static/audio/clip_6_blue_beard_outcome.m4a","null","","","","","<div class='center'><p> See, he succeeded in robbing the ships most of the time but not every time. </p></div>","","","","","","","","","","","","","","","","","",""
"","html-keyboard-response","31","190806","0.0-31.0","""event"",""trial"",""time""
""fullscreenenter"",""0"",""2080""
","
","
","""event"",""trial"",""time""
""fullscreenenter"",""0"",""2080""
","
","4594.600000000093","<div class='center'><p> See, he succeeded in robbing the ships most of the time but not every time. </p><p><b>[Press the space bar to continue]</b></p></div>","32","","","","","","","","","","","","","","","","","","","","","","",""
"","audio-keyboard-response","32","208166","0.0-32.0","""event"",""trial"",""time""
""fullscreenenter"",""0"",""2080""
","
","
","""event"",""trial"",""time""
""fullscreenenter"",""0"",""2080""
","
","17354.399999999907","run_exp/static/audio/clip_7_pick_pirate.m4a","51","","","","","","","","","","","","","","","","","","","","","","",""
"","audio-keyboard-response","33","214039","0.0-33.0-0.0","""event"",""trial"",""time""
""fullscreenenter"",""0"",""2080""
","
","
","""event"",""trial"",""time""
""fullscreenenter"",""0"",""2080""
","
","5865","run_exp/static/audio/clip_8_chosen_pirate_win.m4a","32","","","","","","","","","","","","","","","","","","","","","","",""
"","audio-keyboard-response","34","217916","0.0-33.0-1.0","""event"",""trial"",""time""
""fullscreenenter"",""0"",""2080""
","
","
","""event"",""trial"",""time""
""fullscreenenter"",""0"",""2080""
","
","3868.5","run_exp/static/audio/clip_9_pick_a_pirate_again.m4a","50","","","","","","","","","","","","","","","","","","","","","","",""
"","audio-keyboard-response","35","222600","0.0-34.0-0.0","""event"",""trial"",""time""
""fullscreenenter"",""0"",""2080""
","
","
","""event"",""trial"",""time""
""fullscreenenter"",""0"",""2080""
","
","4676.200000000186","run_exp/static/audio/clip_10_chosen_pirate_loss.m4a","32","","","","","","","","","","","","","","","","","","","","","","",""
"","instruc9","36","228128","0.0-35.0-0.0","""event"",""trial"",""time""
""fullscreenenter"",""0"",""2080""
","
","
","""event"",""trial"",""time""
""fullscreenenter"",""0"",""2080""
","
","null","run_exp/static/audio/clip_11_time_out.m4a","null","","","","","<div class='center'><p>If you don’t make your choice fast enough, you’ll have to wait a few seconds before you can make another one. </p><p><img src='run_exp/static/images/miscellaneous/hurry_up.png' height='500'></p></div>","","","","","","","","","","","","","","","","","",""
"","html-keyboard-response","37","237116","0.0-35.0-1.0","""event"",""trial"",""time""
""fullscreenenter"",""0"",""2080""
","
","
","""event"",""trial"",""time""
""fullscreenenter"",""0"",""2080""
","
","8983.700000000186","<div class='center'><p>If you don’t make your choice fast enough, you’ll have to wait a few seconds before you can make another one. </p><p><img src='run_exp/static/images/miscellaneous/hurry_up.png' height='500'></p><p><b>[Press the space bar to continue]</b></p></div>","32","","","","","","","","","","","","","","","","","","","","","","",""
"","instruc10","38","276226","0.0-35.0-2.0","""event"",""trial"",""time""
""fullscreenenter"",""0"",""2080""
","
","
","""event"",""trial"",""time""
""fullscreenenter"",""0"",""2080""
","
","null","run_exp/static/audio/clip_12_probe.m4a","null","","","","","<div class='center'><p>Once you've chosen a pirate, you’ll be shown the ship they are robbing. You will never rob the same ship twice. Ships can be told apart from one another by the image on them. These are the goods that they sell. See, this ship has a travel mug on it. </p><p> You’ll have to remember which island you saw each ship on. You will win more gold coins and hence more bonus money if you remember correctly! To help you remember, you can imagine a story. For example, here, you could imagine a mug full of water in the desert. Or, as another example, if on the forest island, your pirate robbed a ship with an apple on it, you could imagine an apple falling from a tree in the forest. </p><p><img src='run_exp/static/images/tutorial/example_probe.png' height='500'></p></div>","","","","","","","","","","","","","","","","","",""
"","html-keyboard-response","39","284920","0.0-35.0-3.0","""event"",""trial"",""time""
""fullscreenenter"",""0"",""2080""
","
","
","""event"",""trial"",""time""
""fullscreenenter"",""0"",""2080""
","
","8690.100000000093","<div class='center'><p>Once you've chosen a pirate, you’ll be shown the ship they are robbing. You will never rob the same ship twice. Ships can be told apart from one another by the image on them. These are the goods that they sell. See, this ship has a travel mug on it. </p><p> You’ll have to remember which island you saw each ship on. You will win more gold coins and hence more bonus money if you remember correctly! To help you remember, you can imagine a story. For example, here, you could imagine a mug full of water in the desert. Or, as another example, if on the forest island, your pirate robbed a ship with an apple on it, you could imagine an apple falling from a tree in the forest. </p><p><img src='run_exp/static/images/tutorial/example_probe.png' height='500'></p><p><b>[Press the space bar to continue]</b></p></div>","32","","","","","","","","","","","","","","","","","","","","","","",""
"","instruc11","40","301345","0.0-35.0-4.0","""event"",""trial"",""time""
""fullscreenenter"",""0"",""2080""
","
","
","""event"",""trial"",""time""
""fullscreenenter"",""0"",""2080""
","
","null","run_exp/static/audio/clip_13_changepoint.m4a","null","","","","","<div class='center'><p>How successful a pirate is at robbing ships will depend on the island you’re on.</p><p> A pirate may have visited this island many times before and gained a lot of practice robbing ships there.</p><p>So, they’re more likely to be successful than a pirate who has never visited the island before.</p></div>","","","","","","","","","","","","","","","","","",""
"","html-keyboard-response","41","344782","0.0-35.0-5.0","""event"",""trial"",""time""
""fullscreenenter"",""0"",""2080""
","
","
","""event"",""trial"",""time""
""fullscreenenter"",""0"",""2080""
","
","43434.39999999991","<div class='center'><p>How successful a pirate is at robbing ships will depend on the island you’re on.</p><p> A pirate may have visited this island many times before and gained a lot of practice robbing ships there.</p><p>So, they’re more likely to be successful than a pirate who has never visited the island before.</p><p><b>[Press the space bar to continue]</b></p></div>","32","","","","","","","","","","","","","","","","","","","","","","",""
"","instruc12","42","386163","0.0-35.0-6.0","""event"",""trial"",""time""
""fullscreenenter"",""0"",""2080""
","
","
","""event"",""trial"",""time""
""fullscreenenter"",""0"",""2080""
","
","null","run_exp/static/audio/clip_14_drift.m4a","null","","","","","<div class='center'><p>How successful a pirate is at robbing ships can also change over the time spent on the island. </p><p> Ships may hear from islanders about the pirates coming and will improve their protections against the attack. This may make it harder to rob them.</p><p> Ships may also become lazy and weaken the strength of their protections. This may make it easier to rob them.</p><br><p>Things are always changing on the high seas! So, try your best to pay attention!</p><p><img src='run_exp/static/images/tutorial/contingency.png' height='500'></p></div>","","","","","","","","","","","","","","","","","",""
"","html-keyboard-response","43","391686","0.0-35.0-7.0","""event"",""trial"",""time""
""fullscreenenter"",""0"",""2080""
","
","
","""event"",""trial"",""time""
""fullscreenenter"",""0"",""2080""
","
","5513.899999999907","<div class='center'><p>How successful a pirate is at robbing ships can also change over the time spent on the island. </p><p> Ships may hear from islanders about the pirates coming and will improve their protections against the attack. This may make it harder to rob them.</p><p> Ships may also become lazy and weaken the strength of their protections. This may make it easier to rob them.</p><br><p>Things are always changing on the high seas! So, try your best to pay attention!</p><p><img src='run_exp/static/images/tutorial/contingency.png' height='500'></p><p><b>[Press the space bar to continue]</b></p></div>","32","","","","","","","","","","","","","","","","","","","","","","",""
"","instruc13","44","426903","0.0-35.0-8.0","""event"",""trial"",""time""
""fullscreenenter"",""0"",""2080""
","
","
","""event"",""trial"",""time""
""fullscreenenter"",""0"",""2080""
","
","null","run_exp/static/audio/clip_15_summary.m4a","null","","","","","<div class='center'><p>Let's go over the instructions quickly again. You have two important things to do: </p><b><p> 1. Pick the pirate who is the best at robbing ships on the current island. </p></b><b><p> 2. Remember on which island a ship was robbed.</p> </b><p>The amount of bonus money you can win depends on both.</p><p><br><p>Let’s try a practice game. The game will start by showing you the pirates. First, pick a pirate using the <b> 1, 2, 3 </b> keys on your keyboard. When you are shown a ship, try to remember which island you’re on by making up a story.</p><p>This is just a practice game, so you’re not playing for money. </p><p> Good luck! This game will be very difficult but try your best!</p></div>","","","","","","","","","","","","","","","","","",""
"","html-keyboard-response","45","427948","0.0-35.0-9.0","""event"",""trial"",""time""
""fullscreenenter"",""0"",""2080""
","
","
","""event"",""trial"",""time""
""fullscreenenter"",""0"",""2080""
","
","1036.2999999998137","<div class='center'><p>Let's go over the instructions quickly again. You have two important things to do: </p><b><p> 1. Pick the pirate who is the best at robbing ships on the current island. </p></b><b><p> 2. Remember on which island a ship was robbed.</p> </b><p>The amount of bonus money you can win depends on both.</p><p><br><p>Let’s try a practice game. The game will start by showing you the pirates. First, pick a pirate using the <b> 1, 2, 3 </b> keys on your keyboard. When you are shown a ship, try to remember which island you’re on by making up a story.</p><p>This is just a practice game, so you’re not playing for money. </p><p> Good luck! This game will be very difficult but try your best!</p><p><b>[Press the space bar to continue]</b></p></div>","32","","","","","","","","","","","","","","","","","","","","","","",""
"","do_welcome","46","431990","0.0-35.0-10.0","""event"",""trial"",""time""
""fullscreenenter"",""0"",""2080""
","
","
","""event"",""trial"",""time""
""fullscreenenter"",""0"",""2080""
","
","null","","","","","","","","null","","","","","","","","","","","","","","","","",""
"","do_trial","47","438018","0.0-35.0-11.0","""event"",""trial"",""time""
""fullscreenenter"",""0"",""2080""
","
","
","""event"",""trial"",""time""
""fullscreenenter"",""0"",""2080""
","
","null","","","","","","","","null","1,0,0","","","","","","","","","","","","","","","",""
"","html-keyboard-response","48","439028","0.0-36.0-0.0","""event"",""trial"",""time""
""fullscreenenter"",""0"",""2080""
","
","
","""event"",""trial"",""time""
""fullscreenenter"",""0"",""2080""
","
","null","<p></p>","null","","","","","","","","","","","","","","","","","","","","","","",""
"","do_trial","49","444128","0.0-36.0-1.0","""event"",""trial"",""time""
""fullscreenenter"",""0"",""2080""
","
","
","""event"",""trial"",""time""
""fullscreenenter"",""0"",""2080""
","
","583.1000000000931","","","","","","","","50","1,0,0","","","","","","","","","","","","","","","",""
"","html-keyboard-response","50","445146","0.0-37.0-0.0","""event"",""trial"",""time""
""fullscreenenter"",""0"",""2080""
","
","
","""event"",""trial"",""time""
""fullscreenenter"",""0"",""2080""
","
","null","<p></p>","null","","","","","","","","","","","","","","","","","","","","","","",""
"","do_trial","51","451037","0.0-37.0-1.0","""event"",""trial"",""time""
""fullscreenenter"",""0"",""2080""
","
","
","""event"",""trial"",""time""
""fullscreenenter"",""0"",""2080""
","
","1358","","","","","","","","51","1,1,0","","","","","","","","","","","","","","","",""
"","html-keyboard-response","52","452043","0.0-38.0-0.0","""event"",""trial"",""time""
""fullscreenenter"",""0"",""2080""
","
","
","""event"",""trial"",""time""
""fullscreenenter"",""0"",""2080""
","
","null","<p></p>","null","","","","","","","","","","","","","","","","","","","","","","",""
"","do_trial","53","456597","0.0-38.0-1.0","""event"",""trial"",""time""
""fullscreenenter"",""0"",""2080""
","
","
","""event"",""trial"",""time""
""fullscreenenter"",""0"",""2080""
","
","38.299999999813735","","","","","","","","49","1,0,1","","","","","","","","","","","","","","","",""
"","html-keyboard-response","54","457608","0.0-39.0-0.0","""event"",""trial"",""time""
""fullscreenenter"",""0"",""2080""
","
","
","""event"",""trial"",""time""
""fullscreenenter"",""0"",""2080""
","
","null","<p></p>","null","","","","","","","","","","","","","","","","","","","","","","",""
"","do_trial","55","462963","0.0-39.0-1.0","""event"",""trial"",""time""
""fullscreenenter"",""0"",""2080""
","
","
","""event"",""trial"",""time""
""fullscreenenter"",""0"",""2080""
","
","824.1999999997206","","","","","","","","49","0,1,0","","","","","","","","","","","","","","","",""
"","html-keyboard-response","56","463977","0.0-40.0-0.0","""event"",""trial"",""time""
""fullscreenenter"",""0"",""2080""
","
","
","""event"",""trial"",""time""
""fullscreenenter"",""0"",""2080""
","
","null","<p></p>","null","","","","","","","","","","","","","","","","","","","","","","",""
"","do_trial","57","469222","0.0-40.0-1.0","""event"",""trial"",""time""
""fullscreenenter"",""0"",""2080""
","
","
","""event"",""trial"",""time""
""fullscreenenter"",""0"",""2080""
","
","722.8999999999069","","","","","","","","51","1,0,0","","","","","","","","","","","","","","","",""
"","do_bye","58","470743","0.0-41.0-0.0","""event"",""trial"",""time""
""fullscreenenter"",""0"",""2080""
","
","
","""event"",""trial"",""time""
""fullscreenenter"",""0"",""2080""
","
","null","","","","","","","","null","","","","","","","","","","","","","","","","",""
"","do_travel","59","479765","0.0-41.0-1.0","""event"",""trial"",""time""
""fullscreenenter"",""0"",""2080""
","
","
","""event"",""trial"",""time""
""fullscreenenter"",""0"",""2080""
","
","null","","","","","","","","null","","","","","","","","","","","","","","","","",""
"","do_welcome","60","483793","0.0-41.0-2.0","""event"",""trial"",""time""
""fullscreenenter"",""0"",""2080""
","
","
","""event"",""trial"",""time""
""fullscreenenter"",""0"",""2080""
","
","null","","","","","","","","null","","","","","","","","","","","","","","","","",""
"","do_trial","61","489625","0.0-41.0-3.0","""event"",""trial"",""time""
""fullscreenenter"",""0"",""2080""
","
","
","""event"",""trial"",""time""
""fullscreenenter"",""0"",""2080""
","
","1320.5","","","","","","","","50","1,0,0","","","","","","","","","","","","","","","",""
"","html-keyboard-response","62","490636","0.0-42.0-0.0","""event"",""trial"",""time""
""fullscreenenter"",""0"",""2080""
","
","
","""event"",""trial"",""time""
""fullscreenenter"",""0"",""2080""
","
","null","<p></p>","null","","","","","","","","","","","","","","","","","","","","","","",""
"","do_trial","63","495649","0.0-42.0-1.0","""event"",""trial"",""time""
""fullscreenenter"",""0"",""2080""
","
","
","""event"",""trial"",""time""
""fullscreenenter"",""0"",""2080""
","
","484.60000000009313","","","","","","","","49","1,0,1","","","","","","","","","","","","","","","",""
"","html-keyboard-response","64","496669","0.0-43.0-0.0","""event"",""trial"",""time""
""fullscreenenter"",""0"",""2080""
","
","
","""event"",""trial"",""time""
""fullscreenenter"",""0"",""2080""
","
","null","<p></p>","null","","","","","","","","","","","","","","","","","","","","","","",""
"","do_trial","65","502532","0.0-43.0-1.0","""event"",""trial"",""time""
""fullscreenenter"",""0"",""2080""
","
","
","""event"",""trial"",""time""
""fullscreenenter"",""0"",""2080""
","
","1333.6999999997206","","","","","","","","51","1,1,0","","","","","","","","","","","","","","","",""
"","html-keyboard-response","66","503552","0.0-44.0-0.0","""event"",""trial"",""time""
""fullscreenenter"",""0"",""2080""
","
","
","""event"",""trial"",""time""
""fullscreenenter"",""0"",""2080""
","
","null","<p></p>","null","","","","","","","","","","","","","","","","","","","","","","",""
"","do_trial","67","508278","0.0-44.0-1.0","""event"",""trial"",""time""
""fullscreenenter"",""0"",""2080""
","
","
","""event"",""trial"",""time""
""fullscreenenter"",""0"",""2080""
","
","202","","","","","","","","50","0,0,1","","","","","","","","","","","","","","","",""
"","html-keyboard-response","68","509288","0.0-45.0-0.0","""event"",""trial"",""time""
""fullscreenenter"",""0"",""2080""
","
","
","""event"",""trial"",""time""
""fullscreenenter"",""0"",""2080""
","
","null","<p></p>","null","","","","","","","","","","","","","","","","","","","","","","",""
"","do_trial","69","514797","0.0-45.0-1.0","""event"",""trial"",""time""
""fullscreenenter"",""0"",""2080""
","
","
","""event"",""trial"",""time""
""fullscreenenter"",""0"",""2080""
","
","986.2000000001863","","","","","","","","51","1,0,1","","","","","","","","","","","","","","","",""
"","html-keyboard-response","70","520772","0.0-46.0-0.0","""event"",""trial"",""time""
""fullscreenenter"",""0"",""2080""
","
","
","""event"",""trial"",""time""
""fullscreenenter"",""0"",""2080""
","
","5967.899999999907","<div class='center'><p><img src='run_exp/static/images/tutorial/prac_best_pirate.png'  height='500'></p></div>","51","","","","","","","","","","","","","","","","","","","","","","",""
"","html-keyboard-response","71","523595","0.0-47.0-0.0","""event"",""trial"",""time""
""fullscreenenter"",""0"",""2080""
","
","
","""event"",""trial"",""time""
""fullscreenenter"",""0"",""2080""
","
","2817.8000000002794","<div class='center'><p>That's incorrect! Red beard was the best.</p><p><b>[Press the space bar to continue]</b></p></div>","32","","","","","","","","","","","","","","","","","","","","","","",""
"","html-keyboard-response","72","531324","0.0-47.0-1.0","""event"",""trial"",""time""
""fullscreenenter"",""0"",""2080""
","
","
","""event"",""trial"",""time""
""fullscreenenter"",""0"",""2080""
","
","7725.600000000093","<div class='center'><p><img src='run_exp/static/images/tutorial/prac_source.png'  height='500'></p></div>","50","","","","","","","","","","","","","","","","","","","","","","",""
"","html-keyboard-response","73","533640","0.0-48.0-0.0","""event"",""trial"",""time""
""fullscreenenter"",""0"",""2080""
","
","
","""event"",""trial"",""time""
""fullscreenenter"",""0"",""2080""
","
","2311.399999999907","<div class='center'><p>That's correct! You saw this ship on the cavern island.</p><p><b>[Press the space bar to continue]</b></p></div>","32","","","","","","","","","","","","","","","","","","","","","","",""
"","quiz_beginning","74","545128","0.0-48.0-1.0","""event"",""trial"",""time""
""fullscreenenter"",""0"",""2080""
","
","
","""event"",""trial"",""time""
""fullscreenenter"",""0"",""2080""
","
","null","run_exp/static/audio/clip_16_quiz_intro.m4a","null","","","","","<div class='center'><p>Good job on the practice game! Now, you will be asked some true or false questions to make sure you really understand the rules of the game.</p><p> Press <b>'1'</b> on the keyboard for true and press <b>'2'</b> for false.</p></div>","","","","","","","","","","","","","","","","","",""
"","audio-keyboard-response","75","552568","0.0-48.0-2.0","""event"",""trial"",""time""
""fullscreenenter"",""0"",""2080""
","
","
","""event"",""trial"",""time""
""fullscreenenter"",""0"",""2080""
","
","7432.5","run_exp/static/audio/clip_17_q1.m4a","49","","","","","","","","","","","","","","","","","","","","","","",""
"","correct","76","555004","0.0-49.0-0.0","""event"",""trial"",""time""
""fullscreenenter"",""0"",""2080""
","
","
","""event"",""trial"",""time""
""fullscreenenter"",""0"",""2080""
","
","null","run_exp/static/audio/clip_18_correct.m4a","null","","","","","<div class='center'><p>That's correct!</p></div>","","","","","","","","","","","","","","","","","",""
"","html-keyboard-response","77","556699","0.0-49.0-1.0","""event"",""trial"",""time""
""fullscreenenter"",""0"",""2080""
","
","
","""event"",""trial"",""time""
""fullscreenenter"",""0"",""2080""
","
","1691.8000000002794","<div class='center'><p>That's correct!</p><p><b>[Press the space bar to continue]</b></p></div>","32","","","","","","","","","","","","","","","","","","","","","","",""
"","audio-keyboard-response","78","565543","0.0-49.0-2.0","""event"",""trial"",""time""
""fullscreenenter"",""0"",""2080""
","
","
","""event"",""trial"",""time""
""fullscreenenter"",""0"",""2080""
","
","8841.80000000028","run_exp/static/audio/clip_20_q2.m4a","50","","","","","","","","","","","","","","","","","","","","","","",""
"","correct","79","567945","0.0-50.0-0.0","""event"",""trial"",""time""
""fullscreenenter"",""0"",""2080""
","
","
","""event"",""trial"",""time""
""fullscreenenter"",""0"",""2080""
","
","null","run_exp/static/audio/clip_18_correct.m4a","null","","","","","<div class='center'><p>That's correct!</p></div>","","","","","","","","","","","","","","","","","",""
"","html-keyboard-response","80","571017","0.0-50.0-1.0","""event"",""trial"",""time""
""fullscreenenter"",""0"",""2080""
","
","
","""event"",""trial"",""time""
""fullscreenenter"",""0"",""2080""
","
","3069.899999999907","<div class='center'><p>That's correct!</p><p><b>[Press the space bar to continue]</b></p></div>","32","","","","","","","","","","","","","","","","","","","","","","",""
"","audio-keyboard-response","81","576541","0.0-50.0-2.0","""event"",""trial"",""time""
""fullscreenenter"",""0"",""2080""
","
","
","""event"",""trial"",""time""
""fullscreenenter"",""0"",""2080""
","
","5516.199999999721","run_exp/static/audio/clip_22_q3.m4a","50","","","","","","","","","","","","","","","","","","","","","","",""
"","correct","82","578964","0.0-51.0-0.0","""event"",""trial"",""time""
""fullscreenenter"",""0"",""2080""
","
","
","""event"",""trial"",""time""
""fullscreenenter"",""0"",""2080""
","
","null","run_exp/static/audio/clip_18_correct.m4a","null","","","","","<div class='center'><p>That's correct!</p></div>","","","","","","","","","","","","","","","","","",""
"","html-keyboard-response","83","579792","0.0-51.0-1.0","""event"",""trial"",""time""
""fullscreenenter"",""0"",""2080""
","
","
","""event"",""trial"",""time""
""fullscreenenter"",""0"",""2080""
","
","825.3999999999069","<div class='center'><p>That's correct!</p><p><b>[Press the space bar to continue]</b></p></div>","32","","","","","","","","","","","","","","","","","","","","","","",""
"","audio-keyboard-response","84","585605","0.0-51.0-2.0","""event"",""trial"",""time""
""fullscreenenter"",""0"",""2080""
","
","
","""event"",""trial"",""time""
""fullscreenenter"",""0"",""2080""
","
","5807.799999999814","run_exp/static/audio/clip_24_q4.m4a","49","","","","","","","","","","","","","","","","","","","","","","",""
"","correct","85","588105","0.0-52.0-0.0","""event"",""trial"",""time""
""fullscreenenter"",""0"",""2080""
","
","
","""event"",""trial"",""time""
""fullscreenenter"",""0"",""2080""
","
","null","run_exp/static/audio/clip_18_correct.m4a","null","","","","","<div class='center'><p>That's correct!</p></div>","","","","","","","","","","","","","","","","","",""
"","html-keyboard-response","86","589137","0.0-52.0-1.0","""event"",""trial"",""time""
""fullscreenenter"",""0"",""2080""
","
","
","""event"",""trial"",""time""
""fullscreenenter"",""0"",""2080""
","
","1028.3999999999069","<div class='center'><p>That's correct!</p><p><b>[Press the space bar to continue]</b></p></div>","32","","","","","","","","","","","","","","","","","","","","","","",""
"","q_all_corr","87","597648","0.0-53.0-0.0","""event"",""trial"",""time""
""fullscreenenter"",""0"",""2080""
","
","
","""event"",""trial"",""time""
""fullscreenenter"",""0"",""2080""
","
","null","run_exp/static/audio/clip_27_quiz_all_correct.m4a","null","","","","","<div class='center'><p>Good job! You’re now ready to move on to the real game! Remember this game will be difficult but don't get discouraged and try your best!</p></div>","","","","","","","","","","","","","","","","","",""
"","html-keyboard-response","88","598371","0.0-53.0-1.0","""event"",""trial"",""time""
""fullscreenenter"",""0"",""2080""
","
","
","""event"",""trial"",""time""
""fullscreenenter"",""0"",""2080""
","
","719.5","<div class='center'><p>Good job! You’re now ready to move on to the real game! Remember this game will be difficult but don't get discouraged and try your best!</p><p><b>[Press the space bar to continue]</b></p></div>","32","","","","","","","","","","","","","","","","","","","","","","",""
"","do_welcome","89","602392","0.0-54.0-0.0","""event"",""trial"",""time""
""fullscreenenter"",""0"",""2080""
","
","
","""event"",""trial"",""time""
""fullscreenenter"",""0"",""2080""
","
","null","","","","","","","","null","","","","","","","","","","","","","","","","",""
"","do_trial","90","609833","0.0-55.0-0.0","""event"",""trial"",""time""
""fullscreenenter"",""0"",""2080""
","
","
","""event"",""trial"",""time""
""fullscreenenter"",""0"",""2080""
","
","2876.899999999907","","","","","","","","49","0,0,0","0","coast","0","probe-207","0.6","0.3","0.1","0","","","","","","","",""
"","html-keyboard-response","91","610843","0.0-55.0-1.0","""event"",""trial"",""time""
""fullscreenenter"",""0"",""2080""
","
","
","""event"",""trial"",""time""
""fullscreenenter"",""0"",""2080""
","
","null","<p></p>","null","","","","","","","","","","","","","","","","","","","","","","",""
"","do_trial","92","617360","0.0-56.0-0.0","""event"",""trial"",""time""
""fullscreenenter"",""0"",""2080""
","
","
","""event"",""trial"",""time""
""fullscreenenter"",""0"",""2080""
","
","1944","","","","","","","","50","1,1,0","0","coast","1","probe-164","0.6390772001225858","0.3465548830068413","0.06427574606006424","1","","","","","","","",""
"","html-keyboard-response","93","618372","0.0-56.0-1.0","""event"",""trial"",""time""
""fullscreenenter"",""0"",""2080""
","
","
","""event"",""trial"",""time""
""fullscreenenter"",""0"",""2080""
","
","null","<p></p>","null","","","","","","","","","","","","","","","","","","","","","","",""
"","do_trial","94","623661","0.0-57.0-0.0","""event"",""trial"",""time""
""fullscreenenter"",""0"",""2080""
","
","
","""event"",""trial"",""time""
""fullscreenenter"",""0"",""2080""
","
","706.8999999999069","","","","","","","","50","0,1,0","0","coast","2","probe-190","0.48453603580439863","0.2673928655088734","0.10040150442916733","1","","","","","","","",""
"","html-keyboard-response","95","624674","0.0-57.0-1.0","""event"",""trial"",""time""
""fullscreenenter"",""0"",""2080""
","
","
","""event"",""trial"",""time""
""fullscreenenter"",""0"",""2080""
","
","null","<p></p>","null","","","","","","","","","","","","","","","","","","","","","","",""
"","do_trial","96","629739","0.0-58.0-0.0","""event"",""trial"",""time""
""fullscreenenter"",""0"",""2080""
","
","
","""event"",""trial"",""time""
""fullscreenenter"",""0"",""2080""
","
","500.5","","","","","","","","51","1,0,1","0","coast","3","probe-130","0.5606165818654989","0.2692898962396281","0.2245932781259692","1","","","","","","","",""
"","html-keyboard-response","97","630743","0.0-58.0-1.0","""event"",""trial"",""time""
""fullscreenenter"",""0"",""2080""
","
","
","""event"",""trial"",""time""
""fullscreenenter"",""0"",""2080""
","
","null","<p></p>","null","","","","","","","","","","","","","","","","","","","","","","",""
"","do_trial","98","635957","0.0-59.0-0.0","""event"",""trial"",""time""
""fullscreenenter"",""0"",""2080""
","
","
","""event"",""trial"",""time""
""fullscreenenter"",""0"",""2080""
","
","626.3000000002794","","","","","","","","51","1,0,0","0","coast","4","probe-144","0.542937450491105","0.2893088615821428","0.2490064791762314","0","","","","","","","",""
"","html-keyboard-response","99","636960","0.0-59.0-1.0","""event"",""trial"",""time""
""fullscreenenter"",""0"",""2080""
","
","
","""event"",""trial"",""time""
""fullscreenenter"",""0"",""2080""
","
","null","<p></p>","null","","","","","","","","","","","","","","","","","","","","","","",""
"","do_trial","100","641881","0.0-60.0-0.0","""event"",""trial"",""time""
""fullscreenenter"",""0"",""2080""
","
","
","""event"",""trial"",""time""
""fullscreenenter"",""0"",""2080""
","
","332","","","","","","","","50","0,0,0","0","coast","5","probe-217","0.5470767698669613","0.25368675737448904","0.2307036789527005","0","","","","","","","",""
"","html-keyboard-response","101","642896","0.0-60.0-1.0","""event"",""trial"",""time""
""fullscreenenter"",""0"",""2080""
","
","
","""event"",""trial"",""time""
""fullscreenenter"",""0"",""2080""
","
","null","<p></p>","null","","","","","","","","","","","","","","","","","","","","","","",""
"","do_trial","102","647869","0.0-61.0-0.0","""event"",""trial"",""time""
""fullscreenenter"",""0"",""2080""
","
","
","""event"",""trial"",""time""
""fullscreenenter"",""0"",""2080""
","
","392","","","","","","","","49","1,1,0","0","coast","6","probe-224","0.5693463650907765","0.4025364151092435","0.15630574894618599","1","","","","","","","",""
"","html-keyboard-response","103","648885","0.0-61.0-1.0","""event"",""trial"",""time""
""fullscreenenter"",""0"",""2080""
","
","
","""event"",""trial"",""time""
""fullscreenenter"",""0"",""2080""
","
","null","<p></p>","null","","","","","","","","","","","","","","","","","","","","","","",""
"","do_trial","104","653875","0.0-62.0-0.0","""event"",""trial"",""time""
""fullscreenenter"",""0"",""2080""
","
","
","""event"",""trial"",""time""
""fullscreenenter"",""0"",""2080""
","
","406.10000000009313","","","","","","","","51","1,0,0","0","coast","7","probe-69","0.5244015665335107","0.41512492831337455","0.15173809863565746","0","","","","","","","",""
"","html-keyboard-response","105","654890","0.0-62.0-1.0","""event"",""trial"",""time""
""fullscreenenter"",""0"",""2080""
","
","
","""event"",""trial"",""time""
""fullscreenenter"",""0"",""2080""
","
","null","<p></p>","null","","","","","","","","","","","","","","","","","","","","","","",""
"","do_trial","106","659814","0.0-63.0-0.0","""event"",""trial"",""time""
""fullscreenenter"",""0"",""2080""
","
","
","""event"",""trial"",""time""
""fullscreenenter"",""0"",""2080""
","
","343.20000000018626","","","","","","","","50","0,0,0","0","coast","8","probe-79","0.6462556211288262","0.3792201713163433","0.13297161643988722","0","","","","","","","",""
"","html-keyboard-response","107","660830","0.0-63.0-1.0","""event"",""trial"",""time""
""fullscreenenter"",""0"",""2080""
","
","
","""event"",""trial"",""time""
""fullscreenenter"",""0"",""2080""
","
","null","<p></p>","null","","","","","","","","","","","","","","","","","","","","","","",""
"","do_trial","108","665833","0.0-64.0-0.0","""event"",""trial"",""time""
""fullscreenenter"",""0"",""2080""
","
","
","""event"",""trial"",""time""
""fullscreenenter"",""0"",""2080""
","
","432.89999999990687","","","","","","","","49","1,0,0","0","coast","9","probe-191","0.5887534066708722","0.41869251393589674","0.1663394446561288","1","","","","","","","",""
"","html-keyboard-response","109","666839","0.0-64.0-1.0","""event"",""trial"",""time""
""fullscreenenter"",""0"",""2080""
","
","
","""event"",""trial"",""time""
""fullscreenenter"",""0"",""2080""
","
","null","<p></p>","null","","","","","","","","","","","","","","","","","","","","","","",""
"","do_trial","110","671861","0.0-65.0-0.0","""event"",""trial"",""time""
""fullscreenenter"",""0"",""2080""
","
","
","""event"",""trial"",""time""
""fullscreenenter"",""0"",""2080""
","
","447.6999999997206","","","","","","","","50","1,1,0","0","coast","10","probe-83","0.5613343008962379","0.34799938014333875","0.07123263245928614","1","","","","","","","",""
"","html-keyboard-response","111","672874","0.0-65.0-1.0","""event"",""trial"",""time""
""fullscreenenter"",""0"",""2080""
","
","
","""event"",""trial"",""time""
""fullscreenenter"",""0"",""2080""
","
","null","<p></p>","null","","","","","","","","","","","","","","","","","","","","","","",""
"","do_trial","112","678849","0.0-66.0-0.0","""event"",""trial"",""time""
""fullscreenenter"",""0"",""2080""
","
","
","""event"",""trial"",""time""
""fullscreenenter"",""0"",""2080""
","
","1391.3999999999069","","","","","","","","50","1,0,0","0","coast","11","probe-25","0.5842504091774093","0.24146686933190908","0.06475696866518478","0","","","","","","","",""
"","html-keyboard-response","113","679853","0.0-66.0-1.0","""event"",""trial"",""time""
""fullscreenenter"",""0"",""2080""
","
","
","""event"",""trial"",""time""
""fullscreenenter"",""0"",""2080""
","
","null","<p></p>","null","","","","","","","","","","","","","","","","","","","","","","",""
"","do_trial","114","686091","0.0-67.0-0.0","""event"",""trial"",""time""
""fullscreenenter"",""0"",""2080""
","
","
","""event"",""trial"",""time""
""fullscreenenter"",""0"",""2080""
","
","1668.5","","","","","","","","49","1,1,0","0","coast","12","probe-61","0.5146343523703721","0.24732503616222765","0.13690847057703864","1","","","","","","","",""
"","html-keyboard-response","115","687108","0.0-67.0-1.0","""event"",""trial"",""time""
""fullscreenenter"",""0"",""2080""
","
","
","""event"",""trial"",""time""
""fullscreenenter"",""0"",""2080""
","
","null","<p></p>","null","","","","","","","","","","","","","","","","","","","","","","",""
"","do_trial","116","693175","0.0-68.0-0.0","""event"",""trial"",""time""
""fullscreenenter"",""0"",""2080""
","
","
","""event"",""trial"",""time""
""fullscreenenter"",""0"",""2080""
","
","null","","","","","","","","null","0,1,1","0","coast","13","probe-166","0.5218459266186565","0.32726670803941554","0.12879454466876245","","","","","","","","",""
"","html-keyboard-response","117","694189","0.0-68.0-1.0","""event"",""trial"",""time""
""fullscreenenter"",""0"",""2080""
","
","
","""event"",""trial"",""time""
""fullscreenenter"",""0"",""2080""
","
","null","<p></p>","null","","","","","","","","","","","","","","","","","","","","","","",""
"","do_trial","118","700219","0.0-69.0-0.0","""event"",""trial"",""time""
""fullscreenenter"",""0"",""2080""
","
","
","""event"",""trial"",""time""
""fullscreenenter"",""0"",""2080""
","
","1462.3999999999069","","","","","","","","49","1,1,0","0","coast","14","probe-53","0.5549831420426037","0.340744642258052","0.07198072669869816","1","","","","","","","",""
"","html-keyboard-response","119","701229","0.0-69.0-1.0","""event"",""trial"",""time""
""fullscreenenter"",""0"",""2080""
","
","
","""event"",""trial"",""time""
""fullscreenenter"",""0"",""2080""
","
","null","<p></p>","null","","","","","","","","","","","","","","","","","","","","","","",""
"","do_trial","120","706283","0.0-70.0-0.0","""event"",""trial"",""time""
""fullscreenenter"",""0"",""2080""
","
","
","""event"",""trial"",""time""
""fullscreenenter"",""0"",""2080""
","
","478.79999999981374","","","","","","","","50","0,1,0","0","coast","15","probe-65","0.40086499939737347","0.339538279334305","0.16795807168512603","1","","","","","","","",""
"","html-keyboard-response","121","707294","0.0-70.0-1.0","""event"",""trial"",""time""
""fullscreenenter"",""0"",""2080""
","
","
","""event"",""trial"",""time""
""fullscreenenter"",""0"",""2080""
","
","null","<p></p>","null","","","","","","","","","","","","","","","","","","","","","","",""
"","do_trial","122","712696","0.0-71.0-0.0","""event"",""trial"",""time""
""fullscreenenter"",""0"",""2080""
","
","
","""event"",""trial"",""time""
""fullscreenenter"",""0"",""2080""
","
","818.8999999999069","","","","","","","","49","1,0,0","0","coast","16","probe-46","0.5584506693449598","0.4424468259803244","0.07355639389001953","1","","","","","","","",""
"","html-keyboard-response","123","713702","0.0-71.0-1.0","""event"",""trial"",""time""
""fullscreenenter"",""0"",""2080""
","
","
","""event"",""trial"",""time""
""fullscreenenter"",""0"",""2080""
","
","null","<p></p>","null","","","","","","","","","","","","","","","","","","","","","","",""
"","do_trial","124","718799","0.0-72.0-0.0","""event"",""trial"",""time""
""fullscreenenter"",""0"",""2080""
","
","
","""event"",""trial"",""time""
""fullscreenenter"",""0"",""2080""
","
","501.5","","","","","","","","50","1,1,0","0","coast","17","probe-132","0.6133118672696967","0.39233086484569","0.16479037462122198","1","","","","","","","",""
"","html-keyboard-response","125","719811","0.0-72.0-1.0","""event"",""trial"",""time""
""fullscreenenter"",""0"",""2080""
","
","
","""event"",""trial"",""time""
""fullscreenenter"",""0"",""2080""
","
","null","<p></p>","null","","","","","","","","","","","","","","","","","","","","","","",""
"","do_trial","126","724875","0.0-73.0-0.0","""event"",""trial"",""time""
""fullscreenenter"",""0"",""2080""
","
","
","""event"",""trial"",""time""
""fullscreenenter"",""0"",""2080""
","
","496.10000000009313","","","","","","","","49","0,0,0","0","coast","18","probe-91","0.592540332759883","0.4583724821394728","0.07171219994573905","0","","","","","","","",""
"","html-keyboard-response","127","725892","0.0-73.0-1.0","""event"",""trial"",""time""
""fullscreenenter"",""0"",""2080""
","
","
","""event"",""trial"",""time""
""fullscreenenter"",""0"",""2080""
","
","null","<p></p>","null","","","","","","","","","","","","","","","","","","","","","","",""
"","do_trial","128","730862","0.0-74.0-0.0","""event"",""trial"",""time""
""fullscreenenter"",""0"",""2080""
","
","
","""event"",""trial"",""time""
""fullscreenenter"",""0"",""2080""
","
","388.20000000018626","","","","","","","","51","0,1,0","0","coast","19","probe-222","0.3411787844072313","0.5072175628759478","0.16270400063765186","0","","","","","","","",""
"","html-keyboard-response","129","731878","0.0-74.0-1.0","""event"",""trial"",""time""
""fullscreenenter"",""0"",""2080""
","
","
","""event"",""trial"",""time""
""fullscreenenter"",""0"",""2080""
","
","null","<p></p>","null","","","","","","","","","","","","","","","","","","","","","","",""
"","do_trial","130","737352","0.0-75.0-0.0","""event"",""trial"",""time""
""fullscreenenter"",""0"",""2080""
","
","
","""event"",""trial"",""time""
""fullscreenenter"",""0"",""2080""
","
","910.2999999998137","","","","","","","","50","0,0,0","0","coast","20","probe-115","0.43374239966761785","0.3874151448997408","0.16037138293875686","0","","","","","","","",""
"","html-keyboard-response","131","738362","0.0-75.0-1.0","""event"",""trial"",""time""
""fullscreenenter"",""0"",""2080""
","
","
","""event"",""trial"",""time""
""fullscreenenter"",""0"",""2080""
","
","null","<p></p>","null","","","","","","","","","","","","","","","","","","","","","","",""
"","do_trial","132","743364","0.0-76.0-0.0","""event"",""trial"",""time""
""fullscreenenter"",""0"",""2080""
","
","
","""event"",""trial"",""time""
""fullscreenenter"",""0"",""2080""
","
","420.29999999981374","","","","","","","","49","1,0,0","0","coast","21","probe-101","0.6186646007744931","0.36604057211116053","0.11233584282385209","1","","","","","","","",""
"","html-keyboard-response","133","744376","0.0-76.0-1.0","""event"",""trial"",""time""
""fullscreenenter"",""0"",""2080""
","
","
","""event"",""trial"",""time""
""fullscreenenter"",""0"",""2080""
","
","null","<p></p>","null","","","","","","","","","","","","","","","","","","","","","","",""
"","do_trial","134","749492","0.0-77.0-0.0","""event"",""trial"",""time""
""fullscreenenter"",""0"",""2080""
","
","
","""event"",""trial"",""time""
""fullscreenenter"",""0"",""2080""
","
","539.6000000000931","","","","","","","","49","0,0,0","0","coast","22","probe-102","0.6885117103447566","0.22764885743882496","0.14675557483161172","0","","","","","","","",""
"","html-keyboard-response","135","750507","0.0-77.0-1.0","""event"",""trial"",""time""
""fullscreenenter"",""0"",""2080""
","
","
","""event"",""trial"",""time""
""fullscreenenter"",""0"",""2080""
","
","null","<p></p>","null","","","","","","","","","","","","","","","","","","","","","","",""
"","do_trial","136","755493","0.0-78.0-0.0","""event"",""trial"",""time""
""fullscreenenter"",""0"",""2080""
","
","
","""event"",""trial"",""time""
""fullscreenenter"",""0"",""2080""
","
","406.5","","","","","","","","51","1,1,1","0","coast","23","probe-193","0.5828169887341723","0.1550711278812021","0.20840907558460955","1","","","","","","","",""
"","html-keyboard-response","137","756510","0.0-78.0-1.0","""event"",""trial"",""time""
""fullscreenenter"",""0"",""2080""
","
","
","""event"",""trial"",""time""
""fullscreenenter"",""0"",""2080""
","
","null","<p></p>","null","","","","","","","","","","","","","","","","","","","","","","",""
"","do_trial","138","761498","0.0-79.0-0.0","""event"",""trial"",""time""
""fullscreenenter"",""0"",""2080""
","
","
","""event"",""trial"",""time""
""fullscreenenter"",""0"",""2080""
","
","406.20000000018626","","","","","","","","50","1,0,0","0","coast","24","probe-07","0.7241863777640191","0.20696724854843968","0.20493040390533235","0","","","","","","","",""
"","html-keyboard-response","139","762513","0.0-79.0-1.0","""event"",""trial"",""time""
""fullscreenenter"",""0"",""2080""
","
","
","""event"",""trial"",""time""
""fullscreenenter"",""0"",""2080""
","
","null","<p></p>","null","","","","","","","","","","","","","","","","","","","","","","",""
"","do_trial","140","767472","0.0-80.0-0.0","""event"",""trial"",""time""
""fullscreenenter"",""0"",""2080""
","
","
","""event"",""trial"",""time""
""fullscreenenter"",""0"",""2080""
","
","377","","","","","","","","51","0,1,0","0","coast","25","probe-159","0.7744342769482746","0.32589253621247166","0.2997080227605117","0","","","","","","","",""
"","html-keyboard-response","141","768489","0.0-80.0-1.0","""event"",""trial"",""time""
""fullscreenenter"",""0"",""2080""
","
","
","""event"",""trial"",""time""
""fullscreenenter"",""0"",""2080""
","
","null","<p></p>","null","","","","","","","","","","","","","","","","","","","","","","",""
"","do_trial","142","773680","0.0-81.0-0.0","""event"",""trial"",""time""
""fullscreenenter"",""0"",""2080""
","
","
","""event"",""trial"",""time""
""fullscreenenter"",""0"",""2080""
","
","612.1999999997206","","","","","","","","49","0,0,1","0","coast","26","probe-202","0.7299996848421784","0.3081556169140811","0.2848273744560731","0","","","","","","","",""
"","html-keyboard-response","143","774684","0.0-81.0-1.0","""event"",""trial"",""time""
""fullscreenenter"",""0"",""2080""
","
","
","""event"",""trial"",""time""
""fullscreenenter"",""0"",""2080""
","
","null","<p></p>","null","","","","","","","","","","","","","","","","","","","","","","",""
"","do_trial","144","779619","0.0-82.0-0.0","""event"",""trial"",""time""
""fullscreenenter"",""0"",""2080""
","
","
","""event"",""trial"",""time""
""fullscreenenter"",""0"",""2080""
","
","354.89999999990687","","","","","","","","50","1,0,0","0","coast","27","probe-110","0.6635920311142819","0.2748268931318254","0.2800446445094999","0","","","","","","","",""
"","html-keyboard-response","145","780626","0.0-82.0-1.0","""event"",""trial"",""time""
""fullscreenenter"",""0"",""2080""
","
","
","""event"",""trial"",""time""
""fullscreenenter"",""0"",""2080""
","
","null","<p></p>","null","","","","","","","","","","","","","","","","","","","","","","",""
"","do_trial","146","786393","0.0-83.0-0.0","""event"",""trial"",""time""
""fullscreenenter"",""0"",""2080""
","
","
","""event"",""trial"",""time""
""fullscreenenter"",""0"",""2080""
","
","1195.5","","","","","","","","49","0,0,0","0","coast","28","probe-104","0.6564222581376614","0.20680325156860516","0.1766572053810573","0","","","","","","","",""
"","html-keyboard-response","147","787409","0.0-83.0-1.0","""event"",""trial"",""time""
""fullscreenenter"",""0"",""2080""
","
","
","""event"",""trial"",""time""
""fullscreenenter"",""0"",""2080""
","
","null","<p></p>","null","","","","","","","","","","","","","","","","","","","","","","",""
"","do_trial","148","792482","0.0-84.0-0.0","""event"",""trial"",""time""
""fullscreenenter"",""0"",""2080""
","
","
","""event"",""trial"",""time""
""fullscreenenter"",""0"",""2080""
","
","490.59999999962747","","","","","","","","51","1,0,0","0","coast","29","probe-195","0.624531234244741","0.08179643943448917","0.05528597980504566","0","","","","","","","",""
"","html-keyboard-response","149","793491","0.0-84.0-1.0","""event"",""trial"",""time""
""fullscreenenter"",""0"",""2080""
","
","
","""event"",""trial"",""time""
""fullscreenenter"",""0"",""2080""
","
","null","<p></p>","null","","","","","","","","","","","","","","","","","","","","","","",""
"","do_bye","150","795007","0.0-85.0-0.0","""event"",""trial"",""time""
""fullscreenenter"",""0"",""2080""
","
","
","""event"",""trial"",""time""
""fullscreenenter"",""0"",""2080""
","
","null","","","","","","","","null","","","","","","","","","","","","","","","","",""
"","break","151","834589","0.0-85.0-1.0","""event"",""trial"",""time""
""fullscreenenter"",""0"",""2080""
","
","
","""event"",""trial"",""time""
""fullscreenenter"",""0"",""2080""
","
","39579.10000000009","<div class='center'><p>Time to take a quick break! You have 2 minutes to rest, but you can move on sooner if you'd like.</p><p> Press the <b>space bar</b> to continue.</p></div>","32","","","","","","","","","","","","","","","","","","","","","","",""
"","do_travel","152","843603","0.0-86.0-0.0","""event"",""trial"",""time""
""fullscreenenter"",""0"",""2080""
","
","
","""event"",""trial"",""time""
""fullscreenenter"",""0"",""2080""
","
","null","","","","","","","","null","","","","","","","","","","","","","","","","",""
"","do_welcome","153","847622","0.0-86.0-1.0","""event"",""trial"",""time""
""fullscreenenter"",""0"",""2080""
","
","
","""event"",""trial"",""time""
""fullscreenenter"",""0"",""2080""
","
","null","","","","","","","","null","","","","","","","","","","","","","","","","",""
"","do_trial","154","853941","0.0-87.0-0.0","""event"",""trial"",""time""
""fullscreenenter"",""0"",""2080""
","
","
","""event"",""trial"",""time""
""fullscreenenter"",""0"",""2080""
","
","1754.1000000000931","","","","","","","","50","1,0,0","1","countryside","30","probe-48","1","0.11938693304202527","0.097434683085527","0","","","","","","","",""
"","html-keyboard-response","155","854954","0.0-87.0-1.0","""event"",""trial"",""time""
""fullscreenenter"",""0"",""2080""
","
","
","""event"",""trial"",""time""
""fullscreenenter"",""0"",""2080""
","
","null","<p></p>","null","","","","","","","","","","","","","","","","","","","","","","",""
"","do_trial","156","860430","0.0-88.0-0.0","""event"",""trial"",""time""
""fullscreenenter"",""0"",""2080""
","
","
","""event"",""trial"",""time""
""fullscreenenter"",""0"",""2080""
","
","911.6999999997206","","","","","","","","49","1,1,0","1","countryside","31","probe-188","1","0.15085973061627733","0.09906339630375949","1","","","","","","","",""
"","html-keyboard-response","157","861436","0.0-88.0-1.0","""event"",""trial"",""time""
""fullscreenenter"",""0"",""2080""
","
","
","""event"",""trial"",""time""
""fullscreenenter"",""0"",""2080""
","
","null","<p></p>","null","","","","","","","","","","","","","","","","","","","","","","",""
"","do_trial","158","867438","0.0-89.0-0.0","""event"",""trial"",""time""
""fullscreenenter"",""0"",""2080""
","
","
","""event"",""trial"",""time""
""fullscreenenter"",""0"",""2080""
","
","1427.8999999999069","","","","","","","","51","1,0,0","1","countryside","32","probe-200","1","0.25402221080196635","0.11084888116168642","0","","","","","","","",""
"","html-keyboard-response","159","868455","0.0-89.0-1.0","""event"",""trial"",""time""
""fullscreenenter"",""0"",""2080""
","
","
","""event"",""trial"",""time""
""fullscreenenter"",""0"",""2080""
","
","null","<p></p>","null","","","","","","","","","","","","","","","","","","","","","","",""
"","do_trial","160","873497","0.0-90.0-0.0","""event"",""trial"",""time""
""fullscreenenter"",""0"",""2080""
","
","
","""event"",""trial"",""time""
""fullscreenenter"",""0"",""2080""
","
","473.60000000009313","","","","","","","","50","1,1,0","1","countryside","33","probe-105","0.8738927905736605","0.07779893800528644","0.06519074160320124","1","","","","","","","",""
"","html-keyboard-response","161","874508","0.0-90.0-1.0","""event"",""trial"",""time""
""fullscreenenter"",""0"",""2080""
","
","
","""event"",""trial"",""time""
""fullscreenenter"",""0"",""2080""
","
","null","<p></p>","null","","","","","","","","","","","","","","","","","","","","","","",""
"","do_trial","162","880717","0.0-91.0-0.0","""event"",""trial"",""time""
""fullscreenenter"",""0"",""2080""
","
","
","""event"",""trial"",""time""
""fullscreenenter"",""0"",""2080""
","
","1633","","","","","","","","49","1,0,0","1","countryside","34","probe-73","0.8838047935294148","0.2430922652852066","0.07038385934287215","1","","","","","","","",""
"","html-keyboard-response","163","881724","0.0-91.0-1.0","""event"",""trial"",""time""
""fullscreenenter"",""0"",""2080""
","
","
","""event"",""trial"",""time""
""fullscreenenter"",""0"",""2080""
","
","null","<p></p>","null","","","","","","","","","","","","","","","","","","","","","","",""
"","do_trial","164","886722","0.0-92.0-0.0","""event"",""trial"",""time""
""fullscreenenter"",""0"",""2080""
","
","
","""event"",""trial"",""time""
""fullscreenenter"",""0"",""2080""
","
","414.10000000009313","","","","","","","","50","1,0,0","1","countryside","35","probe-02","0.786774997612635","0.2939232672953524","0.08042097405575412","0","","","","","","","",""
"","html-keyboard-response","165","887739","0.0-92.0-1.0","""event"",""trial"",""time""
""fullscreenenter"",""0"",""2080""
","
","
","""event"",""trial"",""time""
""fullscreenenter"",""0"",""2080""
","
","null","<p></p>","null","","","","","","","","","","","","","","","","","","","","","","",""
"","do_trial","166","892802","0.0-93.0-0.0","""event"",""trial"",""time""
""fullscreenenter"",""0"",""2080""
","
","
","""event"",""trial"",""time""
""fullscreenenter"",""0"",""2080""
","
","499.39999999990687","","","","","","","","51","0,0,1","1","countryside","36","probe-174","0.6224179887398323","0.4571919324031082","0.12181728257175731","1","","","","","","","",""
"","html-keyboard-response","167","893816","0.0-93.0-1.0","""event"",""trial"",""time""
""fullscreenenter"",""0"",""2080""
","
","
","""event"",""trial"",""time""
""fullscreenenter"",""0"",""2080""
","
","null","<p></p>","null","","","","","","","","","","","","","","","","","","","","","","",""
"","do_trial","168","899014","0.0-94.0-0.0","""event"",""trial"",""time""
""fullscreenenter"",""0"",""2080""
","
","
","""event"",""trial"",""time""
""fullscreenenter"",""0"",""2080""
","
","616.1000000000931","","","","","","","","51","0,0,0","1","countryside","37","probe-152","0.5519102546154564","0.35086964609808685","0.05369444352168401","0","","","","","","","",""
"","html-keyboard-response","169","900027","0.0-94.0-1.0","""event"",""trial"",""time""
""fullscreenenter"",""0"",""2080""
","
","
","""event"",""trial"",""time""
""fullscreenenter"",""0"",""2080""
","
","null","<p></p>","null","","","","","","","","","","","","","","","","","","","","","","",""
"","do_trial","170","904928","0.0-95.0-0.0","""event"",""trial"",""time""
""fullscreenenter"",""0"",""2080""
","
","
","""event"",""trial"",""time""
""fullscreenenter"",""0"",""2080""
","
","324.60000000009313","","","","","","","","50","1,0,0","1","countryside","38","probe-138","0.5297156768329836","0.3893394773749099","0.10053100265672138","0","","","","","","","",""
"","html-keyboard-response","171","905939","0.0-95.0-1.0","""event"",""trial"",""time""
""fullscreenenter"",""0"",""2080""
","
","
","""event"",""trial"",""time""
""fullscreenenter"",""0"",""2080""
","
","null","<p></p>","null","","","","","","","","","","","","","","","","","","","","","","",""
"","do_trial","172","910765","0.0-96.0-0.0","""event"",""trial"",""time""
""fullscreenenter"",""0"",""2080""
","
","
","""event"",""trial"",""time""
""fullscreenenter"",""0"",""2080""
","
","248.10000000009313","","","","","","","","51","1,0,1","1","countryside","39","probe-216","0.6075068647257829","0.3242419019443311","0.12160599156155721","1","","","","","","","",""
"","html-keyboard-response","173","911780","0.0-96.0-1.0","""event"",""trial"",""time""
""fullscreenenter"",""0"",""2080""
","
","
","""event"",""trial"",""time""
""fullscreenenter"",""0"",""2080""
","
","null","<p></p>","null","","","","","","","","","","","","","","","","","","","","","","",""
"","do_trial","174","916884","0.0-97.0-0.0","""event"",""trial"",""time""
""fullscreenenter"",""0"",""2080""
","
","
","""event"",""trial"",""time""
""fullscreenenter"",""0"",""2080""
","
","528.6000000000931","","","","","","","","50","1,0,0","1","countryside","40","probe-86","0.44847243467857895","0.3899894650962763","0.21598492004851216","0","","","","","","","",""
"","html-keyboard-response","175","917893","0.0-97.0-1.0","""event"",""trial"",""time""
""fullscreenenter"",""0"",""2080""
","
","
","""event"",""trial"",""time""
""fullscreenenter"",""0"",""2080""
","
","null","<p></p>","null","","","","","","","","","","","","","","","","","","","","","","",""
"","do_trial","176","922852","0.0-98.0-0.0","""event"",""trial"",""time""
""fullscreenenter"",""0"",""2080""
","
","
","""event"",""trial"",""time""
""fullscreenenter"",""0"",""2080""
","
","384","","","","","","","","51","0,1,1","1","countryside","41","probe-06","0.39596524158835744","0.4098948991881842","0.26087021135804744","1","","","","","","","",""
"","html-keyboard-response","177","923869","0.0-98.0-1.0","""event"",""trial"",""time""
""fullscreenenter"",""0"",""2080""
","
","
","""event"",""trial"",""time""
""fullscreenenter"",""0"",""2080""
","
","null","<p></p>","null","","","","","","","","","","","","","","","","","","","","","","",""
"","do_trial","178","929059","0.0-99.0-0.0","""event"",""trial"",""time""
""fullscreenenter"",""0"",""2080""
","
","
","""event"",""trial"",""time""
""fullscreenenter"",""0"",""2080""
","
","615.7000000001863","","","","","","","","49","0,1,0","1","countryside","42","probe-139","0.4469010153660302","0.4675036467636777","0.3819691562106769","0","","","","","","","",""
"","html-keyboard-response","179","930074","0.0-99.0-1.0","""event"",""trial"",""time""
""fullscreenenter"",""0"",""2080""
","
","
","""event"",""trial"",""time""
""fullscreenenter"",""0"",""2080""
","
","null","<p></p>","null","","","","","","","","","","","","","","","","","","","","","","",""
"","do_trial","180","935351","0.0-100.0-0.0","""event"",""trial"",""time""
""fullscreenenter"",""0"",""2080""
","
","
","""event"",""trial"",""time""
""fullscreenenter"",""0"",""2080""
","
","707.3999999999069","","","","","","","","50","0,1,1","1","countryside","43","probe-75","0.3354514169303744","0.5028865550134327","0.3349567122124633","1","","","","","","","",""
"","html-keyboard-response","181","936362","0.0-100.0-1.0","""event"",""trial"",""time""
""fullscreenenter"",""0"",""2080""
","
","
","""event"",""trial"",""time""
""fullscreenenter"",""0"",""2080""
","
","null","<p></p>","null","","","","","","","","","","","","","","","","","","","","","","",""
"","do_trial","182","941660","0.0-101.0-0.0","""event"",""trial"",""time""
""fullscreenenter"",""0"",""2080""
","
","
","""event"",""trial"",""time""
""fullscreenenter"",""0"",""2080""
","
","720.2000000001863","","","","","","","","51","1,0,0","1","countryside","44","probe-70","0.3431877434762408","0.5265115052581872","0.34104073716520106","0","","","","","","","",""
"","html-keyboard-response","183","942672","0.0-101.0-1.0","""event"",""trial"",""time""
""fullscreenenter"",""0"",""2080""
","
","
","""event"",""trial"",""time""
""fullscreenenter"",""0"",""2080""
","
","null","<p></p>","null","","","","","","","","","","","","","","","","","","","","","","",""
"","do_trial","184","949257","0.0-102.0-0.0","""event"",""trial"",""time""
""fullscreenenter"",""0"",""2080""
","
","
","""event"",""trial"",""time""
""fullscreenenter"",""0"",""2080""
","
","2014.2000000001863","","","","","","","","51","0,1,1","1","countryside","45","probe-15","0.23692799731247782","0.6049052980020536","0.24238691101635382","1","","","","","","","",""
"","html-keyboard-response","185","950262","0.0-102.0-1.0","""event"",""trial"",""time""
""fullscreenenter"",""0"",""2080""
","
","
","""event"",""trial"",""time""
""fullscreenenter"",""0"",""2080""
","
","null","<p></p>","null","","","","","","","","","","","","","","","","","","","","","","",""
"","do_trial","186","955657","0.0-103.0-0.0","""event"",""trial"",""time""
""fullscreenenter"",""0"",""2080""
","
","
","""event"",""trial"",""time""
""fullscreenenter"",""0"",""2080""
","
","808.1000000000931","","","","","","","","50","0,1,0","1","countryside","46","probe-37","0.0610952066399269","0.5733990993366661","0.16348197812461784","1","","","","","","","",""
"","html-keyboard-response","187","956668","0.0-103.0-1.0","""event"",""trial"",""time""
""fullscreenenter"",""0"",""2080""
","
","
","""event"",""trial"",""time""
""fullscreenenter"",""0"",""2080""
","
","null","<p></p>","null","","","","","","","","","","","","","","","","","","","","","","",""
"","do_trial","188","961600","0.0-104.0-0.0","""event"",""trial"",""time""
""fullscreenenter"",""0"",""2080""
","
","
","""event"",""trial"",""time""
""fullscreenenter"",""0"",""2080""
","
","347.89999999990687","","","","","","","","51","0,0,0","1","countryside","47","probe-198","0.13120697986710775","0.5923847513114906","0.06466341537727377","0","","","","","","","",""
"","html-keyboard-response","189","962616","0.0-104.0-1.0","""event"",""trial"",""time""
""fullscreenenter"",""0"",""2080""
","
","
","""event"",""trial"",""time""
""fullscreenenter"",""0"",""2080""
","
","null","<p></p>","null","","","","","","","","","","","","","","","","","","","","","","",""
"","do_trial","190","967612","0.0-105.0-0.0","""event"",""trial"",""time""
""fullscreenenter"",""0"",""2080""
","
","
","""event"",""trial"",""time""
""fullscreenenter"",""0"",""2080""
","
","410.10000000009313","","","","","","","","50","0,1,0","1","countryside","48","probe-72","0.1178461361613804","0.658078440305601","0.06758173532029213","1","","","","","","","",""
"","html-keyboard-response","191","968626","0.0-105.0-1.0","""event"",""trial"",""time""
""fullscreenenter"",""0"",""2080""
","
","
","""event"",""trial"",""time""
""fullscreenenter"",""0"",""2080""
","
","null","<p></p>","null","","","","","","","","","","","","","","","","","","","","","","",""
"","do_trial","192","973661","0.0-106.0-0.0","""event"",""trial"",""time""
""fullscreenenter"",""0"",""2080""
","
","
","""event"",""trial"",""time""
""fullscreenenter"",""0"",""2080""
","
","469.5","","","","","","","","49","1,1,0","1","countryside","49","probe-92","0.19458684836738613","0.5873473679007151","0.0535374341565896","1","","","","","","","",""
"","html-keyboard-response","193","974677","0.0-106.0-1.0","""event"",""trial"",""time""
""fullscreenenter"",""0"",""2080""
","
","
","""event"",""trial"",""time""
""fullscreenenter"",""0"",""2080""
","
","null","<p></p>","null","","","","","","","","","","","","","","","","","","","","","","",""
"","do_trial","194","979620","0.0-107.0-0.0","""event"",""trial"",""time""
""fullscreenenter"",""0"",""2080""
","
","
","""event"",""trial"",""time""
""fullscreenenter"",""0"",""2080""
","
","359.10000000009313","","","","","","","","51","1,1,0","1","countryside","50","probe-54","0.3671367844714038","0.6114590270325707","0.1850482679760484","0","","","","","","","",""
"","html-keyboard-response","195","980635","0.0-107.0-1.0","""event"",""trial"",""time""
""fullscreenenter"",""0"",""2080""
","
","
","""event"",""trial"",""time""
""fullscreenenter"",""0"",""2080""
","
","null","<p></p>","null","","","","","","","","","","","","","","","","","","","","","","",""
"","do_trial","196","985904","0.0-108.0-0.0","""event"",""trial"",""time""
""fullscreenenter"",""0"",""2080""
","
","
","""event"",""trial"",""time""
""fullscreenenter"",""0"",""2080""
","
","699","","","","","","","","49","1,1,0","1","countryside","51","probe-156","0.27668845101365214","0.6115148914431603","0.2714962575780928","1","","","","","","","",""
"","html-keyboard-response","197","986914","0.0-108.0-1.0","""event"",""trial"",""time""
""fullscreenenter"",""0"",""2080""
","
","
","""event"",""trial"",""time""
""fullscreenenter"",""0"",""2080""
","
","null","<p></p>","null","","","","","","","","","","","","","","","","","","","","","","",""
"","do_trial","198","991830","0.0-109.0-0.0","""event"",""trial"",""time""
""fullscreenenter"",""0"",""2080""
","
","
","""event"",""trial"",""time""
""fullscreenenter"",""0"",""2080""
","
","326.8000000002794","","","","","","","","50","0,0,1","1","countryside","52","probe-71","0.29261924910051845","0.5881534284478958","0.08376996091621408","0","","","","","","","",""
"","html-keyboard-response","199","992843","0.0-109.0-1.0","""event"",""trial"",""time""
""fullscreenenter"",""0"",""2080""
","
","
","""event"",""trial"",""time""
""fullscreenenter"",""0"",""2080""
","
","null","<p></p>","null","","","","","","","","","","","","","","","","","","","","","","",""
"","do_trial","200","997854","0.0-110.0-0.0","""event"",""trial"",""time""
""fullscreenenter"",""0"",""2080""
","
","
","""event"",""trial"",""time""
""fullscreenenter"",""0"",""2080""
","
","426.5","","","","","","","","51","0,0,0","1","countryside","53","probe-24","0.2753515436861033","0.57307092384317","0.1134544809182302","0","","","","","","","",""
"","html-keyboard-response","201","998871","0.0-110.0-1.0","""event"",""trial"",""time""
""fullscreenenter"",""0"",""2080""
","
","
","""event"",""trial"",""time""
""fullscreenenter"",""0"",""2080""
","
","null","<p></p>","null","","","","","","","","","","","","","","","","","","","","","","",""
"","do_trial","202","1004000","0.0-111.0-0.0","""event"",""trial"",""time""
""fullscreenenter"",""0"",""2080""
","
","
","""event"",""trial"",""time""
""fullscreenenter"",""0"",""2080""
","
","538.7999999998137","","","","","","","","49","1,0,0","1","countryside","54","probe-131","0.4039908936594322","0.5840484830177286","0.11898986328364862","1","","","","","","","",""
"","html-keyboard-response","203","1005012","0.0-111.0-1.0","""event"",""trial"",""time""
""fullscreenenter"",""0"",""2080""
","
","
","""event"",""trial"",""time""
""fullscreenenter"",""0"",""2080""
","
","null","<p></p>","null","","","","","","","","","","","","","","","","","","","","","","",""
"","do_trial","204","1010127","0.0-112.0-0.0","""event"",""trial"",""time""
""fullscreenenter"",""0"",""2080""
","
","
","""event"",""trial"",""time""
""fullscreenenter"",""0"",""2080""
","
","546.3000000002794","","","","","","","","51","1,0,0","1","countryside","55","probe-08","0.4218976745219134","0.4820045109237107","0.2006976529759035","0","","","","","","","",""
"","html-keyboard-response","205","1011140","0.0-112.0-1.0","""event"",""trial"",""time""
""fullscreenenter"",""0"",""2080""
","
","
","""event"",""trial"",""time""
""fullscreenenter"",""0"",""2080""
","
","null","<p></p>","null","","","","","","","","","","","","","","","","","","","","","","",""
"","do_trial","206","1016477","0.0-113.0-0.0","""event"",""trial"",""time""
""fullscreenenter"",""0"",""2080""
","
","
","""event"",""trial"",""time""
""fullscreenenter"",""0"",""2080""
","
","752.5","","","","","","","","49","0,1,0","1","countryside","56","probe-93","0.4853435571105263","0.7629965640991415","0.21612607626490474","0","","","","","","","",""
"","html-keyboard-response","207","1017485","0.0-113.0-1.0","""event"",""trial"",""time""
""fullscreenenter"",""0"",""2080""
","
","
","""event"",""trial"",""time""
""fullscreenenter"",""0"",""2080""
","
","null","<p></p>","null","","","","","","","","","","","","","","","","","","","","","","",""
"","do_trial","208","1024238","0.0-114.0-0.0","""event"",""trial"",""time""
""fullscreenenter"",""0"",""2080""
","
","
","""event"",""trial"",""time""
""fullscreenenter"",""0"",""2080""
","
","2180.7999999998137","","","","","","","","50","0,1,0","1","countryside","57","probe-20","0.41365742890755564","0.6996396775127296","0.21426453964263498","1","","","","","","","",""
"","html-keyboard-response","209","1025251","0.0-114.0-1.0","""event"",""trial"",""time""
""fullscreenenter"",""0"",""2080""
","
","
","""event"",""trial"",""time""
""fullscreenenter"",""0"",""2080""
","
","null","<p></p>","null","","","","","","","","","","","","","","","","","","","","","","",""
"","do_trial","210","1030251","0.0-115.0-0.0","""event"",""trial"",""time""
""fullscreenenter"",""0"",""2080""
","
","
","""event"",""trial"",""time""
""fullscreenenter"",""0"",""2080""
","
","419.59999999962747","","","","","","","","51","0,0,0","1","countryside","58","probe-196","0.3332149825305743","0.6179187063375924","0.1693096639095031","0","","","","","","","",""
"","html-keyboard-response","211","1031255","0.0-115.0-1.0","""event"",""trial"",""time""
""fullscreenenter"",""0"",""2080""
","
","
","""event"",""trial"",""time""
""fullscreenenter"",""0"",""2080""
","
","null","<p></p>","null","","","","","","","","","","","","","","","","","","","","","","",""
"","do_trial","212","1037054","0.0-116.0-0.0","""event"",""trial"",""time""
""fullscreenenter"",""0"",""2080""
","
","
","""event"",""trial"",""time""
""fullscreenenter"",""0"",""2080""
","
","1225.8999999999069","","","","","","","","49","0,0,0","1","countryside","59","probe-40","0.376502869201373","0.5216459902633036","0.17990328184168267","0","","","","","","","",""
"","html-keyboard-response","213","1038067","0.0-116.0-1.0","""event"",""trial"",""time""
""fullscreenenter"",""0"",""2080""
","
","
","""event"",""trial"",""time""
""fullscreenenter"",""0"",""2080""
","
","null","<p></p>","null","","","","","","","","","","","","","","","","","","","","","","",""
"","do_trial","214","1043198","0.0-117.0-0.0","""event"",""trial"",""time""
""fullscreenenter"",""0"",""2080""
","
","
","""event"",""trial"",""time""
""fullscreenenter"",""0"",""2080""
","
","557.8999999999069","","","","","","","","51","1,1,0","1","countryside","60","probe-111","0.35411217544595047","0.5504288118412679","0.16737904251802724","0","","","","","","","",""
"","html-keyboard-response","215","1044215","0.0-117.0-1.0","""event"",""trial"",""time""
""fullscreenenter"",""0"",""2080""
","
","
","""event"",""trial"",""time""
""fullscreenenter"",""0"",""2080""
","
","null","<p></p>","null","","","","","","","","","","","","","","","","","","","","","","",""
"","do_trial","216","1049164","0.0-118.0-0.0","""event"",""trial"",""time""
""fullscreenenter"",""0"",""2080""
","
","
","""event"",""trial"",""time""
""fullscreenenter"",""0"",""2080""
","
","385.60000000009313","","","","","","","","50","0,0,0","1","countryside","61","probe-13","0.3289431910139845","0.6076063448944592","0.16266934583955206","0","","","","","","","",""
"","html-keyboard-response","217","1050174","0.0-118.0-1.0","""event"",""trial"",""time""
""fullscreenenter"",""0"",""2080""
","
","
","""event"",""trial"",""time""
""fullscreenenter"",""0"",""2080""
","
","null","<p></p>","null","","","","","","","","","","","","","","","","","","","","","","",""
"","do_trial","218","1055174","0.0-119.0-0.0","""event"",""trial"",""time""
""fullscreenenter"",""0"",""2080""
","
","
","""event"",""trial"",""time""
""fullscreenenter"",""0"",""2080""
","
","424.89999999990687","","","","","","","","49","0,1,1","1","countryside","62","probe-31","0.36189152860059304","0.5924862418214542","0.16743873888080568","0","","","","","","","",""
"","html-keyboard-response","219","1056177","0.0-119.0-1.0","""event"",""trial"",""time""
""fullscreenenter"",""0"",""2080""
","
","
","""event"",""trial"",""time""
""fullscreenenter"",""0"",""2080""
","
","null","<p></p>","null","","","","","","","","","","","","","","","","","","","","","","",""
"","do_trial","220","1062547","0.0-120.0-0.0","""event"",""trial"",""time""
""fullscreenenter"",""0"",""2080""
","
","
","""event"",""trial"",""time""
""fullscreenenter"",""0"",""2080""
","
","1797.8000000002794","","","","","","","","51","0,0,0","1","countryside","63","probe-10","0.5229314287532242","0.5632390625351726","0.11976874035130364","0","","","","","","","",""
"","html-keyboard-response","221","1063561","0.0-120.0-1.0","""event"",""trial"",""time""
""fullscreenenter"",""0"",""2080""
","
","
","""event"",""trial"",""time""
""fullscreenenter"",""0"",""2080""
","
","null","<p></p>","null","","","","","","","","","","","","","","","","","","","","","","",""
"","do_trial","222","1069033","0.0-121.0-0.0","""event"",""trial"",""time""
""fullscreenenter"",""0"",""2080""
","
","
","""event"",""trial"",""time""
""fullscreenenter"",""0"",""2080""
","
","889.1000000000931","","","","","","","","49","0,1,0","1","countryside","64","probe-74","0.5253751010971293","0.6358204585756994","0.07672150947015376","0","","","","","","","",""
"","html-keyboard-response","223","1070044","0.0-121.0-1.0","""event"",""trial"",""time""
""fullscreenenter"",""0"",""2080""
","
","
","""event"",""trial"",""time""
""fullscreenenter"",""0"",""2080""
","
","null","<p></p>","null","","","","","","","","","","","","","","","","","","","","","","",""
"","do_trial","224","1075247","0.0-122.0-0.0","""event"",""trial"",""time""
""fullscreenenter"",""0"",""2080""
","
","
","""event"",""trial"",""time""
""fullscreenenter"",""0"",""2080""
","
","619.5","","","","","","","","50","0,0,0","1","countryside","65","probe-120","0.4781706988664443","0.6108243546190174","0.060554189590991125","0","","","","","","","",""
"","html-keyboard-response","225","1076265","0.0-122.0-1.0","""event"",""trial"",""time""
""fullscreenenter"",""0"",""2080""
","
","
","""event"",""trial"",""time""
""fullscreenenter"",""0"",""2080""
","
","null","<p></p>","null","","","","","","","","","","","","","","","","","","","","","","",""
"","do_trial","226","1081592","0.0-123.0-0.0","""event"",""trial"",""time""
""fullscreenenter"",""0"",""2080""
","
","
","""event"",""trial"",""time""
""fullscreenenter"",""0"",""2080""
","
","750","","","","","","","","51","1,1,0","1","countryside","66","probe-133","0.4245711935293075","0.6463509692468591","0.05380448391310779","0","","","","","","","",""
"","html-keyboard-response","227","1082602","0.0-123.0-1.0","""event"",""trial"",""time""
""fullscreenenter"",""0"",""2080""
","
","
","""event"",""trial"",""time""
""fullscreenenter"",""0"",""2080""
","
","null","<p></p>","null","","","","","","","","","","","","","","","","","","","","","","",""
"","do_trial","228","1087706","0.0-124.0-0.0","""event"",""trial"",""time""
""fullscreenenter"",""0"",""2080""
","
","
","""event"",""trial"",""time""
""fullscreenenter"",""0"",""2080""
","
","539","","","","","","","","50","0,1,0","1","countryside","67","probe-34","0.423514644057725","0.7652629017397955","0.13109377414180143","1","","","","","","","",""
"","html-keyboard-response","229","1088718","0.0-124.0-1.0","""event"",""trial"",""time""
""fullscreenenter"",""0"",""2080""
","
","
","""event"",""trial"",""time""
""fullscreenenter"",""0"",""2080""
","
","null","<p></p>","null","","","","","","","","","","","","","","","","","","","","","","",""
"","do_trial","230","1093906","0.0-125.0-0.0","""event"",""trial"",""time""
""fullscreenenter"",""0"",""2080""
","
","
","""event"",""trial"",""time""
""fullscreenenter"",""0"",""2080""
","
","615.2999999998137","","","","","","","","51","0,0,0","1","countryside","68","probe-27","0.4365168373561539","0.7694507583276985","0.07942562937905882","0","","","","","","","",""
"","html-keyboard-response","231","1094923","0.0-125.0-1.0","""event"",""trial"",""time""
""fullscreenenter"",""0"",""2080""
","
","
","""event"",""trial"",""time""
""fullscreenenter"",""0"",""2080""
","
","null","<p></p>","null","","","","","","","","","","","","","","","","","","","","","","",""
"","do_trial","232","1099800","0.0-126.0-0.0","""event"",""trial"",""time""
""fullscreenenter"",""0"",""2080""
","
","
","""event"",""trial"",""time""
""fullscreenenter"",""0"",""2080""
","
","295","","","","","","","","50","0,1,0","1","countryside","69","probe-194","0.3680806206289322","0.6483550706427869","0.05432855903392356","1","","","","","","","",""
"","html-keyboard-response","233","1100810","0.0-126.0-1.0","""event"",""trial"",""time""
""fullscreenenter"",""0"",""2080""
","
","
","""event"",""trial"",""time""
""fullscreenenter"",""0"",""2080""
","
","null","<p></p>","null","","","","","","","","","","","","","","","","","","","","","","",""
"","do_bye","234","1102326","0.0-127.0-0.0","""event"",""trial"",""time""
""fullscreenenter"",""0"",""2080""
","
","
","""event"",""trial"",""time""
""fullscreenenter"",""0"",""2080""
","
","null","","","","","","","","null","","","","","","","","","","","","","","","","",""
"","break","235","1155036","0.0-127.0-1.0","""event"",""trial"",""time""
""fullscreenenter"",""0"",""2080""
","
","
","""event"",""trial"",""time""
""fullscreenenter"",""0"",""2080""
","
","52703.299999999814","<div class='center'><p>Time to take a quick break! You have 2 minutes to rest, but you can move on sooner if you'd like.</p><p> Press the <b>space bar</b> to continue.</p></div>","32","","","","","","","","","","","","","","","","","","","","","","",""
"","do_travel","236","1164056","0.0-128.0-0.0","""event"",""trial"",""time""
""fullscreenenter"",""0"",""2080""
","
","
","""event"",""trial"",""time""
""fullscreenenter"",""0"",""2080""
","
","null","","","","","","","","null","","","","","","","","","","","","","","","","",""
"","do_welcome","237","1168076","0.0-128.0-1.0","""event"",""trial"",""time""
""fullscreenenter"",""0"",""2080""
","
","
","""event"",""trial"",""time""
""fullscreenenter"",""0"",""2080""
","
","null","","","","","","","","null","","","","","","","","","","","","","","","","",""
"","do_trial","238","1174166","0.0-129.0-0.0","""event"",""trial"",""time""
""fullscreenenter"",""0"",""2080""
","
","
","""event"",""trial"",""time""
""fullscreenenter"",""0"",""2080""
","
","null","","","","","","","","null","0,1,0","2","mountain","70","probe-137","0.31741584286953345","1","0.11472291167281772","","","","","","","","",""
"","html-keyboard-response","239","1175176","0.0-129.0-1.0","""event"",""trial"",""time""
""fullscreenenter"",""0"",""2080""
","
","
","""event"",""trial"",""time""
""fullscreenenter"",""0"",""2080""
","
","null","<p></p>","null","","","","","","","","","","","","","","","","","","","","","","",""
"","do_trial","240","1180225","0.0-130.0-0.0","""event"",""trial"",""time""
""fullscreenenter"",""0"",""2080""
","
","
","""event"",""trial"",""time""
""fullscreenenter"",""0"",""2080""
","
","477.10000000009313","","","","","","","","51","0,1,0","2","mountain","71","probe-82","0.2563453223050181","1","0.15956035525883105","0","","","","","","","",""
"","html-keyboard-response","241","1181243","0.0-130.0-1.0","""event"",""trial"",""time""
""fullscreenenter"",""0"",""2080""
","
","
","""event"",""trial"",""time""
""fullscreenenter"",""0"",""2080""
","
","null","<p></p>","null","","","","","","","","","","","","","","","","","","","","","","",""
"","do_trial","242","1186266","0.0-131.0-0.0","""event"",""trial"",""time""
""fullscreenenter"",""0"",""2080""
","
","
","""event"",""trial"",""time""
""fullscreenenter"",""0"",""2080""
","
","440.10000000009313","","","","","","","","49","0,1,1","2","mountain","72","probe-201","0.17168855225490512","0.8586417924386922","0.23094192450911322","0","","","","","","","",""
"","html-keyboard-response","243","1187282","0.0-131.0-1.0","""event"",""trial"",""time""
""fullscreenenter"",""0"",""2080""
","
","
","""event"",""trial"",""time""
""fullscreenenter"",""0"",""2080""
","
","null","<p></p>","null","","","","","","","","","","","","","","","","","","","","","","",""
"","do_trial","244","1192453","0.0-132.0-0.0","""event"",""trial"",""time""
""fullscreenenter"",""0"",""2080""
","
","
","""event"",""trial"",""time""
""fullscreenenter"",""0"",""2080""
","
","598.2999999998137","","","","","","","","50","0,1,1","2","mountain","73","probe-220","0.26440861999047655","0.647875447519526","0.3011848326420819","1","","","","","","","",""
"","html-keyboard-response","245","1193456","0.0-132.0-1.0","""event"",""trial"",""time""
""fullscreenenter"",""0"",""2080""
","
","
","""event"",""trial"",""time""
""fullscreenenter"",""0"",""2080""
","
","null","<p></p>","null","","","","","","","","","","","","","","","","","","","","","","",""
"","do_trial","246","1198387","0.0-133.0-0.0","""event"",""trial"",""time""
""fullscreenenter"",""0"",""2080""
","
","
","""event"",""trial"",""time""
""fullscreenenter"",""0"",""2080""
","
","336.10000000009313","","","","","","","","50","1,0,0","2","mountain","74","probe-221","0.2596011720868547","0.6599410879527748","0.24734168917982913","0","","","","","","","",""
"","html-keyboard-response","247","1199406","0.0-133.0-1.0","""event"",""trial"",""time""
""fullscreenenter"",""0"",""2080""
","
","
","""event"",""trial"",""time""
""fullscreenenter"",""0"",""2080""
","
","null","<p></p>","null","","","","","","","","","","","","","","","","","","","","","","",""
"","do_trial","248","1205298","0.0-134.0-0.0","""event"",""trial"",""time""
""fullscreenenter"",""0"",""2080""
","
","
","""event"",""trial"",""time""
""fullscreenenter"",""0"",""2080""
","
","1309.7000000001863","","","","","","","","51","1,0,0","2","mountain","75","probe-189","0.2223352910439915","0.6395545554694113","0.22010835965679337","0","","","","","","","",""
"","html-keyboard-response","249","1206307","0.0-134.0-1.0","""event"",""trial"",""time""
""fullscreenenter"",""0"",""2080""
","
","
","""event"",""trial"",""time""
""fullscreenenter"",""0"",""2080""
","
","null","<p></p>","null","","","","","","","","","","","","","","","","","","","","","","",""
"","do_trial","250","1211419","0.0-135.0-0.0","""event"",""trial"",""time""
""fullscreenenter"",""0"",""2080""
","
","
","""event"",""trial"",""time""
""fullscreenenter"",""0"",""2080""
","
","533.6999999997206","","","","","","","","50","0,1,0","2","mountain","76","probe-226","0.29175834824105606","0.6622084316125336","0.07373262244517076","1","","","","","","","",""
"","html-keyboard-response","251","1212437","0.0-135.0-1.0","""event"",""trial"",""time""
""fullscreenenter"",""0"",""2080""
","
","
","""event"",""trial"",""time""
""fullscreenenter"",""0"",""2080""
","
","null","<p></p>","null","","","","","","","","","","","","","","","","","","","","","","",""
"","do_trial","252","1217368","0.0-136.0-0.0","""event"",""trial"",""time""
""fullscreenenter"",""0"",""2080""
","
","
","""event"",""trial"",""time""
""fullscreenenter"",""0"",""2080""
","
","358.29999999981374","","","","","","","","50","0,1,0","2","mountain","77","probe-212","0.24994532870924094","0.7604603720669324","0.050328509166537166","1","","","","","","","",""
"","html-keyboard-response","253","1218381","0.0-136.0-1.0","""event"",""trial"",""time""
""fullscreenenter"",""0"",""2080""
","
","
","""event"",""trial"",""time""
""fullscreenenter"",""0"",""2080""
","
","null","<p></p>","null","","","","","","","","","","","","","","","","","","","","","","",""
"","do_trial","254","1223249","0.0-137.0-0.0","""event"",""trial"",""time""
""fullscreenenter"",""0"",""2080""
","
","
","""event"",""trial"",""time""
""fullscreenenter"",""0"",""2080""
","
","285.20000000018626","","","","","","","","50","0,1,0","2","mountain","78","probe-218","0.1820827313972468","0.7487769611523377","0.1525186307064366","1","","","","","","","",""
"","html-keyboard-response","255","1224263","0.0-137.0-1.0","""event"",""trial"",""time""
""fullscreenenter"",""0"",""2080""
","
","
","""event"",""trial"",""time""
""fullscreenenter"",""0"",""2080""
","
","null","<p></p>","null","","","","","","","","","","","","","","","","","","","","","","",""
"","do_trial","256","1229235","0.0-138.0-0.0","""event"",""trial"",""time""
""fullscreenenter"",""0"",""2080""
","
","
","""event"",""trial"",""time""
""fullscreenenter"",""0"",""2080""
","
","404","","","","","","","","50","1,1,0","2","mountain","79","probe-209","0.2676690737139959","0.8309785585213346","0.13142991107636479","1","","","","","","","",""
"","html-keyboard-response","257","1230242","0.0-138.0-1.0","""event"",""trial"",""time""
""fullscreenenter"",""0"",""2080""
","
","
","""event"",""trial"",""time""
""fullscreenenter"",""0"",""2080""
","
","null","<p></p>","null","","","","","","","","","","","","","","","","","","","","","","",""
"","do_trial","258","1236797","0.0-139.0-0.0","""event"",""trial"",""time""
""fullscreenenter"",""0"",""2080""
","
","
","""event"",""trial"",""time""
""fullscreenenter"",""0"",""2080""
","
","1976.3000000002794","","","","","","","","49","0,1,0","2","mountain","80","probe-63","0.1225477806431381","0.6602827148308874","0.12869022856179588","0","","","","","","","",""
"","html-keyboard-response","259","1237801","0.0-139.0-1.0","""event"",""trial"",""time""
""fullscreenenter"",""0"",""2080""
","
","
","""event"",""trial"",""time""
""fullscreenenter"",""0"",""2080""
","
","null","<p></p>","null","","","","","","","","","","","","","","","","","","","","","","",""
"","do_trial","260","1242937","0.0-140.0-0.0","""event"",""trial"",""time""
""fullscreenenter"",""0"",""2080""
","
","
","""event"",""trial"",""time""
""fullscreenenter"",""0"",""2080""
","
","549","","","","","","","","50","1,1,0","2","mountain","81","probe-94","0.11421266282481335","0.7758988047182561","0.3215423041584406","1","","","","","","","",""
"","html-keyboard-response","261","1243942","0.0-140.0-1.0","""event"",""trial"",""time""
""fullscreenenter"",""0"",""2080""
","
","
","""event"",""trial"",""time""
