"success","trial_type","trial_index","time_elapsed","internal_node_id","rt","stimulus","key_press","subject_id","response","choice_outcomes","context_n","context_img_id","trial_n","probe_img_id","pR_red","pR_white","pR_black","outcome","contextArray_ind","validImageProbes","invalidImageProbes","pRew_Red","pRew_White","pRew_Black","availableForMemProbe","choice_blocks"
"true","fullscreen","0","3295","0.0-0.0","","","","","","","","","","","","","","","","","","","","","",""
"","pavlovia","1","3299","0.0-1.0","","","","","","","","","","","","","","","","","","","","","",""
"","html-keyboard-response","2","8766","0.0-2.0","5466","<div class='center'><p>Welcome! This is the first day of the experiment which will last ~30 minutes. In this experiment, you are the head captain of a pirate ship traveling around the world to different places. You will complete several different tasks during this experiment. Here is an overview of these tasks:</p><br><p>Day 1</p><p>1. Tutorial and quiz</p><p>2. Pick a pirate game in 6 different places</p><br><p>Day 2</p><p>3. Pick a pirate game and memory game</p><p>4. Final questions and payment</p><br><p>If you complete the entire experiment, you will receive $15 and a possible bonus payment.</p><p><b>[Press the space bar to begin the tutorial]</b></p></div>","32","6107694c81078fdc0ec30cfe","","","","","","","","","","","","","","","","","",""
"","html-keyboard-response","3","13755","0.0-3.0","4988.100000023842","<div class='center'><p>You’ll stop at these 6 islands on your journey. You'll be able to see them in the distance from your ship.</p><p><img src='run_exp/static/images/contexts/all_contexts.png' height='500'></p><p><b>[Press the space bar to continue]</b></p></div>","32","","","","","","","","","","","","","","","","","","",""
"","html-keyboard-response","4","24596","0.0-4.0","10841","<div class='center'><p> The pirates on your ship will rob other ships as they leave island</p> These ships have just sold their things to the people living on the island, so they will have lots and lots of gold on them.</p><p><img src='run_exp/static/images/tutorial/ship_center.png' height='400'></p><p><b>[Press the space bar to continue]</b></p></div>","32","","","","","","","","","","","","","","","","","","",""
"","html-keyboard-response","5","32004","0.0-5.0","7406.800000011921","<div class='center'><p>As the head captain, you do not have to rob any ships yourself.</p><p>Another pirate will be doing the robbing for you. </p><p><img src='run_exp/static/images/tutorial/pirates_all_crop.png' height='200'></p><p>If they could rob the ship, then you will get a stack of gold coins like this:</p><p><img src='run_exp/static/images/tutorial/reward.png' height='150'></p><p> If they couldn't rob the ship, then you will get no gold coins and you'll see a big red x like this: </p><p><img src='run_exp/static/images/tutorial/reward_no.png' height='150'></p><p> How much bonus money you make is based on how many gold coins you collect.</p><p><b>[Press the space bar to continue]</b></p><div>","32","","","","","","","","","","","","","","","","","","",""
"","html-keyboard-response","6","44980","0.0-6.0","12976.200000017881","<div class='center'><p>Even the most skilled pirate can not rob EVERY ship.</p><p> Some ships will have very strong defenses against pirate attacks.</p><p> For example, blue beard, here, is very, very good at robbing ships.</p><p> You can press the <b>‘1’</b> button on the keyboard to choose him.</p><p> Try choosing him 10 times to see how often he can rob a ship. </p><p><img src='run_exp/static/images/tutorial/blue.png' height='500'></p></div>","49","","","","","","","","","","","","","","","","","","",""
"","html-keyboard-response","7","46483","0.0-7.0","null","<div class='center'><p><img src='run_exp/static/images/tutorial/blue_win.png' height='500'></p></div>","null","","","","","","","","","","","","","","","","","","",""
"","html-keyboard-response","8","48322","0.0-8.0","1838.2999999821186","<div class='center'><img src='run_exp/static/images/tutorial/blue.png' height='500'></p></div>","49","","","","","","","","","","","","","","","","","","",""
"","html-keyboard-response","9","49823","0.0-9.0","null","<div class='center'><p><img src='run_exp/static/images/tutorial/blue_win.png' height='500'></p></div>","null","","","","","","","","","","","","","","","","","","",""
"","html-keyboard-response","10","51385","0.0-10.0","1561.699999988079","<div class='center'><img src='run_exp/static/images/tutorial/blue.png' height='500'></p></div>","49","","","","","","","","","","","","","","","","","","",""
"","html-keyboard-response","11","52888","0.0-11.0","null","<div class='center'><p><img src='run_exp/static/images/tutorial/blue_win.png' height='500'></p></div>","null","","","","","","","","","","","","","","","","","","",""
"","html-keyboard-response","12","55906","0.0-12.0","3018","<div class='center'><img src='run_exp/static/images/tutorial/blue.png' height='500'></p></div>","49","","","","","","","","","","","","","","","","","","",""
"","html-keyboard-response","13","57408","0.0-13.0","null","<div class='center'><p><img src='run_exp/static/images/tutorial/blue_no_win.png' height='500'></p></div>","null","","","","","","","","","","","","","","","","","","",""
"","html-keyboard-response","14","59234","0.0-14.0","1825.7999999821186","<div class='center'><img src='run_exp/static/images/tutorial/blue.png' height='500'></p></div>","49","","","","","","","","","","","","","","","","","","",""
"","html-keyboard-response","15","60736","0.0-15.0","null","<div class='center'><p><img src='run_exp/static/images/tutorial/blue_win.png' height='500'></p></div>","null","","","","","","","","","","","","","","","","","","",""
"","html-keyboard-response","16","61442","0.0-16.0","705.5","<div class='center'><img src='run_exp/static/images/tutorial/blue.png' height='500'></p></div>","49","","","","","","","","","","","","","","","","","","",""
"","html-keyboard-response","17","62945","0.0-17.0","null","<div class='center'><p><img src='run_exp/static/images/tutorial/blue_win.png' height='500'></p></div>","null","","","","","","","","","","","","","","","","","","",""
"","html-keyboard-response","18","63584","0.0-18.0","638.5999999940395","<div class='center'><img src='run_exp/static/images/tutorial/blue.png' height='500'></p></div>","49","","","","","","","","","","","","","","","","","","",""
"","html-keyboard-response","19","65088","0.0-19.0","null","<div class='center'><p><img src='run_exp/static/images/tutorial/blue_win.png' height='500'></p></div>","null","","","","","","","","","","","","","","","","","","",""
"","html-keyboard-response","20","65802","0.0-20.0","714.1999999880791","<div class='center'><img src='run_exp/static/images/tutorial/blue.png' height='500'></p></div>","49","","","","","","","","","","","","","","","","","","",""
"","html-keyboard-response","21","67304","0.0-21.0","null","<div class='center'><p><img src='run_exp/static/images/tutorial/blue_no_win.png' height='500'></p></div>","null","","","","","","","","","","","","","","","","","","",""
"","html-keyboard-response","22","68169","0.0-22.0","864.7000000178814","<div class='center'><img src='run_exp/static/images/tutorial/blue.png' height='500'></p></div>","49","","","","","","","","","","","","","","","","","","",""
"","html-keyboard-response","23","69672","0.0-23.0","null","<div class='center'><p><img src='run_exp/static/images/tutorial/blue_win.png' height='500'></p></div>","null","","","","","","","","","","","","","","","","","","",""
"","html-keyboard-response","24","70329","0.0-24.0","656.6000000238419","<div class='center'><img src='run_exp/static/images/tutorial/blue.png' height='500'></p></div>","49","","","","","","","","","","","","","","","","","","",""
"","html-keyboard-response","25","71833","0.0-25.0","null","<div class='center'><p><img src='run_exp/static/images/tutorial/blue_win.png' height='500'></p></div>","null","","","","","","","","","","","","","","","","","","",""
"","html-keyboard-response","26","75426","0.0-26.0","3592.800000011921","<div class='center'><p> See, he could rob the ships most of the time but not every time. </p><p><b>[Press the space bar to continue]</b></p></div>","32","","","","","","","","","","","","","","","","","","",""
"","html-keyboard-response","27","82891","0.0-27.0","7463.9000000059605","<div class='center'><p>You will get to choose which of three pirates you want to rob the next ship. <p>Press the <b>‘1’</b> button on your keyboard to pick the pirate with the red beard.</p><p> Press <b>‘2’</b> to pick the pirate with the white beard.</p><p> Press <b>‘3’</b> to pick the pirate with the black beard.</p><p>Try picking a pirate now!</p><p><img src='run_exp/static/images/tutorial/all_pirates.png' height='500'></p></div>","49","","","","","","","","","","","","","","","","","","",""
"","html-keyboard-response","28","84201","0.0-28.0-0.0","1309.4000000059605","<div class='center'><p>This pirate could rob the ship!</p><p><img src='run_exp/static/images/tutorial/red_win.png' height='500'></p><p><b>[Press the space bar to continue]</b></p></div>","32","","","","","","","","","","","","","","","","","","",""
"","html-keyboard-response","29","85865","0.0-28.0-1.0","1663.300000011921","<div class='center'><p>Now try choosing another</p><p><img src='run_exp/static/images/tutorial/all_pirates.png' height='500'></p></div>","50","","","","","","","","","","","","","","","","","","",""
"","html-keyboard-response","30","87041","0.0-29.0-0.0","1175.0999999940395","<div class='center'><p>This pirate could not rob the ship!</p><p><img src='run_exp/static/images/tutorial/white_no_win.png' height='500'></p><p><b>[Press the space bar to continue]</b></p></div>","32","","","","","","","","","","","","","","","","","","",""
"","html-keyboard-response","31","92065","0.0-30.0-0.0","5023","<div class='center'><p>If you don’t make your choice fast enough, you’ll have to wait a few seconds before you can make another one. </p><p>You can’t collect more gold coins. You just have to sit and wait.</p><p><img src='run_exp/static/images/miscellaneous/hurry_up.png' height='500'></p><p><b>[Press the space bar to continue]</b></p></div>","32","","","","","","","","","","","","","","","","","","",""
"","html-keyboard-response","32","108129","0.0-30.0-1.0","16064.199999988079","<div class='center'><p>Once you choose a pirate, you’ll be shown the ship they are robbing.</p><p>You will never rob the same ship twice.</p><p>Ships can be told apart from one another by the image on them.</p><p> Every time you see a ship, you will have to remember on which island you saw it.</p><p> Remembering correctly will help you win more bonus money!</p><p>A helpful strategy is to try to come up with a story of the object on the ship interacting with the current island scene.</p><p> For example, here, you could imagine a mug full of water in the desert. </p><p>For a ship with an apple on it on the forest island, you could imagine an apple falling from a tree in the forest.</p><p><img src='run_exp/static/images/tutorial/example_probe.png' height='500'></p><p><b>[Press the space bar to continue]</b></p></div>","32","","","","","","","","","","","","","","","","","","",""
"","html-keyboard-response","33","111968","0.0-30.0-2.0","3838.5999999940395","<div class='center'><p>How good a pirate is at robbing ships will depend on the current island.</p><p> A pirate may have visited the island many times before and gained a lot of practice robbing ships there.</p><p>So, they're more likely to bring back gold coins than a pirate who has never visited this island before. </p><p><b>[Press the space bar to continue]</b></p></div>","32","","","","","","","","","","","","","","","","","","",""
"","html-keyboard-response","34","118432","0.0-30.0-3.0","6463.800000011921","<div class='center'><p>How good a pirate is at robbing ships can also change over the time spent on the island<p> Ships may hear from islanders about the pirates coming and will improve their protection against the attack. This may make it harder to rob them.</p><p> Ships may also become lazy and lower their protection. This may make it easier to rob them.</p><br><p>Things are always changing on the high seas! So, try your best to pay attention!</p><p><img src='run_exp/static/images/tutorial/contingency.png' height='500'></p><p><b>[Press the space bar to continue]</b></p></div>","32","","","","","","","","","","","","","","","","","","",""
"","html-keyboard-response","35","126519","0.0-30.0-4.0","8087","<div class='center'><p>Let's go over the instructions quickly again.You have two important things to do: </p><b><p> 1. Pick the pirate who is the best at robbing ships on the current island.</p></b><b><p> 2. Remember on which island a ship was robbed.</p> </b><p>How much bonus money you make is based on both. </p><br><p>Let’s try a practice game. The game will start by showing you the pirates. First pick a pirate using the <b> 1, 2, 3 </b> buttons on your keyboard. When you are shown a ship, try to remember the island you’re on by making up a story.</p><p> You only have 3 seconds to pick a pirate, so please make a choice quickly! If you are too slow, you’ll have to wait a bit during the time out.</p><p> Don’t feel rushed, but please do try to make a choice every time.</p><p>This is just a practice game, so you’re not playing for money. </p><p> Good luck, remember press <b>'1'</b> to choose red beard, <b>'2'</b> to choose white beard, and <b>'3'</b> to choose black beard</p><p><b>[Press the space bar to begin the practice game]</b></p></div>","32","","","","","","","","","","","","","","","","","","",""
"","do_welcome","36","128028","0.0-30.0-5.0","null","","","","null","","","","","","","","","","","","","","","","",""
"","do_trial","37","133454","0.0-30.0-6.0","916.9000000059605","","","","49","1,0,0","","","","","","","","","","","","","","","",""
"","html-keyboard-response","38","134455","0.0-31.0-0.0","null","<p></p>","null","","","","","","","","","","","","","","","","","","",""
"","do_trial","39","139903","0.0-31.0-1.0","939.1999999880791","","","","49","1,1,0","","","","","","","","","","","","","","","",""
"","html-keyboard-response","40","140908","0.0-32.0-0.0","null","<p></p>","null","","","","","","","","","","","","","","","","","","",""
"","do_trial","41","146401","0.0-32.0-1.0","982.5","","","","50","1,0,1","","","","","","","","","","","","","","","",""
"","html-keyboard-response","42","147404","0.0-33.0-0.0","null","<p></p>","null","","","","","","","","","","","","","","","","","","",""
"","do_trial","43","152582","0.0-33.0-1.0","668.9000000059605","","","","51","0,1,0","","","","","","","","","","","","","","","",""
"","html-keyboard-response","44","153583","0.0-34.0-0.0","null","<p></p>","null","","","","","","","","","","","","","","","","","","",""
"","do_trial","45","158484","0.0-34.0-1.0","394.90000000596046","","","","49","1,0,0","","","","","","","","","","","","","","","",""
"","do_bye","46","159991","0.0-35.0-0.0","null","","","","null","","","","","","","","","","","","","","","","",""
"","do_travel","47","165997","0.0-35.0-1.0","null","","","","null","","","","","","","","","","","","","","","","",""
"","do_welcome","48","167503","0.0-35.0-2.0","null","","","","null","","","","","","","","","","","","","","","","",""
"","do_trial","49","172813","0.0-35.0-3.0","802.6999999880791","","","","49","1,0,0","","","","","","","","","","","","","","","",""
"","html-keyboard-response","50","173815","0.0-36.0-0.0","null","<p></p>","null","","","","","","","","","","","","","","","","","","",""
"","do_trial","51","178698","0.0-36.0-1.0","375.69999998807907","","","","49","1,0,1","","","","","","","","","","","","","","","",""
"","html-keyboard-response","52","179701","0.0-37.0-0.0","null","<p></p>","null","","","","","","","","","","","","","","","","","","",""
"","do_trial","53","184956","0.0-37.0-1.0","746.8000000119209","","","","49","1,1,0","","","","","","","","","","","","","","","",""
"","html-keyboard-response","54","185960","0.0-38.0-0.0","null","<p></p>","null","","","","","","","","","","","","","","","","","","",""
"","do_trial","55","190772","0.0-38.0-1.0","303.59999999403954","","","","50","0,0,1","","","","","","","","","","","","","","","",""
"","html-keyboard-response","56","191777","0.0-39.0-0.0","null","<p></p>","null","","","","","","","","","","","","","","","","","","",""
"","do_trial","57","197020","0.0-39.0-1.0","735.1999999880791","","","","51","1,0,1","","","","","","","","","","","","","","","",""
"","html-keyboard-response","58","199404","0.0-40.0-0.0","2382.5999999940395","<div class='center'><p><img src='run_exp/static/images/tutorial/prac_best_pirate.png'  height='500'></p></div>","49","","","","","","","","","","","","","","","","","","",""
"","html-keyboard-response","59","201747","0.0-41.0-0.0","2342.4000000059605","<div class='center'><p>That's correct! Red beard was the best.</p><p><b>[Press the space bar to continue]</b></p></div>","32","","","","","","","","","","","","","","","","","","",""
"","html-keyboard-response","60","205037","0.0-41.0-1.0","3289.5","<div class='center'><p><img src='run_exp/static/images/tutorial/prac_source.png'  height='500'></p></div>","50","","","","","","","","","","","","","","","","","","",""
"","html-keyboard-response","61","208252","0.0-42.0-0.0","3214","<div class='center'><p>That's correct! You saw this ship on the cavern island.</p><p><b>[Press the space bar to continue]</b></p></div>","32","","","","","","","","","","","","","","","","","","",""
"","html-keyboard-response","62","213835","0.0-42.0-1.0","5583.5999999940395","<div class='center'><p>Good job on the practice game! Now, you will be asked you some true or false questions to make sure you really understand the rules of the game.</p><p> Press <b>'1'</b> on the keyboard for true and press <b>'2'</b> for false.</p><p><b>[Press the space bar to begin the quiz]</b></p></div>","32","","","","","","","","","","","","","","","","","","",""
"","html-keyboard-response","63","216004","0.0-42.0-2.0","2168.4000000059605","<div class='center'><p>You win bonus money by making choices as fast as possible.</p><p>Press 1 for true and press  2 for false.</p></div>","49","","","","","","","","","","","","","","","","","","",""
"","html-keyboard-response","64","221659","0.0-43.0-0.0","5654.4000000059605","<<div class='center'><p>That’s incorrect! You win bonus money by collecting as many gold coins as possible!</p><p><b>[press the space bar to continue with the quiz]</b></p></div>","32","","","","","","","","","","","","","","","","","","",""
"","html-keyboard-response","65","227009","0.0-43.0-1.0","5350","<div class='center'><p>You press the <b>‘3’</b> button on the keyboard to choose the red bearded pirate. </p><p>Press 1 for true and press  2 for false.</p></div>","50","","","","","","","","","","","","","","","","","","",""
"","html-keyboard-response","66","228843","0.0-44.0-0.0","1832.9000000059605","<div class='center'><p>That's correct!</p> <p><b>[press the space bar to continue with the quiz]</b></p></div>","32","","","","","","","","","","","","","","","","","","",""
"","html-keyboard-response","67","233307","0.0-44.0-1.0","4463.5","<div class='center'><p>The pirate who is the best at robbing ships on the first island will be the best on every other island.</p><p>Press 1 for true and press  2 for false.</p></div>","50","","","","","","","","","","","","","","","","","","",""
"","html-keyboard-response","68","238356","0.0-45.0-0.0","5048.5999999940395","<div class='center'><p>That's correct!</p> <p><b>[press the space bar to continue with the quiz]</b></p></div>","32","","","","","","","","","","","","","","","","","","",""
"","html-keyboard-response","69","242754","0.0-45.0-1.0","4398","<div class='center'><p>You should remember the island where a pirate robbed a ship.</p><p>Press 1 for true and press  2 for false.</p></div>","49","","","","","","","","","","","","","","","","","","",""
"","html-keyboard-response","70","248987","0.0-46.0-0.0","6231.5999999940395","<div class='center'><p>That's correct!</p> <p><b>[press the space bar to continue with the quiz]</b></p></div>","32","","","","","","","","","","","","","","","","","","",""
"","html-keyboard-response","71","266731","0.0-47.0-0.0","17743.90000000596","<div class='center'><p>Oops, you missed some questions. Now that you’ve heard the correct answers. Try the quiz again! If you fail the quiz too many times, you won’t be able to do the experiment. </p> <p><br>[press the space bar to repeat the quiz]</br></p></div>","32","","","","","","","","","","","","","","","","","","",""
"","html-keyboard-response","72","268585","0.0-47.0-1.0","1854","<div class='center'><p>You win bonus money by making choices as fast as possible.</p><p>Press 1 for true and press  2 for false.</p></div>","50","","","","","","","","","","","","","","","","","","",""
"","html-keyboard-response","73","272657","0.0-48.0-0.0","4071.0999999940395","<div class='center'><p>That's correct!</p> <p><b>[press the space bar to continue with the quiz]</b></p></div>","32","","","","","","","","","","","","","","","","","","",""
"","html-keyboard-response","74","275281","0.0-48.0-1.0","2623.2000000178814","<div class='center'><p>You press the <b>‘3’</b> button on the keyboard to choose the red bearded pirate. </p><p>Press 1 for true and press  2 for false.</p></div>","50","","","","","","","","","","","","","","","","","","",""
"","html-keyboard-response","75","278946","0.0-49.0-0.0","3664.9000000059605","<div class='center'><p>That's correct!</p> <p><b>[press the space bar to continue with the quiz]</b></p></div>","32","","","","","","","","","","","","","","","","","","",""
"","html-keyboard-response","76","282984","0.0-49.0-1.0","4037.300000011921","<div class='center'><p>The pirate who is the best at robbing ships on the first island will be the best on every other island.</p><p>Press 1 for true and press  2 for false.</p></div>","50","","","","","","","","","","","","","","","","","","",""
"","html-keyboard-response","77","287335","0.0-50.0-0.0","4351.5999999940395","<div class='center'><p>That's correct!</p> <p><b>[press the space bar to continue with the quiz]</b></p></div>","32","","","","","","","","","","","","","","","","","","",""
"","html-keyboard-response","78","289897","0.0-50.0-1.0","2561","<div class='center'><p>You should remember the island where a pirate robbed a ship.</p><p>Press 1 for true and press  2 for false.</p></div>","49","","","","","","","","","","","","","","","","","","",""
"","html-keyboard-response","79","294104","0.0-51.0-0.0","4201.799999982119","<div class='center'><p>That's correct!</p> <p><b>[press the space bar to continue with the quiz]</b></p></div>","32","","","","","","","","","","","","","","","","","","",""
"","html-keyboard-response","80","297992","0.0-52.0-0.0","3887.9000000059605","<div class='center'><p>Good job! You’re now ready to move on to the real game!</p> <p><br>[press the space bar to begin!]</br></p></div>","32","","","","","","","","","","","","","","","","","","",""
"","do_welcome","81","299500","0.0-53.0-0.0","null","","","","null","","","","","","","","","","","","","","","","",""
"","do_trial","82","305449","0.0-54.0-0.0","1407.9000000059605","","","","49","1,1,0","0","city","0","probe-24","0.6","0.3","0.1","1","","","","","","","",""
"","html-keyboard-response","83","306453","0.0-54.0-1.0","null","<p></p>","null","","","","","","","","","","","","","","","","","","",""
"","do_trial","84","311544","0.0-55.0-0.0","550.5999999940395","","","","49","1,1,0","0","city","1","probe-167","0.6242976939090384","0.27584191569181765","0.19669102981210426","1","","","","","","","",""
"","html-keyboard-response","85","312548","0.0-55.0-1.0","null","<p></p>","null","","","","","","","","","","","","","","","","","","",""
"","do_trial","86","318454","0.0-56.0-0.0","1369.0999999940395","","","","50","1,0,1","0","city","2","probe-13","0.6512947450879496","0.327162837532827","0.29597674879059127","0","","","","","","","",""
"","html-keyboard-response","87","319457","0.0-56.0-1.0","null","<p></p>","null","","","","","","","","","","","","","","","","","","",""
"","do_trial","88","326071","0.0-57.0-0.0","2074.5","","","","51","0,0,0","0","city","3","probe-43","0.5590411097877314","0.35870254655259026","0.08363121697785679","0","","","","","","","",""
"","html-keyboard-response","89","327073","0.0-57.0-1.0","null","<p></p>","null","","","","","","","","","","","","","","","","","","",""
"","do_trial","90","332006","0.0-58.0-0.0","395.30000001192093","","","","49","1,1,0","0","city","4","probe-223","0.5887962913479279","0.31029711821009637","0.12119441195702413","1","","","","","","","",""
"","html-keyboard-response","91","333012","0.0-58.0-1.0","null","<p></p>","null","","","","","","","","","","","","","","","","","","",""
"","do_trial","92","339112","0.0-59.0-0.0","1559.300000011921","","","","49","1,1,0","0","city","5","probe-03","0.5941776238503028","0.2924861618719002","0.17145967947890867","1","","","","","","","",""
"","html-keyboard-response","93","340116","0.0-59.0-1.0","null","<p></p>","null","","","","","","","","","","","","","","","","","","",""
"","do_trial","94","345119","0.0-60.0-0.0","464.19999998807907","","","","49","0,1,1","0","city","6","probe-151","0.6021432769866272","0.46304152976348006","0.08176865199479327","0","","","","","","","",""
"","html-keyboard-response","95","346121","0.0-60.0-1.0","null","<p></p>","null","","","","","","","","","","","","","","","","","","",""
"","do_trial","96","351221","0.0-61.0-0.0","561.2000000178814","","","","51","1,0,0","0","city","7","probe-34","0.4452585907481867","0.41746157383254756","0.10541525239560634","0","","","","","","","",""
"","html-keyboard-response","97","352225","0.0-61.0-1.0","null","<p></p>","null","","","","","","","","","","","","","","","","","","",""
"","do_trial","98","357319","0.0-62.0-0.0","553.5","","","","49","0,1,0","0","city","8","probe-221","0.5040474690591111","0.44915877745572763","0.08600198139403534","0","","","","","","","",""
"","html-keyboard-response","99","358324","0.0-62.0-1.0","null","<p></p>","null","","","","","","","","","","","","","","","","","","",""
"","do_trial","100","363490","0.0-63.0-0.0","630.1999999880791","","","","51","1,0,0","0","city","9","probe-52","0.5010436703737537","0.4246368269040544","0.09684570904040442","0","","","","","","","",""
"","html-keyboard-response","101","364491","0.0-63.0-1.0","null","<p></p>","null","","","","","","","","","","","","","","","","","","",""
"","do_trial","102","369629","0.0-64.0-0.0","602.4000000059605","","","","49","0,0,0","0","city","10","probe-33","0.4769766263933451","0.29427113170951813","0.061984878099495905","0","","","","","","","",""
"","html-keyboard-response","103","370633","0.0-64.0-1.0","null","<p></p>","null","","","","","","","","","","","","","","","","","","",""
"","do_trial","104","376409","0.0-65.0-0.0","1239.800000011921","","","","50","1,0,0","0","city","11","probe-70","0.48077866344846626","0.24134507432192462","0.08337394785200408","0","","","","","","","",""
"","html-keyboard-response","105","377415","0.0-65.0-1.0","null","<p></p>","null","","","","","","","","","","","","","","","","","","",""
"","do_trial","106","382437","0.0-66.0-0.0","480.90000000596046","","","","49","1,0,0","0","city","12","probe-214","0.48720485118848483","0.23575013339027845","0.06148531157828005","1","","","","","","","",""
"","html-keyboard-response","107","383440","0.0-66.0-1.0","null","<p></p>","null","","","","","","","","","","","","","","","","","","",""
"","do_trial","108","388819","0.0-67.0-0.0","839.8999999761581","","","","49","1,1,1","0","city","13","probe-207","0.5345772572808931","0.26669550463125896","0.23170179281741868","1","","","","","","","",""
"","html-keyboard-response","109","389821","0.0-67.0-1.0","null","<p></p>","null","","","","","","","","","","","","","","","","","","",""
"","do_trial","110","395268","0.0-68.0-0.0","907.5999999940395","","","","49","0,1,0","0","city","14","probe-146","0.6552342630503756","0.2523018470254852","0.0769686774893719","0","","","","","","","",""
"","html-keyboard-response","111","396274","0.0-68.0-1.0","null","<p></p>","null","","","","","","","","","","","","","","","","","","",""
"","do_trial","112","401448","0.0-69.0-0.0","637.0999999940395","","","","51","0,0,0","0","city","15","probe-120","0.5343065306804435","0.19007269855649536","0.1664243930682995","0","","","","","","","",""
"","html-keyboard-response","113","402450","0.0-69.0-1.0","null","<p></p>","null","","","","","","","","","","","","","","","","","","",""
"","do_trial","114","407650","0.0-70.0-0.0","663.5999999940395","","","","49","1,0,0","0","city","16","probe-128","0.7194353290485773","0.27695207216003404","0.13082888761890044","1","","","","","","","",""
"","html-keyboard-response","115","408652","0.0-70.0-1.0","null","<p></p>","null","","","","","","","","","","","","","","","","","","",""
"","do_trial","116","414170","0.0-71.0-0.0","978","","","","49","0,0,0","0","city","17","probe-159","0.7071876920699219","0.3556698044414677","0.1912959498706874","0","","","","","","","",""
"","html-keyboard-response","117","415175","0.0-71.0-1.0","null","<p></p>","null","","","","","","","","","","","","","","","","","","",""
"","do_trial","118","420396","0.0-72.0-0.0","682","","","","49","1,0,0","0","city","18","probe-166","0.6372155143052105","0.26843172145483535","0.12909322094499667","1","","","","","","","",""
"","html-keyboard-response","119","421399","0.0-72.0-1.0","null","<p></p>","null","","","","","","","","","","","","","","","","","","",""
"","do_trial","120","427031","0.0-73.0-0.0","1096.300000011921","","","","49","1,0,1","0","city","19","probe-225","0.7043042700097957","0.41747827247199953","0.1093146684096247","1","","","","","","","",""
"","html-keyboard-response","121","428034","0.0-73.0-1.0","null","<p></p>","null","","","","","","","","","","","","","","","","","","",""
"","do_trial","122","433316","0.0-74.0-0.0","741.4000000059605","","","","49","0,0,0","0","city","20","probe-180","0.6367978921518876","0.4836771221416607","0.18345310079355723","0","","","","","","","",""
"","html-keyboard-response","123","434320","0.0-74.0-1.0","null","<p></p>","null","","","","","","","","","","","","","","","","","","",""
"","do_trial","124","440365","0.0-75.0-0.0","null","","","","null","1,0,0","0","city","21","probe-212","0.5942436746427834","0.44937905999620614","0.20853211149182904","","","","","","","","",""
"","html-keyboard-response","125","441367","0.0-75.0-1.0","null","<p></p>","null","","","","","","","","","","","","","","","","","","",""
"","do_trial","126","446320","0.0-76.0-0.0","411.59999999403954","","","","49","0,0,1","0","city","22","probe-130","0.5955596338444992","0.38613273472333154","0.267435202620025","0","","","","","","","",""
"","html-keyboard-response","127","447324","0.0-76.0-1.0","null","<p></p>","null","","","","","","","","","","","","","","","","","","",""
"","do_trial","128","452249","0.0-77.0-0.0","385","","","","49","0,1,0","0","city","23","probe-219","0.5350979787734895","0.44462713963105027","0.13719044252416582","0","","","","","","","",""
"","html-keyboard-response","129","453251","0.0-77.0-1.0","null","<p></p>","null","","","","","","","","","","","","","","","","","","",""
"","do_trial","130","458904","0.0-78.0-0.0","1113.2999999821186","","","","49","1,1,0","0","city","24","probe-60","0.6405670548959338","0.3273505488987118","0.06569308244488375","1","","","","","","","",""
"","html-keyboard-response","131","459906","0.0-78.0-1.0","null","<p></p>","null","","","","","","","","","","","","","","","","","","",""
"","do_trial","132","464903","0.0-79.0-0.0","459","","","","49","0,0,0","0","city","25","probe-190","0.5445853094932867","0.3902312276116442","0.09970587087307824","0","","","","","","","",""
"","html-keyboard-response","133","465908","0.0-79.0-1.0","null","<p></p>","null","","","","","","","","","","","","","","","","","","",""
"","do_trial","134","470742","0.0-80.0-0.0","295.2999999821186","","","","49","1,0,0","0","city","26","probe-155","0.6069846516336567","0.2627735504801795","0.09423961898289847","1","","","","","","","",""
"","html-keyboard-response","135","471744","0.0-80.0-1.0","null","<p></p>","null","","","","","","","","","","","","","","","","","","",""
"","do_trial","136","476656","0.0-81.0-0.0","371.5","","","","49","1,1,0","0","city","27","probe-10","0.5806453109090017","0.37267570030030994","0.10328758874774613","1","","","","","","","",""
"","html-keyboard-response","137","477658","0.0-81.0-1.0","null","<p></p>","null","","","","","","","","","","","","","","","","","","",""
"","do_trial","138","482628","0.0-82.0-0.0","435.60000002384186","","","","49","1,0,1","0","city","28","probe-184","0.7869742080418337","0.433343831915615","0.17080778630351773","1","","","","","","","",""
"","html-keyboard-response","139","483631","0.0-82.0-1.0","null","<p></p>","null","","","","","","","","","","","","","","","","","","",""
"","do_trial","140","489014","0.0-83.0-0.0","846.2000000178814","","","","49","1,1,0","0","city","29","probe-32","0.6890112646959847","0.3837438739110913","0.10180872126414882","1","","","","","","","",""
"","html-keyboard-response","141","490019","0.0-83.0-1.0","null","<p></p>","null","","","","","","","","","","","","","","","","","","",""
"","do_bye","142","491526","0.0-84.0-0.0","null","","","","null","","","","","","","","","","","","","","","","",""
"","do_travel","143","497529","0.0-85.0-0.0","null","","","","null","","","","","","","","","","","","","","","","",""
"","do_welcome","144","499035","0.0-85.0-1.0","null","","","","null","","","","","","","","","","","","","","","","",""
"","do_trial","145","504549","0.0-86.0-0.0","979.9000000059605","","","","49","1,1,0","1","highway","30","probe-64","1","0.4527697248429422","0.17067200391793996","1","","","","","","","",""
"","html-keyboard-response","146","505551","0.0-86.0-1.0","null","<p></p>","null","","","","","","","","","","","","","","","","","","",""
"","do_trial","147","510630","0.0-87.0-0.0","540.6999999880791","","","","50","1,0,0","1","highway","31","probe-07","1","0.4299308170748653","0.20582251584665986","0","","","","","","","",""
"","html-keyboard-response","148","511633","0.0-87.0-1.0","null","<p></p>","null","","","","","","","","","","","","","","","","","","",""
"","do_trial","149","516580","0.0-88.0-0.0","410.2000000178814","","","","51","1,0,0","1","highway","32","probe-16","1","0.3730144515466538","0.20917028601119786","0","","","","","","","",""
"","html-keyboard-response","150","517581","0.0-88.0-1.0","null","<p></p>","null","","","","","","","","","","","","","","","","","","",""
"","do_trial","151","522540","0.0-89.0-0.0","420.90000000596046","","","","49","1,1,0","1","highway","33","probe-02","0.8842735634732426","0.34087135511581096","0.15983718701815203","1","","","","","","","",""
"","html-keyboard-response","152","523544","0.0-89.0-1.0","null","<p></p>","null","","","","","","","","","","","","","","","","","","",""
"","do_trial","153","528645","0.0-90.0-0.0","562.3000000119209","","","","49","1,0,0","1","highway","34","probe-174","0.706848838757562","0.23959557665617953","0.05373606876542358","1","","","","","","","",""
"","html-keyboard-response","154","529649","0.0-90.0-1.0","null","<p></p>","null","","","","","","","","","","","","","","","","","","",""
"","do_trial","155","534891","0.0-91.0-0.0","705.5999999940395","","","","49","0,0,0","1","highway","35","probe-226","0.5448906604423583","0.36382102236333097","0.05681993123018225","0","","","","","","","",""
"","html-keyboard-response","156","535893","0.0-91.0-1.0","null","<p></p>","null","","","","","","","","","","","","","","","","","","",""
"","do_trial","157","541032","0.0-92.0-0.0","596.9000000059605","","","","49","1,0,0","1","highway","36","probe-139","0.5565001664415975","0.3687655833948017","0.055926452347800915","1","","","","","","","",""
"","html-keyboard-response","158","542033","0.0-92.0-1.0","null","<p></p>","null","","","","","","","","","","","","","","","","","","",""
"","do_trial","159","547202","0.0-93.0-0.0","629.4000000059605","","","","49","0,1,0","1","highway","37","probe-173","0.6121429700134361","0.15172789233791098","0.1152679304863572","0","","","","","","","",""
"","html-keyboard-response","160","548208","0.0-93.0-1.0","null","<p></p>","null","","","","","","","","","","","","","","","","","","",""
"","do_trial","161","553891","0.0-94.0-0.0","1148.0999999940395","","","","51","1,0,0","1","highway","38","probe-195","0.5593158071663816","0.09972487266634637","0.05190552586809856","0","","","","","","","",""
"","html-keyboard-response","162","554892","0.0-94.0-1.0","null","<p></p>","null","","","","","","","","","","","","","","","","","","",""
"","do_trial","163","559930","0.0-95.0-0.0","499.30000001192093","","","","50","1,0,0","1","highway","39","probe-179","0.5401645087133099","0.15104700205809082","0.24974239536261308","0","","","","","","","",""
"","html-keyboard-response","164","560935","0.0-95.0-1.0","null","<p></p>","null","","","","","","","","","","","","","","","","","","",""
"","do_trial","165","565862","0.0-96.0-0.0","385.80000001192093","","","","49","1,0,0","1","highway","40","probe-158","0.4562431542660809","0.13580020791482297","0.1749010221409708","1","","","","","","","",""
"","html-keyboard-response","166","566867","0.0-96.0-1.0","null","<p></p>","null","","","","","","","","","","","","","","","","","","",""
"","do_trial","167","571761","0.0-97.0-0.0","356","","","","49","0,0,0","1","highway","41","probe-83","0.3890704981709513","0.13303448304664445","0.21942050593049695","0","","","","","","","",""
"","html-keyboard-response","168","572765","0.0-97.0-1.0","null","<p></p>","null","","","","","","","","","","","","","","","","","","",""
"","do_trial","169","578349","0.0-98.0-0.0","1043.5999999940395","","","","49","0,1,1","1","highway","42","probe-75","0.3195938590400907","0.41857603236683644","0.2613498304940748","0","","","","","","","",""
"","html-keyboard-response","170","579353","0.0-98.0-1.0","null","<p></p>","null","","","","","","","","","","","","","","","","","","",""
"","do_trial","171","584339","0.0-99.0-0.0","446.59999999403954","","","","49","0,1,0","1","highway","43","probe-137","0.2828293571906492","0.5866092000665246","0.2241424129110477","0","","","","","","","",""
"","html-keyboard-response","172","585341","0.0-99.0-1.0","null","<p></p>","null","","","","","","","","","","","","","","","","","","",""
"","do_trial","173","590874","0.0-100.0-0.0","994.5","","","","49","0,0,1","1","highway","44","probe-37","0.16410644300092517","0.5196337856982856","0.19819467480211425","0","","","","","","","",""
"","html-keyboard-response","174","591875","0.0-100.0-1.0","null","<p></p>","null","","","","","","","","","","","","","","","","","","",""
"","do_trial","175","597003","0.0-101.0-0.0","588.4000000059605","","","","49","0,1,0","1","highway","45","probe-86","0.15408537090506333","0.532294969533084","0.22459102987843502","0","","","","","","","",""
"","html-keyboard-response","176","598005","0.0-101.0-1.0","null","<p></p>","null","","","","","","","","","","","","","","","","","","",""
"","do_trial","177","603009","0.0-102.0-0.0","466.10000002384186","","","","49","0,0,0","1","highway","46","probe-93","0.25833247365579076","0.4800932708590465","0.245225683499761","0","","","","","","","",""
"","html-keyboard-response","178","604014","0.0-102.0-1.0","null","<p></p>","null","","","","","","","","","","","","","","","","","","",""
"","do_trial","179","609696","0.0-103.0-0.0","1144.7999999821186","","","","49","0,0,0","1","highway","47","probe-109","0.19495434231074726","0.5734587335082852","0.14238899465483013","0","","","","","","","",""
"","html-keyboard-response","180","610699","0.0-103.0-1.0","null","<p></p>","null","","","","","","","","","","","","","","","","","","",""
"","do_trial","181","616317","0.0-104.0-0.0","1079.5999999940395","","","","49","0,0,0","1","highway","48","probe-198","0.22187110314044473","0.4298623590138226","0.2955657155030358","0","","","","","","","",""
"","html-keyboard-response","182","617321","0.0-104.0-1.0","null","<p></p>","null","","","","","","","","","","","","","","","","","","",""
"","do_trial","183","622306","0.0-105.0-0.0","446.69999998807907","","","","49","0,0,1","1","highway","49","probe-25","0.09407524631161521","0.6094464784354406","0.2772345204347757","0","","","","","","","",""
"","html-keyboard-response","184","623309","0.0-105.0-1.0","null","<p></p>","null","","","","","","","","","","","","","","","","","","",""
"","do_trial","185","628737","0.0-106.0-0.0","887.4000000059605","","","","49","1,1,1","1","highway","50","probe-110","0.09782143349673397","0.5994854140942685","0.3422546605897946","1","","","","","","","",""
"","html-keyboard-response","186","629739","0.0-106.0-1.0","null","<p></p>","null","","","","","","","","","","","","","","","","","","",""
"","do_trial","187","635023","0.0-107.0-0.0","746.0999999940395","","","","49","0,1,0","1","highway","51","probe-191","0.13037527185280273","0.6484418475945711","0.18735760241988225","0","","","","","","","",""
"","html-keyboard-response","188","636025","0.0-107.0-1.0","null","<p></p>","null","","","","","","","","","","","","","","","","","","",""
"","do_trial","189","641258","0.0-108.0-0.0","691.5","","","","49","0,1,0","1","highway","52","probe-95","0.1535994488338563","0.6733190756125329","0.15979117348628238","0","","","","","","","",""
"","html-keyboard-response","190","642264","0.0-108.0-1.0","null","<p></p>","null","","","","","","","","","","","","","","","","","","",""
"","do_trial","191","647737","0.0-109.0-0.0","930.4000000059605","","","","49","0,1,0","1","highway","53","probe-150","0.1520602840354008","0.6916680690200916","0.1907810981815952","0","","","","","","","",""
"","html-keyboard-response","192","648740","0.0-109.0-1.0","null","<p></p>","null","","","","","","","","","","","","","","","","","","",""
"","do_trial","193","654639","0.0-110.0-0.0","1361","","","","49","0,1,0","1","highway","54","probe-186","0.10225031507538238","0.787841571357115","0.38332671110078104","0","","","","","","","",""
"","html-keyboard-response","194","655641","0.0-110.0-1.0","null","<p></p>","null","","","","","","","","","","","","","","","","","","",""
"","do_trial","195","660542","0.0-111.0-0.0","363.40000000596046","","","","50","0,1,0","1","highway","55","probe-74","0.1652097391617297","0.7315574180445359","0.4228345084601509","1","","","","","","","",""
"","html-keyboard-response","196","661545","0.0-111.0-1.0","null","<p></p>","null","","","","","","","","","","","","","","","","","","",""
"","do_trial","197","666425","0.0-112.0-0.0","340.39999997615814","","","","50","0,1,0","1","highway","56","probe-193","0.16871435626035244","0.72672444057218","0.3733190900566617","1","","","","","","","",""
"","html-keyboard-response","198","667428","0.0-112.0-1.0","null","<p></p>","null","","","","","","","","","","","","","","","","","","",""
"","do_trial","199","672318","0.0-113.0-0.0","351.40000000596046","","","","50","0,1,1","1","highway","57","probe-220","0.25998274708508745","0.5306439834543213","0.42872477071998033","1","","","","","","","",""
"","html-keyboard-response","200","673324","0.0-113.0-1.0","null","<p></p>","null","","","","","","","","","","","","","","","","","","",""
"","do_trial","201","678575","0.0-114.0-0.0","714.6999999880791","","","","50","0,0,0","1","highway","58","probe-148","0.13188546670062168","0.5198281529627081","0.3069272870598777","0","","","","","","","",""
"","html-keyboard-response","202","679578","0.0-114.0-1.0","null","<p></p>","null","","","","","","","","","","","","","","","","","","",""
"","do_trial","203","684520","0.0-115.0-0.0","398.40000000596046","","","","50","0,0,0","1","highway","59","probe-142","0.12412468368631242","0.5613914674852194","0.3327884826544551","0","","","","","","","",""
"","html-keyboard-response","204","685526","0.0-115.0-1.0","null","<p></p>","null","","","","","","","","","","","","","","","","","","",""
"","do_trial","205","690646","0.0-116.0-0.0","580.6999999880791","","","","50","0,0,0","1","highway","60","probe-35","0.12247084972598662","0.589948307434366","0.3645162565306107","0","","","","","","","",""
"","html-keyboard-response","206","691647","0.0-116.0-1.0","null","<p></p>","null","","","","","","","","","","","","","","","","","","",""
"","do_trial","207","696477","0.0-117.0-0.0","293.80000001192093","","","","50","0,1,0","1","highway","61","probe-108","0.09354850571782525","0.6898087754269523","0.22898502102620957","1","","","","","","","",""
"","html-keyboard-response","208","697478","0.0-117.0-1.0","null","<p></p>","null","","","","","","","","","","","","","","","","","","",""
"","do_trial","209","702672","0.0-118.0-0.0","653.9000000059605","","","","50","0,1,0","1","highway","62","probe-125","0.23169670542644924","0.6341438028145321","0.12458785173718549","1","","","","","","","",""
"","html-keyboard-response","210","703674","0.0-118.0-1.0","null","<p></p>","null","","","","","","","","","","","","","","","","","","",""
"","do_trial","211","708691","0.0-119.0-0.0","478.69999998807907","","","","50","0,0,0","1","highway","63","probe-114","0.066126036817857","0.502384164637082","0.22106982607320302","0","","","","","","","",""
"","html-keyboard-response","212","709695","0.0-119.0-1.0","null","<p></p>","null","","","","","","","","","","","","","","","","","","",""
"","do_trial","213","715855","0.0-120.0-0.0","1619.5999999940395","","","","49","1,1,1","1","highway","64","probe-224","0.1437078443380054","0.672688552776128","0.3284009718990554","1","","","","","","","",""
"","html-keyboard-response","214","716861","0.0-120.0-1.0","null","<p></p>","null","","","","","","","","","","","","","","","","","","",""
"","do_trial","215","722774","0.0-121.0-0.0","1372.699999988079","","","","49","0,1,0","1","highway","65","probe-163","0.09656687040530967","0.7304690252907535","0.33744763660540167","0","","","","","","","",""
"","html-keyboard-response","216","723776","0.0-121.0-1.0","null","<p></p>","null","","","","","","","","","","","","","","","","","","",""
"","do_trial","217","728836","0.0-122.0-0.0","523.4000000059605","","","","49","0,1,1","1","highway","66","probe-19","0.05805192240047226","0.634184977643243","0.4566361455958233","0","","","","","","","",""
"","html-keyboard-response","218","729840","0.0-122.0-1.0","null","<p></p>","null","","","","","","","","","","","","","","","","","","",""
"","do_trial","219","734707","0.0-123.0-0.0","329.69999998807907","","","","50","0,1,0","1","highway","67","probe-51","0.117667011107322","0.663425397723495","0.44944635154683243","1","","","","","","","",""
"","html-keyboard-response","220","735709","0.0-123.0-1.0","null","<p></p>","null","","","","","","","","","","","","","","","","","","",""
"","do_trial","221","740534","0.0-124.0-0.0","286","","","","50","0,0,0","1","highway","68","probe-22","0.0808157167409721","0.5690730393393882","0.40072894915486634","0","","","","","","","",""
"","html-keyboard-response","222","741538","0.0-124.0-1.0","null","<p></p>","null","","","","","","","","","","","","","","","","","","",""
"","do_trial","223","746829","0.0-125.0-0.0","751.6999999880791","","","","50","1,1,1","1","highway","69","probe-197","0.17264299967947253","0.6167097742429009","0.44194812996719707","1","","","","","","","",""
"","html-keyboard-response","224","747832","0.0-125.0-1.0","null","<p></p>","null","","","","","","","","","","","","","","","","","","",""
"","do_bye","225","749337","0.0-126.0-0.0","null","","","","null","","","","","","","","","","","","","","","","",""
"","do_travel","226","755342","0.0-127.0-0.0","null","","","","null","","","","","","","","","","","","","","","","",""
"","do_welcome","227","756850","0.0-127.0-1.0","null","","","","null","","","","","","","","","","","","","","","","",""
"","do_trial","228","762715","0.0-128.0-0.0","1324.4000000059605","","","","49","1,1,0","2","mountain","70","probe-89","0.09282012678101768","1","0.38443830163942266","1","","","","","","","",""
"","html-keyboard-response","229","763720","0.0-128.0-1.0","null","<p></p>","null","","","","","","","","","","","","","","","","","","",""
"","do_trial","230","769146","0.0-129.0-0.0","889.2999999821186","","","","50","0,1,0","2","mountain","71","probe-29","0.1144597498166434","1","0.3095625170503213","1","","","","","","","",""
"","html-keyboard-response","231","770148","0.0-129.0-1.0","null","<p></p>","null","","","","","","","","","","","","","","","","","","",""
"","do_trial","232","775307","0.0-130.0-0.0","622.7999999821186","","","","51","0,1,0","2","mountain","72","probe-138","0.2929501818578382","0.8233830553000874","0.33252554709167614","0","","","","","","","",""
"","html-keyboard-response","233","776310","0.0-130.0-1.0","null","<p></p>","null","","","","","","","","","","","","","","","","","","",""
"","do_trial","234","781236","0.0-131.0-0.0","389","","","","49","0,1,0","2","mountain","73","probe-140","0.335192495561871","0.5998740709137211","0.30879533966779205","0","","","","","","","",""
"","html-keyboard-response","235","782239","0.0-131.0-1.0","null","<p></p>","null","","","","","","","","","","","","","","","","","","",""
"","do_trial","236","787178","0.0-132.0-0.0","401.7999999821186","","","","50","0,0,1","2","mountain","74","probe-144","0.35539608058624794","0.5776089707992662","0.2523264947962012","0","","","","","","","",""
"","html-keyboard-response","237","788179","0.0-132.0-1.0","null","<p></p>","null","","","","","","","","","","","","","","","","","","",""
"","do_trial","238","793248","0.0-133.0-0.0","534.0999999940395","","","","49","0,0,0","2","mountain","75","probe-122","0.3319888785665139","0.6704796896099526","0.17917630392636436","0","","","","","","","",""
"","html-keyboard-response","239","794252","0.0-133.0-1.0","null","<p></p>","null","","","","","","","","","","","","","","","","","","",""
"","do_trial","240","799264","0.0-134.0-0.0","474.59999999403954","","","","50","0,0,0","2","mountain","76","probe-04","0.15558464850505743","0.6003613665607183","0.23496565119895113","0","","","","","","","",""
"","html-keyboard-response","241","800269","0.0-134.0-1.0","null","<p></p>","null","","","","","","","","","","","","","","","","","","",""
"","do_trial","242","805521","0.0-135.0-0.0","714.4000000059605","","","","49","0,1,0","2","mountain","77","probe-145","0.08020639697233257","0.6169967957033967","0.2794084764842677","0","","","","","","","",""
"","html-keyboard-response","243","806523","0.0-135.0-1.0","null","<p></p>","null","","","","","","","","","","","","","","","","","","",""
"","do_trial","244","811859","0.0-136.0-0.0","794.9000000059605","","","","50","0,0,1","2","mountain","78","probe-44","0.07045366470695337","0.6875182065251855","0.28743698686874636","0","","","","","","","",""
"","html-keyboard-response","245","812861","0.0-136.0-1.0","null","<p></p>","null","","","","","","","","","","","","","","","","","","",""
"","do_trial","246","818058","0.0-137.0-0.0","660.3000000119209","","","","50","0,1,0","2","mountain","79","probe-58","0.15440315361622806","0.7459851691721618","0.14703107425745682","1","","","","","","","",""
"","html-keyboard-response","247","819063","0.0-137.0-1.0","null","<p></p>","null","","","","","","","","","","","","","","","","","","",""
"","do_trial","248","824766","0.0-138.0-0.0","1149","","","","50","0,0,0","2","mountain","80","probe-15","0.15068532257307982","0.6224637234623538","0.10635595571372995","0","","","","","","","",""
"","html-keyboard-response","249","825768","0.0-138.0-1.0","null","<p></p>","null","","","","","","","","","","","","","","","","","","",""
"","do_trial","250","831089","0.0-139.0-0.0","776.7000000178814","","","","49","0,0,0","2","mountain","81","probe-01","0.16673170393654066","0.6360332991221868","0.24502481493735803","0","","","","","","","",""
"","html-keyboard-response","251","832095","0.0-139.0-1.0","null","<p></p>","null","","","","","","","","","","","","","","","","","","",""
"","do_trial","252","837141","0.0-140.0-0.0","510.2999999821186","","","","50","0,1,1","2","mountain","82","probe-189","0.3352590885748316","0.5119906140913392","0.17537313954129002","1","","","","","","","",""
"","html-keyboard-response","253","838145","0.0-140.0-1.0","null","<p></p>","null","","","","","","","","","","","","","","","","","","",""
"","do_trial","254","843311","0.0-141.0-0.0","629.4000000059605","","","","50","0,0,1","2","mountain","83","probe-106","0.39695719562579607","0.42946397732093167","0.1579764448472033","0","","","","","","","",""
"","html-keyboard-response","255","844315","0.0-141.0-1.0","null","<p></p>","null","","","","","","","","","","","","","","","","","","",""
"","do_trial","256","849502","0.0-142.0-0.0","648.6999999880791","","","","50","0,0,0","2","mountain","84","probe-30","0.28283222673976943","0.2671721792448295","0.07123291698679571","0","","","","","","","",""
"","html-keyboard-response","257","850503","0.0-142.0-1.0","null","<p></p>","null","","","","","","","","","","","","","","","","","","",""
"","do_trial","258","855578","0.0-143.0-0.0","534.5999999940395","","","","50","0,0,0","2","mountain","85","probe-149","0.3500137565719789","0.20869660805653795","0.05685578744207462","0","","","","","","","",""
"","html-keyboard-response","259","856580","0.0-143.0-1.0","null","<p></p>","null","","","","","","","","","","","","","","","","","","",""
"","do_trial","260","861608","0.0-144.0-0.0","487.30000001192093","","","","49","1,0,1","2","mountain","86","probe-71","0.5058048747541536","0.06600580563945976","0.1718906449380534","1","","","","","","","",""
"","html-keyboard-response","261","862611","0.0-144.0-1.0","null","<p></p>","null","","","","","","","","","","","","","","","","","","",""
"","do_trial","262","869112","0.0-145.0-0.0","1964.199999988079","","","","49","0,0,0","2","mountain","87","probe-56","0.5791844585182004","0.18811187628625092","0.33303508406296806","0","","","","","","","",""
"","html-keyboard-response","263","870113","0.0-145.0-1.0","null","<p></p>","null","","","","","","","","","","","","","","","","","","",""
"","do_trial","264","875198","0.0-146.0-0.0","541.5","","","","50","0,0,0","2","mountain","88","probe-80","0.6308850018059536","0.14411131379230083","0.23621259390521324","0","","","","","","","",""
"","html-keyboard-response","265","876204","0.0-146.0-1.0","null","<p></p>","null","","","","","","","","","","","","","","","","","","",""
"","do_trial","266","881489","0.0-147.0-0.0","745.1000000238419","","","","49","1,0,0","2","mountain","89","probe-126","0.5718580571222399","0.14650817487624082","0.32478493824677473","1","","","","","","","",""
"","html-keyboard-response","267","882491","0.0-147.0-1.0","null","<p></p>","null","","","","","","","","","","","","","","","","","","",""
"","do_trial","268","888012","0.0-148.0-0.0","983.2000000178814","","","","50","1,0,0","2","mountain","90","probe-121","0.583097190568593","0.0879081981691041","0.30023883833301723","0","","","","","","","",""
"","html-keyboard-response","269","889014","0.0-148.0-1.0","null","<p></p>","null","","","","","","","","","","","","","","","","","","",""
"","do_trial","270","894679","0.0-149.0-0.0","1123.199999988079","","","","49","1,0,0","2","mountain","91","probe-23","0.5864845416735672","0.11241881600158658","0.23012934220898681","1","","","","","","","",""
"","html-keyboard-response","271","895683","0.0-149.0-1.0","null","<p></p>","null","","","","","","","","","","","","","","","","","","",""
"","do_trial","272","901123","0.0-150.0-0.0","902.1999999880791","","","","49","0,0,0","2","mountain","92","probe-230","0.3945141278642707","0.05251637297478919","0.19359003531523405","0","","","","","","","",""
"","html-keyboard-response","273","902124","0.0-150.0-1.0","null","<p></p>","null","","","","","","","","","","","","","","","","","","",""
"","do_trial","274","907096","0.0-151.0-0.0","431.80000001192093","","","","50","0,0,0","2","mountain","93","probe-78","0.4341243610076091","0.09228921646897466","0.09574363781218184","0","","","","","","","",""
"","html-keyboard-response","275","908099","0.0-151.0-1.0","null","<p></p>","null","","","","","","","","","","","","","","","","","","",""
"","do_trial","276","913556","0.0-152.0-0.0","917.5999999940395","","","","50","0,0,0","2","mountain","94","probe-170","0.46754986634181395","0.09187293419592482","0.2143178151488327","0","","","","","","","",""
"","html-keyboard-response","277","914559","0.0-152.0-1.0","null","<p></p>","null","","","","","","","","","","","","","","","","","","",""
"","do_trial","278","919925","0.0-153.0-0.0","829.2000000178814","","","","49","0,1,0","2","mountain","95","probe-222","0.47872960232153916","0.20225027567941647","0.33498366710948246","0","","","","","","","",""
"","html-keyboard-response","279","920928","0.0-153.0-1.0","null","<p></p>","null","","","","","","","","","","","","","","","","","","",""
"","do_trial","280","926026","0.0-154.0-0.0","561.9000000059605","","","","50","0,0,0","2","mountain","96","probe-92","0.5653314592532636","0.061063397515270915","0.25415150129219055","0","","","","","","","",""
"","html-keyboard-response","281","927030","0.0-154.0-1.0","null","<p></p>","null","","","","","","","","","","","","","","","","","","",""
"","do_trial","282","932123","0.0-155.0-0.0","554","","","","49","1,0,1","2","mountain","97","probe-68","0.5909319833987404","0.15505410868397582","0.33158483049575616","1","","","","","","","",""
"","html-keyboard-response","283","933128","0.0-155.0-1.0","null","<p></p>","null","","","","","","","","","","","","","","","","","","",""
"","do_trial","284","938517","0.0-156.0-0.0","849.0999999940395","","","","49","1,0,0","2","mountain","98","probe-216","0.7327789161011364","0.1764360092785075","0.3672730366979657","1","","","","","","","",""
"","html-keyboard-response","285","939521","0.0-156.0-1.0","null","<p></p>","null","","","","","","","","","","","","","","","","","","",""
"","do_trial","286","944649","0.0-157.0-0.0","590.2999999821186","","","","50","1,0,1","2","mountain","99","probe-156","0.5993112702531023","0.19270408671933364","0.2892070052355382","0","","","","","","","",""
"","html-keyboard-response","287","945650","0.0-157.0-1.0","null","<p></p>","null","","","","","","","","","","","","","","","","","","",""
"","do_trial","288","950826","0.0-158.0-0.0","636.5999999940395","","","","50","0,0,0","2","mountain","100","probe-127","0.5718413358574869","0.10639645641015469","0.2787155654120686","0","","","","","","","",""
"","html-keyboard-response","289","951831","0.0-158.0-1.0","null","<p></p>","null","","","","","","","","","","","","","","","","","","",""
"","do_trial","290","956994","0.0-159.0-0.0","626.9000000059605","","","","49","1,0,0","2","mountain","101","probe-161","0.6069781275109318","0.14624574256456566","0.37109752190330564","1","","","","","","","",""
"","html-keyboard-response","291","957999","0.0-159.0-1.0","null","<p></p>","null","","","","","","","","","","","","","","","","","","",""
"","do_trial","292","963200","0.0-160.0-0.0","664.7000000178814","","","","50","1,0,0","2","mountain","102","probe-05","0.7147441633393717","0.09936923988508178","0.2923247130896054","0","","","","","","","",""
"","html-keyboard-response","293","964204","0.0-160.0-1.0","null","<p></p>","null","","","","","","","","","","","","","","","","","","",""
"","do_trial","294","969322","0.0-161.0-0.0","581.2000000178814","","","","51","1,0,0","2","mountain","103","probe-202","0.7239523178601859","0.14760952222711857","0.36088328965330013","0","","","","","","","",""
"","html-keyboard-response","295","970326","0.0-161.0-1.0","null","<p></p>","null","","","","","","","","","","","","","","","","","","",""
"","do_trial","296","975285","0.0-162.0-0.0","416.7999999821186","","","","49","1,0,0","2","mountain","104","probe-112","0.750752929165948","0.10553789788380746","0.3278787159918749","1","","","","","","","",""
"","html-keyboard-response","297","976286","0.0-162.0-1.0","null","<p></p>","null","","","","","","","","","","","","","","","","","","",""
"","do_trial","298","981257","0.0-163.0-0.0","431.60000002384186","","","","49","1,0,0","2","mountain","105","probe-181","0.743709173465288","0.10074891152321228","0.24391406346988603","1","","","","","","","",""
"","html-keyboard-response","299","982258","0.0-163.0-1.0","null","<p></p>","null","","","","","","","","","","","","","","","","","","",""
"","do_trial","300","987939","0.0-164.0-0.0","1137.7000000178814","","","","49","1,0,1","2","mountain","106","probe-67","0.5723444842483741","0.09861366322396244","0.2861950122631935","1","","","","","","","",""
"","html-keyboard-response","301","988940","0.0-164.0-1.0","null","<p></p>","null","","","","","","","","","","","","","","","","","","",""
"","do_trial","302","994635","0.0-165.0-0.0","1153.9000000059605","","","","49","1,1,0","2","mountain","107","probe-105","0.6460302326821642","0.19763206926772653","0.30622740918892655","1","","","","","","","",""
"","html-keyboard-response","303","995637","0.0-165.0-1.0","null","<p></p>","null","","","","","","","","","","","","","","","","","","",""
"","do_trial","304","1000883","0.0-166.0-0.0","706.5","","","","49","1,0,1","2","mountain","108","probe-103","0.5283018299345003","0.17218996824916757","0.45754641076884073","1","","","","","","","",""
"","html-keyboard-response","305","1001886","0.0-166.0-1.0","null","<p></p>","null","","","","","","","","","","","","","","","","","","",""
"","do_trial","306","1006995","0.0-167.0-0.0","572.1000000238419","","","","49","0,0,0","2","mountain","109","probe-169","0.6518277716941769","0.0986637695454641","0.3291072582546229","0","","","","","","","",""
"","html-keyboard-response","307","1008001","0.0-167.0-1.0","null","<p></p>","null","","","","","","","","","","","","","","","","","","",""
"","do_bye","308","1009508","0.0-168.0-0.0","null","","","","null","","","","","","","","","","","","","","","","",""
"","do_travel","309","1015510","0.0-169.0-0.0","null","","","","null","","","","","","","","","","","","","","","","",""
"","do_welcome","310","1017017","0.0-169.0-1.0","null","","","","null","","","","","","","","","","","","","","","","",""
"","do_trial","311","1022205","0.0-170.0-0.0","646.7999999821186","","","","49","1,0,0","3","forest","110","probe-41","1","0.17207153145586546","0.46382742444181696","1","","","","","","","",""
"","html-keyboard-response","312","1023206","0.0-170.0-1.0","null","<p></p>","null","","","","","","","","","","","","","","","","","","",""
"","do_trial","313","1028323","0.0-171.0-0.0","580","","","","49","1,0,1","3","forest","111","probe-76","1","0.11795083778338676","0.5038953771344222","1","","","","","","","",""
"","html-keyboard-response","314","1029330","0.0-171.0-1.0","null","<p></p>","null","","","","","","","","","","","","","","","","","","",""
"","do_trial","315","1034516","0.0-172.0-0.0","646.7999999821186","","","","49","0,0,1","3","forest","112","probe-113","0.7812212594520755","0.13709610764864774","0.37619400710509887","0","","","","","","","",""
"","html-keyboard-response","316","1035522","0.0-172.0-1.0","null","<p></p>","null","","","","","","","","","","","","","","","","","","",""
"","do_trial","317","1040554","0.0-173.0-0.0","493","","","","49","1,0,1","3","forest","113","probe-196","0.740180580028365","0.07270339227478988","0.35081709364761865","1","","","","","","","",""
"","html-keyboard-response","318","1041557","0.0-173.0-1.0","null","<p></p>","null","","","","","","","","","","","","","","","","","","",""
"","do_trial","319","1047170","0.0-174.0-0.0","1074.800000011921","","","","49","1,1,0","3","forest","114","probe-81","0.8376968403028048","0.18006033189778517","0.3436752687140087","1","","","","","","","",""
"","html-keyboard-response","320","1048172","0.0-174.0-1.0","null","<p></p>","null","","","","","","","","","","","","","","","","","","",""
"","do_trial","321","1053488","0.0-175.0-0.0","779.6000000238419","","","","49","1,0,0","3","forest","115","probe-61","0.7647602143143345","0.2460898048931669","0.22290076024560876","1","","","","","","","",""
"","html-keyboard-response","322","1054490","0.0-175.0-1.0","null","<p></p>","null","","","","","","","","","","","","","","","","","","",""
"","do_trial","323","1061698","0.0-176.0-0.0","2670.4000000059605","","","","49","1,1,0","3","forest","116","probe-131","0.5752661454920377","0.21204755873463998","0.2859432916742298","1","","","","","","","",""
"","html-keyboard-response","324","1062700","0.0-176.0-1.0","null","<p></p>","null","","","","","","","","","","","","","","","","","","",""
"","do_trial","325","1067922","0.0-177.0-0.0","684.8000000119209","","","","49","1,0,0","3","forest","117","probe-123","0.3787540917293805","0.21244503879787985","0.23432330291588443","1","","","","","","","",""
"","html-keyboard-response","326","1068926","0.0-177.0-1.0","null","<p></p>","null","","","","","","","","","","","","","","","","","","",""
"","do_trial","327","1074010","0.0-178.0-0.0","547.0999999940395","","","","49","0,0,1","3","forest","118","probe-132","0.47475031807286416","0.23021190851397982","0.3437567414241285","0","","","","","","","",""
"","html-keyboard-response","328","1075015","0.0-178.0-1.0","null","<p></p>","null","","","","","","","","","","","","","","","","","","",""
"","do_trial","329","1080183","0.0-179.0-0.0","633.0999999940395","","","","49","0,0,1","3","forest","119","probe-97","0.47008951625309353","0.25799233101486385","0.3098465276556857","0","","","","","","","",""
"","html-keyboard-response","330","1081189","0.0-179.0-1.0","null","<p></p>","null","","","","","","","","","","","","","","","","","","",""
"","do_trial","331","1086495","0.0-180.0-0.0","768.0999999940395","","","","49","0,1,1","3","forest","120","probe-72","0.5194754448778135","0.261284287432411","0.5121565210027538","0","","","","","","","",""
"","html-keyboard-response","332","1087497","0.0-180.0-1.0","null","<p></p>","null","","","","","","","","","","","","","","","","","","",""
"","do_trial","333","1092495","0.0-181.0-0.0","461.7999999821186","","","","49","0,0,1","3","forest","121","probe-188","0.41895324856308136","0.26841218577626486","0.5319986389307332","0","","","","","","","",""
"","html-keyboard-response","334","1093497","0.0-181.0-1.0","null","<p></p>","null","","","","","","","","","","","","","","","","","","",""
"","do_trial","335","1098898","0.0-182.0-0.0","862.7000000178814","","","","49","0,0,0","3","forest","122","probe-171","0.33364955492273785","0.21027027516944383","0.5092907308298866","0","","","","","","","",""
"","html-keyboard-response","336","1099901","0.0-182.0-1.0","null","<p></p>","null","","","","","","","","","","","","","","","","","","",""
"","do_trial","337","1105687","0.0-183.0-0.0","1248.5","","","","49","1,1,0","3","forest","123","probe-175","0.19594585568777056","0.44812227063573523","0.5637567953021474","1","","","","","","","",""
"","html-keyboard-response","338","1106692","0.0-183.0-1.0","null","<p></p>","null","","","","","","","","","","","","","","","","","","",""
"","do_trial","339","1111792","0.0-184.0-0.0","563.9000000059605","","","","49","0,1,0","3","forest","124","probe-20","0.2454012370056992","0.4621955335344669","0.5315676304882012","0","","","","","","","",""
"","html-keyboard-response","340","1112793","0.0-184.0-1.0","null","<p></p>","null","","","","","","","","","","","","","","","","","","",""
"","do_trial","341","1118104","0.0-185.0-0.0","774","","","","49","0,0,1","3","forest","125","probe-218","0.11882275267789172","0.46310998093979167","0.49672920197980375","0","","","","","","","",""
"","html-keyboard-response","342","1119107","0.0-185.0-1.0","null","<p></p>","null","","","","","","","","","","","","","","","","","","",""
"","do_trial","343","1125919","0.0-186.0-0.0","2272.5","","","","49","0,0,1","3","forest","126","probe-160","0.14192548900514446","0.6717075568459775","0.4956607337757267","0","","","","","","","",""
"","html-keyboard-response","344","1126923","0.0-186.0-1.0","null","<p></p>","null","","","","","","","","","","","","","","","","","","",""
"","do_trial","345","1132526","0.0-187.0-0.0","1065.9000000059605","","","","49","0,1,1","3","forest","127","probe-47","0.18776102415454124","0.581899271160072","0.2794821635227379","0","","","","","","","",""
"","html-keyboard-response","346","1133529","0.0-187.0-1.0","null","<p></p>","null","","","","","","","","","","","","","","","","","","",""
"","do_trial","347","1138570","0.0-188.0-0.0","503","","","","49","0,1,1","3","forest","128","probe-205","0.17594273827739565","0.52852868483516","0.4128696951880213","0","","","","","","","",""
"","html-keyboard-response","348","1139572","0.0-188.0-1.0","null","<p></p>","null","","","","","","","","","","","","","","","","","","",""
"","do_trial","349","1144870","0.0-189.0-0.0","757.9000000059605","","","","49","0,0,1","3","forest","129","probe-57","0.19322250838666244","0.5345065682333482","0.30186228914171903","0","","","","","","","",""
"","html-keyboard-response","350","1145871","0.0-189.0-1.0","null","<p></p>","null","","","","","","","","","","","","","","","","","","",""
"","do_trial","351","1150840","0.0-190.0-0.0","428.90000000596046","","","","49","0,1,0","3","forest","130","probe-203","0.1167843912840536","0.49645377303261934","0.1909868619598246","0","","","","","","","",""
"","html-keyboard-response","352","1151843","0.0-190.0-1.0","null","<p></p>","null","","","","","","","","","","","","","","","","","","",""
"","do_trial","353","1156951","0.0-191.0-0.0","568.4000000059605","","","","49","1,1,0","3","forest","131","probe-104","0.09990948045744374","0.47702308464400844","0.14992101642584632","1","","","","","","","",""
"","html-keyboard-response","354","1157952","0.0-191.0-1.0","null","<p></p>","null","","","","","","","","","","","","","","","","","","",""
"","do_trial","355","1163117","0.0-192.0-0.0","626.7000000178814","","","","49","0,1,0","3","forest","132","probe-82","0.10406977518070137","0.4894443324057893","0.05529991623799482","0","","","","","","","",""
"","html-keyboard-response","356","1164118","0.0-192.0-1.0","null","<p></p>","null","","","","","","","","","","","","","","","","","","",""
"","do_trial","357","1169380","0.0-193.0-0.0","722","","","","49","0,0,0","3","forest","133","probe-208","0.21227959475271296","0.4479587596379608","0.20503826247499882","0","","","","","","","",""
"","html-keyboard-response","358","1170385","0.0-193.0-1.0","null","<p></p>","null","","","","","","","","","","","","","","","","","","",""
"","do_trial","359","1175605","0.0-194.0-0.0","682","","","","49","0,0,0","3","forest","134","probe-176","0.2639653369877351","0.5868647340327525","0.2752495831118944","0","","","","","","","",""
"","html-keyboard-response","360","1176608","0.0-194.0-1.0","null","<p></p>","null","","","","","","","","","","","","","","","","","","",""
"","do_trial","361","1181515","0.0-195.0-0.0","368.7000000178814","","","","49","1,1,0","3","forest","135","probe-84","0.17929110718958427","0.4877057121767381","0.31632145495226943","1","","","","","","","",""
"","html-keyboard-response","362","1182519","0.0-195.0-1.0","null","<p></p>","null","","","","","","","","","","","","","","","","","","",""
"","do_trial","363","1188518","0.0-196.0-0.0","1459.300000011921","","","","49","0,0,1","3","forest","136","probe-98","0.13098626404302188","0.43687960626961475","0.23494654577218066","0","","","","","","","",""
"","html-keyboard-response","364","1189519","0.0-196.0-1.0","null","<p></p>","null","","","","","","","","","","","","","","","","","","",""
"","do_trial","365","1194803","0.0-197.0-0.0","498","","","","49","0,1,0","3","forest","137","probe-185","0.1799178863759213","0.4742468493087241","0.24620603831494664","0","","","","","","","",""
"","html-keyboard-response","366","1195808","0.0-197.0-1.0","null","<p></p>","null","","","","","","","","","","","","","","","","","","",""
"","do_trial","367","1201308","0.0-198.0-0.0","957.0999999940395","","","","49","0,0,0","3","forest","138","probe-210","0.09204960159578994","0.45984596186854093","0.25909874840305","0","","","","","","","",""
"","html-keyboard-response","368","1202313","0.0-198.0-1.0","null","<p></p>","null","","","","","","","","","","","","","","","","","","",""
"","do_trial","369","1207882","0.0-199.0-0.0","1033.5","","","","49","0,0,1","3","forest","139","probe-48","0.10089680216271749","0.5791062407065642","0.3782023960064362","0","","","","","","","",""
"","html-keyboard-response","370","1208888","0.0-199.0-1.0","null","<p></p>","null","","","","","","","","","","","","","","","","","","",""
"","do_trial","371","1213955","0.0-200.0-0.0","529.1999999880791","","","","49","0,1,0","3","forest","140","probe-204","0.1787683447078767","0.653679527061932","0.3499367144157258","0","","","","","","","",""
"","html-keyboard-response","372","1214956","0.0-200.0-1.0","null","<p></p>","null","","","","","","","","","","","","","","","","","","",""
"","do_trial","373","1220050","0.0-201.0-0.0","559","","","","49","1,1,0","3","forest","141","probe-18","0.18682625230071026","0.7047593955311799","0.46026788932888674","1","","","","","","","",""
"","html-keyboard-response","374","1221051","0.0-201.0-1.0","null","<p></p>","null","","","","","","","","","","","","","","","","","","",""
"","do_trial","375","1226539","0.0-202.0-0.0","947.5999999940395","","","","49","0,0,1","3","forest","142","probe-28","0.2259586965463051","0.6911896166506599","0.31365306721941083","0","","","","","","","",""
"","html-keyboard-response","376","1227544","0.0-202.0-1.0","null","<p></p>","null","","","","","","","","","","","","","","","","","","",""
"","do_trial","377","1232673","0.0-203.0-0.0","593.8000000119209","","","","49","0,0,0","3","forest","143","probe-100","0.14635500186663652","0.6245649881700355","0.40599287517882005","0","","","","","","","",""
"","html-keyboard-response","378","1233676","0.0-203.0-1.0","null","<p></p>","null","","","","","","","","","","","","","","","","","","",""
"","do_trial","379","1239104","0.0-204.0-0.0","889","","","","49","0,0,1","3","forest","144","probe-27","0.05784196035204177","0.663779547391686","0.4443940470021574","0","","","","","","","",""
"","html-keyboard-response","380","1240105","0.0-204.0-1.0","null","<p></p>","null","","","","","","","","","","","","","","","","","","",""
"","do_trial","381","1246145","0.0-205.0-0.0","null","","","","null","0,0,0","3","forest","145","probe-42","0.11862642575648828","0.6506738349302057","0.4123927120621703","","","","","","","","",""
"","html-keyboard-response","382","1247149","0.0-205.0-1.0","null","<p></p>","null","","","","","","","","","","","","","","","","","","",""
"","do_trial","383","1252264","0.0-206.0-0.0","576.5999999940395","","","","49","1,1,1","3","forest","146","probe-36","0.22697763490646097","0.5937657853132737","0.3088229530859687","1","","","","","","","",""
"","html-keyboard-response","384","1253265","0.0-206.0-1.0","null","<p></p>","null","","","","","","","","","","","","","","","","","","",""
"","do_trial","385","1259301","0.0-207.0-0.0","null","","","","null","0,1,0","3","forest","147","probe-87","0.24102882188515692","0.6316382979156059","0.27222627321373916","","","","","","","","",""
"","html-keyboard-response","386","1260305","0.0-207.0-1.0","null","<p></p>","null","","","","","","","","","","","","","","","","","","",""
"","do_trial","387","1265970","0.0-208.0-0.0","1127.7999999821186","","","","49","0,0,0","3","forest","148","probe-101","0.14363693236324504","0.596745540396562","0.18573288565262175","0","","","","","","","",""
"","html-keyboard-response","388","1266972","0.0-208.0-1.0","null","<p></p>","null","","","","","","","","","","","","","","","","","","",""
"","do_trial","389","1272077","0.0-209.0-0.0","563.6999999880791","","","","49","0,0,1","3","forest","149","probe-141","0.26997796027846027","0.5214431377776855","0.26651225728918343","0","","","","","","","",""
"","html-keyboard-response","390","1273080","0.0-209.0-1.0","null","<p></p>","null","","","","","","","","","","","","","","","","","","",""
"","do_bye","391","1274587","0.0-210.0-0.0","null","","","","null","","","","","","","","","","","","","","","","",""
"","do_travel","392","1280590","0.0-211.0-0.0","null","","","","null","","","","","","","","","","","","","","","","",""
"","do_welcome","393","1282092","0.0-211.0-1.0","null","","","","null","","","","","","","","","","","","","","","","",""
"","do_trial","394","1287609","0.0-212.0-0.0","976.4000000059605","","","","49","0,1,0","4","coast","150","probe-69","0.28599452714528717","1","0.289770575923705","0","","","","","","","",""
"","html-keyboard-response","395","1288613","0.0-212.0-1.0","null","<p></p>","null","","","","","","","","","","","","","","","","","","",""
"","do_trial","396","1293876","0.0-213.0-0.0","726.5","","","","50","0,1,0","4","coast","151","probe-133","0.25658108627054077","1","0.2044771817741787","1","","","","","","","",""
"","html-keyboard-response","397","1294879","0.0-213.0-1.0","null","<p></p>","null","","","","","","","","","","","","","","","","","","",""
"","do_trial","398","1300190","0.0-214.0-0.0","773.6999999880791","","","","51","0,0,0","4","coast","152","probe-183","0.14373779735762537","0.689873424503705","0.17093058391153942","0","","","","","","","",""
"","html-keyboard-response","399","1301193","0.0-214.0-1.0","null","<p></p>","null","","","","","","","","","","","","","","","","","","",""
"","do_trial","400","1306664","0.0-215.0-0.0","927.9000000059605","","","","49","1,0,0","4","coast","153","probe-73","0.12251928360910398","0.7185294778130892","0.20504126701543537","1","","","","","","","",""
"","html-keyboard-response","401","1307666","0.0-215.0-1.0","null","<p></p>","null","","","","","","","","","","","","","","","","","","",""
"","do_trial","402","1313041","0.0-216.0-0.0","834.0999999940395","","","","50","0,1,0","4","coast","154","probe-88","0.07633959744887005","0.6039500769984197","0.06936096534452986","1","","","","","","","",""
"","html-keyboard-response","403","1314041","0.0-216.0-1.0","null","<p></p>","null","","","","","","","","","","","","","","","","","","",""
"","do_trial","404","1319862","0.0-217.0-0.0","1282.4000000059605","","","","51","0,0,0","4","coast","155","probe-200","0.05260162866314284","0.696584948452883","0.10015433557166875","0","","","","","","","",""
"","html-keyboard-response","405","1320864","0.0-217.0-1.0","null","<p></p>","null","","","","","","","","","","","","","","","","","","",""
"","do_trial","406","1326657","0.0-218.0-0.0","1251.199999988079","","","","51","0,1,0","4","coast","156","probe-182","0.08199054757393852","0.5906013006940124","0.2905076368339053","0","","","","","","","",""
"","html-keyboard-response","407","1327662","0.0-218.0-1.0","null","<p></p>","null","","","","","","","","","","","","","","","","","","",""
"","do_trial","408","1334878","0.0-219.0-0.0","2677.9000000059605","","","","49","0,1,0","4","coast","157","probe-99","0.15599277644829468","0.561948579813359","0.3664222324806646","0","","","","","","","",""
"","html-keyboard-response","409","1335880","0.0-219.0-1.0","null","<p></p>","null","","","","","","","","","","","","","","","","","","",""
"","do_trial","410","1341821","0.0-220.0-0.0","1403.199999988079","","","","50","0,0,0","4","coast","158","probe-54","0.130049811249458","0.5232108451176829","0.4162733630473079","0","","","","","","","",""
"","html-keyboard-response","411","1342825","0.0-220.0-1.0","null","<p></p>","null","","","","","","","","","","","","","","","","","","",""
"","do_trial","412","1348051","0.0-221.0-0.0","687.7000000178814","","","","49","0,0,0","4","coast","159","probe-09","0.2113180761807191","0.5399939628159018","0.46273659599456224","0","","","","","","","",""
"","html-keyboard-response","413","1349055","0.0-221.0-1.0","null","<p></p>","null","","","","","","","","","","","","","","","","","","",""
"","do_trial","414","1355453","0.0-222.0-0.0","1861.1000000238419","","","","50","0,1,0","4","coast","160","probe-118","0.1863757288551329","0.5358041416141559","0.42951380905132214","1","","","","","","","",""
"","html-keyboard-response","415","1356454","0.0-222.0-1.0","null","<p></p>","null","","","","","","","","","","","","","","","","","","",""
"","do_trial","416","1362035","0.0-223.0-0.0","1043.0999999940395","","","","49","0,0,0","4","coast","161","probe-213","0.05445229456735195","0.5441583206673827","0.3990006972529367","0","","","","","","","",""
"","html-keyboard-response","417","1363039","0.0-223.0-1.0","null","<p></p>","null","","","","","","","","","","","","","","","","","","",""
"","do_trial","418","1369076","0.0-224.0-0.0","null","","","","null","0,0,1","4","coast","162","probe-147","0.16210703354108386","0.36209333013016165","0.6998585974861338","","","","","","","","",""
"","html-keyboard-response","419","1370078","0.0-224.0-1.0","null","<p></p>","null","","","","","","","","","","","","","","","","","","",""
"","do_trial","420","1375011","0.0-225.0-0.0","393.69999998807907","","","","50","0,0,1","4","coast","163","probe-08","0.23987605096459275","0.29163351144004124","0.5342736730511815","0","","","","","","","",""
"","html-keyboard-response","421","1376019","0.0-225.0-1.0","null","<p></p>","null","","","","","","","","","","","","","","","","","","",""
"","do_trial","422","1381635","0.0-226.0-0.0","1071","","","","51","1,0,1","4","coast","164","probe-134","0.22928560262723174","0.08561546940063947","0.487286806298238","1","","","","","","","",""
"","html-keyboard-response","423","1382636","0.0-226.0-1.0","null","<p></p>","null","","","","","","","","","","","","","","","","","","",""
"","do_trial","424","1387710","0.0-227.0-0.0","536.8000000119209","","","","51","0,0,1","4","coast","165","probe-187","0.26788938862719547","0.11215033543160914","0.4902068136630654","1","","","","","","","",""
"","html-keyboard-response","425","1388711","0.0-227.0-1.0","null","<p></p>","null","","","","","","","","","","","","","","","","","","",""
"","do_trial","426","1394722","0.0-228.0-0.0","1475.7000000178814","","","","51","0,0,1","4","coast","166","probe-06","0.22408333006960923","0.10698434303416526","0.5538173141317924","1","","","","","","","",""
"","html-keyboard-response","427","1395725","0.0-228.0-1.0","null","<p></p>","null","","","","","","","","","","","","","","","","","","",""
"","do_trial","428","1401721","0.0-229.0-0.0","1459.4000000059605","","","","51","0,0,0","4","coast","167","probe-107","0.1244111097418119","0.08626403991921831","0.648743393639024","0","","","","","","","",""
"","html-keyboard-response","429","1402725","0.0-229.0-1.0","null","<p></p>","null","","","","","","","","","","","","","","","","","","",""
"","do_trial","430","1408052","0.0-230.0-0.0","789.4000000059605","","","","51","0,0,1","4","coast","168","probe-63","0.2556418687737398","0.13431553332702867","0.6915457018005485","1","","","","","","","",""
"","html-keyboard-response","431","1409055","0.0-230.0-1.0","null","<p></p>","null","","","","","","","","","","","","","","","","","","",""
"","do_trial","432","1413980","0.0-231.0-0.0","384","","","","51","1,0,0","4","coast","169","probe-102","0.1968669126986176","0.23530251406029457","0.6437149449358763","0","","","","","","","",""
"","html-keyboard-response","433","1414984","0.0-231.0-1.0","null","<p></p>","null","","","","","","","","","","","","","","","","","","",""
"","do_trial","434","1421574","0.0-232.0-0.0","2048.2999999821186","","","","51","0,0,1","4","coast","170","probe-45","0.3003708449051811","0.3126511204128968","0.7248987364744347","1","","","","","","","",""
"","html-keyboard-response","435","1422579","0.0-232.0-1.0","null","<p></p>","null","","","","","","","","","","","","","","","","","","",""
"","do_trial","436","1428105","0.0-233.0-0.0","989.1999999880791","","","","51","0,0,1","4","coast","171","probe-46","0.28670635278434864","0.22511928509354728","0.7696736706045576","1","","","","","","","",""
"","html-keyboard-response","437","1429107","0.0-233.0-1.0","null","<p></p>","null","","","","","","","","","","","","","","","","","","",""
"","do_trial","438","1434160","0.0-234.0-0.0","515.7000000178814","","","","51","0,0,1","4","coast","172","probe-40","0.4230853239213763","0.24916655481969202","0.6281636830527486","1","","","","","","","",""
"","html-keyboard-response","439","1435161","0.0-234.0-1.0","null","<p></p>","null","","","","","","","","","","","","","","","","","","",""
"","do_trial","440","1440281","0.0-235.0-0.0","578.1999999880791","","","","51","1,1,1","4","coast","173","probe-206","0.4120106775074044","0.17116556304124025","0.7197514188498654","1","","","","","","","",""
"","html-keyboard-response","441","1441286","0.0-235.0-1.0","null","<p></p>","null","","","","","","","","","","","","","","","","","","",""
"","do_trial","442","1447091","0.0-236.0-0.0","1264.4000000059605","","","","51","0,0,1","4","coast","174","probe-227","0.3450398283212011","0.19226440602324754","0.4339632845627254","1","","","","","","","",""
"","html-keyboard-response","443","1448097","0.0-236.0-1.0","null","<p></p>","null","","","","","","","","","","","","","","","","","","",""
"","do_trial","444","1453882","0.0-237.0-0.0","1245.8999999761581","","","","51","1,0,1","4","coast","175","probe-157","0.297306995262337","0.09955611487543442","0.5331391432716545","1","","","","","","","",""
"","html-keyboard-response","445","1454886","0.0-237.0-1.0","null","<p></p>","null","","","","","","","","","","","","","","","","","","",""
"","do_trial","446","1461233","0.0-238.0-0.0","1806.7000000178814","","","","51","0,0,0","4","coast","176","probe-143","0.21045462355036712","0.06579138342516426","0.6884463848485944","0","","","","","","","",""
"","html-keyboard-response","447","1462236","0.0-238.0-1.0","null","<p></p>","null","","","","","","","","","","","","","","","","","","",""
"","do_trial","448","1467383","0.0-239.0-0.0","606.7000000178814","","","","51","1,1,1","4","coast","177","probe-53","0.22402968193789297","0.13865452582157933","0.6573097371873903","1","","","","","","","",""
"","html-keyboard-response","449","1468384","0.0-239.0-1.0","null","<p></p>","null","","","","","","","","","","","","","","","","","","",""
"","do_trial","450","1474016","0.0-240.0-0.0","1081.9000000059605","","","","51","0,1,1","4","coast","178","probe-124","0.2566834957315189","0.259952090429607","0.6186623765571584","1","","","","","","","",""
"","html-keyboard-response","451","1475019","0.0-240.0-1.0","null","<p></p>","null","","","","","","","","","","","","","","","","","","",""
"","do_trial","452","1480110","0.0-241.0-0.0","556.2000000178814","","","","51","0,0,1","4","coast","179","probe-192","0.30393529548792797","0.22381195879863935","0.5832513636981499","1","","","","","","","",""
"","html-keyboard-response","453","1481112","0.0-241.0-1.0","null","<p></p>","null","","","","","","","","","","","","","","","","","","",""
"","do_trial","454","1486088","0.0-242.0-0.0","435.5","","","","51","1,0,0","4","coast","180","probe-211","0.32269648852102234","0.15919278960132377","0.5496442842212425","0","","","","","","","",""
"","html-keyboard-response","455","1487089","0.0-242.0-1.0","null","<p></p>","null","","","","","","","","","","","","","","","","","","",""
"","do_trial","456","1492543","0.0-243.0-0.0","912.4000000059605","","","","51","1,0,1","4","coast","181","probe-14","0.43866896726316934","0.11636302048610396","0.5886044672340103","1","","","","","","","",""
"","html-keyboard-response","457","1493544","0.0-243.0-1.0","null","<p></p>","null","","","","","","","","","","","","","","","","","","",""
"","do_trial","458","1498535","0.0-244.0-0.0","456.30000001192093","","","","51","0,0,1","4","coast","182","probe-136","0.2914241596269347","0.2422529951047678","0.5211793491841862","1","","","","","","","",""
"","html-keyboard-response","459","1499540","0.0-244.0-1.0","null","<p></p>","null","","","","","","","","","","","","","","","","","","",""
"","do_trial","460","1504799","0.0-245.0-0.0","719.6999999880791","","","","51","0,0,0","4","coast","183","probe-154","0.31823456116467436","0.2562913203740716","0.34283730930719075","0","","","","","","","",""
"","html-keyboard-response","461","1505802","0.0-245.0-1.0","null","<p></p>","null","","","","","","","","","","","","","","","","","","",""
"","do_trial","462","1510701","0.0-246.0-0.0","362","","","","51","0,1,0","4","coast","184","probe-178","0.34788541898250325","0.17890942896835188","0.36370994638306686","0","","","","","","","",""
"","html-keyboard-response","463","1511703","0.0-246.0-1.0","null","<p></p>","null","","","","","","","","","","","","","","","","","","",""
"","do_trial","464","1517295","0.0-247.0-0.0","1054.800000011921","","","","51","0,0,1","4","coast","185","probe-77","0.38475251964118223","0.12274398392661325","0.4365591955960978","1","","","","","","","",""
"","html-keyboard-response","465","1518300","0.0-247.0-1.0","null","<p></p>","null","","","","","","","","","","","","","","","","","","",""
"","do_trial","466","1524150","0.0-248.0-0.0","1313.4000000059605","","","","51","1,1,0","4","coast","186","probe-217","0.40934736182215703","0.10140556585805882","0.5495948050612451","0","","","","","","","",""
"","html-keyboard-response","467","1525152","0.0-248.0-1.0","null","<p></p>","null","","","","","","","","","","","","","","","","","","",""
"","do_trial","468","1530108","0.0-249.0-0.0","422","","","","51","0,0,1","4","coast","187","probe-79","0.14946044405480705","0.2570145603962727","0.4963766769904842","1","","","","","","","",""
"","html-keyboard-response","469","1531111","0.0-249.0-1.0","null","<p></p>","null","","","","","","","","","","","","","","","","","","",""
"","do_trial","470","1536087","0.0-250.0-0.0","437.7000000178814","","","","51","0,1,0","4","coast","188","probe-26","0.2713855626755141","0.25223256820811196","0.6427913292859821","0","","","","","","","",""
"","html-keyboard-response","471","1537087","0.0-250.0-1.0","null","<p></p>","null","","","","","","","","","","","","","","","","","","",""
"","do_trial","472","1542164","0.0-251.0-0.0","541.2999999821186","","","","51","0,0,1","4","coast","189","probe-111","0.25297693444965225","0.16530308674331118","0.6780358553693343","1","","","","","","","",""
"","html-keyboard-response","473","1543168","0.0-251.0-1.0","null","<p></p>","null","","","","","","","","","","","","","","","","","","",""
"","do_bye","474","1544674","0.0-252.0-0.0","null","","","","null","","","","","","","","","","","","","","","","",""
"","do_travel","475","1550678","0.0-253.0-0.0","null","","","","null","","","","","","","","","","","","","","","","",""
"","do_welcome","476","1552183","0.0-253.0-1.0","null","","","","null","","","","","","","","","","","","","","","","",""
"","do_trial","477","1557867","0.0-254.0-0.0","1147.7000000178814","","","","49","1,0,1","5","countryside","190","probe-115","0.4252674138723079","0.07257070126967173","1","1","","","","","","","",""
"","html-keyboard-response","478","1558870","0.0-254.0-1.0","null","<p></p>","null","","","","","","","","","","","","","","","","","","",""
"","do_trial","479","1564507","0.0-255.0-0.0","1100.300000011921","","","","50","0,0,1","5","countryside","191","probe-135","0.4628955845471792","0.09573480978068474","1","0","","","","","","","",""
"","html-keyboard-response","480","1565511","0.0-255.0-1.0","null","<p></p>","null","","","","","","","","","","","","","","","","","","",""
"","do_trial","481","1570437","0.0-256.0-0.0","383.7000000178814","","","","51","0,1,1","5","countryside","192","probe-199","0.3916578396468841","0.15969095714984052","0.8090153307162894","1","","","","","","","",""
"","html-keyboard-response","482","1571438","0.0-256.0-1.0","null","<p></p>","null","","","","","","","","","","","","","","","","","","",""
"","do_trial","483","1576517","0.0-257.0-0.0","538.2000000178814","","","","51","0,0,1","5","countryside","193","probe-66","0.29656953706054207","0.17913861764867015","0.640931542689689","1","","","","","","","",""
"","html-keyboard-response","484","1577523","0.0-257.0-1.0","null","<p></p>","null","","","","","","","","","","","","","","","","","","",""
"","do_trial","485","1582453","0.0-258.0-0.0","390.89999997615814","","","","49","0,0,1","5","countryside","194","probe-17","0.26297234855193763","0.20088936396214624","0.6574628344342228","0","","","","","","","",""
"","html-keyboard-response","486","1583456","0.0-258.0-1.0","null","<p></p>","null","","","","","","","","","","","","","","","","","","",""
"","do_trial","487","1589053","0.0-259.0-0.0","1060.699999988079","","","","50","1,0,1","5","countryside","195","probe-129","0.41141882325281026","0.11935362856840541","0.671151907947415","0","","","","","","","",""
"","html-keyboard-response","488","1590057","0.0-259.0-1.0","null","<p></p>","null","","","","","","","","","","","","","","","","","","",""
"","do_trial","489","1595422","0.0-260.0-0.0","826.7000000178814","","","","51","0,0,1","5","countryside","196","probe-172","0.41803876343813834","0.10550148081793777","0.6388102549368682","1","","","","","","","",""
"","html-keyboard-response","490","1596424","0.0-260.0-1.0","null","<p></p>","null","","","","","","","","","","","","","","","","","","",""
"","do_trial","491","1601371","0.0-261.0-0.0","408.90000000596046","","","","51","1,0,1","5","countryside","197","probe-116","0.4164881121536603","0.060111522494774014","0.6970768669422088","1","","","","","","","",""
"","html-keyboard-response","492","1602375","0.0-261.0-1.0","null","<p></p>","null","","","","","","","","","","","","","","","","","","",""
"","do_trial","493","1608421","0.0-262.0-0.0","null","","","","null","1,0,0","5","countryside","198","probe-209","0.35415816187594634","0.12537465804408976","0.5544077564596962","","","","","","","","",""
"","html-keyboard-response","494","1609424","0.0-262.0-1.0","null","<p></p>","null","","","","","","","","","","","","","","","","","","",""
"","do_trial","495","1614412","0.0-263.0-0.0","446.59999999403954","","","","51","1,0,0","5","countryside","199","probe-165","0.16433722874335527","0.12613910959486258","0.7213246425924938","0","","","","","","","",""
"","html-keyboard-response","496","1615414","0.0-263.0-1.0","null","<p></p>","null","","","","","","","","","","","","","","","","","","",""
"","do_trial","497","1620401","0.0-264.0-0.0","448.80000001192093","","","","51","0,1,1","5","countryside","200","probe-12","0.13739268915230538","0.06413850720142009","0.7710373328833353","1","","","","","","","",""
"","html-keyboard-response","498","1621405","0.0-264.0-1.0","null","<p></p>","null","","","","","","","","","","","","","","","","","","",""
"","do_trial","499","1626745","0.0-265.0-0.0","805.4000000059605","","","","51","0,0,1","5","countryside","201","probe-49","0.12641212819053563","0.061527369839152427","0.5787587598171487","1","","","","","","","",""
"","html-keyboard-response","500","1627749","0.0-265.0-1.0","null","<p></p>","null","","","","","","","","","","","","","","","","","","",""
"","do_trial","501","1633612","0.0-266.0-0.0","1319.5","","","","51","0,0,0","5","countryside","202","probe-215","0.25187408276630746","0.38473742103413905","0.4652087194905768","0","","","","","","","",""
"","html-keyboard-response","502","1634615","0.0-266.0-1.0","null","<p></p>","null","","","","","","","","","","","","","","","","","","",""
"","do_trial","503","1640324","0.0-267.0-0.0","1165.4000000059605","","","","51","0,0,1","5","countryside","203","probe-153","0.16994613640443768","0.4434142555974065","0.4754463375405952","1","","","","","","","",""
"","html-keyboard-response","504","1641329","0.0-267.0-1.0","null","<p></p>","null","","","","","","","","","","","","","","","","","","",""
"","do_trial","505","1646896","0.0-268.0-0.0","1027.0999999940395","","","","51","1,1,0","5","countryside","204","probe-119","0.30624278624900636","0.17237802989891607","0.37612345020316784","0","","","","","","","",""
"","html-keyboard-response","506","1647900","0.0-268.0-1.0","null","<p></p>","null","","","","","","","","","","","","","","","","","","",""
"","do_trial","507","1653312","0.0-269.0-0.0","875.0999999940395","","","","51","0,0,1","5","countryside","205","probe-229","0.0767039020872447","0.2531494818626729","0.45924393600602875","1","","","","","","","",""
"","html-keyboard-response","508","1654313","0.0-269.0-1.0","null","<p></p>","null","","","","","","","","","","","","","","","","","","",""
"","do_trial","509","1659990","0.0-270.0-0.0","1139.2000000178814","","","","51","1,1,1","5","countryside","206","probe-65","0.08423990212938957","0.43389622212964796","0.4591172942999444","1","","","","","","","",""
"","html-keyboard-response","510","1660995","0.0-270.0-1.0","null","<p></p>","null","","","","","","","","","","","","","","","","","","",""
"","do_trial","511","1665994","0.0-271.0-0.0","460","","","","51","0,1,0","5","countryside","207","probe-38","0.144698859660259","0.424083450669487","0.32321167735287676","0","","","","","","","",""
"","html-keyboard-response","512","1667000","0.0-271.0-1.0","null","<p></p>","null","","","","","","","","","","","","","","","","","","",""
"","do_trial","513","1672896","0.0-272.0-0.0","1356.5999999940395","","","","51","0,1,0","5","countryside","208","probe-177","0.12843676424528572","0.528995948429107","0.28869346520220096","0","","","","","","","",""
"","html-keyboard-response","514","1673901","0.0-272.0-1.0","null","<p></p>","null","","","","","","","","","","","","","","","","","","",""
"","do_trial","515","1680537","0.0-273.0-0.0","2097.300000011921","","","","51","0,0,0","5","countryside","209","probe-50","0.19105978764228718","0.5904305939284936","0.3745784759294085","0","","","","","","","",""
"","html-keyboard-response","516","1681541","0.0-273.0-1.0","null","<p></p>","null","","","","","","","","","","","","","","","","","","",""
"","do_trial","517","1686687","0.0-274.0-0.0","607.5999999940395","","","","51","1,1,1","5","countryside","210","probe-152","0.11748894871049417","0.5355296080263163","0.5005929891953571","1","","","","","","","",""
"","html-keyboard-response","518","1687690","0.0-274.0-1.0","null","<p></p>","null","","","","","","","","","","","","","","","","","","",""
"","do_trial","519","1692633","0.0-275.0-0.0","401","","","","51","0,0,0","5","countryside","211","probe-164","0.17884497483332035","0.46929591670325904","0.5617241842379471","0","","","","","","","",""
"","html-keyboard-response","520","1693634","0.0-275.0-1.0","null","<p></p>","null","","","","","","","","","","","","","","","","","","",""
"","do_trial","521","1699239","0.0-276.0-0.0","1067","","","","51","0,1,0","5","countryside","212","probe-228","0.20472243842825882","0.49947370302079136","0.41815150244048355","0","","","","","","","",""
"","html-keyboard-response","522","1700242","0.0-276.0-1.0","null","<p></p>","null","","","","","","","","","","","","","","","","","","",""
"","do_trial","523","1705173","0.0-277.0-0.0","393.80000001192093","","","","51","0,1,1","5","countryside","213","probe-62","0.23044078867892356","0.5529590292898495","0.3801349996388215","1","","","","","","","",""
"","html-keyboard-response","524","1706177","0.0-277.0-1.0","null","<p></p>","null","","","","","","","","","","","","","","","","","","",""
