"success","trial_type","trial_index","time_elapsed","internal_node_id","rt","stimulus","key_press","subject_id","response","choice_outcomes","context_n","context_img_id","trial_n","probe_img_id","pR_red","pR_white","pR_black","outcome","contextArray_ind","validImageProbes","invalidImageProbes","pRew_Red","pRew_White","pRew_Black","availableForMemProbe","choice_blocks"
"true","fullscreen","0","3599","0.0-0.0","","","","","","","","","","","","","","","","","","","","","",""
"","pavlovia","1","3601","0.0-1.0","","","","","","","","","","","","","","","","","","","","","",""
"","html-keyboard-response","2","19390","0.0-2.0","15789.199999999953","<div class='center'><p>Welcome! This is the first day of the experiment which will last ~30 minutes. In this experiment, you are the head captain of a pirate ship traveling around the world to different places. You will complete several different tasks during this experiment. Here is an overview of these tasks:</p><br><p>Day 1</p><p>1. Tutorial and quiz</p><p>2. Pick a pirate game in 6 different places</p><br><p>Day 2</p><p>3. Pick a pirate game and memory game</p><p>4. Final questions and payment</p><br><p>If you complete the entire experiment, you will receive $15 and a possible bonus payment.</p><p><b>[Press the space bar to begin the tutorial]</b></p></div>","32","60ff7760436f1e083e4e78ce","","","","","","","","","","","","","","","","","",""
"","html-keyboard-response","3","25709","0.0-3.0","6318.5","<div class='center'><p>You’ll stop at these 6 islands on your journey. You'll be able to see them in the distance from your ship.</p><p><img src='run_exp/static/images/contexts/all_contexts.png' height='500'></p><p><b>[Press the space bar to continue]</b></p></div>","32","","","","","","","","","","","","","","","","","","",""
"","html-keyboard-response","4","31800","0.0-4.0","6090.600000000035","<div class='center'><p> The pirates on your ship will rob other ships as they leave island</p> These ships have just sold their things to the people living on the island, so they will have lots and lots of gold on them.</p><p><img src='run_exp/static/images/tutorial/ship_center.png' height='400'></p><p><b>[Press the space bar to continue]</b></p></div>","32","","","","","","","","","","","","","","","","","","",""
"","html-keyboard-response","5","40308","0.0-5.0","8506.799999999988","<div class='center'><p>As the head captain, you do not have to rob any ships yourself.</p><p>Another pirate will be doing the robbing for you. </p><p><img src='run_exp/static/images/tutorial/pirates_all_crop.png' height='200'></p><p>If they could rob the ship, then you will get a stack of gold coins like this:</p><p><img src='run_exp/static/images/tutorial/reward.png' height='150'></p><p> If they couldn't rob the ship, then you will get no gold coins and you'll see a big red x like this: </p><p><img src='run_exp/static/images/tutorial/reward_no.png' height='150'></p><p> How much bonus money you make is based on how many gold coins you collect.</p><p><b>[Press the space bar to continue]</b></p><div>","32","","","","","","","","","","","","","","","","","","",""
"","html-keyboard-response","6","49111","0.0-6.0","8802.200000000012","<div class='center'><p>Even the most skilled pirate can not rob EVERY ship.</p><p> Some ships will have very strong defenses against pirate attacks.</p><p> For example, blue beard, here, is very, very good at robbing ships.</p><p> You can press the <b>‘1’</b> button on the keyboard to choose him.</p><p> Try choosing him 10 times to see how often he can rob a ship. </p><p><img src='run_exp/static/images/tutorial/blue.png' height='500'></p></div>","49","","","","","","","","","","","","","","","","","","",""
"","html-keyboard-response","7","50611","0.0-7.0","null","<div class='center'><p><img src='run_exp/static/images/tutorial/blue_win.png' height='500'></p></div>","null","","","","","","","","","","","","","","","","","","",""
"","html-keyboard-response","8","51000","0.0-8.0","388.29999999998836","<div class='center'><img src='run_exp/static/images/tutorial/blue.png' height='500'></p></div>","49","","","","","","","","","","","","","","","","","","",""
"","html-keyboard-response","9","52501","0.0-9.0","null","<div class='center'><p><img src='run_exp/static/images/tutorial/blue_win.png' height='500'></p></div>","null","","","","","","","","","","","","","","","","","","",""
"","html-keyboard-response","10","52837","0.0-10.0","335.70000000001164","<div class='center'><img src='run_exp/static/images/tutorial/blue.png' height='500'></p></div>","49","","","","","","","","","","","","","","","","","","",""
"","html-keyboard-response","11","54338","0.0-11.0","null","<div class='center'><p><img src='run_exp/static/images/tutorial/blue_win.png' height='500'></p></div>","null","","","","","","","","","","","","","","","","","","",""
"","html-keyboard-response","12","54681","0.0-12.0","342.30000000004657","<div class='center'><img src='run_exp/static/images/tutorial/blue.png' height='500'></p></div>","49","","","","","","","","","","","","","","","","","","",""
"","html-keyboard-response","13","56182","0.0-13.0","null","<div class='center'><p><img src='run_exp/static/images/tutorial/blue_no_win.png' height='500'></p></div>","null","","","","","","","","","","","","","","","","","","",""
"","html-keyboard-response","14","56386","0.0-14.0","203.20000000001164","<div class='center'><img src='run_exp/static/images/tutorial/blue.png' height='500'></p></div>","49","","","","","","","","","","","","","","","","","","",""
"","html-keyboard-response","15","57886","0.0-15.0","null","<div class='center'><p><img src='run_exp/static/images/tutorial/blue_win.png' height='500'></p></div>","null","","","","","","","","","","","","","","","","","","",""
"","html-keyboard-response","16","58264","0.0-16.0","376.8999999999651","<div class='center'><img src='run_exp/static/images/tutorial/blue.png' height='500'></p></div>","49","","","","","","","","","","","","","","","","","","",""
"","html-keyboard-response","17","59765","0.0-17.0","null","<div class='center'><p><img src='run_exp/static/images/tutorial/blue_win.png' height='500'></p></div>","null","","","","","","","","","","","","","","","","","","",""
"","html-keyboard-response","18","60007","0.0-18.0","241.80000000004657","<div class='center'><img src='run_exp/static/images/tutorial/blue.png' height='500'></p></div>","49","","","","","","","","","","","","","","","","","","",""
"","html-keyboard-response","19","61508","0.0-19.0","null","<div class='center'><p><img src='run_exp/static/images/tutorial/blue_win.png' height='500'></p></div>","null","","","","","","","","","","","","","","","","","","",""
"","html-keyboard-response","20","61725","0.0-20.0","216.59999999997672","<div class='center'><img src='run_exp/static/images/tutorial/blue.png' height='500'></p></div>","49","","","","","","","","","","","","","","","","","","",""
"","html-keyboard-response","21","63226","0.0-21.0","null","<div class='center'><p><img src='run_exp/static/images/tutorial/blue_no_win.png' height='500'></p></div>","null","","","","","","","","","","","","","","","","","","",""
"","html-keyboard-response","22","63439","0.0-22.0","212.29999999998836","<div class='center'><img src='run_exp/static/images/tutorial/blue.png' height='500'></p></div>","49","","","","","","","","","","","","","","","","","","",""
"","html-keyboard-response","23","64940","0.0-23.0","null","<div class='center'><p><img src='run_exp/static/images/tutorial/blue_win.png' height='500'></p></div>","null","","","","","","","","","","","","","","","","","","",""
"","html-keyboard-response","24","65134","0.0-24.0","193.5","<div class='center'><img src='run_exp/static/images/tutorial/blue.png' height='500'></p></div>","49","","","","","","","","","","","","","","","","","","",""
"","html-keyboard-response","25","66635","0.0-25.0","null","<div class='center'><p><img src='run_exp/static/images/tutorial/blue_win.png' height='500'></p></div>","null","","","","","","","","","","","","","","","","","","",""
"","html-keyboard-response","26","68521","0.0-26.0","1885.5","<div class='center'><p> See, he could rob the ships most of the time but not every time. </p><p><b>[Press the space bar to continue]</b></p></div>","32","","","","","","","","","","","","","","","","","","",""
"","html-keyboard-response","27","74868","0.0-27.0","6347.200000000012","<div class='center'><p>You will get to choose which of three pirates you want to rob the next ship. <p>Press the <b>‘1’</b> button on your keyboard to pick the pirate with the red beard.</p><p> Press <b>‘2’</b> to pick the pirate with the white beard.</p><p> Press <b>‘3’</b> to pick the pirate with the black beard.</p><p>Try picking a pirate now!</p><p><img src='run_exp/static/images/tutorial/all_pirates.png' height='500'></p></div>","50","","","","","","","","","","","","","","","","","","",""
"","html-keyboard-response","28","75797","0.0-28.0-0.0","927.8000000000466","<div class='center'><p>This pirate could rob the ship!</p><p><img src='run_exp/static/images/tutorial/white_win.png' height='500'></p><p><b>[Press the space bar to continue]</b></p></div>","32","","","","","","","","","","","","","","","","","","",""
"","html-keyboard-response","29","76507","0.0-28.0-1.0","709.5999999999767","<div class='center'><p>Now try choosing another</p><p><img src='run_exp/static/images/tutorial/all_pirates.png' height='500'></p></div>","49","","","","","","","","","","","","","","","","","","",""
"","html-keyboard-response","30","77200","0.0-29.0-0.0","692.4000000000233","<div class='center'><p>This pirate could not rob the ship.</p><p><img src='run_exp/static/images/tutorial/red_no_win.png' height='500'></p><p><b>[Press the space bar to continue]</b></p></div>","32","","","","","","","","","","","","","","","","","","",""
"","html-keyboard-response","31","83327","0.0-30.0-0.0","6126.300000000047","<div class='center'><p>If you don’t make your choice fast enough, you’ll have to wait a few seconds before you can make another one. </p><p>You can’t collect more gold coins. You just have to sit and wait.</p><p><img src='run_exp/static/images/miscellaneous/hurry_up.png' height='500'></p><p><b>[Press the space bar to continue]</b></p></div>","32","","","","","","","","","","","","","","","","","","",""
"","html-keyboard-response","32","104093","0.0-30.0-1.0","20765.79999999993","<div class='center'><p>Once you choose a pirate, you’ll be shown the ship they are robbing.</p><p>You will never rob the same ship twice.</p><p>Ships can be told apart from one another by the image on them.</p><p> Every time you see a ship, you will have to remember on which island you saw it.</p><p> Remembering correctly will help you win more bonus money!</p><p>A helpful strategy is to try to come up with a story of the object on the ship interacting with the current island scene.</p><p> For example, here, you could imagine a mug full of water in the desert. </p><p>For a ship with an apple on it on the forest island, you could imagine an apple falling from a tree in the forest.</p><p><img src='run_exp/static/images/tutorial/example_probe.png' height='500'></p><p><b>[Press the space bar to continue]</b></p></div>","32","","","","","","","","","","","","","","","","","","",""
"","html-keyboard-response","33","110117","0.0-30.0-2.0","6023.20000000007","<div class='center'><p>How good a pirate is at robbing ships will depend on the current island.</p><p> A pirate may have visited the island many times before and gained a lot of practice robbing ships there.</p><p>So, they're more likely to bring back gold coins than a pirate who has never visited this island before. </p><p><b>[Press the space bar to continue]</b></p></div>","32","","","","","","","","","","","","","","","","","","",""
"","html-keyboard-response","34","120666","0.0-30.0-3.0","10548.300000000047","<div class='center'><p>How good a pirate is at robbing ships can also change over the time spent on the island<p> Ships may hear from islanders about the pirates coming and will improve their protection against the attack. This may make it harder to rob them.</p><p> Ships may also become lazy and lower their protection. This may make it easier to rob them.</p><br><p>Things are always changing on the high seas! So, try your best to pay attention!</p><p><img src='run_exp/static/images/tutorial/contingency.png' height='500'></p><p><b>[Press the space bar to continue]</b></p></div>","32","","","","","","","","","","","","","","","","","","",""
"","html-keyboard-response","35","147109","0.0-30.0-4.0","26443.5","<div class='center'><p>Let's go over the instructions quickly again.You have two important things to do: </p><b><p> 1. Pick the pirate who is the best at robbing ships on the current island.</p></b><b><p> 2. Remember on which island a ship was robbed.</p> </b><p>How much bonus money you make is based on both. </p><br><p>Let’s try a practice game. The game will start by showing you the pirates. First pick a pirate using the <b> 1, 2, 3 </b> buttons on your keyboard. When you are shown a ship, try to remember the island you’re on by making up a story.</p><p> You only have 3 seconds to pick a pirate, so please make a choice quickly! If you are too slow, you’ll have to wait a bit during the time out.</p><p> Don’t feel rushed, but please do try to make a choice every time.</p><p>This is just a practice game, so you’re not playing for money. </p><p> Good luck, remember press <b>'1'</b> to choose red beard, <b>'2'</b> to choose white beard, and <b>'3'</b> to choose black beard</p><p><b>[Press the space bar to begin the practice game]</b></p></div>","32","","","","","","","","","","","","","","","","","","",""
"","do_welcome","36","148612","0.0-30.0-5.0","null","","","","null","","","","","","","","","","","","","","","","",""
"","do_trial","37","153863","0.0-30.0-6.0","746.9000000000233","","","","49","1,0,0","","","","","","","","","","","","","","","",""
"","html-keyboard-response","38","154864","0.0-31.0-0.0","null","<p></p>","null","","","","","","","","","","","","","","","","","","",""
"","do_trial","39","161096","0.0-31.0-1.0","1729.9000000000233","","","","50","1,1,0","","","","","","","","","","","","","","","",""
"","html-keyboard-response","40","162097","0.0-32.0-0.0","null","<p></p>","null","","","","","","","","","","","","","","","","","","",""
"","do_trial","41","167256","0.0-32.0-1.0","656.4000000000233","","","","51","1,0,1","","","","","","","","","","","","","","","",""
"","html-keyboard-response","42","168257","0.0-33.0-0.0","null","<p></p>","null","","","","","","","","","","","","","","","","","","",""
"","do_trial","43","173871","0.0-33.0-1.0","1111.7000000000698","","","","50","0,1,0","","","","","","","","","","","","","","","",""
"","html-keyboard-response","44","174872","0.0-34.0-0.0","null","<p></p>","null","","","","","","","","","","","","","","","","","","",""
"","do_trial","45","180037","0.0-34.0-1.0","662.5999999999767","","","","49","1,0,0","","","","","","","","","","","","","","","",""
"","do_bye","46","181539","0.0-35.0-0.0","null","","","","null","","","","","","","","","","","","","","","","",""
"","do_travel","47","187541","0.0-35.0-1.0","null","","","","null","","","","","","","","","","","","","","","","",""
"","do_welcome","48","189043","0.0-35.0-2.0","null","","","","null","","","","","","","","","","","","","","","","",""
"","do_trial","49","195017","0.0-35.0-3.0","1471.4000000000233","","","","49","1,0,0","","","","","","","","","","","","","","","",""
"","html-keyboard-response","50","196018","0.0-36.0-0.0","null","<p></p>","null","","","","","","","","","","","","","","","","","","",""
"","do_trial","51","201096","0.0-36.0-1.0","573.8999999999069","","","","50","1,0,1","","","","","","","","","","","","","","","",""
"","html-keyboard-response","52","202097","0.0-37.0-0.0","null","<p></p>","null","","","","","","","","","","","","","","","","","","",""
"","do_trial","53","206994","0.0-37.0-1.0","394.79999999993015","","","","51","1,1,0","","","","","","","","","","","","","","","",""
"","html-keyboard-response","54","207995","0.0-38.0-0.0","null","<p></p>","null","","","","","","","","","","","","","","","","","","",""
"","do_trial","55","213046","0.0-38.0-1.0","548.0999999999767","","","","49","0,0,1","","","","","","","","","","","","","","","",""
"","html-keyboard-response","56","214047","0.0-39.0-0.0","null","<p></p>","null","","","","","","","","","","","","","","","","","","",""
"","do_trial","57","219161","0.0-39.0-1.0","611.6999999999534","","","","49","1,0,1","","","","","","","","","","","","","","","",""
"","html-keyboard-response","58","222373","0.0-40.0-0.0","3211.4000000000233","<div class='center'><p><img src='run_exp/static/images/tutorial/prac_best_pirate.png'  height='500'></p></div>","49","","","","","","","","","","","","","","","","","","",""
"","html-keyboard-response","59","223503","0.0-41.0-0.0","1129.5999999999767","<div class='center'><p>That's correct! Red beard was the best.</p><p><b>[Press the space bar to continue]</b></p></div>","32","","","","","","","","","","","","","","","","","","",""
"","html-keyboard-response","60","227289","0.0-41.0-1.0","3785.6999999999534","<div class='center'><p><img src='run_exp/static/images/tutorial/prac_source.png'  height='500'></p></div>","50","","","","","","","","","","","","","","","","","","",""
"","html-keyboard-response","61","228127","0.0-42.0-0.0","837.1999999999534","<div class='center'><p>That's correct! You saw this ship on the cavern island.</p><p><b>[Press the space bar to continue]</b></p></div>","32","","","","","","","","","","","","","","","","","","",""
"","html-keyboard-response","62","232380","0.0-42.0-1.0","4252.5","<div class='center'><p>Good job on the practice game! Now, you will be asked you some true or false questions to make sure you really understand the rules of the game.</p><p> Press <b>'1'</b> on the keyboard for true and press <b>'2'</b> for false.</p><p><b>[Press the space bar to begin the quiz]</b></p></div>","32","","","","","","","","","","","","","","","","","","",""
"","html-keyboard-response","63","234215","0.0-42.0-2.0","1834.6999999999534","<div class='center'><p>You win bonus money by making choices as fast as possible.</p><p>Press 1 for true and press  2 for false.</p></div>","50","","","","","","","","","","","","","","","","","","",""
"","html-keyboard-response","64","234839","0.0-43.0-0.0","623.3000000000466","<div class='center'><p>That's correct!</p> <p><b>[press the space bar to continue with the quiz]</b></p></div>","32","","","","","","","","","","","","","","","","","","",""
"","html-keyboard-response","65","237782","0.0-43.0-1.0","2942.70000000007","<div class='center'><p>You press the <b>‘3’</b> button on the keyboard to choose the red bearded pirate. </p><p>Press 1 for true and press  2 for false.</p></div>","50","","","","","","","","","","","","","","","","","","",""
"","html-keyboard-response","66","238223","0.0-44.0-0.0","440.0999999999767","<div class='center'><p>That's correct!</p> <p><b>[press the space bar to continue with the quiz]</b></p></div>","32","","","","","","","","","","","","","","","","","","",""
"","html-keyboard-response","67","240714","0.0-44.0-1.0","2491.5999999999767","<div class='center'><p>The pirate who is the best at robbing ships on the first island will be the best on every other island.</p><p>Press 1 for true and press  2 for false.</p></div>","50","","","","","","","","","","","","","","","","","","",""
"","html-keyboard-response","68","241140","0.0-45.0-0.0","424.5999999999767","<div class='center'><p>That's correct!</p> <p><b>[press the space bar to continue with the quiz]</b></p></div>","32","","","","","","","","","","","","","","","","","","",""
"","html-keyboard-response","69","243915","0.0-45.0-1.0","2775.5","<div class='center'><p>You should remember the island where a pirate robbed a ship.</p><p>Press 1 for true and press  2 for false.</p></div>","49","","","","","","","","","","","","","","","","","","",""
"","html-keyboard-response","70","244305","0.0-46.0-0.0","384.69999999995343","<div class='center'><p>That's correct!</p> <p><b>[press the space bar to continue with the quiz]</b></p></div>","32","","","","","","","","","","","","","","","","","","",""
"","html-keyboard-response","71","248555","0.0-47.0-0.0","4250.300000000047","<div class='center'><p>Good job! You’re now ready to move on to the real game!</p> <p><br>[press the space bar to begin!]</br></p></div>","32","","","","","","","","","","","","","","","","","","",""
"","do_welcome","72","250058","0.0-48.0-0.0","null","","","","null","","","","","","","","","","","","","","","","",""
"","do_trial","73","255960","0.0-49.0-0.0","1380.7999999999302","","","","49","0,1,0","0","forest","0","probe-98","0.6","0.3","0.1","0","","","","","","","",""
"","html-keyboard-response","74","256961","0.0-49.0-1.0","null","<p></p>","null","","","","","","","","","","","","","","","","","","",""
"","do_trial","75","262555","0.0-50.0-0.0","1073.4000000000233","","","","50","0,0,0","0","forest","1","probe-49","0.5553741666319119","0.2892124209153778","0.16203986245083168","0","","","","","","","",""
"","html-keyboard-response","76","263556","0.0-50.0-1.0","null","<p></p>","null","","","","","","","","","","","","","","","","","","",""
"","do_trial","77","268324","0.0-51.0-0.0","246.39999999990687","","","","51","1,0,0","0","forest","2","probe-38","0.49443398053113363","0.23657824059059496","0.14493915740518235","0","","","","","","","",""
"","html-keyboard-response","78","269324","0.0-51.0-1.0","null","<p></p>","null","","","","","","","","","","","","","","","","","","",""
"","do_trial","79","274422","0.0-52.0-0.0","576.3000000000466","","","","49","0,0,0","0","forest","3","probe-92","0.4501214869518914","0.2486550118423839","0.08969267894912651","0","","","","","","","",""
"","html-keyboard-response","80","275422","0.0-52.0-1.0","null","<p></p>","null","","","","","","","","","","","","","","","","","","",""
"","do_trial","81","281340","0.0-53.0-0.0","1397.0999999999767","","","","50","1,0,0","0","forest","4","probe-36","0.5587540518691182","0.30096259912001416","0.08742703137118842","0","","","","","","","",""
"","html-keyboard-response","82","282341","0.0-53.0-1.0","null","<p></p>","null","","","","","","","","","","","","","","","","","","",""
"","do_trial","83","287339","0.0-54.0-0.0","477","","","","49","1,0,0","0","forest","5","probe-126","0.5330374367695726","0.32587730590458697","0.11943249882618574","1","","","","","","","",""
"","html-keyboard-response","84","288340","0.0-54.0-1.0","null","<p></p>","null","","","","","","","","","","","","","","","","","","",""
"","do_trial","85","294445","0.0-55.0-0.0","1583.5","","","","49","0,1,0","0","forest","6","probe-139","0.5832475603056715","0.27238563240329217","0.11939268025168112","0","","","","","","","",""
"","html-keyboard-response","86","295446","0.0-55.0-1.0","null","<p></p>","null","","","","","","","","","","","","","","","","","","",""
"","do_trial","87","300432","0.0-56.0-0.0","465.20000000006985","","","","51","1,0,0","0","forest","7","probe-30","0.5721945015983375","0.2610518267947228","0.1119386936611435","0","","","","","","","",""
"","html-keyboard-response","88","301433","0.0-56.0-1.0","null","<p></p>","null","","","","","","","","","","","","","","","","","","",""
"","do_trial","89","306348","0.0-57.0-0.0","393.5999999999767","","","","49","1,0,0","0","forest","8","probe-201","0.500836214214144","0.25450730864353693","0.2014871930525567","1","","","","","","","",""
"","html-keyboard-response","90","307349","0.0-57.0-1.0","null","<p></p>","null","","","","","","","","","","","","","","","","","","",""
"","do_trial","91","312269","0.0-58.0-0.0","399.5999999999767","","","","49","0,0,0","0","forest","9","probe-129","0.5559108807742051","0.2963182118607294","0.16277801267170916","0","","","","","","","",""
"","html-keyboard-response","92","313270","0.0-58.0-1.0","null","<p></p>","null","","","","","","","","","","","","","","","","","","",""
"","do_trial","93","319292","0.0-59.0-0.0","null","","","","null","1,0,0","0","forest","10","probe-166","0.6744512630716054","0.30215950278952264","0.07984855000865784","","","","","","","","",""
"","html-keyboard-response","94","320294","0.0-59.0-1.0","null","<p></p>","null","","","","","","","","","","","","","","","","","","",""
"","do_trial","95","325215","0.0-60.0-0.0","400.79999999993015","","","","49","1,1,0","0","forest","11","probe-84","0.6554465202759401","0.3797980751080603","0.10876738718666339","1","","","","","","","",""
"","html-keyboard-response","96","326216","0.0-60.0-1.0","null","<p></p>","null","","","","","","","","","","","","","","","","","","",""
"","do_trial","97","331349","0.0-61.0-0.0","612.5","","","","49","1,1,0","0","forest","12","probe-89","0.6710424766593378","0.39063980791960207","0.11635880198775729","1","","","","","","","",""
"","html-keyboard-response","98","332349","0.0-61.0-1.0","null","<p></p>","null","","","","","","","","","","","","","","","","","","",""
"","do_trial","99","337414","0.0-62.0-0.0","544.5","","","","49","0,0,1","0","forest","13","probe-32","0.8036115425193263","0.30171346947846517","0.13420946619045135","0","","","","","","","",""
"","html-keyboard-response","100","338415","0.0-62.0-1.0","null","<p></p>","null","","","","","","","","","","","","","","","","","","",""
"","do_trial","101","343217","0.0-63.0-0.0","281","","","","50","0,1,0","0","forest","14","probe-194","0.7334771864971446","0.2442725615940085","0.07379861047347483","1","","","","","","","",""
"","html-keyboard-response","102","344218","0.0-63.0-1.0","null","<p></p>","null","","","","","","","","","","","","","","","","","","",""
"","do_trial","103","349149","0.0-64.0-0.0","409.80000000004657","","","","50","1,0,0","0","forest","15","probe-33","0.7410745914382144","0.21138685192732273","0.09349332891083112","0","","","","","","","",""
"","html-keyboard-response","104","350150","0.0-64.0-1.0","null","<p></p>","null","","","","","","","","","","","","","","","","","","",""
"","do_trial","105","355862","0.0-65.0-0.0","1191.5","","","","49","1,0,0","0","forest","16","probe-209","0.6529502092707776","0.15594906894607838","0.18991024912633303","1","","","","","","","",""
"","html-keyboard-response","106","356864","0.0-65.0-1.0","null","<p></p>","null","","","","","","","","","","","","","","","","","","",""
"","do_trial","107","362716","0.0-66.0-0.0","1332.0999999999767","","","","51","1,0,0","0","forest","17","probe-108","0.811754533394681","0.24209944509897846","0.0976234256196894","0","","","","","","","",""
"","html-keyboard-response","108","363717","0.0-66.0-1.0","null","<p></p>","null","","","","","","","","","","","","","","","","","","",""
"","do_trial","109","369738","0.0-67.0-0.0","null","","","","null","1,0,1","0","forest","18","probe-50","0.5459478251416124","0.3561627721920147","0.06937570671299682","","","","","","","","",""
"","html-keyboard-response","110","370739","0.0-67.0-1.0","null","<p></p>","null","","","","","","","","","","","","","","","","","","",""
"","do_trial","111","375593","0.0-68.0-0.0","332.79999999993015","","","","50","0,0,0","0","forest","19","probe-143","0.5548997364411095","0.336833014763083","0.16245300521841435","0","","","","","","","",""
"","html-keyboard-response","112","376594","0.0-68.0-1.0","null","<p></p>","null","","","","","","","","","","","","","","","","","","",""
"","do_trial","113","381385","0.0-69.0-0.0","270.10000000009313","","","","49","0,0,0","0","forest","20","probe-61","0.47584624793062547","0.41451091029843773","0.1320619138379163","0","","","","","","","",""
"","html-keyboard-response","114","382386","0.0-69.0-1.0","null","<p></p>","null","","","","","","","","","","","","","","","","","","",""
"","do_trial","115","387177","0.0-70.0-0.0","269.79999999993015","","","","49","0,0,0","0","forest","21","probe-199","0.4628785455813837","0.40677947962680544","0.05897195490691006","0","","","","","","","",""
"","html-keyboard-response","116","388178","0.0-70.0-1.0","null","<p></p>","null","","","","","","","","","","","","","","","","","","",""
"","do_trial","117","392825","0.0-71.0-0.0","125.40000000002328","","","","51","1,1,0","0","forest","22","probe-227","0.47778040141133704","0.44520161972253625","0.07265707672576609","0","","","","","","","",""
"","html-keyboard-response","118","393826","0.0-71.0-1.0","null","<p></p>","null","","","","","","","","","","","","","","","","","","",""
"","do_trial","119","398553","0.0-72.0-0.0","207.29999999993015","","","","50","1,1,0","0","forest","23","probe-183","0.6032263554541623","0.46893284051937784","0.05920920599701617","1","","","","","","","",""
"","html-keyboard-response","120","399554","0.0-72.0-1.0","null","<p></p>","null","","","","","","","","","","","","","","","","","","",""
"","do_trial","121","404322","0.0-73.0-0.0","247.19999999995343","","","","49","0,0,0","0","forest","24","probe-220","0.5506690987940969","0.4462836789152154","0.1125737807082996","0","","","","","","","",""
"","html-keyboard-response","122","405322","0.0-73.0-1.0","null","<p></p>","null","","","","","","","","","","","","","","","","","","",""
"","do_trial","123","410147","0.0-74.0-0.0","304.0999999999767","","","","50","1,1,0","0","forest","25","probe-116","0.5350019312939516","0.4522475972688361","0.10528643503841792","1","","","","","","","",""
"","html-keyboard-response","124","411148","0.0-74.0-1.0","null","<p></p>","null","","","","","","","","","","","","","","","","","","",""
"","do_trial","125","415852","0.0-75.0-0.0","182.69999999995343","","","","50","0,1,0","0","forest","26","probe-152","0.5929501412810038","0.361231874642121","0.12652136015940973","1","","","","","","","",""
"","html-keyboard-response","126","416852","0.0-75.0-1.0","null","<p></p>","null","","","","","","","","","","","","","","","","","","",""
"","do_trial","127","421721","0.0-76.0-0.0","347.0999999999767","","","","50","1,0,0","0","forest","27","probe-157","0.5645917412582345","0.2875060942240419","0.0512426275593757","0","","","","","","","",""
"","html-keyboard-response","128","422722","0.0-76.0-1.0","null","<p></p>","null","","","","","","","","","","","","","","","","","","",""
"","do_trial","129","428057","0.0-77.0-0.0","814.5","","","","49","1,0,0","0","forest","28","probe-222","0.4405523246829553","0.27020884084389246","0.0644541004407642","1","","","","","","","",""
"","html-keyboard-response","130","429058","0.0-77.0-1.0","null","<p></p>","null","","","","","","","","","","","","","","","","","","",""
"","do_trial","131","433816","0.0-78.0-0.0","236.5","","","","51","0,1,0","0","forest","29","probe-171","0.46602966569324933","0.3198897007588333","0.22634418310614662","0","","","","","","","",""
"","html-keyboard-response","132","434817","0.0-78.0-1.0","null","<p></p>","null","","","","","","","","","","","","","","","","","","",""
"","do_bye","133","436319","0.0-79.0-0.0","null","","","","null","","","","","","","","","","","","","","","","",""
"","do_travel","134","442321","0.0-80.0-0.0","null","","","","null","","","","","","","","","","","","","","","","",""
"","do_welcome","135","443823","0.0-80.0-1.0","null","","","","null","","","","","","","","","","","","","","","","",""
"","do_trial","136","450619","0.0-81.0-0.0","2275.399999999907","","","","49","1,0,0","1","city","30","probe-185","1","0.43133027418985037","0.20241509957475776","1","","","","","","","",""
"","html-keyboard-response","137","451620","0.0-81.0-1.0","null","<p></p>","null","","","","","","","","","","","","","","","","","","",""
"","do_trial","138","457021","0.0-82.0-0.0","879.4000000000233","","","","50","1,0,0","1","city","31","probe-01","1","0.36080014838223284","0.24368004088710926","0","","","","","","","",""
"","html-keyboard-response","139","458022","0.0-82.0-1.0","null","<p></p>","null","","","","","","","","","","","","","","","","","","",""
"","do_trial","140","463547","0.0-83.0-0.0","1004.9000000000233","","","","49","1,0,0","1","city","32","probe-40","1","0.3912113089456096","0.09398328015721184","1","","","","","","","",""
"","html-keyboard-response","141","464549","0.0-83.0-1.0","null","<p></p>","null","","","","","","","","","","","","","","","","","","",""
"","do_trial","142","469257","0.0-84.0-0.0","187.79999999993015","","","","51","0,0,0","1","city","33","probe-48","0.9433202728884758","0.3459568061131016","0.1639292000779083","0","","","","","","","",""
"","html-keyboard-response","143","470257","0.0-84.0-1.0","null","<p></p>","null","","","","","","","","","","","","","","","","","","",""
"","do_trial","144","475046","0.0-85.0-0.0","268.5","","","","50","1,0,0","1","city","34","probe-07","0.8551788864431806","0.4313483852448594","0.10228204104126237","0","","","","","","","",""
"","html-keyboard-response","145","476048","0.0-85.0-1.0","null","<p></p>","null","","","","","","","","","","","","","","","","","","",""
"","do_trial","146","480903","0.0-86.0-0.0","334.9000000000233","","","","49","0,0,0","1","city","35","probe-107","0.7206363362089384","0.31725551257150136","0.2604067801216234","0","","","","","","","",""
"","html-keyboard-response","147","481904","0.0-86.0-1.0","null","<p></p>","null","","","","","","","","","","","","","","","","","","",""
"","do_trial","148","486679","0.0-87.0-0.0","255","","","","49","1,0,0","1","city","36","probe-130","0.6838994197767978","0.29188497391599266","0.2258320848002333","1","","","","","","","",""
"","html-keyboard-response","149","487680","0.0-87.0-1.0","null","<p></p>","null","","","","","","","","","","","","","","","","","","",""
"","do_trial","150","492573","0.0-88.0-0.0","372.4000000000233","","","","50","1,1,0","1","city","37","probe-217","0.7601500781310813","0.3636000724156853","0.23617065139749183","1","","","","","","","",""
"","html-keyboard-response","151","493573","0.0-88.0-1.0","null","<p></p>","null","","","","","","","","","","","","","","","","","","",""
"","do_trial","152","498350","0.0-89.0-0.0","255.30000000004657","","","","51","1,0,0","1","city","38","probe-119","0.7549773285965917","0.4218395240231685","0.13594093154077994","0","","","","","","","",""
"","html-keyboard-response","153","499351","0.0-89.0-1.0","null","<p></p>","null","","","","","","","","","","","","","","","","","","",""
"","do_trial","154","504082","0.0-90.0-0.0","210.70000000006985","","","","50","1,1,0","1","city","39","probe-85","0.6125407445878024","0.27031899599986153","0.15382685248875158","1","","","","","","","",""
"","html-keyboard-response","155","505083","0.0-90.0-1.0","null","<p></p>","null","","","","","","","","","","","","","","","","","","",""
"","do_trial","156","509800","0.0-91.0-0.0","196.59999999997672","","","","50","0,1,0","1","city","40","probe-45","0.45345450112105873","0.21707499785258352","0.1505554313296455","1","","","","","","","",""
"","html-keyboard-response","157","510801","0.0-91.0-1.0","null","<p></p>","null","","","","","","","","","","","","","","","","","","",""
"","do_trial","158","515508","0.0-92.0-0.0","185","","","","50","1,0,0","1","city","41","probe-169","0.5106543268522399","0.19027423745873207","0.08828247946409792","0","","","","","","","",""
"","html-keyboard-response","159","516509","0.0-92.0-1.0","null","<p></p>","null","","","","","","","","","","","","","","","","","","",""
"","do_trial","160","521869","0.0-93.0-0.0","838.4000000000233","","","","50","1,1,0","1","city","42","probe-117","0.4026091003772582","0.24284724200493146","0.21614685938802225","1","","","","","","","",""
"","html-keyboard-response","161","522869","0.0-93.0-1.0","null","<p></p>","null","","","","","","","","","","","","","","","","","","",""
"","do_trial","162","527665","0.0-94.0-0.0","275.80000000004657","","","","50","1,0,1","1","city","43","probe-128","0.5449639575168782","0.27190774276374113","0.3004524884955898","0","","","","","","","",""
"","html-keyboard-response","163","528667","0.0-94.0-1.0","null","<p></p>","null","","","","","","","","","","","","","","","","","","",""
"","do_trial","164","533402","0.0-95.0-0.0","214.10000000009313","","","","49","0,0,1","1","city","44","probe-21","0.4459050254631488","0.07877926294110571","0.5297535320447122","0","","","","","","","",""
"","html-keyboard-response","165","534402","0.0-95.0-1.0","null","<p></p>","null","","","","","","","","","","","","","","","","","","",""
"","do_trial","166","539115","0.0-96.0-0.0","191.69999999995343","","","","50","0,0,0","1","city","45","probe-111","0.3556854947326062","0.12573327813241597","0.5921607417067181","0","","","","","","","",""
"","html-keyboard-response","167","540116","0.0-96.0-1.0","null","<p></p>","null","","","","","","","","","","","","","","","","","","",""
"","do_trial","168","545419","0.0-97.0-0.0","781.9000000000233","","","","50","0,0,0","1","city","46","probe-145","0.31718218847438784","0.08271128827194202","0.7145846590334286","0","","","","","","","",""
"","html-keyboard-response","169","546420","0.0-97.0-1.0","null","<p></p>","null","","","","","","","","","","","","","","","","","","",""
"","do_trial","170","551230","0.0-98.0-0.0","290.5","","","","51","0,0,0","1","city","47","probe-110","0.26025047970581144","0.0873052746458988","0.6387177971505138","0","","","","","","","",""
"","html-keyboard-response","171","552232","0.0-98.0-1.0","null","<p></p>","null","","","","","","","","","","","","","","","","","","",""
"","do_trial","172","557005","0.0-99.0-0.0","252.29999999993015","","","","51","0,0,1","1","city","48","probe-76","0.24772985875313544","0.09389415645342625","0.6396757808984999","1","","","","","","","",""
"","html-keyboard-response","173","558006","0.0-99.0-1.0","null","<p></p>","null","","","","","","","","","","","","","","","","","","",""
"","do_trial","174","562937","0.0-100.0-0.0","409.19999999995343","","","","51","1,0,0","1","city","49","probe-109","0.3433179222614741","0.06859812786285256","0.5883430896508939","0","","","","","","","",""
"","html-keyboard-response","175","563937","0.0-100.0-1.0","null","<p></p>","null","","","","","","","","","","","","","","","","","","",""
"","do_trial","176","568694","0.0-101.0-0.0","236.59999999997672","","","","51","1,0,1","1","city","50","probe-41","0.3736734535437878","0.10441626297473736","0.5502062627958815","1","","","","","","","",""
"","html-keyboard-response","177","569695","0.0-101.0-1.0","null","<p></p>","null","","","","","","","","","","","","","","","","","","",""
"","do_trial","178","574688","0.0-102.0-0.0","471.9000000000233","","","","51","0,0,0","1","city","51","probe-102","0.3684236730836486","0.11166394339925038","0.4867966743783184","0","","","","","","","",""
"","html-keyboard-response","179","575688","0.0-102.0-1.0","null","<p></p>","null","","","","","","","","","","","","","","","","","","",""
"","do_trial","180","580514","0.0-103.0-0.0","305.80000000004657","","","","49","0,0,1","1","city","52","probe-96","0.29082872623543427","0.09836317546127143","0.5832079050601954","0","","","","","","","",""
"","html-keyboard-response","181","581515","0.0-103.0-1.0","null","<p></p>","null","","","","","","","","","","","","","","","","","","",""
"","do_trial","182","587071","0.0-104.0-0.0","1034","","","","49","0,0,0","1","city","53","probe-90","0.3381042637873203","0.08717171063445785","0.5368058620362632","0","","","","","","","",""
"","html-keyboard-response","183","588072","0.0-104.0-1.0","null","<p></p>","null","","","","","","","","","","","","","","","","","","",""
"","do_trial","184","593023","0.0-105.0-0.0","431.0999999999767","","","","51","0,0,0","1","city","54","probe-226","0.3567490022337927","0.05172476716317934","0.42999352138854235","0","","","","","","","",""
"","html-keyboard-response","185","594024","0.0-105.0-1.0","null","<p></p>","null","","","","","","","","","","","","","","","","","","",""
"","do_trial","186","598880","0.0-106.0-0.0","334.5999999999767","","","","50","0,0,1","1","city","55","probe-34","0.3120971640523406","0.195963360929705","0.5529292087289965","0","","","","","","","",""
"","html-keyboard-response","187","599881","0.0-106.0-1.0","null","<p></p>","null","","","","","","","","","","","","","","","","","","",""
"","do_trial","188","604738","0.0-107.0-0.0","336.20000000006985","","","","49","0,0,1","1","city","56","probe-187","0.33817061756991124","0.18952882474694416","0.5850519886516072","0","","","","","","","",""
"","html-keyboard-response","189","605739","0.0-107.0-1.0","null","<p></p>","null","","","","","","","","","","","","","","","","","","",""
"","do_trial","190","611187","0.0-108.0-0.0","927.6999999999534","","","","50","0,0,1","1","city","57","probe-213","0.23241606786064206","0.07294112473972014","0.6896866819815932","0","","","","","","","",""
"","html-keyboard-response","191","612188","0.0-108.0-1.0","null","<p></p>","null","","","","","","","","","","","","","","","","","","",""
"","do_trial","192","616960","0.0-109.0-0.0","251.19999999995343","","","","51","1,0,0","1","city","58","probe-28","0.27562673781651825","0.08780009569140843","0.7554953128472214","0","","","","","","","",""
"","html-keyboard-response","193","617961","0.0-109.0-1.0","null","<p></p>","null","","","","","","","","","","","","","","","","","","",""
"","do_trial","194","622725","0.0-110.0-0.0","242.79999999981374","","","","49","0,0,1","1","city","59","probe-88","0.3362498718645486","0.09405812102883326","0.898754251288635","0","","","","","","","",""
"","html-keyboard-response","195","623726","0.0-110.0-1.0","null","<p></p>","null","","","","","","","","","","","","","","","","","","",""
"","do_trial","196","628402","0.0-111.0-0.0","154.60000000009313","","","","49","0,0,1","1","city","60","probe-150","0.4552023514853629","0.1323967766755292","0.9156022041487413","0","","","","","","","",""
"","html-keyboard-response","197","629403","0.0-111.0-1.0","null","<p></p>","null","","","","","","","","","","","","","","","","","","",""
"","do_trial","198","634253","0.0-112.0-0.0","329.5","","","","50","0,0,1","1","city","61","probe-132","0.3269238554727838","0.11800114313111278","0.8160164352132345","0","","","","","","","",""
"","html-keyboard-response","199","635254","0.0-112.0-1.0","null","<p></p>","null","","","","","","","","","","","","","","","","","","",""
"","do_trial","200","639803","0.0-113.0-0.0","29","","","","50","0,0,0","1","city","62","probe-83","0.4318904800057293","0.08895528924485216","0.6144671695999291","0","","","","","","","",""
"","html-keyboard-response","201","640804","0.0-113.0-1.0","null","<p></p>","null","","","","","","","","","","","","","","","","","","",""
"","do_trial","202","645676","0.0-114.0-0.0","350.89999999990687","","","","49","0,1,1","1","city","63","probe-123","0.4132900546416872","0.1382970814410051","0.4963638383366661","0","","","","","","","",""
"","html-keyboard-response","203","646678","0.0-114.0-1.0","null","<p></p>","null","","","","","","","","","","","","","","","","","","",""
"","do_trial","204","652243","0.0-115.0-0.0","1044.2000000001863","","","","51","1,0,0","1","city","64","probe-11","0.345607441010658","0.24276950955576992","0.5640368198606059","0","","","","","","","",""
"","html-keyboard-response","205","653244","0.0-115.0-1.0","null","<p></p>","null","","","","","","","","","","","","","","","","","","",""
"","do_trial","206","658040","0.0-116.0-0.0","275.5999999998603","","","","49","0,0,1","1","city","65","probe-229","0.26869202590873825","0.19142467420263778","0.7548835001707194","0","","","","","","","",""
"","html-keyboard-response","207","659041","0.0-116.0-1.0","null","<p></p>","null","","","","","","","","","","","","","","","","","","",""
"","do_trial","208","664085","0.0-117.0-0.0","524.1000000000931","","","","49","0,0,0","1","city","66","probe-175","0.29576144225117323","0.10637577136401055","0.6286295430166756","0","","","","","","","",""
"","html-keyboard-response","209","665087","0.0-117.0-1.0","null","<p></p>","null","","","","","","","","","","","","","","","","","","",""
"","do_trial","210","670449","0.0-118.0-0.0","841.4000000001397","","","","50","0,0,0","1","city","67","probe-190","0.3108771117105772","0.17083808601451572","0.6347550386766406","0","","","","","","","",""
"","html-keyboard-response","211","671450","0.0-118.0-1.0","null","<p></p>","null","","","","","","","","","","","","","","","","","","",""
"","do_trial","212","676200","0.0-119.0-0.0","229.80000000004657","","","","51","0,0,1","1","city","68","probe-211","0.34082869781566444","0.17672846636236947","0.5746714859487676","1","","","","","","","",""
"","html-keyboard-response","213","677201","0.0-119.0-1.0","null","<p></p>","null","","","","","","","","","","","","","","","","","","",""
"","do_trial","214","682190","0.0-120.0-0.0","468","","","","51","1,0,0","1","city","69","probe-58","0.2527607935637574","0.2300123942585992","0.4866016344747566","0","","","","","","","",""
"","html-keyboard-response","215","683191","0.0-120.0-1.0","null","<p></p>","null","","","","","","","","","","","","","","","","","","",""
"","do_bye","216","684694","0.0-121.0-0.0","null","","","","null","","","","","","","","","","","","","","","","",""
"","do_travel","217","690696","0.0-122.0-0.0","null","","","","null","","","","","","","","","","","","","","","","",""
"","do_welcome","218","692199","0.0-122.0-1.0","null","","","","null","","","","","","","","","","","","","","","","",""
"","do_trial","219","697915","0.0-123.0-0.0","1196.1999999999534","","","","50","0,0,1","2","coast","70","probe-13","0.27600415943772244","0.1676460323294973","1","0","","","","","","","",""
"","html-keyboard-response","220","698916","0.0-123.0-1.0","null","<p></p>","null","","","","","","","","","","","","","","","","","","",""
"","do_trial","221","704291","0.0-124.0-0.0","854.5999999998603","","","","50","0,0,1","2","coast","71","probe-06","0.26939343741166755","0.0993829548338715","1","0","","","","","","","",""
"","html-keyboard-response","222","705292","0.0-124.0-1.0","null","<p></p>","null","","","","","","","","","","","","","","","","","","",""
"","do_trial","223","710135","0.0-125.0-0.0","322","","","","51","0,1,1","2","coast","72","probe-56","0.36165595343683926","0.06426185782693501","0.7798336593985349","1","","","","","","","",""
"","html-keyboard-response","224","711136","0.0-125.0-1.0","null","<p></p>","null","","","","","","","","","","","","","","","","","","",""
"","do_trial","225","715907","0.0-126.0-0.0","249.89999999990687","","","","51","0,1,1","2","coast","73","probe-37","0.40760048566015594","0.20172053995428482","0.7663337281715201","1","","","","","","","",""
"","html-keyboard-response","226","716908","0.0-126.0-1.0","null","<p></p>","null","","","","","","","","","","","","","","","","","","",""
"","do_trial","227","721624","0.0-127.0-0.0","194.4000000001397","","","","51","0,0,0","2","coast","74","probe-207","0.28514836396409093","0.08216235146369934","0.5303336666574665","0","","","","","","","",""
"","html-keyboard-response","228","722626","0.0-127.0-1.0","null","<p></p>","null","","","","","","","","","","","","","","","","","","",""
"","do_trial","229","727510","0.0-128.0-0.0","364.89999999990687","","","","51","1,0,1","2","coast","75","probe-24","0.44365661225914915","0.08207209622696823","0.6031185418517747","1","","","","","","","",""
"","html-keyboard-response","230","728511","0.0-128.0-1.0","null","<p></p>","null","","","","","","","","","","","","","","","","","","",""
"","do_trial","231","734023","0.0-129.0-0.0","991.3000000000466","","","","49","1,0,1","2","coast","76","probe-10","0.25568022609338914","0.25299451516794375","0.6869582544475574","1","","","","","","","",""
"","html-keyboard-response","232","735024","0.0-129.0-1.0","null","<p></p>","null","","","","","","","","","","","","","","","","","","",""
"","do_trial","233","739884","0.0-130.0-0.0","338.5","","","","49","0,0,0","2","coast","77","probe-47","0.18443778756215018","0.36780915629965394","0.6078578953776286","0","","","","","","","",""
"","html-keyboard-response","234","740885","0.0-130.0-1.0","null","<p></p>","null","","","","","","","","","","","","","","","","","","",""
"","do_trial","235","745759","0.0-131.0-0.0","353.60000000009313","","","","50","0,0,1","2","coast","78","probe-197","0.2745684761498931","0.17540141394837838","0.5744402959024332","0","","","","","","","",""
"","html-keyboard-response","236","746760","0.0-131.0-1.0","null","<p></p>","null","","","","","","","","","","","","","","","","","","",""
"","do_trial","237","751470","0.0-132.0-0.0","190","","","","49","0,0,0","2","coast","79","probe-81","0.28130859473454584","0.17312489700288722","0.5163930743099424","0","","","","","","","",""
"","html-keyboard-response","238","752471","0.0-132.0-1.0","null","<p></p>","null","","","","","","","","","","","","","","","","","","",""
"","do_trial","239","757429","0.0-133.0-0.0","437.5","","","","51","0,0,0","2","coast","80","probe-179","0.27506789243182544","0.27721445532061517","0.47672149671596836","0","","","","","","","",""
"","html-keyboard-response","240","758430","0.0-133.0-1.0","null","<p></p>","null","","","","","","","","","","","","","","","","","","",""
"","do_trial","241","763208","0.0-134.0-0.0","256.9000000001397","","","","49","1,0,0","2","coast","81","probe-146","0.2666664720115164","0.29073452092554464","0.39463210348977307","1","","","","","","","",""
"","html-keyboard-response","242","764209","0.0-134.0-1.0","null","<p></p>","null","","","","","","","","","","","","","","","","","","",""
"","do_trial","243","769263","0.0-135.0-0.0","534.8999999999069","","","","49","0,0,0","2","coast","82","probe-77","0.36257758330327355","0.36979173203378696","0.1825820883349254","0","","","","","","","",""
"","html-keyboard-response","244","770264","0.0-135.0-1.0","null","<p></p>","null","","","","","","","","","","","","","","","","","","",""
"","do_trial","245","774907","0.0-136.0-0.0","121.4000000001397","","","","51","1,1,0","2","coast","83","probe-223","0.4296764558152549","0.20465145250716318","0.31727865978085434","0","","","","","","","",""
"","html-keyboard-response","246","775908","0.0-136.0-1.0","null","<p></p>","null","","","","","","","","","","","","","","","","","","",""
"","do_trial","247","780773","0.0-137.0-0.0","345.10000000009313","","","","50","1,0,0","2","coast","84","probe-70","0.4249019257635073","0.3966538371975259","0.2069882245486896","0","","","","","","","",""
"","html-keyboard-response","248","781773","0.0-137.0-1.0","null","<p></p>","null","","","","","","","","","","","","","","","","","","",""
"","do_trial","249","786585","0.0-138.0-0.0","290.60000000009313","","","","49","1,1,0","2","coast","85","probe-215","0.5602435326586747","0.37257086373915954","0.2821413603077487","1","","","","","","","",""
"","html-keyboard-response","250","787586","0.0-138.0-1.0","null","<p></p>","null","","","","","","","","","","","","","","","","","","",""
"","do_trial","251","792369","0.0-139.0-0.0","262.60000000009313","","","","50","1,1,0","2","coast","86","probe-198","0.5348226109604495","0.38232012631792395","0.16616262376941238","1","","","","","","","",""
"","html-keyboard-response","252","793370","0.0-139.0-1.0","null","<p></p>","null","","","","","","","","","","","","","","","","","","",""
"","do_trial","253","798065","0.0-140.0-0.0","175.10000000009313","","","","49","1,0,0","2","coast","87","probe-53","0.5894350264541666","0.26085577267396093","0.15618287695589664","1","","","","","","","",""
"","html-keyboard-response","254","799066","0.0-140.0-1.0","null","<p></p>","null","","","","","","","","","","","","","","","","","","",""
"","do_trial","255","803779","0.0-141.0-0.0","193","","","","51","0,0,0","2","coast","88","probe-172","0.5794650523925645","0.20081312788021116","0.1278971768117546","0","","","","","","","",""
"","html-keyboard-response","256","804780","0.0-141.0-1.0","null","<p></p>","null","","","","","","","","","","","","","","","","","","",""
"","do_trial","257","810676","0.0-142.0-0.0","1375.7000000001863","","","","50","0,0,0","2","coast","89","probe-52","0.6229888012719083","0.2464208343717615","0.11642180070259812","0","","","","","","","",""
"","html-keyboard-response","258","811677","0.0-142.0-1.0","null","<p></p>","null","","","","","","","","","","","","","","","","","","",""
"","do_trial","259","816790","0.0-143.0-0.0","593.1999999999534","","","","50","1,0,1","2","coast","90","probe-206","0.7213720491481403","0.2966032416637414","0.27563596009742736","0","","","","","","","",""
"","html-keyboard-response","260","817791","0.0-143.0-1.0","null","<p></p>","null","","","","","","","","","","","","","","","","","","",""
"","do_trial","261","822572","0.0-144.0-0.0","260.69999999995343","","","","49","1,0,0","2","coast","91","probe-106","0.6631922751383442","0.39548707420589035","0.2996157409392128","1","","","","","","","",""
"","html-keyboard-response","262","823573","0.0-144.0-1.0","null","<p></p>","null","","","","","","","","","","","","","","","","","","",""
"","do_trial","263","828335","0.0-145.0-0.0","241.89999999990687","","","","51","1,0,1","2","coast","92","probe-99","0.6059954288548434","0.40183860315179304","0.11539299232697275","1","","","","","","","",""
"","html-keyboard-response","264","829336","0.0-145.0-1.0","null","<p></p>","null","","","","","","","","","","","","","","","","","","",""
"","do_trial","265","833856","0.0-146.0-0.0","0.09999999986030161","","","","50","1,0,0","2","coast","93","probe-46","0.5354735850459171","0.452720029338894","0.06902588694482044","0","","","","","","","",""
"","html-keyboard-response","266","834857","0.0-146.0-1.0","null","<p></p>","null","","","","","","","","","","","","","","","","","","",""
"","do_trial","267","839604","0.0-147.0-0.0","225.4000000001397","","","","51","0,1,0","2","coast","94","probe-79","0.5577266646222112","0.4226460690721642","0.16223105350578068","0","","","","","","","",""
"","html-keyboard-response","268","840604","0.0-147.0-1.0","null","<p></p>","null","","","","","","","","","","","","","","","","","","",""
"","do_trial","269","845651","0.0-148.0-0.0","526.1999999999534","","","","49","0,0,0","2","coast","95","probe-03","0.5378105599816095","0.4202798419876643","0.1293535974092952","0","","","","","","","",""
"","html-keyboard-response","270","846651","0.0-148.0-1.0","null","<p></p>","null","","","","","","","","","","","","","","","","","","",""
"","do_trial","271","851442","0.0-149.0-0.0","269.9000000001397","","","","51","0,0,0","2","coast","96","probe-136","0.5322054634471808","0.29671442366035017","0.07468518955787261","0","","","","","","","",""
"","html-keyboard-response","272","852443","0.0-149.0-1.0","null","<p></p>","null","","","","","","","","","","","","","","","","","","",""
"","do_trial","273","857621","0.0-150.0-0.0","657.1999999999534","","","","50","0,0,0","2","coast","97","probe-55","0.6894567604846481","0.2884783486756169","0.1810445382640294","0","","","","","","","",""
"","html-keyboard-response","274","858622","0.0-150.0-1.0","null","<p></p>","null","","","","","","","","","","","","","","","","","","",""
"","do_trial","275","863429","0.0-151.0-0.0","287.10000000009313","","","","49","0,0,0","2","coast","98","probe-64","0.6225434096980973","0.2753994443322005","0.08403905370077404","0","","","","","","","",""
"","html-keyboard-response","276","864429","0.0-151.0-1.0","null","<p></p>","null","","","","","","","","","","","","","","","","","","",""
"","do_trial","277","869206","0.0-152.0-0.0","255.9000000001397","","","","51","1,1,0","2","coast","99","probe-159","0.5827001930652331","0.4687478797217819","0.194568893030782","0","","","","","","","",""
"","html-keyboard-response","278","870207","0.0-152.0-1.0","null","<p></p>","null","","","","","","","","","","","","","","","","","","",""
"","do_trial","279","874965","0.0-153.0-0.0","237","","","","49","1,0,0","2","coast","100","probe-51","0.6406397658606349","0.48126005812666417","0.10841987973046965","1","","","","","","","",""
"","html-keyboard-response","280","875966","0.0-153.0-1.0","null","<p></p>","null","","","","","","","","","","","","","","","","","","",""
"","do_trial","281","880702","0.0-154.0-0.0","215.5","","","","51","0,1,0","2","coast","101","probe-120","0.6713398582676859","0.4479786557687411","0.1929430161140565","0","","","","","","","",""
"","html-keyboard-response","282","881703","0.0-154.0-1.0","null","<p></p>","null","","","","","","","","","","","","","","","","","","",""
"","do_trial","283","886500","0.0-155.0-0.0","276.89999999990687","","","","50","1,1,0","2","coast","102","probe-25","0.6368892594269645","0.3809044630980919","0.10522337029386153","1","","","","","","","",""
"","html-keyboard-response","284","887501","0.0-155.0-1.0","null","<p></p>","null","","","","","","","","","","","","","","","","","","",""
"","do_trial","285","892233","0.0-156.0-0.0","211.19999999995343","","","","49","1,0,0","2","coast","103","probe-230","0.8060618675536305","0.43625161926733286","0.08848547281205311","1","","","","","","","",""
"","html-keyboard-response","286","893234","0.0-156.0-1.0","null","<p></p>","null","","","","","","","","","","","","","","","","","","",""
"","do_trial","287","897767","0.0-157.0-0.0","11.699999999953434","","","","51","1,0,0","2","coast","104","probe-186","0.6939637430292948","0.18895517195260855","0.05599056100134202","0","","","","","","","",""
"","html-keyboard-response","288","898768","0.0-157.0-1.0","null","<p></p>","null","","","","","","","","","","","","","","","","","","",""
"","do_trial","289","904221","0.0-158.0-0.0","932.8999999999069","","","","50","1,0,0","2","coast","105","probe-153","0.692100913099792","0.2273767363354871","0.05666079103492769","0","","","","","","","",""
"","html-keyboard-response","290","905222","0.0-158.0-1.0","null","<p></p>","null","","","","","","","","","","","","","","","","","","",""
"","do_trial","291","909783","0.0-159.0-0.0","40.299999999813735","","","","49","1,0,0","2","coast","106","probe-228","0.6150404689944746","0.2910194969679707","0.13568119013818555","1","","","","","","","",""
"","html-keyboard-response","292","910784","0.0-159.0-1.0","null","<p></p>","null","","","","","","","","","","","","","","","","","","",""
"","do_trial","293","915561","0.0-160.0-0.0","256.89999999990687","","","","50","1,0,0","2","coast","107","probe-31","0.5744290446736503","0.37736156504869506","0.08738308731745718","0","","","","","","","",""
"","html-keyboard-response","294","916563","0.0-160.0-1.0","null","<p></p>","null","","","","","","","","","","","","","","","","","","",""
"","do_trial","295","921176","0.0-161.0-0.0","92.60000000009313","","","","51","1,0,0","2","coast","108","probe-191","0.5971785489323529","0.3742367725603355","0.1209064509743493","0","","","","","","","",""
"","html-keyboard-response","296","922177","0.0-161.0-1.0","null","<p></p>","null","","","","","","","","","","","","","","","","","","",""
"","do_trial","297","926917","0.0-162.0-0.0","219.39999999990687","","","","49","1,1,0","2","coast","109","probe-210","0.6488812509633383","0.27335391057945835","0.24898067468154594","1","","","","","","","",""
"","html-keyboard-response","298","927918","0.0-162.0-1.0","null","<p></p>","null","","","","","","","","","","","","","","","","","","",""
"","do_bye","299","929421","0.0-163.0-0.0","null","","","","null","","","","","","","","","","","","","","","","",""
"","do_travel","300","935422","0.0-164.0-0.0","null","","","","null","","","","","","","","","","","","","","","","",""
"","do_welcome","301","936925","0.0-164.0-1.0","null","","","","null","","","","","","","","","","","","","","","","",""
"","do_trial","302","942409","0.0-165.0-0.0","962.6999999999534","","","","50","1,0,0","3","highway","110","probe-216","1","0.32046582018492326","0.17608028484842755","0","","","","","","","",""
"","html-keyboard-response","303","943409","0.0-165.0-1.0","null","<p></p>","null","","","","","","","","","","","","","","","","","","",""
"","do_trial","304","948150","0.0-166.0-0.0","220.30000000004657","","","","50","1,0,0","3","highway","111","probe-02","1","0.3437321622733137","0.1660780815823953","0","","","","","","","",""
"","html-keyboard-response","305","949151","0.0-166.0-1.0","null","<p></p>","null","","","","","","","","","","","","","","","","","","",""
"","do_trial","306","953886","0.0-167.0-0.0","214.60000000009313","","","","49","1,1,0","3","highway","112","probe-202","0.8578177285545011","0.37729947130820635","0.24803049351939202","1","","","","","","","",""
"","html-keyboard-response","307","954887","0.0-167.0-1.0","null","<p></p>","null","","","","","","","","","","","","","","","","","","",""
"","do_trial","308","959587","0.0-168.0-0.0","179.39999999990687","","","","49","1,1,0","3","highway","113","probe-162","0.6412074866017082","0.22416444015388715","0.15704513824462052","1","","","","","","","",""
"","html-keyboard-response","309","960588","0.0-168.0-1.0","null","<p></p>","null","","","","","","","","","","","","","","","","","","",""
"","do_trial","310","966195","0.0-169.0-0.0","1085.3000000000466","","","","50","1,0,0","3","highway","114","probe-72","0.6670871078975479","0.18499141518568504","0.21879817158774745","0","","","","","","","",""
"","html-keyboard-response","311","967196","0.0-169.0-1.0","null","<p></p>","null","","","","","","","","","","","","","","","","","","",""
"","do_trial","312","971892","0.0-170.0-0.0","175.9000000001397","","","","49","1,0,0","3","highway","115","probe-121","0.5718812959618995","0.2726095823510337","0.15316551625308164","1","","","","","","","",""
"","html-keyboard-response","313","972892","0.0-170.0-1.0","null","<p></p>","null","","","","","","","","","","","","","","","","","","",""
"","do_trial","314","977643","0.0-171.0-0.0","230","","","","49","1,0,1","3","highway","116","probe-196","0.5108094370897953","0.22509250357910673","0.25095622203874407","1","","","","","","","",""
"","html-keyboard-response","315","978644","0.0-171.0-1.0","null","<p></p>","null","","","","","","","","","","","","","","","","","","",""
"","do_trial","316","983270","0.0-172.0-0.0","105.30000000004657","","","","49","1,1,0","3","highway","117","probe-181","0.7610322821357447","0.17558691310253394","0.0946791032925289","1","","","","","","","",""
"","html-keyboard-response","317","984271","0.0-172.0-1.0","null","<p></p>","null","","","","","","","","","","","","","","","","","","",""
"","do_trial","318","988941","0.0-173.0-0.0","149.20000000018626","","","","49","1,0,0","3","highway","118","probe-71","0.7572610781194418","0.19872184518013342","0.11573711645262551","1","","","","","","","",""
"","html-keyboard-response","319","989942","0.0-173.0-1.0","null","<p></p>","null","","","","","","","","","","","","","","","","","","",""
"","do_trial","320","994642","0.0-174.0-0.0","180.10000000009313","","","","49","1,0,0","3","highway","119","probe-66","0.7681786002547217","0.2414840637728694","0.14274792648831455","1","","","","","","","",""
"","html-keyboard-response","321","995643","0.0-174.0-1.0","null","<p></p>","null","","","","","","","","","","","","","","","","","","",""
"","do_trial","322","1001453","0.0-175.0-0.0","1289.1999999999534","","","","49","0,1,1","3","highway","120","probe-59","0.749160090960117","0.20055470561267946","0.13085248341236036","0","","","","","","","",""
"","html-keyboard-response","323","1002454","0.0-175.0-1.0","null","<p></p>","null","","","","","","","","","","","","","","","","","","",""
"","do_trial","324","1007820","0.0-176.0-0.0","846.1999999999534","","","","49","1,0,0","3","highway","121","probe-195","0.6439840356709015","0.13681186723040262","0.0698905457974713","1","","","","","","","",""
"","html-keyboard-response","325","1008821","0.0-176.0-1.0","null","<p></p>","null","","","","","","","","","","","","","","","","","","",""
"","do_trial","326","1013548","0.0-177.0-0.0","206.60000000009313","","","","49","0,0,0","3","highway","122","probe-101","0.39865431486497716","0.09059444680375275","0.21993055784905707","0","","","","","","","",""
"","html-keyboard-response","327","1014549","0.0-177.0-1.0","null","<p></p>","null","","","","","","","","","","","","","","","","","","",""
"","do_trial","328","1019216","0.0-178.0-0.0","146","","","","51","0,0,0","3","highway","123","probe-39","0.26030983825359977","0.17392304999153563","0.2012596667513961","0","","","","","","","",""
"","html-keyboard-response","329","1020217","0.0-178.0-1.0","null","<p></p>","null","","","","","","","","","","","","","","","","","","",""
"","do_trial","330","1024906","0.0-179.0-0.0","168.20000000018626","","","","49","1,0,1","3","highway","124","probe-151","0.19548231407563335","0.30205938254302156","0.4192092358048868","1","","","","","","","",""
"","html-keyboard-response","331","1025907","0.0-179.0-1.0","null","<p></p>","null","","","","","","","","","","","","","","","","","","",""
"","do_trial","332","1030599","0.0-180.0-0.0","171.9000000001397","","","","50","1,0,0","3","highway","125","probe-94","0.3119187362115457","0.3681605417147628","0.42423911421962857","0","","","","","","","",""
"","html-keyboard-response","333","1031600","0.0-180.0-1.0","null","<p></p>","null","","","","","","","","","","","","","","","","","","",""
"","do_trial","334","1036398","0.0-181.0-0.0","277.5","","","","49","0,1,1","3","highway","126","probe-212","0.05230866105165841","0.26679997051928506","0.5455736983917227","0","","","","","","","",""
"","html-keyboard-response","335","1037400","0.0-181.0-1.0","null","<p></p>","null","","","","","","","","","","","","","","","","","","",""
"","do_trial","336","1042311","0.0-182.0-0.0","391.0999999998603","","","","49","0,0,0","3","highway","127","probe-114","0.10127044433478524","0.21687197397438643","0.5181629096534467","0","","","","","","","",""
"","html-keyboard-response","337","1043312","0.0-182.0-1.0","null","<p></p>","null","","","","","","","","","","","","","","","","","","",""
"","do_trial","338","1048583","0.0-183.0-0.0","749.8999999999069","","","","49","0,0,1","3","highway","128","probe-60","0.14753186928105147","0.43306281546835823","0.6079113945724299","0","","","","","","","",""
"","html-keyboard-response","339","1049584","0.0-183.0-1.0","null","<p></p>","null","","","","","","","","","","","","","","","","","","",""
"","do_trial","340","1054424","0.0-184.0-0.0","320.19999999995343","","","","49","1,1,1","3","highway","129","probe-160","0.17450478184271628","0.4837642254579673","0.4665107655833727","1","","","","","","","",""
"","html-keyboard-response","341","1055425","0.0-184.0-1.0","null","<p></p>","null","","","","","","","","","","","","","","","","","","",""
"","do_trial","342","1059985","0.0-185.0-0.0","39","","","","49","0,0,1","3","highway","130","probe-115","0.27129680722970745","0.3610769352831161","0.5548081139578581","0","","","","","","","",""
"","html-keyboard-response","343","1060986","0.0-185.0-1.0","null","<p></p>","null","","","","","","","","","","","","","","","","","","",""
"","do_trial","344","1065662","0.0-186.0-0.0","156.10000000009313","","","","51","0,0,1","3","highway","131","probe-12","0.22071562738234568","0.3610940703993347","0.5560714886296204","1","","","","","","","",""
"","html-keyboard-response","345","1066663","0.0-186.0-1.0","null","<p></p>","null","","","","","","","","","","","","","","","","","","",""
"","do_trial","346","1071439","0.0-187.0-0.0","255.5999999998603","","","","51","0,0,1","3","highway","132","probe-113","0.20380851487813306","0.27852140152728405","0.4614843794889563","1","","","","","","","",""
"","html-keyboard-response","347","1072440","0.0-187.0-1.0","null","<p></p>","null","","","","","","","","","","","","","","","","","","",""
"","do_trial","348","1077872","0.0-188.0-0.0","910.7999999998137","","","","51","0,1,0","3","highway","133","probe-62","0.20683716597849308","0.12241400532168914","0.6274499936768184","0","","","","","","","",""
"","html-keyboard-response","349","1078873","0.0-188.0-1.0","null","<p></p>","null","","","","","","","","","","","","","","","","","","",""
"","do_trial","350","1083665","0.0-189.0-0.0","271.4000000001397","","","","49","0,0,1","3","highway","134","probe-208","0.16327107626953155","0.1823818547649489","0.6032079511277667","0","","","","","","","",""
"","html-keyboard-response","351","1084667","0.0-189.0-1.0","null","<p></p>","null","","","","","","","","","","","","","","","","","","",""
"","do_trial","352","1089487","0.0-190.0-0.0","299.69999999995343","","","","50","0,0,0","3","highway","135","probe-63","0.09646941802136699","0.27154859551252936","0.38272205195586295","0","","","","","","","",""
"","html-keyboard-response","353","1090487","0.0-190.0-1.0","null","<p></p>","null","","","","","","","","","","","","","","","","","","",""
"","do_trial","354","1095179","0.0-191.0-0.0","170.30000000004657","","","","49","0,0,1","3","highway","136","probe-224","0.14173385577072872","0.30633298712190615","0.5763533573879216","0","","","","","","","",""
"","html-keyboard-response","355","1096180","0.0-191.0-1.0","null","<p></p>","null","","","","","","","","","","","","","","","","","","",""
"","do_trial","356","1101062","0.0-192.0-0.0","361.5","","","","49","0,0,0","3","highway","137","probe-18","0.23451257222762933","0.21064134138999302","0.6451838482059378","0","","","","","","","",""
"","html-keyboard-response","357","1102063","0.0-192.0-1.0","null","<p></p>","null","","","","","","","","","","","","","","","","","","",""
"","do_trial","358","1106850","0.0-193.0-0.0","266.10000000009313","","","","49","1,0,0","3","highway","138","probe-04","0.2660721373870679","0.23196186499586932","0.6214796937279177","1","","","","","","","",""
"","html-keyboard-response","359","1107850","0.0-193.0-1.0","null","<p></p>","null","","","","","","","","","","","","","","","","","","",""
"","do_trial","360","1112604","0.0-194.0-0.0","233.30000000004657","","","","49","0,0,0","3","highway","139","probe-147","0.05899569201190517","0.3054784301301882","0.5988341938831249","0","","","","","","","",""
"","html-keyboard-response","361","1113605","0.0-194.0-1.0","null","<p></p>","null","","","","","","","","","","","","","","","","","","",""
"","do_trial","362","1118165","0.0-195.0-0.0","38.800000000046566","","","","51","0,1,0","3","highway","140","probe-22","0.06644887416080111","0.23311003254477514","0.7283948569353486","0","","","","","","","",""
"","html-keyboard-response","363","1119166","0.0-195.0-1.0","null","<p></p>","null","","","","","","","","","","","","","","","","","","",""
"","do_trial","364","1124106","0.0-196.0-0.0","419.30000000004657","","","","49","0,0,1","3","highway","141","probe-19","0.13874357718045105","0.21017816989646015","0.6740081125252221","0","","","","","","","",""
"","html-keyboard-response","365","1125107","0.0-196.0-1.0","null","<p></p>","null","","","","","","","","","","","","","","","","","","",""
"","do_trial","366","1130022","0.0-197.0-0.0","394.5","","","","49","0,0,1","3","highway","142","probe-168","0.06780777295356137","0.3627068785016712","0.6368206604825547","0","","","","","","","",""
"","html-keyboard-response","367","1131024","0.0-197.0-1.0","null","<p></p>","null","","","","","","","","","","","","","","","","","","",""
"","do_trial","368","1136351","0.0-198.0-0.0","807.3000000000466","","","","50","0,0,0","3","highway","143","probe-93","0.14930712949951028","0.42603184504591235","0.672141240372644","0","","","","","","","",""
"","html-keyboard-response","369","1137353","0.0-198.0-1.0","null","<p></p>","null","","","","","","","","","","","","","","","","","","",""
"","do_trial","370","1142043","0.0-199.0-0.0","169.89999999990687","","","","49","0,1,0","3","highway","144","probe-29","0.24043264014713817","0.5023731343085265","0.5155058792274637","0","","","","","","","",""
"","html-keyboard-response","371","1143044","0.0-199.0-1.0","null","<p></p>","null","","","","","","","","","","","","","","","","","","",""
"","do_trial","372","1147920","0.0-200.0-0.0","355","","","","49","0,0,0","3","highway","145","probe-42","0.06981212146405859","0.44682843692839314","0.6036973456714644","0","","","","","","","",""
"","html-keyboard-response","373","1148921","0.0-200.0-1.0","null","<p></p>","null","","","","","","","","","","","","","","","","","","",""
"","do_trial","374","1153771","0.0-201.0-0.0","328.39999999990687","","","","49","0,1,1","3","highway","146","probe-95","0.11501196186705587","0.39411464321079664","0.734969832202879","0","","","","","","","",""
"","html-keyboard-response","375","1154772","0.0-201.0-1.0","null","<p></p>","null","","","","","","","","","","","","","","","","","","",""
"","do_trial","376","1159482","0.0-202.0-0.0","189.5","","","","51","0,1,0","3","highway","147","probe-44","0.19742947192724977","0.3586032460530144","0.7943944325797219","0","","","","","","","",""
"","html-keyboard-response","377","1160483","0.0-202.0-1.0","null","<p></p>","null","","","","","","","","","","","","","","","","","","",""
"","do_trial","378","1165198","0.0-203.0-0.0","194.19999999995343","","","","50","0,1,0","3","highway","148","probe-125","0.18564591154641277","0.2899805217768443","0.5601067324309164","1","","","","","","","",""
"","html-keyboard-response","379","1166199","0.0-203.0-1.0","null","<p></p>","null","","","","","","","","","","","","","","","","","","",""
"","do_trial","380","1171537","0.0-204.0-0.0","817.3000000000466","","","","50","0,0,0","3","highway","149","probe-135","0.1819401153205287","0.05468085959441627","0.5661619543511813","0","","","","","","","",""
"","html-keyboard-response","381","1172538","0.0-204.0-1.0","null","<p></p>","null","","","","","","","","","","","","","","","","","","",""
"","do_bye","382","1174041","0.0-205.0-0.0","null","","","","null","","","","","","","","","","","","","","","","",""
"","do_travel","383","1180042","0.0-206.0-0.0","null","","","","null","","","","","","","","","","","","","","","","",""
"","do_welcome","384","1181544","0.0-206.0-1.0","null","","","","null","","","","","","","","","","","","","","","","",""
"","do_trial","385","1186908","0.0-207.0-0.0","843.8000000000466","","","","49","0,0,1","4","mountain","150","probe-189","0.22652133976218317","0.054639153457425975","1","0","","","","","","","",""
"","html-keyboard-response","386","1187908","0.0-207.0-1.0","null","<p></p>","null","","","","","","","","","","","","","","","","","","",""
"","do_trial","387","1192750","0.0-208.0-0.0","320.80000000004657","","","","50","1,0,1","4","mountain","151","probe-100","0.10853908975705662","0.20511020995789117","1","0","","","","","","","",""
"","html-keyboard-response","388","1193752","0.0-208.0-1.0","null","<p></p>","null","","","","","","","","","","","","","","","","","","",""
"","do_trial","389","1198666","0.0-209.0-0.0","394.5","","","","51","0,1,1","4","mountain","152","probe-54","0.11158536739259367","0.26239203532025007","0.7310115992618834","1","","","","","","","",""
"","html-keyboard-response","390","1199668","0.0-209.0-1.0","null","<p></p>","null","","","","","","","","","","","","","","","","","","",""
"","do_trial","391","1204388","0.0-210.0-0.0","200","","","","51","0,0,0","4","mountain","153","probe-65","0.08667686162465754","0.08031437703564998","0.6319561955853661","0","","","","","","","",""
"","html-keyboard-response","392","1205389","0.0-210.0-1.0","null","<p></p>","null","","","","","","","","","","","","","","","","","","",""
"","do_trial","393","1210614","0.0-211.0-0.0","703.6000000000931","","","","50","0,0,1","4","mountain","154","probe-205","0.1457354783987199","0.12041927742960247","0.5376998414431916","0","","","","","","","",""
"","html-keyboard-response","394","1211615","0.0-211.0-1.0","null","<p></p>","null","","","","","","","","","","","","","","","","","","",""
"","do_trial","395","1216393","0.0-212.0-0.0","257.4000000001397","","","","51","0,0,1","4","mountain","155","probe-97","0.09320268446340163","0.06506394580855386","0.6236558806053074","1","","","","","","","",""
"","html-keyboard-response","396","1217393","0.0-212.0-1.0","null","<p></p>","null","","","","","","","","","","","","","","","","","","",""
"","do_trial","397","1222802","0.0-213.0-0.0","888.3999999999069","","","","51","0,0,1","4","mountain","156","probe-141","0.12296208622822744","0.2408725801157557","0.6103571060402649","1","","","","","","","",""
"","html-keyboard-response","398","1223803","0.0-213.0-1.0","null","<p></p>","null","","","","","","","","","","","","","","","","","","",""
"","do_trial","399","1228342","0.0-214.0-0.0","18.5999999998603","","","","51","1,0,1","4","mountain","157","probe-148","0.13402584889120273","0.20935805350477324","0.567236455265597","1","","","","","","","",""
"","html-keyboard-response","400","1229343","0.0-214.0-1.0","null","<p></p>","null","","","","","","","","","","","","","","","","","","",""
"","do_trial","401","1234242","0.0-215.0-0.0","379.5","","","","51","0,0,1","4","mountain","158","probe-177","0.1755007271264202","0.2726782712927282","0.6715909816844112","1","","","","","","","",""
"","html-keyboard-response","402","1235243","0.0-215.0-1.0","null","<p></p>","null","","","","","","","","","","","","","","","","","","",""
"","do_trial","403","1239978","0.0-216.0-0.0","215","","","","51","0,0,1","4","mountain","159","probe-161","0.07311935631387312","0.25504502485471775","0.6840543655251398","1","","","","","","","",""
"","html-keyboard-response","404","1240980","0.0-216.0-1.0","null","<p></p>","null","","","","","","","","","","","","","","","","","","",""
"","do_trial","405","1245644","0.0-217.0-0.0","143","","","","51","0,1,1","4","mountain","160","probe-192","0.13294901663721992","0.26421691909189265","0.6957278470201271","1","","","","","","","",""
"","html-keyboard-response","406","1246645","0.0-217.0-1.0","null","<p></p>","null","","","","","","","","","","","","","","","","","","",""
"","do_trial","407","1251177","0.0-218.0-0.0","11.600000000093132","","","","51","0,0,1","4","mountain","161","probe-140","0.0888788322778329","0.17269779116878983","0.6600582870981773","1","","","","","","","",""
"","html-keyboard-response","408","1252179","0.0-218.0-1.0","null","<p></p>","null","","","","","","","","","","","","","","","","","","",""
"","do_trial","409","1257192","0.0-219.0-0.0","492.4000000001397","","","","51","1,1,0","4","mountain","162","probe-82","0.1610387462757682","0.5477700626735791","0.6220407643234571","0","","","","","","","",""
"","html-keyboard-response","410","1258193","0.0-219.0-1.0","null","<p></p>","null","","","","","","","","","","","","","","","","","","",""
"","do_trial","411","1262851","0.0-220.0-0.0","136.9000000001397","","","","51","0,1,0","4","mountain","163","probe-193","0.20127605112544608","0.6755685939315607","0.4909175545226386","0","","","","","","","",""
"","html-keyboard-response","412","1263852","0.0-220.0-1.0","null","<p></p>","null","","","","","","","","","","","","","","","","","","",""
"","do_trial","413","1269096","0.0-221.0-0.0","723.8000000000466","","","","49","1,1,0","4","mountain","164","probe-142","0.16213051591837965","0.5064859847075247","0.3379048148399659","1","","","","","","","",""
"","html-keyboard-response","414","1270097","0.0-221.0-1.0","null","<p></p>","null","","","","","","","","","","","","","","","","","","",""
"","do_trial","415","1274806","0.0-222.0-0.0","188.30000000004657","","","","49","0,0,0","4","mountain","165","probe-68","0.15691519770881307","0.49823686546873447","0.34940992567316076","0","","","","","","","",""
"","html-keyboard-response","416","1275807","0.0-222.0-1.0","null","<p></p>","null","","","","","","","","","","","","","","","","","","",""
"","do_trial","417","1280519","0.0-223.0-0.0","190.80000000004657","","","","50","0,1,0","4","mountain","166","probe-180","0.09337218108196846","0.655987179777198","0.3059728999249262","1","","","","","","","",""
"","html-keyboard-response","418","1281520","0.0-223.0-1.0","null","<p></p>","null","","","","","","","","","","","","","","","","","","",""
"","do_trial","419","1286219","0.0-224.0-0.0","179.19999999995343","","","","50","0,0,0","4","mountain","167","probe-156","0.07409806743445595","0.4366722725830762","0.2658204266789549","0","","","","","","","",""
"","html-keyboard-response","420","1287220","0.0-224.0-1.0","null","<p></p>","null","","","","","","","","","","","","","","","","","","",""
"","do_trial","421","1291971","0.0-225.0-0.0","230.80000000004657","","","","49","0,0,0","4","mountain","168","probe-138","0.06951701578980483","0.370335132369958","0.19325404817729078","0","","","","","","","",""
"","html-keyboard-response","422","1292972","0.0-225.0-1.0","null","<p></p>","null","","","","","","","","","","","","","","","","","","",""
"","do_trial","423","1297864","0.0-226.0-0.0","371.39999999990687","","","","50","0,1,0","4","mountain","169","probe-178","0.1043372997231845","0.4862252926279599","0.14035463644435883","1","","","","","","","",""
"","html-keyboard-response","424","1298865","0.0-226.0-1.0","null","<p></p>","null","","","","","","","","","","","","","","","","","","",""
"","do_trial","425","1303512","0.0-227.0-0.0","126.5999999998603","","","","50","0,1,0","4","mountain","170","probe-20","0.1622919757111775","0.6537623176756079","0.28404148807218804","1","","","","","","","",""
"","html-keyboard-response","426","1304513","0.0-227.0-1.0","null","<p></p>","null","","","","","","","","","","","","","","","","","","",""
"","do_trial","427","1309293","0.0-228.0-0.0","258.39999999990687","","","","50","0,0,0","4","mountain","171","probe-154","0.057493564350609656","0.5288735297056688","0.2944634120488886","0","","","","","","","",""
"","html-keyboard-response","428","1310294","0.0-228.0-1.0","null","<p></p>","null","","","","","","","","","","","","","","","","","","",""
"","do_trial","429","1315405","0.0-229.0-0.0","591","","","","50","0,0,1","4","mountain","172","probe-08","0.18582336812145311","0.6904985306843271","0.256791646683227","0","","","","","","","",""
"","html-keyboard-response","430","1316406","0.0-229.0-1.0","null","<p></p>","null","","","","","","","","","","","","","","","","","","",""
"","do_trial","431","1321069","0.0-230.0-0.0","142.30000000004657","","","","49","0,1,1","4","mountain","173","probe-164","0.20477356190098797","0.6625282357724036","0.1820099837569115","0","","","","","","","",""
"","html-keyboard-response","432","1322070","0.0-230.0-1.0","null","<p></p>","null","","","","","","","","","","","","","","","","","","",""
"","do_trial","433","1326845","0.0-231.0-0.0","254.89999999990687","","","","51","0,1,0","4","mountain","174","probe-15","0.20753277269965847","0.5796201739079525","0.17037178006808582","0","","","","","","","",""
"","html-keyboard-response","434","1327846","0.0-231.0-1.0","null","<p></p>","null","","","","","","","","","","","","","","","","","","",""
"","do_trial","435","1332658","0.0-232.0-0.0","291","","","","49","0,0,0","4","mountain","175","probe-91","0.14838448217235986","0.4816850128403445","0.32847319653565993","0","","","","","","","",""
"","html-keyboard-response","436","1333658","0.0-232.0-1.0","null","<p></p>","null","","","","","","","","","","","","","","","","","","",""
"","do_trial","437","1338438","0.0-233.0-0.0","258.5","","","","50","0,1,0","4","mountain","176","probe-103","0.0947744398099586","0.4351288781409515","0.3175338503162941","1","","","","","","","",""
"","html-keyboard-response","438","1339439","0.0-233.0-1.0","null","<p></p>","null","","","","","","","","","","","","","","","","","","",""
"","do_trial","439","1344247","0.0-234.0-0.0","287.30000000004657","","","","49","0,1,0","4","mountain","177","probe-163","0.08388744378596684","0.4694222495765301","0.2930649588105282","0","","","","","","","",""
"","html-keyboard-response","440","1345248","0.0-234.0-1.0","null","<p></p>","null","","","","","","","","","","","","","","","","","","",""
"","do_trial","441","1350086","0.0-235.0-0.0","317.39999999990687","","","","51","0,1,0","4","mountain","178","probe-176","0.2528519087014204","0.648711073493598","0.282055366397762","0","","","","","","","",""
"","html-keyboard-response","442","1351087","0.0-235.0-1.0","null","<p></p>","null","","","","","","","","","","","","","","","","","","",""
"","do_trial","443","1355889","0.0-236.0-0.0","281.39999999990687","","","","49","0,0,1","4","mountain","179","probe-17","0.059937507346726024","0.6464997498996955","0.22052308797409687","0","","","","","","","",""
"","html-keyboard-response","444","1356890","0.0-236.0-1.0","null","<p></p>","null","","","","","","","","","","","","","","","","","","",""
"","do_trial","445","1361654","0.0-237.0-0.0","243.19999999995343","","","","51","0,1,1","4","mountain","180","probe-173","0.07378410707712894","0.5390629895167406","0.2503045992795645","1","","","","","","","",""
"","html-keyboard-response","446","1362655","0.0-237.0-1.0","null","<p></p>","null","","","","","","","","","","","","","","","","","","",""
"","do_trial","447","1367950","0.0-238.0-0.0","775.1999999999534","","","","50","0,1,1","4","mountain","181","probe-112","0.3098503132610072","0.5320647257032592","0.246137195474968","1","","","","","","","",""
"","html-keyboard-response","448","1368951","0.0-238.0-1.0","null","<p></p>","null","","","","","","","","","","","","","","","","","","",""
"","do_trial","449","1373565","0.0-239.0-0.0","92.9000000001397","","","","49","1,0,1","4","mountain","182","probe-16","0.2523532194122907","0.581106624667928","0.45487673531085443","1","","","","","","","",""
"","html-keyboard-response","450","1374566","0.0-239.0-1.0","null","<p></p>","null","","","","","","","","","","","","","","","","","","",""
"","do_trial","451","1379231","0.0-240.0-0.0","144.5","","","","49","0,1,0","4","mountain","183","probe-133","0.22564634591500846","0.5794938449677656","0.32528683460006313","0","","","","","","","",""
"","html-keyboard-response","452","1380232","0.0-240.0-1.0","null","<p></p>","null","","","","","","","","","","","","","","","","","","",""
"","do_trial","453","1384761","0.0-241.0-0.0","8.5","","","","51","0,0,1","4","mountain","184","probe-43","0.1582530879996647","0.5593342956999972","0.3456915384870588","1","","","","","","","",""
"","html-keyboard-response","454","1385762","0.0-241.0-1.0","null","<p></p>","null","","","","","","","","","","","","","","","","","","",""
"","do_trial","455","1390492","0.0-242.0-0.0","209","","","","51","0,0,0","4","mountain","185","probe-203","0.09766330682874502","0.5976170360205768","0.24054433404299594","0","","","","","","","",""
"","html-keyboard-response","456","1391493","0.0-242.0-1.0","null","<p></p>","null","","","","","","","","","","","","","","","","","","",""
"","do_trial","457","1396291","0.0-243.0-0.0","277.30000000004657","","","","50","0,0,0","4","mountain","186","probe-78","0.1497731423710778","0.694761009400713","0.31889941209072115","0","","","","","","","",""
"","html-keyboard-response","458","1397293","0.0-243.0-1.0","null","<p></p>","null","","","","","","","","","","","","","","","","","","",""
"","do_trial","459","1402115","0.0-244.0-0.0","301.9000000001397","","","","49","0,0,0","4","mountain","187","probe-155","0.07476636973011423","0.6114852940826585","0.31620310096070037","0","","","","","","","",""
"","html-keyboard-response","460","1403116","0.0-244.0-1.0","null","<p></p>","null","","","","","","","","","","","","","","","","","","",""
"","do_trial","461","1407950","0.0-245.0-0.0","312.89999999990687","","","","51","0,1,0","4","mountain","188","probe-23","0.11030894083620525","0.7858846712307029","0.30031308846596283","0","","","","","","","",""
"","html-keyboard-response","462","1408951","0.0-245.0-1.0","null","<p></p>","null","","","","","","","","","","","","","","","","","","",""
"","do_trial","463","1413670","0.0-246.0-0.0","198.80000000004657","","","","49","0,1,0","4","mountain","189","probe-174","0.06269633798831509","0.7163173388361136","0.31462666500592473","0","","","","","","","",""
"","html-keyboard-response","464","1414671","0.0-246.0-1.0","null","<p></p>","null","","","","","","","","","","","","","","","","","","",""
"","do_bye","465","1416174","0.0-247.0-0.0","null","","","","null","","","","","","","","","","","","","","","","",""
"","do_travel","466","1422175","0.0-248.0-0.0","null","","","","null","","","","","","","","","","","","","","","","",""
"","do_welcome","467","1423678","0.0-248.0-1.0","null","","","","null","","","","","","","","","","","","","","","","",""
"","do_trial","468","1428932","0.0-249.0-0.0","733.8999999999069","","","","49","0,1,0","5","countryside","190","probe-149","0.17690096392578777","1","0.16632821231984984","0","","","","","","","",""
"","html-keyboard-response","469","1429932","0.0-249.0-1.0","null","<p></p>","null","","","","","","","","","","","","","","","","","","",""
"","do_trial","470","1434659","0.0-250.0-0.0","206.30000000004657","","","","51","0,1,0","5","countryside","191","probe-182","0.1863959702954221","1","0.17512704357191916","0","","","","","","","",""
"","html-keyboard-response","471","1435660","0.0-250.0-1.0","null","<p></p>","null","","","","","","","","","","","","","","","","","","",""
"","do_trial","472","1440744","0.0-251.0-0.0","564.6000000000931","","","","49","0,1,0","5","countryside","192","probe-05","0.06926127354588378","0.760018558575645","0.15870035327079282","0","","","","","","","",""
"","html-keyboard-response","473","1441745","0.0-251.0-1.0","null","<p></p>","null","","","","","","","","","","","","","","","","","","",""
"","do_trial","474","1446266","0.0-252.0-0.0","0","","","","50","0,1,0","5","countryside","193","probe-26","0.05105316065099084","0.7361365982055922","0.08637572941235773","1","","","","","","","",""
"","html-keyboard-response","475","1447267","0.0-252.0-1.0","null","<p></p>","null","","","","","","","","","","","","","","","","","","",""
"","do_trial","476","1451866","0.0-253.0-0.0","79.0999999998603","","","","50","0,1,1","5","countryside","194","probe-104","0.11639106422663557","0.7043823036339959","0.20970679669414719","1","","","","","","","",""
"","html-keyboard-response","477","1452868","0.0-253.0-1.0","null","<p></p>","null","","","","","","","","","","","","","","","","","","",""
"","do_trial","478","1457404","0.0-254.0-0.0","15.5","","","","50","0,1,0","5","countryside","195","probe-124","0.09785589616101961","0.5614859223317972","0.2954788192064534","1","","","","","","","",""
"","html-keyboard-response","479","1458405","0.0-254.0-1.0","null","<p></p>","null","","","","","","","","","","","","","","","","","","",""
"","do_trial","480","1463906","0.0-255.0-0.0","980.8000000000466","","","","50","0,1,1","5","countryside","196","probe-80","0.1679515253070076","0.4720020044474842","0.21939460180724454","1","","","","","","","",""
"","html-keyboard-response","481","1464907","0.0-255.0-1.0","null","<p></p>","null","","","","","","","","","","","","","","","","","","",""
"","do_trial","482","1469447","0.0-256.0-0.0","19.9000000001397","","","","50","0,1,1","5","countryside","197","probe-75","0.08149305886906744","0.45883642387152174","0.3005725277540704","1","","","","","","","",""
"","html-keyboard-response","483","1470448","0.0-256.0-1.0","null","<p></p>","null","","","","","","","","","","","","","","","","","","",""
"","do_trial","484","1475176","0.0-257.0-0.0","206.30000000004657","","","","51","0,1,0","5","countryside","198","probe-188","0.12570960937247516","0.6092113182142361","0.23970128037167265","0","","","","","","","",""
"","html-keyboard-response","485","1476177","0.0-257.0-1.0","null","<p></p>","null","","","","","","","","","","","","","","","","","","",""
"","do_trial","486","1480713","0.0-258.0-0.0","15.5","","","","50","0,1,0","5","countryside","199","probe-170","0.11811256686276644","0.7047164839591645","0.22226388102106118","1","","","","","","","",""
"","html-keyboard-response","487","1481714","0.0-258.0-1.0","null","<p></p>","null","","","","","","","","","","","","","","","","","","",""
"","do_trial","488","1486922","0.0-259.0-0.0","687","","","","50","0,1,0","5","countryside","200","probe-73","0.14764550321469525","0.796032340999133","0.2240450821223876","1","","","","","","","",""
"","html-keyboard-response","489","1487922","0.0-259.0-1.0","null","<p></p>","null","","","","","","","","","","","","","","","","","","",""
"","do_trial","490","1492678","0.0-260.0-0.0","234.69999999995343","","","","50","0,1,0","5","countryside","201","probe-167","0.09468404271115635","0.7140506731105352","0.22227296529460078","1","","","","","","","",""
"","html-keyboard-response","491","1493679","0.0-260.0-1.0","null","<p></p>","null","","","","","","","","","","","","","","","","","","",""
"","do_trial","492","1498289","0.0-261.0-0.0","89.60000000009313","","","","50","0,0,1","5","countryside","202","probe-67","0.13901939863137006","0.4251940640531442","0.29264899987386167","0","","","","","","","",""
"","html-keyboard-response","493","1499290","0.0-261.0-1.0","null","<p></p>","null","","","","","","","","","","","","","","","","","","",""
"","do_trial","494","1504075","0.0-262.0-0.0","264.60000000009313","","","","50","0,1,1","5","countryside","203","probe-74","0.2379153228455029","0.18768013552401294","0.3992607804296427","1","","","","","","","",""
"","html-keyboard-response","495","1505076","0.0-262.0-1.0","null","<p></p>","null","","","","","","","","","","","","","","","","","","",""
"","do_trial","496","1510267","0.0-263.0-0.0","669.8000000000466","","","","50","0,0,0","5","countryside","204","probe-144","0.3434748752382083","0.2783321823575944","0.5540692522654912","0","","","","","","","",""
"","html-keyboard-response","497","1511267","0.0-263.0-1.0","null","<p></p>","null","","","","","","","","","","","","","","","","","","",""
"","do_trial","498","1516455","0.0-264.0-0.0","667.5","","","","49","1,0,1","5","countryside","205","probe-221","0.3080309307422111","0.07575016793176392","0.6895525656532088","1","","","","","","","",""
"","html-keyboard-response","499","1517457","0.0-264.0-1.0","null","<p></p>","null","","","","","","","","","","","","","","","","","","",""
"","do_trial","500","1522264","0.0-265.0-0.0","287.20000000018626","","","","50","0,0,0","5","countryside","206","probe-165","0.3571033413903363","0.06867687280632248","0.6608972216790022","0","","","","","","","",""
"","html-keyboard-response","501","1523265","0.0-265.0-1.0","null","<p></p>","null","","","","","","","","","","","","","","","","","","",""
"","do_trial","502","1528151","0.0-266.0-0.0","365.60000000009313","","","","49","0,0,0","5","countryside","207","probe-218","0.26913894928051585","0.10725885636833875","0.6294859284546265","0","","","","","","","",""
"","html-keyboard-response","503","1529152","0.0-266.0-1.0","null","<p></p>","null","","","","","","","","","","","","","","","","","","",""
"","do_trial","504","1533863","0.0-267.0-0.0","190.10000000009313","","","","49","0,0,0","5","countryside","208","probe-134","0.3197986668982938","0.24737353671151355","0.6620319036257948","0","","","","","","","",""
"","html-keyboard-response","505","1534864","0.0-267.0-1.0","null","<p></p>","null","","","","","","","","","","","","","","","","","","",""
"","do_trial","506","1539964","0.0-268.0-0.0","579.6000000000931","","","","49","0,0,0","5","countryside","209","probe-14","0.28314938149590846","0.230865238496319","0.6568540518278906","0","","","","","","","",""
"","html-keyboard-response","507","1540966","0.0-268.0-1.0","null","<p></p>","null","","","","","","","","","","","","","","","","","","",""
"","do_trial","508","1545537","0.0-269.0-0.0","51.10000000009313","","","","51","1,1,1","5","countryside","210","probe-27","0.3473524317290786","0.07954190727320247","0.4878669259966539","1","","","","","","","",""
"","html-keyboard-response","509","1546538","0.0-269.0-1.0","null","<p></p>","null","","","","","","","","","","","","","","","","","","",""
"","do_trial","510","1551266","0.0-270.0-0.0","207.60000000009313","","","","51","0,1,1","5","countryside","211","probe-127","0.1923179849935685","0.08933831309161719","0.5346490613684106","1","","","","","","","",""
"","html-keyboard-response","511","1552267","0.0-270.0-1.0","null","<p></p>","null","","","","","","","","","","","","","","","","","","",""
"","do_trial","512","1557443","0.0-271.0-0.0","655.0999999998603","","","","51","1,0,1","5","countryside","212","probe-105","0.2511399015077016","0.10820077640603452","0.6759465835271626","1","","","","","","","",""
"","html-keyboard-response","513","1558444","0.0-271.0-1.0","null","<p></p>","null","","","","","","","","","","","","","","","","","","",""
"","do_trial","514","1563203","0.0-272.0-0.0","238.10000000009313","","","","49","0,0,0","5","countryside","213","probe-184","0.14820182201726856","0.25046462280025683","0.6832130698256653","0","","","","","","","",""
"","html-keyboard-response","515","1564204","0.0-272.0-1.0","null","<p></p>","null","","","","","","","","","","","","","","","","","","",""
"","do_trial","516","1568795","0.0-273.0-0.0","70.69999999995343","","","","51","0,1,1","5","countryside","214","probe-204","0.19757974219852414","0.26014550585468565","0.5893334715232191","1","","","","","","","",""
"","html-keyboard-response","517","1569796","0.0-273.0-1.0","null","<p></p>","null","","","","","","","","","","","","","","","","","","",""
"","do_trial","518","1574582","0.0-274.0-0.0","265","","","","51","0,0,1","5","countryside","215","probe-86","0.14973517014828505","0.20588009918878392","0.5842377789655329","1","","","","","","","",""
"","html-keyboard-response","519","1575582","0.0-274.0-1.0","null","<p></p>","null","","","","","","","","","","","","","","","","","","",""
"","do_trial","520","1580402","0.0-275.0-0.0","299.19999999995343","","","","51","0,1,0","5","countryside","216","probe-225","0.08431345695123563","0.1798820490183736","0.5869138566511142","0","","","","","","","",""
"","html-keyboard-response","521","1581403","0.0-275.0-1.0","null","<p></p>","null","","","","","","","","","","","","","","","","","","",""
"","do_trial","522","1586592","0.0-276.0-0.0","669.3000000000466","","","","50","0,1,1","5","countryside","217","probe-69","0.1338576568193121","0.12961657208111413","0.5179525623807542","1","","","","","","","",""
"","html-keyboard-response","523","1587594","0.0-276.0-1.0","null","<p></p>","null","","","","","","","","","","","","","","","","","","",""
"","do_trial","524","1592426","0.0-277.0-0.0","311.69999999995343","","","","50","0,0,0","5","countryside","218","probe-219","0.1783868594151625","0.05511486716638684","0.5853501099547529","0","","","","","","","",""
"","html-keyboard-response","525","1593427","0.0-277.0-1.0","null","<p></p>","null","","","","","","","","","","","","","","","","","","",""
"","do_trial","526","1598878","0.0-278.0-0.0","930.5","","","","49","0,0,0","5","countryside","219","probe-158","0.36892034678810104","0.12682411556635756","0.6404065337751231","0","","","","","","","",""
"","html-keyboard-response","527","1599879","0.0-278.0-1.0","null","<p></p>","null","","","","","","","","","","","","","","","","","","",""
"","do_trial","528","1604750","0.0-279.0-0.0","350.5","","","","51","1,1,0","5","countryside","220","probe-57","0.3202735031901598","0.20730664936074006","0.7295700746784989","0","","","","","","","",""
"","html-keyboard-response","529","1605752","0.0-279.0-1.0","null","<p></p>","null","","","","","","","","","","","","","","","","","","",""
"","do_trial","530","1610610","0.0-280.0-0.0","337.89999999990687","","","","50","1,0,0","5","countryside","221","probe-200","0.29034051245818115","0.23478297056716763","0.5456407486597157","0","","","","","","","",""
