"success","trial_type","trial_index","time_elapsed","internal_node_id","rt","stimulus","key_press","subject_id","response","choice_outcomes","context_n","context_img_id","trial_n","probe_img_id","pR_red","pR_white","pR_black","outcome","contextArray_ind","validImageProbes","invalidImageProbes","pRew_Red","pRew_White","pRew_Black","availableForMemProbe","choice_blocks"
"true","fullscreen","0","4892","0.0-0.0","","","","","","","","","","","","","","","","","","","","","",""
"","pavlovia","1","4899","0.0-1.0","","","","","","","","","","","","","","","","","","","","","",""
"","html-keyboard-response","2","22592","0.0-2.0","17692","<div class='center'><p>Welcome! This is the first day of the experiment which will last ~30 minutes. In this experiment, you are the head captain of a pirate ship traveling around the world to different places. You will complete several different tasks during this experiment. Here is an overview of these tasks:</p><br><p>Day 1</p><p>1. Tutorial and quiz</p><p>2. Pick a pirate game in 6 different places</p><br><p>Day 2</p><p>3. Pick a pirate game and memory game</p><p>4. Final questions and payment</p><br><p>If you complete the entire experiment, you will receive $15 and a possible bonus payment.</p><p><b>[Press the space bar to begin the tutorial]</b></p></div>","32","6175164ac6c2c351b70f22fe","","","","","","","","","","","","","","","","","",""
"","html-keyboard-response","3","32817","0.0-3.0","10224","<div class='center'><p>You’ll stop at these 6 islands on your journey. You'll be able to see them in the distance from your ship.</p><p><img src='run_exp/static/images/contexts/all_contexts.png' height='500'></p><p><b>[Press the space bar to continue]</b></p></div>","32","","","","","","","","","","","","","","","","","","",""
"","html-keyboard-response","4","48697","0.0-4.0","15879","<div class='center'><p> The pirates on your ship will rob other ships as they leave island</p> These ships have just sold their things to the people living on the island, so they will have lots and lots of gold on them.</p><p><img src='run_exp/static/images/tutorial/ship_center.png' height='400'></p><p><b>[Press the space bar to continue]</b></p></div>","32","","","","","","","","","","","","","","","","","","",""
"","html-keyboard-response","5","65054","0.0-5.0","16355.999999999985","<div class='center'><p>As the head captain, you do not have to rob any ships yourself.</p><p>Another pirate will be doing the robbing for you. </p><p><img src='run_exp/static/images/tutorial/pirates_all_crop.png' height='200'></p><p>If they could rob the ship, then you will get a stack of gold coins like this:</p><p><img src='run_exp/static/images/tutorial/reward.png' height='150'></p><p> If they couldn't rob the ship, then you will get no gold coins and you'll see a big red x like this: </p><p><img src='run_exp/static/images/tutorial/reward_no.png' height='150'></p><p> How much bonus money you make is based on how many gold coins you collect.</p><p><b>[Press the space bar to continue]</b></p><div>","32","","","","","","","","","","","","","","","","","","",""
"","html-keyboard-response","6","80573","0.0-6.0","15517","<div class='center'><p>Even the most skilled pirate can not rob EVERY ship.</p><p> Some ships will have very strong defenses against pirate attacks.</p><p> For example, blue beard, here, is very, very good at robbing ships.</p><p> You can press the <b>‘1’</b> button on the keyboard to choose him.</p><p> Try choosing him 10 times to see how often he can rob a ship. </p><p><img src='run_exp/static/images/tutorial/blue.png' height='500'></p></div>","49","","","","","","","","","","","","","","","","","","",""
"","html-keyboard-response","7","82076","0.0-7.0","null","<div class='center'><p><img src='run_exp/static/images/tutorial/blue_win.png' height='500'></p></div>","null","","","","","","","","","","","","","","","","","","",""
"","html-keyboard-response","8","83769","0.0-8.0","1688","<div class='center'><img src='run_exp/static/images/tutorial/blue.png' height='500'></p></div>","49","","","","","","","","","","","","","","","","","","",""
"","html-keyboard-response","9","85272","0.0-9.0","null","<div class='center'><p><img src='run_exp/static/images/tutorial/blue_win.png' height='500'></p></div>","null","","","","","","","","","","","","","","","","","","",""
"","html-keyboard-response","10","86235","0.0-10.0","960","<div class='center'><img src='run_exp/static/images/tutorial/blue.png' height='500'></p></div>","49","","","","","","","","","","","","","","","","","","",""
"","html-keyboard-response","11","87737","0.0-11.0","null","<div class='center'><p><img src='run_exp/static/images/tutorial/blue_win.png' height='500'></p></div>","null","","","","","","","","","","","","","","","","","","",""
"","html-keyboard-response","12","88093","0.0-12.0","353","<div class='center'><img src='run_exp/static/images/tutorial/blue.png' height='500'></p></div>","49","","","","","","","","","","","","","","","","","","",""
"","html-keyboard-response","13","89595","0.0-13.0","null","<div class='center'><p><img src='run_exp/static/images/tutorial/blue_no_win.png' height='500'></p></div>","null","","","","","","","","","","","","","","","","","","",""
"","html-keyboard-response","14","90307","0.0-14.0","711","<div class='center'><img src='run_exp/static/images/tutorial/blue.png' height='500'></p></div>","49","","","","","","","","","","","","","","","","","","",""
"","html-keyboard-response","15","91810","0.0-15.0","null","<div class='center'><p><img src='run_exp/static/images/tutorial/blue_win.png' height='500'></p></div>","null","","","","","","","","","","","","","","","","","","",""
"","html-keyboard-response","16","92706","0.0-16.0","893.9999999999709","<div class='center'><img src='run_exp/static/images/tutorial/blue.png' height='500'></p></div>","49","","","","","","","","","","","","","","","","","","",""
"","html-keyboard-response","17","94209","0.0-17.0","null","<div class='center'><p><img src='run_exp/static/images/tutorial/blue_win.png' height='500'></p></div>","null","","","","","","","","","","","","","","","","","","",""
"","html-keyboard-response","18","95028","0.0-18.0","817","<div class='center'><img src='run_exp/static/images/tutorial/blue.png' height='500'></p></div>","49","","","","","","","","","","","","","","","","","","",""
"","html-keyboard-response","19","96531","0.0-19.0","null","<div class='center'><p><img src='run_exp/static/images/tutorial/blue_win.png' height='500'></p></div>","null","","","","","","","","","","","","","","","","","","",""
"","html-keyboard-response","20","97321","0.0-20.0","788.9999999999709","<div class='center'><img src='run_exp/static/images/tutorial/blue.png' height='500'></p></div>","49","","","","","","","","","","","","","","","","","","",""
"","html-keyboard-response","21","98824","0.0-21.0","null","<div class='center'><p><img src='run_exp/static/images/tutorial/blue_no_win.png' height='500'></p></div>","null","","","","","","","","","","","","","","","","","","",""
"","html-keyboard-response","22","99186","0.0-22.0","360","<div class='center'><img src='run_exp/static/images/tutorial/blue.png' height='500'></p></div>","49","","","","","","","","","","","","","","","","","","",""
"","html-keyboard-response","23","100689","0.0-23.0","null","<div class='center'><p><img src='run_exp/static/images/tutorial/blue_win.png' height='500'></p></div>","null","","","","","","","","","","","","","","","","","","",""
"","html-keyboard-response","24","100816","0.0-24.0","125","<div class='center'><img src='run_exp/static/images/tutorial/blue.png' height='500'></p></div>","49","","","","","","","","","","","","","","","","","","",""
"","html-keyboard-response","25","102318","0.0-25.0","null","<div class='center'><p><img src='run_exp/static/images/tutorial/blue_win.png' height='500'></p></div>","null","","","","","","","","","","","","","","","","","","",""
"","html-keyboard-response","26","104939","0.0-26.0","2619","<div class='center'><p> See, he could rob the ships most of the time but not every time. </p><p><b>[Press the space bar to continue]</b></p></div>","32","","","","","","","","","","","","","","","","","","",""
"","html-keyboard-response","27","114338","0.0-27.0","9398","<div class='center'><p>You will get to choose which of three pirates you want to rob the next ship. <p>Press the <b>‘1’</b> button on your keyboard to pick the pirate with the red beard.</p><p> Press <b>‘2’</b> to pick the pirate with the white beard.</p><p> Press <b>‘3’</b> to pick the pirate with the black beard.</p><p>Try picking a pirate now!</p><p><img src='run_exp/static/images/tutorial/all_pirates.png' height='500'></p></div>","50","","","","","","","","","","","","","","","","","","",""
"","html-keyboard-response","28","116056","0.0-28.0-0.0","1714.000000000029","<div class='center'><p>This pirate could rob the ship!</p><p><img src='run_exp/static/images/tutorial/white_win.png' height='500'></p><p><b>[Press the space bar to continue]</b></p></div>","32","","","","","","","","","","","","","","","","","","",""
"","html-keyboard-response","29","116833","0.0-28.0-1.0","775","<div class='center'><p>Now try choosing another</p><p><img src='run_exp/static/images/tutorial/all_pirates.png' height='500'></p></div>","51","","","","","","","","","","","","","","","","","","",""
"","html-keyboard-response","30","117768","0.0-29.0-0.0","931","<div class='center'><p>This pirate could not rob the ship!</p><p><img src='run_exp/static/images/tutorial/black_no_win.png' height='500'></p><p><b>[Press the space bar to continue]</b></p></div>","32","","","","","","","","","","","","","","","","","","",""
"","html-keyboard-response","31","128381","0.0-30.0-0.0","10611.99999999997","<div class='center'><p>If you don’t make your choice fast enough, you’ll have to wait a few seconds before you can make another one. </p><p>You can’t collect more gold coins. You just have to sit and wait.</p><p><img src='run_exp/static/images/miscellaneous/hurry_up.png' height='500'></p><p><b>[Press the space bar to continue]</b></p></div>","32","","","","","","","","","","","","","","","","","","",""
"","html-keyboard-response","32","164248","0.0-30.0-1.0","35866","<div class='center'><p>Once you choose a pirate, you’ll be shown the ship they are robbing.</p><p>You will never rob the same ship twice.</p><p>Ships can be told apart from one another by the image on them.</p><p> Every time you see a ship, you will have to remember on which island you saw it.</p><p> Remembering correctly will help you win more bonus money!</p><p>A helpful strategy is to try to come up with a story of the object on the ship interacting with the current island scene.</p><p> For example, here, you could imagine a mug full of water in the desert. </p><p>For a ship with an apple on it on the forest island, you could imagine an apple falling from a tree in the forest.</p><p><img src='run_exp/static/images/tutorial/example_probe.png' height='500'></p><p><b>[Press the space bar to continue]</b></p></div>","32","","","","","","","","","","","","","","","","","","",""
"","html-keyboard-response","33","172901","0.0-30.0-2.0","8652","<div class='center'><p>How good a pirate is at robbing ships will depend on the current island.</p><p> A pirate may have visited the island many times before and gained a lot of practice robbing ships there.</p><p>So, they're more likely to bring back gold coins than a pirate who has never visited this island before. </p><p><b>[Press the space bar to continue]</b></p></div>","32","","","","","","","","","","","","","","","","","","",""
"","html-keyboard-response","34","190904","0.0-30.0-3.0","18001.00000000003","<div class='center'><p>How good a pirate is at robbing ships can also change over the time spent on the island<p> Ships may hear from islanders about the pirates coming and will improve their protection against the attack. This may make it harder to rob them.</p><p> Ships may also become lazy and lower their protection. This may make it easier to rob them.</p><br><p>Things are always changing on the high seas! So, try your best to pay attention!</p><p><img src='run_exp/static/images/tutorial/contingency.png' height='500'></p><p><b>[Press the space bar to continue]</b></p></div>","32","","","","","","","","","","","","","","","","","","",""
"","html-keyboard-response","35","227749","0.0-30.0-4.0","36844","<div class='center'><p>Let's go over the instructions quickly again.You have two important things to do: </p><b><p> 1. Pick the pirate who is the best at robbing ships on the current island.</p></b><b><p> 2. Remember on which island a ship was robbed.</p> </b><p>How much bonus money you make is based on both. </p><br><p>Let’s try a practice game. The game will start by showing you the pirates. First pick a pirate using the <b> 1, 2, 3 </b> buttons on your keyboard. When you are shown a ship, try to remember the island you’re on by making up a story.</p><p> You only have 3 seconds to pick a pirate, so please make a choice quickly! If you are too slow, you’ll have to wait a bit during the time out.</p><p> Don’t feel rushed, but please do try to make a choice every time.</p><p>This is just a practice game, so you’re not playing for money. </p><p> Good luck, remember press <b>'1'</b> to choose red beard, <b>'2'</b> to choose white beard, and <b>'3'</b> to choose black beard</p><p><b>[Press the space bar to begin the practice game]</b></p></div>","32","","","","","","","","","","","","","","","","","","",""
"","do_welcome","36","229257","0.0-30.0-5.0","null","","","","null","","","","","","","","","","","","","","","","",""
"","do_trial","37","234606","0.0-30.0-6.0","835","","","","51","1,0,0","","","","","","","","","","","","","","","",""
"","html-keyboard-response","38","235609","0.0-31.0-0.0","null","<p></p>","null","","","","","","","","","","","","","","","","","","",""
"","do_trial","39","240841","0.0-31.0-1.0","719","","","","50","1,1,0","","","","","","","","","","","","","","","",""
"","html-keyboard-response","40","241844","0.0-32.0-0.0","null","<p></p>","null","","","","","","","","","","","","","","","","","","",""
"","do_trial","41","246775","0.0-32.0-1.0","418","","","","49","1,0,1","","","","","","","","","","","","","","","",""
"","html-keyboard-response","42","247778","0.0-33.0-0.0","null","<p></p>","null","","","","","","","","","","","","","","","","","","",""
"","do_trial","43","253677","0.0-33.0-1.0","1387","","","","51","0,1,0","","","","","","","","","","","","","","","",""
"","html-keyboard-response","44","254680","0.0-34.0-0.0","null","<p></p>","null","","","","","","","","","","","","","","","","","","",""
"","do_trial","45","259615","0.0-34.0-1.0","425","","","","49","1,0,0","","","","","","","","","","","","","","","",""
"","do_bye","46","261124","0.0-35.0-0.0","null","","","","null","","","","","","","","","","","","","","","","",""
"","do_travel","47","267129","0.0-35.0-1.0","null","","","","null","","","","","","","","","","","","","","","","",""
"","do_welcome","48","268639","0.0-35.0-2.0","null","","","","null","","","","","","","","","","","","","","","","",""
"","do_trial","49","273964","0.0-35.0-3.0","813.9999999999418","","","","50","1,0,0","","","","","","","","","","","","","","","",""
"","html-keyboard-response","50","274967","0.0-36.0-0.0","null","<p></p>","null","","","","","","","","","","","","","","","","","","",""
"","do_trial","51","279756","0.0-36.0-1.0","275","","","","51","1,0,1","","","","","","","","","","","","","","","",""
"","html-keyboard-response","52","280759","0.0-37.0-0.0","null","<p></p>","null","","","","","","","","","","","","","","","","","","",""
"","do_trial","53","285654","0.0-37.0-1.0","384","","","","49","1,1,0","","","","","","","","","","","","","","","",""
"","html-keyboard-response","54","286657","0.0-38.0-0.0","null","<p></p>","null","","","","","","","","","","","","","","","","","","",""
"","do_trial","55","291873","0.0-38.0-1.0","704","","","","50","0,0,1","","","","","","","","","","","","","","","",""
"","html-keyboard-response","56","292876","0.0-39.0-0.0","null","<p></p>","null","","","","","","","","","","","","","","","","","","",""
"","do_trial","57","297901","0.0-39.0-1.0","513","","","","49","1,0,1","","","","","","","","","","","","","","","",""
"","html-keyboard-response","58","303803","0.0-40.0-0.0","5900.000000000058","<div class='center'><p><img src='run_exp/static/images/tutorial/prac_best_pirate.png'  height='500'></p></div>","49","","","","","","","","","","","","","","","","","","",""
"","html-keyboard-response","59","306074","0.0-41.0-0.0","2268","<div class='center'><p>That's correct! Red beard was the best.</p><p><b>[Press the space bar to continue]</b></p></div>","32","","","","","","","","","","","","","","","","","","",""
"","html-keyboard-response","60","310291","0.0-41.0-1.0","4215.000000000058","<div class='center'><p><img src='run_exp/static/images/tutorial/prac_source.png'  height='500'></p></div>","50","","","","","","","","","","","","","","","","","","",""
"","html-keyboard-response","61","311703","0.0-42.0-0.0","1409","<div class='center'><p>That's correct! You saw this ship on the cavern island.</p><p><b>[Press the space bar to continue]</b></p></div>","32","","","","","","","","","","","","","","","","","","",""
"","html-keyboard-response","62","318289","0.0-42.0-1.0","6585","<div class='center'><p>Good job on the practice game! Now, you will be asked you some true or false questions to make sure you really understand the rules of the game.</p><p> Press <b>'1'</b> on the keyboard for true and press <b>'2'</b> for false.</p><p><b>[Press the space bar to begin the quiz]</b></p></div>","32","","","","","","","","","","","","","","","","","","",""
"","html-keyboard-response","63","324635","0.0-42.0-2.0","6344","<div class='center'><p>You win bonus money by making choices as fast as possible.</p><p>Press 1 for true and press  2 for false.</p></div>","50","","","","","","","","","","","","","","","","","","",""
"","html-keyboard-response","64","326014","0.0-43.0-0.0","1375","<div class='center'><p>That's correct!</p> <p><b>[press the space bar to continue with the quiz]</b></p></div>","32","","","","","","","","","","","","","","","","","","",""
"","html-keyboard-response","65","332122","0.0-43.0-1.0","6107","<div class='center'><p>You press the <b>‘3’</b> button on the keyboard to choose the red bearded pirate. </p><p>Press 1 for true and press  2 for false.</p></div>","50","","","","","","","","","","","","","","","","","","",""
"","html-keyboard-response","66","332705","0.0-44.0-0.0","580","<div class='center'><p>That's correct!</p> <p><b>[press the space bar to continue with the quiz]</b></p></div>","32","","","","","","","","","","","","","","","","","","",""
"","html-keyboard-response","67","337998","0.0-44.0-1.0","5291.999999999942","<div class='center'><p>The pirate who is the best at robbing ships on the first island will be the best on every other island.</p><p>Press 1 for true and press  2 for false.</p></div>","50","","","","","","","","","","","","","","","","","","",""
"","html-keyboard-response","68","338531","0.0-45.0-0.0","531","<div class='center'><p>That's correct!</p> <p><b>[press the space bar to continue with the quiz]</b></p></div>","32","","","","","","","","","","","","","","","","","","",""
"","html-keyboard-response","69","341358","0.0-45.0-1.0","2824.999999999942","<div class='center'><p>You should remember the island where a pirate robbed a ship.</p><p>Press 1 for true and press  2 for false.</p></div>","49","","","","","","","","","","","","","","","","","","",""
"","html-keyboard-response","70","341882","0.0-46.0-0.0","513.9999999999418","<div class='center'><p>That's correct!</p> <p><b>[press the space bar to continue with the quiz]</b></p></div>","32","","","","","","","","","","","","","","","","","","",""
"","html-keyboard-response","71","343658","0.0-47.0-0.0","1775.0000000000582","<div class='center'><p>Good job! You’re now ready to move on to the real game!</p> <p><br>[press the space bar to begin!]</br></p></div>","32","","","","","","","","","","","","","","","","","","",""
"","do_welcome","72","345169","0.0-48.0-0.0","null","","","","null","","","","","","","","","","","","","","","","",""
"","do_trial","73","350602","0.0-49.0-0.0","877","","","","50","1,0,0","0","countryside","0","probe-01","0.6","0.3","0.1","0","","","","","","","",""
"","html-keyboard-response","74","351606","0.0-49.0-1.0","null","<p></p>","null","","","","","","","","","","","","","","","","","","",""
"","do_trial","75","356540","0.0-50.0-0.0","388","","","","49","1,1,0","0","countryside","1","probe-39","0.6066728713826443","0.38567403716407933","0.051963855976573166","1","","","","","","","",""
"","html-keyboard-response","76","357543","0.0-50.0-1.0","null","<p></p>","null","","","","","","","","","","","","","","","","","","",""
"","do_trial","77","362755","0.0-51.0-0.0","657.0000000000582","","","","51","0,0,1","0","countryside","2","probe-90","0.5485025197062948","0.3244839361958245","0.08726770144799875","1","","","","","","","",""
"","html-keyboard-response","78","363758","0.0-51.0-1.0","null","<p></p>","null","","","","","","","","","","","","","","","","","","",""
"","do_trial","79","368795","0.0-52.0-0.0","491","","","","49","0,0,0","0","countryside","3","probe-132","0.6102275880845845","0.25841736783351654","0.07686484933096745","0","","","","","","","",""
"","html-keyboard-response","80","369798","0.0-52.0-1.0","null","<p></p>","null","","","","","","","","","","","","","","","","","","",""
"","do_trial","81","374652","0.0-53.0-0.0","307.9999999999418","","","","51","0,0,0","0","countryside","4","probe-20","0.6003923213417144","0.2534423108494555","0.08245903194340709","0","","","","","","","",""
"","html-keyboard-response","82","375655","0.0-53.0-1.0","null","<p></p>","null","","","","","","","","","","","","","","","","","","",""
"","do_trial","83","380835","0.0-54.0-0.0","636","","","","49","1,1,0","0","countryside","5","probe-45","0.6906124277502109","0.2762591487822114","0.07989957329098114","1","","","","","","","",""
"","html-keyboard-response","84","381839","0.0-54.0-1.0","null","<p></p>","null","","","","","","","","","","","","","","","","","","",""
"","do_trial","85","386791","0.0-55.0-0.0","407","","","","49","0,0,0","0","countryside","6","probe-128","0.5656001926650037","0.4495726467526495","0.07943974465054922","0","","","","","","","",""
"","html-keyboard-response","86","387795","0.0-55.0-1.0","null","<p></p>","null","","","","","","","","","","","","","","","","","","",""
"","do_trial","87","392549","0.0-56.0-0.0","209","","","","50","1,1,0","0","countryside","7","probe-218","0.5584227811783484","0.33859646986250785","0.11584246464365273","1","","","","","","","",""
"","html-keyboard-response","88","393552","0.0-56.0-1.0","null","<p></p>","null","","","","","","","","","","","","","","","","","","",""
"","do_trial","89","398113","0.0-57.0-0.0","8.999999999941792","","","","50","1,1,0","0","countryside","8","probe-88","0.5941949809085945","0.4075338363387765","0.1608281771581119","1","","","","","","","",""
"","html-keyboard-response","90","399117","0.0-57.0-1.0","null","<p></p>","null","","","","","","","","","","","","","","","","","","",""
"","do_trial","91","404305","0.0-58.0-0.0","634.9999999999418","","","","50","1,0,0","0","countryside","9","probe-77","0.667766467288242","0.36100349511787533","0.12775770339658946","0","","","","","","","",""
"","html-keyboard-response","92","405308","0.0-58.0-1.0","null","<p></p>","null","","","","","","","","","","","","","","","","","","",""
"","do_trial","93","410024","0.0-59.0-0.0","172","","","","51","0,1,1","0","countryside","10","probe-57","0.7033381046637718","0.344300478612083","0.09815680138328978","1","","","","","","","",""
"","html-keyboard-response","94","411028","0.0-59.0-1.0","null","<p></p>","null","","","","","","","","","","","","","","","","","","",""
"","do_trial","95","416423","0.0-60.0-0.0","842","","","","51","1,0,0","0","countryside","11","probe-35","0.7568787615072989","0.17873621934342773","0.15230789446297419","0","","","","","","","",""
"","html-keyboard-response","96","417427","0.0-60.0-1.0","null","<p></p>","null","","","","","","","","","","","","","","","","","","",""
"","do_trial","97","422445","0.0-61.0-0.0","472","","","","49","1,0,0","0","countryside","12","probe-58","0.6906677363344541","0.22895994739093234","0.13872688866375532","1","","","","","","","",""
"","html-keyboard-response","98","423448","0.0-61.0-1.0","null","<p></p>","null","","","","","","","","","","","","","","","","","","",""
"","do_trial","99","428995","0.0-62.0-0.0","1001","","","","49","1,0,0","0","countryside","13","probe-227","0.6596828490003476","0.14818187544318945","0.18590227830875608","1","","","","","","","",""
"","html-keyboard-response","100","429999","0.0-62.0-1.0","null","<p></p>","null","","","","","","","","","","","","","","","","","","",""
"","do_trial","101","434859","0.0-63.0-0.0","314","","","","49","0,1,0","0","countryside","14","probe-83","0.6295687721661549","0.2583426601627062","0.15786127422581783","0","","","","","","","",""
"","html-keyboard-response","102","435862","0.0-63.0-1.0","null","<p></p>","null","","","","","","","","","","","","","","","","","","",""
"","do_trial","103","440779","0.0-64.0-0.0","351","","","","49","1,0,0","0","countryside","15","probe-26","0.7227081444556022","0.4801841680118932","0.09076240299015552","1","","","","","","","",""
"","html-keyboard-response","104","441783","0.0-64.0-1.0","null","<p></p>","null","","","","","","","","","","","","","","","","","","",""
"","do_trial","105","446544","0.0-65.0-0.0","202.9999999999418","","","","49","1,0,0","0","countryside","16","probe-203","0.7032984448592171","0.3704269965806571","0.10611587160119276","1","","","","","","","",""
"","html-keyboard-response","106","447548","0.0-65.0-1.0","null","<p></p>","null","","","","","","","","","","","","","","","","","","",""
"","do_trial","107","452508","0.0-66.0-0.0","415","","","","49","0,0,1","0","countryside","17","probe-51","0.6927951151623529","0.36965729093957017","0.2564641904223229","0","","","","","","","",""
"","html-keyboard-response","108","453512","0.0-66.0-1.0","null","<p></p>","null","","","","","","","","","","","","","","","","","","",""
"","do_trial","109","458893","0.0-67.0-0.0","836","","","","51","1,1,0","0","countryside","18","probe-70","0.6898324601834235","0.30032471419556617","0.1336392647272616","0","","","","","","","",""
"","html-keyboard-response","110","459897","0.0-67.0-1.0","null","<p></p>","null","","","","","","","","","","","","","","","","","","",""
"","do_trial","111","464457","0.0-68.0-0.0","0.9999999999417923","","","","50","0,1,0","0","countryside","19","probe-81","0.7295270430880723","0.3433321705014096","0.12575985620999286","1","","","","","","","",""
"","html-keyboard-response","112","465460","0.0-68.0-1.0","null","<p></p>","null","","","","","","","","","","","","","","","","","","",""
"","do_trial","113","470194","0.0-69.0-0.0","187","","","","50","1,0,0","0","countryside","20","probe-84","0.699368355123902","0.3338891640947164","0.20818221749281848","0","","","","","","","",""
"","html-keyboard-response","114","471197","0.0-69.0-1.0","null","<p></p>","null","","","","","","","","","","","","","","","","","","",""
"","do_trial","115","476041","0.0-70.0-0.0","290","","","","50","1,0,0","0","countryside","21","probe-13","0.715688384342492","0.35690221613206646","0.15147527420193313","0","","","","","","","",""
"","html-keyboard-response","116","477045","0.0-70.0-1.0","null","<p></p>","null","","","","","","","","","","","","","","","","","","",""
"","do_trial","117","481746","0.0-71.0-0.0","146","","","","51","0,1,0","0","countryside","22","probe-24","0.7000627599150222","0.5113490520548136","0.1405370045258453","0","","","","","","","",""
"","html-keyboard-response","118","482749","0.0-71.0-1.0","null","<p></p>","null","","","","","","","","","","","","","","","","","","",""
"","do_trial","119","487461","0.0-72.0-0.0","154","","","","49","0,1,0","0","countryside","23","probe-169","0.6003939281015845","0.45579444779632894","0.1939617730472439","0","","","","","","","",""
"","html-keyboard-response","120","488464","0.0-72.0-1.0","null","<p></p>","null","","","","","","","","","","","","","","","","","","",""
"","do_trial","121","493061","0.0-73.0-0.0","53","","","","49","0,0,0","0","countryside","24","probe-102","0.4278561302275237","0.3473858095771095","0.07835371310407202","0","","","","","","","",""
"","html-keyboard-response","122","494065","0.0-73.0-1.0","null","<p></p>","null","","","","","","","","","","","","","","","","","","",""
"","do_trial","123","499022","0.0-74.0-0.0","410","","","","49","1,0,0","0","countryside","25","probe-188","0.37143212977914714","0.29566693339140615","0.06278205428039035","1","","","","","","","",""
"","html-keyboard-response","124","500028","0.0-74.0-1.0","null","<p></p>","null","","","","","","","","","","","","","","","","","","",""
"","do_trial","125","504679","0.0-75.0-0.0","85","","","","49","1,0,0","0","countryside","26","probe-182","0.5094951221686137","0.18847903521426357","0.14409085410885297","1","","","","","","","",""
"","html-keyboard-response","126","505682","0.0-75.0-1.0","null","<p></p>","null","","","","","","","","","","","","","","","","","","",""
"","do_trial","127","510301","0.0-76.0-0.0","57","","","","49","0,0,0","0","countryside","27","probe-50","0.4137748502417919","0.32729084560932625","0.11166820727094245","0","","","","","","","",""
"","html-keyboard-response","128","511305","0.0-76.0-1.0","null","<p></p>","null","","","","","","","","","","","","","","","","","","",""
"","do_trial","129","515852","0.0-77.0-0.0","0","","","","51","0,0,0","0","countryside","28","probe-47","0.44854142344142744","0.2707672631611013","0.12006111621787068","0","","","","","","","",""
"","html-keyboard-response","130","516855","0.0-77.0-1.0","null","<p></p>","null","","","","","","","","","","","","","","","","","","",""
"","do_trial","131","521622","0.0-78.0-0.0","212","","","","50","1,1,0","0","countryside","29","probe-12","0.7292627871309325","0.2548446345722034","0.10107911442641601","1","","","","","","","",""
"","html-keyboard-response","132","522627","0.0-78.0-1.0","null","<p></p>","null","","","","","","","","","","","","","","","","","","",""
"","do_bye","133","524137","0.0-79.0-0.0","null","","","","null","","","","","","","","","","","","","","","","",""
"","do_travel","134","530142","0.0-80.0-0.0","null","","","","null","","","","","","","","","","","","","","","","",""
"","do_welcome","135","531652","0.0-80.0-1.0","null","","","","null","","","","","","","","","","","","","","","","",""
"","do_trial","136","537084","0.0-81.0-0.0","877","","","","49","1,0,0","1","forest","30","probe-56","1","0.2634909626134914","0.06641769401180182","1","","","","","","","",""
"","html-keyboard-response","137","538087","0.0-81.0-1.0","null","<p></p>","null","","","","","","","","","","","","","","","","","","",""
"","do_trial","138","542821","0.0-82.0-0.0","175","","","","49","1,1,0","1","forest","31","probe-179","1","0.30587463531784037","0.13113645497655602","1","","","","","","","",""
"","html-keyboard-response","139","543824","0.0-82.0-1.0","null","<p></p>","null","","","","","","","","","","","","","","","","","","",""
"","do_trial","140","548840","0.0-83.0-0.0","463","","","","49","1,1,0","1","forest","32","probe-159","1","0.4456074792684396","0.10502095607794826","1","","","","","","","",""
"","html-keyboard-response","141","549844","0.0-83.0-1.0","null","<p></p>","null","","","","","","","","","","","","","","","","","","",""
"","do_trial","142","554715","0.0-84.0-0.0","313","","","","49","0,0,0","1","forest","33","probe-196","0.9465117866578869","0.4147120097604938","0.09279924365006618","0","","","","","","","",""
"","html-keyboard-response","143","555718","0.0-84.0-1.0","null","<p></p>","null","","","","","","","","","","","","","","","","","","",""
"","do_trial","144","560634","0.0-85.0-0.0","353","","","","50","1,0,0","1","forest","34","probe-183","0.8692181901978281","0.2004350105909824","0.10326502519378972","0","","","","","","","",""
"","html-keyboard-response","145","561637","0.0-85.0-1.0","null","<p></p>","null","","","","","","","","","","","","","","","","","","",""
"","do_trial","146","566519","0.0-86.0-0.0","328.9999999998836","","","","51","1,0,0","1","forest","35","probe-33","0.6204993131055635","0.1415236001226135","0.07674704010695403","0","","","","","","","",""
"","html-keyboard-response","147","567523","0.0-86.0-1.0","null","<p></p>","null","","","","","","","","","","","","","","","","","","",""
"","do_trial","148","572310","0.0-87.0-0.0","242","","","","49","1,1,0","1","forest","36","probe-66","0.6208000155983424","0.1254965066553573","0.061025728677517384","1","","","","","","","",""
"","html-keyboard-response","149","573313","0.0-87.0-1.0","null","<p></p>","null","","","","","","","","","","","","","","","","","","",""
"","do_trial","150","577955","0.0-88.0-0.0","85","","","","49","0,0,0","1","forest","37","probe-87","0.5739763082919594","0.15411669787321333","0.13075087455992251","0","","","","","","","",""
"","html-keyboard-response","151","578958","0.0-88.0-1.0","null","<p></p>","null","","","","","","","","","","","","","","","","","","",""
"","do_trial","152","583518","0.0-89.0-0.0","0","","","","50","0,1,1","1","forest","38","probe-138","0.5663961961927143","0.19702879634176632","0.1780963271282601","1","","","","","","","",""
"","html-keyboard-response","153","584521","0.0-89.0-1.0","null","<p></p>","null","","","","","","","","","","","","","","","","","","",""
"","do_trial","154","589634","0.0-90.0-0.0","557","","","","50","0,0,0","1","forest","39","probe-136","0.5487720160851727","0.3615111739279594","0.10673162621233091","0","","","","","","","",""
"","html-keyboard-response","155","590637","0.0-90.0-1.0","null","<p></p>","null","","","","","","","","","","","","","","","","","","",""
"","do_trial","156","595535","0.0-91.0-0.0","345","","","","51","0,0,0","1","forest","40","probe-145","0.5450280689964924","0.43507618845305424","0.1681543050068205","0","","","","","","","",""
"","html-keyboard-response","157","596539","0.0-91.0-1.0","null","<p></p>","null","","","","","","","","","","","","","","","","","","",""
"","do_trial","158","601393","0.0-92.0-0.0","309","","","","49","0,1,0","1","forest","41","probe-03","0.45735891893422476","0.4023589038411101","0.2805608349201313","0","","","","","","","",""
"","html-keyboard-response","159","602397","0.0-92.0-1.0","null","<p></p>","null","","","","","","","","","","","","","","","","","","",""
"","do_trial","160","606953","0.0-93.0-0.0","0","","","","50","0,1,0","1","forest","42","probe-200","0.3698520731442727","0.3438863956457854","0.3213923062041373","1","","","","","","","",""
"","html-keyboard-response","161","607956","0.0-93.0-1.0","null","<p></p>","null","","","","","","","","","","","","","","","","","","",""
"","do_trial","162","613957","0.0-94.0-0.0","1443.0000000001164","","","","50","0,1,1","1","forest","43","probe-61","0.20422032052319886","0.3074247494395123","0.48807141735549986","1","","","","","","","",""
"","html-keyboard-response","163","614961","0.0-94.0-1.0","null","<p></p>","null","","","","","","","","","","","","","","","","","","",""
"","do_trial","164","620026","0.0-95.0-0.0","520","","","","50","0,0,1","1","forest","44","probe-109","0.29081486628712316","0.26647764313997085","0.5678304247457152","0","","","","","","","",""
"","html-keyboard-response","165","621029","0.0-95.0-1.0","null","<p></p>","null","","","","","","","","","","","","","","","","","","",""
"","do_trial","166","625953","0.0-96.0-0.0","365.9999999998836","","","","51","1,1,1","1","forest","45","probe-17","0.36039500136513","0.12250368278447259","0.6401521445047184","1","","","","","","","",""
"","html-keyboard-response","167","626956","0.0-96.0-1.0","null","<p></p>","null","","","","","","","","","","","","","","","","","","",""
"","do_trial","168","631512","0.0-97.0-0.0","0","","","","51","0,0,1","1","forest","46","probe-23","0.40459582343927003","0.1485652823456833","0.6083827639908433","1","","","","","","","",""
"","html-keyboard-response","169","632515","0.0-97.0-1.0","null","<p></p>","null","","","","","","","","","","","","","","","","","","",""
"","do_trial","170","637085","0.0-98.0-0.0","14.000000000116415","","","","51","1,0,1","1","forest","47","probe-64","0.3894269741959311","0.106488184256805","0.6705731698848467","1","","","","","","","",""
"","html-keyboard-response","171","638091","0.0-98.0-1.0","null","<p></p>","null","","","","","","","","","","","","","","","","","","",""
"","do_trial","172","642717","0.0-99.0-0.0","68.00000000011642","","","","51","0,1,0","1","forest","48","probe-226","0.45956266591568296","0.18957407247235747","0.7334753602892566","0","","","","","","","",""
"","html-keyboard-response","173","643721","0.0-99.0-1.0","null","<p></p>","null","","","","","","","","","","","","","","","","","","",""
"","do_trial","174","648429","0.0-100.0-0.0","153","","","","49","0,0,1","1","forest","49","probe-71","0.26552852566120627","0.18310603451509155","0.591706335047977","0","","","","","","","",""
"","html-keyboard-response","175","649433","0.0-100.0-1.0","null","<p></p>","null","","","","","","","","","","","","","","","","","","",""
"","do_trial","176","654257","0.0-101.0-0.0","277.9999999998836","","","","50","0,0,0","1","forest","50","probe-89","0.2285333667119404","0.1927368514378217","0.6695028488220882","0","","","","","","","",""
"","html-keyboard-response","177","655261","0.0-101.0-1.0","null","<p></p>","null","","","","","","","","","","","","","","","","","","",""
"","do_trial","178","660177","0.0-102.0-0.0","358","","","","51","0,0,0","1","forest","51","probe-153","0.3175455960042754","0.2852512917365327","0.5070442925468656","0","","","","","","","",""
"","html-keyboard-response","179","661180","0.0-102.0-1.0","null","<p></p>","null","","","","","","","","","","","","","","","","","","",""
"","do_trial","180","665894","0.0-103.0-0.0","169","","","","49","0,1,0","1","forest","52","probe-79","0.1307982918745401","0.21682263944631053","0.4846853673488583","0","","","","","","","",""
"","html-keyboard-response","181","666897","0.0-103.0-1.0","null","<p></p>","null","","","","","","","","","","","","","","","","","","",""
"","do_trial","182","671793","0.0-104.0-0.0","350","","","","49","0,1,1","1","forest","53","probe-223","0.38690903963211287","0.2500538605944713","0.656883529148233","0","","","","","","","",""
"","html-keyboard-response","183","672797","0.0-104.0-1.0","null","<p></p>","null","","","","","","","","","","","","","","","","","","",""
"","do_trial","184","677741","0.0-105.0-0.0","391","","","","50","0,0,0","1","forest","54","probe-167","0.49428738812740014","0.21522706172773384","0.694424209183606","0","","","","","","","",""
"","html-keyboard-response","185","678744","0.0-105.0-1.0","null","<p></p>","null","","","","","","","","","","","","","","","","","","",""
"","do_trial","186","683774","0.0-106.0-0.0","463.9999999998836","","","","51","1,0,1","1","forest","55","probe-48","0.3791964523765829","0.10131735788347655","0.5485567234928662","1","","","","","","","",""
"","html-keyboard-response","187","684778","0.0-106.0-1.0","null","<p></p>","null","","","","","","","","","","","","","","","","","","",""
"","do_trial","188","689554","0.0-107.0-0.0","231.00000000011642","","","","51","1,0,1","1","forest","56","probe-59","0.46801734161401143","0.12143049108949532","0.40587083616997577","1","","","","","","","",""
"","html-keyboard-response","189","690558","0.0-107.0-1.0","null","<p></p>","null","","","","","","","","","","","","","","","","","","",""
"","do_trial","190","695262","0.0-108.0-0.0","159","","","","51","0,0,1","1","forest","57","probe-31","0.29960353305785553","0.061940120584734165","0.4331685538618602","1","","","","","","","",""
"","html-keyboard-response","191","696265","0.0-108.0-1.0","null","<p></p>","null","","","","","","","","","","","","","","","","","","",""
"","do_trial","192","700811","0.0-109.0-0.0","0","","","","51","0,1,0","1","forest","58","probe-62","0.35993452876494","0.171686930305681","0.4970723608851584","0","","","","","","","",""
"","html-keyboard-response","193","701815","0.0-109.0-1.0","null","<p></p>","null","","","","","","","","","","","","","","","","","","",""
"","do_trial","194","706737","0.0-110.0-0.0","377.0000000001164","","","","51","0,0,0","1","forest","59","probe-135","0.252878581650283","0.09480220796501618","0.4593628021209157","0","","","","","","","",""
"","html-keyboard-response","195","707741","0.0-110.0-1.0","null","<p></p>","null","","","","","","","","","","","","","","","","","","",""
"","do_trial","196","712364","0.0-111.0-0.0","77","","","","51","1,0,0","1","forest","60","probe-225","0.2955443400077766","0.08828688106098569","0.41450624186875956","0","","","","","","","",""
"","html-keyboard-response","197","713370","0.0-111.0-1.0","null","<p></p>","null","","","","","","","","","","","","","","","","","","",""
"","do_trial","198","717917","0.0-112.0-0.0","0","","","","51","0,1,1","1","forest","61","probe-115","0.3371824134019938","0.05087489893864544","0.4324852311667442","1","","","","","","","",""
"","html-keyboard-response","199","718921","0.0-112.0-1.0","null","<p></p>","null","","","","","","","","","","","","","","","","","","",""
"","do_trial","200","723650","0.0-113.0-0.0","168.99999999988358","","","","51","0,0,1","1","forest","62","probe-120","0.3613518946387995","0.188005666163183","0.5009943681658251","1","","","","","","","",""
"","html-keyboard-response","201","724655","0.0-113.0-1.0","null","<p></p>","null","","","","","","","","","","","","","","","","","","",""
"","do_trial","202","729310","0.0-114.0-0.0","94","","","","51","0,0,0","1","forest","63","probe-09","0.3290345647543017","0.10295921625969595","0.6450370826833673","0","","","","","","","",""
"","html-keyboard-response","203","730314","0.0-114.0-1.0","null","<p></p>","null","","","","","","","","","","","","","","","","","","",""
"","do_trial","204","734944","0.0-115.0-0.0","85","","","","49","0,0,1","1","forest","64","probe-110","0.3951238567006626","0.14968569649968103","0.7051715229775745","0","","","","","","","",""
"","html-keyboard-response","205","735947","0.0-115.0-1.0","null","<p></p>","null","","","","","","","","","","","","","","","","","","",""
"","do_trial","206","740696","0.0-116.0-0.0","205","","","","50","0,0,1","1","forest","65","probe-91","0.327130813178015","0.05013496258518918","0.5677884579774649","0","","","","","","","",""
"","html-keyboard-response","207","741700","0.0-116.0-1.0","null","<p></p>","null","","","","","","","","","","","","","","","","","","",""
"","do_trial","208","746451","0.0-117.0-0.0","199.00000000011642","","","","49","0,0,1","1","forest","66","probe-150","0.44217670660452935","0.11403227567997837","0.4238124362457634","0","","","","","","","",""
"","html-keyboard-response","209","747455","0.0-117.0-1.0","null","<p></p>","null","","","","","","","","","","","","","","","","","","",""
"","do_trial","210","752363","0.0-118.0-0.0","358.9999999998836","","","","51","0,0,0","1","forest","67","probe-97","0.43041830594612707","0.20510691384670288","0.4660708079360945","0","","","","","","","",""
"","html-keyboard-response","211","753367","0.0-118.0-1.0","null","<p></p>","null","","","","","","","","","","","","","","","","","","",""
"","do_trial","212","758084","0.0-119.0-0.0","162","","","","51","1,0,1","1","forest","68","probe-137","0.34080083283134444","0.3225765592554312","0.5823505250857445","1","","","","","","","",""
"","html-keyboard-response","213","759088","0.0-119.0-1.0","null","<p></p>","null","","","","","","","","","","","","","","","","","","",""
"","do_trial","214","763632","0.0-120.0-0.0","0","","","","51","0,0,1","1","forest","69","probe-25","0.20397716278468672","0.2834834279278144","0.5376130901171171","1","","","","","","","",""
"","html-keyboard-response","215","764634","0.0-120.0-1.0","null","<p></p>","null","","","","","","","","","","","","","","","","","","",""
"","do_bye","216","766143","0.0-121.0-0.0","null","","","","null","","","","","","","","","","","","","","","","",""
"","do_travel","217","772149","0.0-122.0-0.0","null","","","","null","","","","","","","","","","","","","","","","",""
"","do_welcome","218","773661","0.0-122.0-1.0","null","","","","null","","","","","","","","","","","","","","","","",""
"","do_trial","219","778931","0.0-123.0-0.0","712","","","","50","0,0,1","2","coast","70","probe-154","0.25599652996976613","0.20065623471571647","1","0","","","","","","","",""
"","html-keyboard-response","220","779935","0.0-123.0-1.0","null","<p></p>","null","","","","","","","","","","","","","","","","","","",""
"","do_trial","221","784800","0.0-124.0-0.0","313","","","","50","0,0,1","2","coast","71","probe-186","0.2565256405699694","0.18023581269022892","1","0","","","","","","","",""
"","html-keyboard-response","222","785803","0.0-124.0-1.0","null","<p></p>","null","","","","","","","","","","","","","","","","","","",""
"","do_trial","223","791097","0.0-125.0-0.0","736","","","","51","0,1,1","2","coast","72","probe-173","0.18570056725386636","0.257344818951072","0.872726371875997","1","","","","","","","",""
"","html-keyboard-response","224","792100","0.0-125.0-1.0","null","<p></p>","null","","","","","","","","","","","","","","","","","","",""
"","do_trial","225","797092","0.0-126.0-0.0","429","","","","51","1,0,0","2","coast","73","probe-74","0.16717920562103206","0.14219903616707485","0.7676101916143232","0","","","","","","","",""
"","html-keyboard-response","226","798096","0.0-126.0-1.0","null","<p></p>","null","","","","","","","","","","","","","","","","","","",""
"","do_trial","227","803012","0.0-127.0-0.0","364","","","","51","0,0,1","2","coast","74","probe-123","0.13867129896742456","0.13337269090838966","0.6390502697983661","1","","","","","","","",""
"","html-keyboard-response","228","804015","0.0-127.0-1.0","null","<p></p>","null","","","","","","","","","","","","","","","","","","",""
"","do_trial","229","809493","0.0-128.0-0.0","933","","","","51","0,0,0","2","coast","75","probe-40","0.14498809589744197","0.05487790496488075","0.6341665390647868","0","","","","","","","",""
"","html-keyboard-response","230","810496","0.0-128.0-1.0","null","<p></p>","null","","","","","","","","","","","","","","","","","","",""
"","do_trial","231","815404","0.0-129.0-0.0","353","","","","49","0,0,1","2","coast","76","probe-166","0.1081665963434711","0.10233207828209188","0.7834662418319723","0","","","","","","","",""
"","html-keyboard-response","232","816408","0.0-129.0-1.0","null","<p></p>","null","","","","","","","","","","","","","","","","","","",""
"","do_trial","233","821150","0.0-130.0-0.0","188","","","","49","0,0,1","2","coast","77","probe-42","0.11834007036837274","0.08571902170843468","0.769072415894019","0","","","","","","","",""
"","html-keyboard-response","234","822153","0.0-130.0-1.0","null","<p></p>","null","","","","","","","","","","","","","","","","","","",""
"","do_trial","235","827343","0.0-131.0-0.0","641","","","","51","1,0,1","2","coast","78","probe-177","0.279243452020427","0.10731136727611035","0.8000286640689163","1","","","","","","","",""
"","html-keyboard-response","236","828347","0.0-131.0-1.0","null","<p></p>","null","","","","","","","","","","","","","","","","","","",""
"","do_trial","237","833225","0.0-132.0-0.0","321","","","","51","1,0,1","2","coast","79","probe-104","0.2810567550811111","0.12875345163325397","0.7169353302084532","1","","","","","","","",""
"","html-keyboard-response","238","834228","0.0-132.0-1.0","null","<p></p>","null","","","","","","","","","","","","","","","","","","",""
"","do_trial","239","838906","0.0-133.0-0.0","127","","","","50","0,0,1","2","coast","80","probe-208","0.19701395910565936","0.08476157836324827","0.840344718886242","0","","","","","","","",""
"","html-keyboard-response","240","839909","0.0-133.0-1.0","null","<p></p>","null","","","","","","","","","","","","","","","","","","",""
"","do_trial","241","844903","0.0-134.0-0.0","433","","","","49","0,0,1","2","coast","81","probe-08","0.1450403237154771","0.11456652997371841","0.8155227913351608","0","","","","","","","",""
"","html-keyboard-response","242","845906","0.0-134.0-1.0","null","<p></p>","null","","","","","","","","","","","","","","","","","","",""
"","do_trial","243","850858","0.0-135.0-0.0","391","","","","49","0,1,0","2","coast","82","probe-18","0.16814692043523846","0.28966469990105953","0.5081365498051706","0","","","","","","","",""
"","html-keyboard-response","244","851862","0.0-135.0-1.0","null","<p></p>","null","","","","","","","","","","","","","","","","","","",""
"","do_trial","245","856569","0.0-136.0-0.0","159","","","","51","0,0,1","2","coast","83","probe-49","0.32076293043192755","0.45495966236804997","0.3568729476473691","1","","","","","","","",""
"","html-keyboard-response","246","857573","0.0-136.0-1.0","null","<p></p>","null","","","","","","","","","","","","","","","","","","",""
"","do_trial","247","862323","0.0-137.0-0.0","204.00000000011642","","","","51","1,1,1","2","coast","84","probe-106","0.25073777473341274","0.5115728846109611","0.3396790408394397","1","","","","","","","",""
"","html-keyboard-response","248","863328","0.0-137.0-1.0","null","<p></p>","null","","","","","","","","","","","","","","","","","","",""
"","do_trial","249","868186","0.0-138.0-0.0","311","","","","51","0,0,1","2","coast","85","probe-209","0.08825026636807631","0.5175382835604662","0.4155538197850956","1","","","","","","","",""
"","html-keyboard-response","250","869191","0.0-138.0-1.0","null","<p></p>","null","","","","","","","","","","","","","","","","","","",""
"","do_trial","251","873814","0.0-139.0-0.0","57","","","","51","1,1,1","2","coast","86","probe-111","0.127413673778902","0.5157595231538136","0.34465666039300563","1","","","","","","","",""
"","html-keyboard-response","252","874819","0.0-139.0-1.0","null","<p></p>","null","","","","","","","","","","","","","","","","","","",""
"","do_trial","253","879675","0.0-140.0-0.0","296","","","","51","0,1,0","2","coast","87","probe-73","0.06018645026785076","0.6114761356716311","0.3413592174493335","0","","","","","","","",""
"","html-keyboard-response","254","880681","0.0-140.0-1.0","null","<p></p>","null","","","","","","","","","","","","","","","","","","",""
"","do_trial","255","885573","0.0-141.0-0.0","338","","","","51","0,1,1","2","coast","88","probe-195","0.19853543864027412","0.6097000679974308","0.4774300538505037","1","","","","","","","",""
"","html-keyboard-response","256","886579","0.0-141.0-1.0","null","<p></p>","null","","","","","","","","","","","","","","","","","","",""
"","do_trial","257","891300","0.0-142.0-0.0","171","","","","51","0,1,1","2","coast","89","probe-29","0.12425374058894133","0.5522088994636271","0.34717594472227864","1","","","","","","","",""
"","html-keyboard-response","258","892304","0.0-142.0-1.0","null","<p></p>","null","","","","","","","","","","","","","","","","","","",""
"","do_trial","259","896862","0.0-143.0-0.0","0","","","","51","0,0,0","2","coast","90","probe-155","0.22812268750566467","0.475858726660495","0.3545825547090026","0","","","","","","","",""
"","html-keyboard-response","260","897866","0.0-143.0-1.0","null","<p></p>","null","","","","","","","","","","","","","","","","","","",""
"","do_trial","261","902752","0.0-144.0-0.0","321","","","","51","0,1,0","2","coast","91","probe-126","0.21002880937486446","0.6087702647435541","0.3432130815786102","0","","","","","","","",""
"","html-keyboard-response","262","903758","0.0-144.0-1.0","null","<p></p>","null","","","","","","","","","","","","","","","","","","",""
"","do_trial","263","908410","0.0-145.0-0.0","108","","","","51","0,0,0","2","coast","92","probe-157","0.12207393426666201","0.451929671592363","0.3899554823940536","0","","","","","","","",""
"","html-keyboard-response","264","909416","0.0-145.0-1.0","null","<p></p>","null","","","","","","","","","","","","","","","","","","",""
"","do_trial","265","914250","0.0-146.0-0.0","289","","","","51","1,0,1","2","coast","93","probe-76","0.15523149465886218","0.620578739910157","0.4194019878355276","1","","","","","","","",""
"","html-keyboard-response","266","915256","0.0-146.0-1.0","null","<p></p>","null","","","","","","","","","","","","","","","","","","",""
"","do_trial","267","920366","0.0-147.0-0.0","561","","","","51","0,1,1","2","coast","94","probe-41","0.09560433617951279","0.6460220932534645","0.4384147734307681","1","","","","","","","",""
"","html-keyboard-response","268","921372","0.0-147.0-1.0","null","<p></p>","null","","","","","","","","","","","","","","","","","","",""
"","do_trial","269","926198","0.0-148.0-0.0","277","","","","51","0,0,0","2","coast","95","probe-02","0.10462529658482696","0.5802625112227037","0.3240683480377475","0","","","","","","","",""
"","html-keyboard-response","270","927203","0.0-148.0-1.0","null","<p></p>","null","","","","","","","","","","","","","","","","","","",""
"","do_trial","271","931851","0.0-149.0-0.0","94","","","","51","0,0,1","2","coast","96","probe-112","0.23403746468153003","0.5367070190852834","0.22660362245360346","1","","","","","","","",""
"","html-keyboard-response","272","932857","0.0-149.0-1.0","null","<p></p>","null","","","","","","","","","","","","","","","","","","",""
"","do_trial","273","937586","0.0-150.0-0.0","175","","","","51","1,0,1","2","coast","97","probe-113","0.16192535261073995","0.5536231358990179","0.1448817629320876","1","","","","","","","",""
"","html-keyboard-response","274","938590","0.0-150.0-1.0","null","<p></p>","null","","","","","","","","","","","","","","","","","","",""
"","do_trial","275","943495","0.0-151.0-0.0","358","","","","51","0,0,0","2","coast","98","probe-220","0.13370038223452035","0.4417408617822007","0.15570914033927466","0","","","","","","","",""
"","html-keyboard-response","276","944498","0.0-151.0-1.0","null","<p></p>","null","","","","","","","","","","","","","","","","","","",""
"","do_trial","277","949113","0.0-152.0-0.0","62","","","","51","0,1,0","2","coast","99","probe-230","0.18837133770601472","0.46960172643386394","0.23745095331100316","0","","","","","","","",""
"","html-keyboard-response","278","950118","0.0-152.0-1.0","null","<p></p>","null","","","","","","","","","","","","","","","","","","",""
"","do_trial","279","954897","0.0-153.0-0.0","223","","","","51","0,0,0","2","coast","100","probe-172","0.20802257777930455","0.5533907816818189","0.2023855319933139","0","","","","","","","",""
"","html-keyboard-response","280","955903","0.0-153.0-1.0","null","<p></p>","null","","","","","","","","","","","","","","","","","","",""
"","do_trial","281","961186","0.0-154.0-0.0","726","","","","51","0,1,0","2","coast","101","probe-30","0.16563548719662666","0.6036482476443651","0.18689746964408316","0","","","","","","","",""
"","html-keyboard-response","282","962189","0.0-154.0-1.0","null","<p></p>","null","","","","","","","","","","","","","","","","","","",""
"","do_trial","283","966854","0.0-155.0-0.0","106.99999999988358","","","","50","0,1,0","2","coast","102","probe-158","0.24150120402276212","0.6062409821398698","0.31545666269129624","1","","","","","","","",""
"","html-keyboard-response","284","967858","0.0-155.0-1.0","null","<p></p>","null","","","","","","","","","","","","","","","","","","",""
"","do_trial","285","972480","0.0-156.0-0.0","63","","","","50","0,1,1","2","coast","103","probe-99","0.22807809457562933","0.6328427718155383","0.3604589926573221","1","","","","","","","",""
"","html-keyboard-response","286","973484","0.0-156.0-1.0","null","<p></p>","null","","","","","","","","","","","","","","","","","","",""
"","do_trial","287","978101","0.0-157.0-0.0","63.000000000116415","","","","50","1,1,0","2","coast","104","probe-103","0.26916315128345747","0.6486728473616511","0.23129433883883044","1","","","","","","","",""
"","html-keyboard-response","288","979104","0.0-157.0-1.0","null","<p></p>","null","","","","","","","","","","","","","","","","","","",""
"","do_trial","289","984084","0.0-158.0-0.0","433.9999999998836","","","","50","1,0,0","2","coast","105","probe-205","0.16849796263185837","0.4679029442398256","0.30956372960077266","0","","","","","","","",""
"","html-keyboard-response","290","985087","0.0-158.0-1.0","null","<p></p>","null","","","","","","","","","","","","","","","","","","",""
"","do_trial","291","990051","0.0-159.0-0.0","404","","","","49","0,0,0","2","coast","106","probe-143","0.06955059540940592","0.5379060514739259","0.3076488258241866","0","","","","","","","",""
"","html-keyboard-response","292","991054","0.0-159.0-1.0","null","<p></p>","null","","","","","","","","","","","","","","","","","","",""
"","do_trial","293","996043","0.0-160.0-0.0","436.9999999998836","","","","51","0,1,0","2","coast","107","probe-151","0.0604069289867845","0.6414680441805818","0.33211070161620826","0","","","","","","","",""
"","html-keyboard-response","294","997047","0.0-160.0-1.0","null","<p></p>","null","","","","","","","","","","","","","","","","","","",""
"","do_trial","295","1002086","0.0-161.0-0.0","475","","","","50","1,1,0","2","coast","108","probe-93","0.10372465722125584","0.6395661626070771","0.23360960615268922","1","","","","","","","",""
"","html-keyboard-response","296","1003092","0.0-161.0-1.0","null","<p></p>","null","","","","","","","","","","","","","","","","","","",""
"","do_trial","297","1008258","0.0-162.0-0.0","620.9999999997672","","","","50","1,1,0","2","coast","109","probe-175","0.08335074897395581","0.7232564172369332","0.22946230520407376","1","","","","","","","",""
"","html-keyboard-response","298","1009263","0.0-162.0-1.0","null","<p></p>","null","","","","","","","","","","","","","","","","","","",""
"","do_bye","299","1010773","0.0-163.0-0.0","null","","","","null","","","","","","","","","","","","","","","","",""
"","do_travel","300","1016778","0.0-164.0-0.0","null","","","","null","","","","","","","","","","","","","","","","",""
"","do_welcome","301","1018289","0.0-164.0-1.0","null","","","","null","","","","","","","","","","","","","","","","",""
"","do_trial","302","1024341","0.0-165.0-0.0","null","","","","null","0,1,0","3","highway","110","probe-213","0.15475146711512927","1","0.2732878862544472","","","","","","","","",""
"","html-keyboard-response","303","1025347","0.0-165.0-1.0","null","<p></p>","null","","","","","","","","","","","","","","","","","","",""
"","do_trial","304","1031340","0.0-166.0-0.0","1448","","","","50","1,1,1","3","highway","111","probe-21","0.16416012611364378","1","0.28549417392793064","1","","","","","","","",""
"","html-keyboard-response","305","1032343","0.0-166.0-1.0","null","<p></p>","null","","","","","","","","","","","","","","","","","","",""
"","do_trial","306","1037079","0.0-167.0-0.0","187","","","","50","1,1,0","3","highway","112","probe-06","0.11709471258664741","0.9433190878374448","0.35648270731368636","1","","","","","","","",""
"","html-keyboard-response","307","1038083","0.0-167.0-1.0","null","<p></p>","null","","","","","","","","","","","","","","","","","","",""
"","do_trial","308","1043294","0.0-168.0-0.0","652","","","","50","0,1,0","3","highway","113","probe-108","0.21282961472270992","0.7098688347957193","0.26375705124238136","1","","","","","","","",""
"","html-keyboard-response","309","1044298","0.0-168.0-1.0","null","<p></p>","null","","","","","","","","","","","","","","","","","","",""
"","do_trial","310","1049389","0.0-169.0-0.0","538","","","","50","0,1,0","3","highway","114","probe-121","0.0860552435650428","0.6167116050238589","0.32537525811753415","1","","","","","","","",""
"","html-keyboard-response","311","1050393","0.0-169.0-1.0","null","<p></p>","null","","","","","","","","","","","","","","","","","","",""
"","do_trial","312","1055368","0.0-170.0-0.0","419","","","","50","0,0,0","3","highway","115","probe-149","0.0729099122885487","0.5979849413782197","0.3725118427249452","0","","","","","","","",""
"","html-keyboard-response","313","1056372","0.0-170.0-1.0","null","<p></p>","null","","","","","","","","","","","","","","","","","","",""
"","do_trial","314","1061154","0.0-171.0-0.0","237","","","","50","0,1,0","3","highway","116","probe-22","0.10085242268578641","0.5411068477087205","0.38138618648584066","1","","","","","","","",""
"","html-keyboard-response","315","1062157","0.0-171.0-1.0","null","<p></p>","null","","","","","","","","","","","","","","","","","","",""
"","do_trial","316","1067101","0.0-172.0-0.0","398.99999999976717","","","","50","0,1,0","3","highway","117","probe-207","0.10453223276847119","0.5839664460225155","0.2590654793015925","1","","","","","","","",""
"","html-keyboard-response","317","1068105","0.0-172.0-1.0","null","<p></p>","null","","","","","","","","","","","","","","","","","","",""
"","do_trial","318","1073399","0.0-173.0-0.0","748","","","","50","0,0,1","3","highway","118","probe-46","0.05271747388728551","0.5182244072450911","0.2930986835135383","0","","","","","","","",""
"","html-keyboard-response","319","1074403","0.0-173.0-1.0","null","<p></p>","null","","","","","","","","","","","","","","","","","","",""
"","do_trial","320","1079278","0.0-174.0-0.0","327","","","","50","0,0,0","3","highway","119","probe-130","0.07598727353951813","0.41200113304342184","0.1442564857700673","0","","","","","","","",""
"","html-keyboard-response","321","1080281","0.0-174.0-1.0","null","<p></p>","null","","","","","","","","","","","","","","","","","","",""
"","do_trial","322","1084990","0.0-175.0-0.0","146","","","","50","0,0,0","3","highway","120","probe-199","0.27411869786083926","0.4357638744903346","0.35966618618311047","0","","","","","","","",""
"","html-keyboard-response","323","1085993","0.0-175.0-1.0","null","<p></p>","null","","","","","","","","","","","","","","","","","","",""
"","do_trial","324","1091432","0.0-176.0-0.0","875","","","","50","1,0,0","3","highway","121","probe-185","0.2952840511699699","0.37551594188723897","0.2992619739878941","0","","","","","","","",""
"","html-keyboard-response","325","1092436","0.0-176.0-1.0","null","<p></p>","null","","","","","","","","","","","","","","","","","","",""
"","do_trial","326","1097689","0.0-177.0-0.0","697","","","","50","0,0,0","3","highway","122","probe-171","0.3327977196205667","0.4443799454843149","0.5038443355686224","0","","","","","","","",""
"","html-keyboard-response","327","1098693","0.0-177.0-1.0","null","<p></p>","null","","","","","","","","","","","","","","","","","","",""
"","do_trial","328","1103778","0.0-178.0-0.0","537.0000000002328","","","","50","0,1,0","3","highway","123","probe-180","0.12183657405462","0.39234788316793096","0.6574566007711689","1","","","","","","","",""
"","html-keyboard-response","329","1104782","0.0-178.0-1.0","null","<p></p>","null","","","","","","","","","","","","","","","","","","",""
"","do_trial","330","1109778","0.0-179.0-0.0","449.00000000023283","","","","50","0,1,1","3","highway","124","probe-05","0.10911286167615866","0.36168708423975565","0.6130821389078294","1","","","","","","","",""
"","html-keyboard-response","331","1110782","0.0-179.0-1.0","null","<p></p>","null","","","","","","","","","","","","","","","","","","",""
"","do_trial","332","1115493","0.0-180.0-0.0","166","","","","49","0,1,1","3","highway","125","probe-131","0.16156442610235844","0.3737874682300748","0.6683804267143363","0","","","","","","","",""
"","html-keyboard-response","333","1116497","0.0-180.0-1.0","null","<p></p>","null","","","","","","","","","","","","","","","","","","",""
"","do_trial","334","1121421","0.0-181.0-0.0","369.00000000023283","","","","51","0,0,1","3","highway","126","probe-10","0.0853592249759605","0.3529190240815678","0.5987839993317762","1","","","","","","","",""
"","html-keyboard-response","335","1122425","0.0-181.0-1.0","null","<p></p>","null","","","","","","","","","","","","","","","","","","",""
"","do_trial","336","1127691","0.0-182.0-0.0","706","","","","51","0,1,0","3","highway","127","probe-176","0.06610997997006823","0.4378773051713934","0.5654101462745285","0","","","","","","","",""
"","html-keyboard-response","337","1128695","0.0-182.0-1.0","null","<p></p>","null","","","","","","","","","","","","","","","","","","",""
"","do_trial","338","1133359","0.0-183.0-0.0","115","","","","50","0,1,1","3","highway","128","probe-178","0.16104638881001385","0.3423245732913808","0.5412977692341133","1","","","","","","","",""
"","html-keyboard-response","339","1134364","0.0-183.0-1.0","null","<p></p>","null","","","","","","","","","","","","","","","","","","",""
"","do_trial","340","1139259","0.0-184.0-0.0","333","","","","51","0,0,1","3","highway","129","probe-161","0.19335166820761387","0.27070915903712106","0.5008513577704103","1","","","","","","","",""
"","html-keyboard-response","341","1140262","0.0-184.0-1.0","null","<p></p>","null","","","","","","","","","","","","","","","","","","",""
"","do_trial","342","1144896","0.0-185.0-0.0","69","","","","51","0,0,1","3","highway","130","probe-147","0.2544799329068042","0.2466040067494109","0.5463474972885345","1","","","","","","","",""
"","html-keyboard-response","343","1145899","0.0-185.0-1.0","null","<p></p>","null","","","","","","","","","","","","","","","","","","",""
"","do_trial","344","1150796","0.0-186.0-0.0","348","","","","51","0,0,1","3","highway","131","probe-28","0.06849909868167117","0.28790681677045055","0.6660429732658882","1","","","","","","","",""
"","html-keyboard-response","345","1151799","0.0-186.0-1.0","null","<p></p>","null","","","","","","","","","","","","","","","","","","",""
"","do_trial","346","1156551","0.0-187.0-0.0","191","","","","51","0,1,0","3","highway","132","probe-72","0.09217508840143399","0.31505781356581414","0.49826225005512664","0","","","","","","","",""
"","html-keyboard-response","347","1157554","0.0-187.0-1.0","null","<p></p>","null","","","","","","","","","","","","","","","","","","",""
"","do_trial","348","1162206","0.0-188.0-0.0","90.99999999976717","","","","50","1,0,0","3","highway","133","probe-100","0.2587542539733625","0.3372470690596684","0.5071657664900862","0","","","","","","","",""
"","html-keyboard-response","349","1163210","0.0-188.0-1.0","null","<p></p>","null","","","","","","","","","","","","","","","","","","",""
"","do_trial","350","1167834","0.0-189.0-0.0","68.99999999976717","","","","50","1,0,1","3","highway","134","probe-119","0.15630613573409105","0.29722932219128817","0.6197518457752818","0","","","","","","","",""
"","html-keyboard-response","351","1168838","0.0-189.0-1.0","null","<p></p>","null","","","","","","","","","","","","","","","","","","",""
"","do_trial","352","1173502","0.0-190.0-0.0","119","","","","49","1,1,1","3","highway","135","probe-85","0.23888545101423275","0.41670390634625293","0.6100960722105376","1","","","","","","","",""
"","html-keyboard-response","353","1174505","0.0-190.0-1.0","null","<p></p>","null","","","","","","","","","","","","","","","","","","",""
"","do_trial","354","1179393","0.0-191.0-0.0","328.99999999976717","","","","49","0,1,0","3","highway","136","probe-101","0.13538017409643766","0.37183118026018863","0.648956287852497","0","","","","","","","",""
"","html-keyboard-response","355","1180397","0.0-191.0-1.0","null","<p></p>","null","","","","","","","","","","","","","","","","","","",""
"","do_trial","356","1185032","0.0-192.0-0.0","80","","","","49","0,0,1","3","highway","137","probe-96","0.1753339308156174","0.1807990309190776","0.50918240495127","0","","","","","","","",""
"","html-keyboard-response","357","1186037","0.0-192.0-1.0","null","<p></p>","null","","","","","","","","","","","","","","","","","","",""
"","do_trial","358","1190683","0.0-193.0-0.0","90","","","","50","0,0,1","3","highway","138","probe-192","0.2239456004322579","0.3764004339326179","0.5960700232744571","0","","","","","","","",""
"","html-keyboard-response","359","1191688","0.0-193.0-1.0","null","<p></p>","null","","","","","","","","","","","","","","","","","","",""
"","do_trial","360","1196310","0.0-194.0-0.0","58","","","","50","0,1,0","3","highway","139","probe-16","0.14977913550184563","0.42831552550576946","0.5112011279496825","1","","","","","","","",""
"","html-keyboard-response","361","1197314","0.0-194.0-1.0","null","<p></p>","null","","","","","","","","","","","","","","","","","","",""
"","do_trial","362","1202637","0.0-195.0-0.0","759","","","","50","0,1,1","3","highway","140","probe-210","0.06452351868071035","0.395144036755203","0.6019870524665736","1","","","","","","","",""
"","html-keyboard-response","363","1203641","0.0-195.0-1.0","null","<p></p>","null","","","","","","","","","","","","","","","","","","",""
"","do_trial","364","1208862","0.0-196.0-0.0","674.0000000002328","","","","50","0,1,1","3","highway","141","probe-69","0.09357313968116879","0.4491945788533539","0.5972871932591473","1","","","","","","","",""
"","html-keyboard-response","365","1209865","0.0-196.0-1.0","null","<p></p>","null","","","","","","","","","","","","","","","","","","",""
"","do_trial","366","1214499","0.0-197.0-0.0","77","","","","50","0,1,1","3","highway","142","probe-117","0.18562758922285633","0.3640596290604038","0.6446267713736147","1","","","","","","","",""
"","html-keyboard-response","367","1215504","0.0-197.0-1.0","null","<p></p>","null","","","","","","","","","","","","","","","","","","",""
"","do_trial","368","1220061","0.0-198.0-0.0","3","","","","50","1,0,0","3","highway","143","probe-156","0.2647139766304404","0.42504834886022663","0.6798862591083414","0","","","","","","","",""
"","html-keyboard-response","369","1221066","0.0-198.0-1.0","null","<p></p>","null","","","","","","","","","","","","","","","","","","",""
"","do_trial","370","1227127","0.0-199.0-0.0","null","","","","null","0,1,1","3","highway","144","probe-78","0.12245607367399078","0.4366222966173984","0.6121939302833217","","","","","","","","",""
"","html-keyboard-response","371","1228130","0.0-199.0-1.0","null","<p></p>","null","","","","","","","","","","","","","","","","","","",""
"","do_trial","372","1232690","0.0-200.0-0.0","0","","","","50","0,0,0","3","highway","145","probe-34","0.07568225239132793","0.42689914196211753","0.6880521675562565","0","","","","","","","",""
"","html-keyboard-response","373","1233695","0.0-200.0-1.0","null","<p></p>","null","","","","","","","","","","","","","","","","","","",""
"","do_trial","374","1238242","0.0-201.0-0.0","0","","","","50","0,0,1","3","highway","146","probe-219","0.12197899097549499","0.34796745339049023","0.526436964790006","0","","","","","","","",""
"","html-keyboard-response","375","1239248","0.0-201.0-1.0","null","<p></p>","null","","","","","","","","","","","","","","","","","","",""
"","do_trial","376","1244057","0.0-202.0-0.0","253","","","","51","1,1,1","3","highway","147","probe-222","0.15192677750417827","0.29266941913696476","0.6070370542613668","1","","","","","","","",""
"","html-keyboard-response","377","1245061","0.0-202.0-1.0","null","<p></p>","null","","","","","","","","","","","","","","","","","","",""
"","do_trial","378","1249608","0.0-203.0-0.0","0","","","","51","0,0,0","3","highway","148","probe-201","0.1194216907227468","0.4681136177690375","0.5631317936475347","0","","","","","","","",""
"","html-keyboard-response","379","1250612","0.0-203.0-1.0","null","<p></p>","null","","","","","","","","","","","","","","","","","","",""
"","do_trial","380","1255405","0.0-204.0-0.0","238.99999999976717","","","","51","0,1,0","3","highway","149","probe-07","0.0953662144738918","0.23376552057571837","0.5791453006732484","0","","","","","","","",""
"","html-keyboard-response","381","1256409","0.0-204.0-1.0","null","<p></p>","null","","","","","","","","","","","","","","","","","","",""
"","do_bye","382","1257918","0.0-205.0-0.0","null","","","","null","","","","","","","","","","","","","","","","",""
"","do_travel","383","1263923","0.0-206.0-0.0","null","","","","null","","","","","","","","","","","","","","","","",""
"","do_welcome","384","1265432","0.0-206.0-1.0","null","","","","null","","","","","","","","","","","","","","","","",""
"","do_trial","385","1270632","0.0-207.0-0.0","640","","","","49","0,1,1","4","city","150","probe-55","0.20938320799090263","0.2602771410190785","1","0","","","","","","","",""
"","html-keyboard-response","386","1271635","0.0-207.0-1.0","null","<p></p>","null","","","","","","","","","","","","","","","","","","",""
"","do_trial","387","1276412","0.0-208.0-0.0","231","","","","49","0,0,1","4","city","151","probe-38","0.18447271364720666","0.14981410401880565","1","0","","","","","","","",""
"","html-keyboard-response","388","1277417","0.0-208.0-1.0","null","<p></p>","null","","","","","","","","","","","","","","","","","","",""
"","do_trial","389","1282217","0.0-209.0-0.0","243.99999999976717","","","","49","0,0,1","4","city","152","probe-32","0.20121734469732444","0.160757615366078","0.7730619770354646","0","","","","","","","",""
"","html-keyboard-response","390","1283222","0.0-209.0-1.0","null","<p></p>","null","","","","","","","","","","","","","","","","","","",""
"","do_trial","391","1287991","0.0-210.0-0.0","208","","","","49","0,0,0","4","city","153","probe-105","0.08243073933896014","0.20247495031295948","0.7020990785915768","0","","","","","","","",""
"","html-keyboard-response","392","1288997","0.0-210.0-1.0","null","<p></p>","null","","","","","","","","","","","","","","","","","","",""
"","do_trial","393","1293743","0.0-211.0-0.0","198","","","","49","0,1,1","4","city","154","probe-15","0.0856109817927379","0.2066821683642364","0.7960072204139306","0","","","","","","","",""
"","html-keyboard-response","394","1294748","0.0-211.0-1.0","null","<p></p>","null","","","","","","","","","","","","","","","","","","",""
"","do_trial","395","1299453","0.0-212.0-0.0","157","","","","50","0,0,0","4","city","155","probe-134","0.204548759615155","0.2360098450661689","0.5766429510901516","0","","","","","","","",""
"","html-keyboard-response","396","1300458","0.0-212.0-1.0","null","<p></p>","null","","","","","","","","","","","","","","","","","","",""
"","do_trial","397","1305236","0.0-213.0-0.0","220","","","","50","1,0,1","4","city","156","probe-193","0.19613270688672416","0.11794499801726621","0.5421796541874392","0","","","","","","","",""
"","html-keyboard-response","398","1306239","0.0-213.0-1.0","null","<p></p>","null","","","","","","","","","","","","","","","","","","",""
"","do_trial","399","1311029","0.0-214.0-0.0","235","","","","50","0,0,0","4","city","157","probe-221","0.1250701006022519","0.15791054138813057","0.5594455645162918","0","","","","","","","",""
"","html-keyboard-response","400","1312032","0.0-214.0-1.0","null","<p></p>","null","","","","","","","","","","","","","","","","","","",""
"","do_trial","401","1316757","0.0-215.0-0.0","174","","","","50","0,0,1","4","city","158","probe-181","0.21745583398789148","0.2870332303676977","0.6345857032573735","0","","","","","","","",""
"","html-keyboard-response","402","1317763","0.0-215.0-1.0","null","<p></p>","null","","","","","","","","","","","","","","","","","","",""
"","do_trial","403","1322853","0.0-216.0-0.0","543.9999999997672","","","","50","0,0,1","4","city","159","probe-139","0.14518877965920146","0.13768735306508656","0.7392966520920123","0","","","","","","","",""
"","html-keyboard-response","404","1323856","0.0-216.0-1.0","null","<p></p>","null","","","","","","","","","","","","","","","","","","",""
"","do_trial","405","1328567","0.0-217.0-0.0","150","","","","50","0,0,1","4","city","160","probe-160","0.1516795798138866","0.21441526990660822","0.7258911710682101","0","","","","","","","",""
"","html-keyboard-response","406","1329572","0.0-217.0-1.0","null","<p></p>","null","","","","","","","","","","","","","","","","","","",""
"","do_trial","407","1334347","0.0-218.0-0.0","228.00000000023283","","","","51","1,1,1","4","city","161","probe-19","0.18290605044876554","0.3121401136505084","0.6814609818635381","1","","","","","","","",""
"","html-keyboard-response","408","1335353","0.0-218.0-1.0","null","<p></p>","null","","","","","","","","","","","","","","","","","","",""
"","do_trial","409","1340074","0.0-219.0-0.0","165","","","","51","0,0,0","4","city","162","probe-141","0.2372435742790796","0.413116990356817","0.44149222019148215","0","","","","","","","",""
"","html-keyboard-response","410","1341080","0.0-219.0-1.0","null","<p></p>","null","","","","","","","","","","","","","","","","","","",""
"","do_trial","411","1345758","0.0-220.0-0.0","116","","","","50","0,1,1","4","city","163","probe-67","0.14270382712689025","0.4926204139967599","0.3372826766651082","1","","","","","","","",""
"","html-keyboard-response","412","1346763","0.0-220.0-1.0","null","<p></p>","null","","","","","","","","","","","","","","","","","","",""
"","do_trial","413","1351571","0.0-221.0-0.0","253.99999999976717","","","","50","0,1,0","4","city","164","probe-04","0.3471020167688844","0.5557209289342725","0.17041467485880382","1","","","","","","","",""
"","html-keyboard-response","414","1352577","0.0-221.0-1.0","null","<p></p>","null","","","","","","","","","","","","","","","","","","",""
"","do_trial","415","1357265","0.0-222.0-0.0","130","","","","50","1,0,0","4","city","165","probe-191","0.4052382015066453","0.5606798146831109","0.12284224785443691","0","","","","","","","",""
"","html-keyboard-response","416","1358269","0.0-222.0-1.0","null","<p></p>","null","","","","","","","","","","","","","","","","","","",""
"","do_trial","417","1362883","0.0-223.0-0.0","66","","","","50","1,1,0","4","city","166","probe-228","0.40674330284543486","0.5786008298401798","0.10303285410010612","1","","","","","","","",""
"","html-keyboard-response","418","1363887","0.0-223.0-1.0","null","<p></p>","null","","","","","","","","","","","","","","","","","","",""
"","do_trial","419","1368537","0.0-224.0-0.0","91","","","","50","1,0,0","4","city","167","probe-215","0.3636501794286823","0.6786047040272685","0.13795350294554118","0","","","","","","","",""
"","html-keyboard-response","420","1369541","0.0-224.0-1.0","null","<p></p>","null","","","","","","","","","","","","","","","","","","",""
"","do_trial","421","1374361","0.0-225.0-0.0","260","","","","50","0,0,0","4","city","168","probe-127","0.37791481463387605","0.6669831972336906","0.05411577408568128","0","","","","","","","",""
"","html-keyboard-response","422","1375365","0.0-225.0-1.0","null","<p></p>","null","","","","","","","","","","","","","","","","","","",""
"","do_trial","423","1379980","0.0-226.0-0.0","59","","","","51","1,1,0","4","city","169","probe-11","0.3431401134168137","0.6238669210913299","0.05242273870973909","0","","","","","","","",""
"","html-keyboard-response","424","1380983","0.0-226.0-1.0","null","<p></p>","null","","","","","","","","","","","","","","","","","","",""
"","do_trial","425","1385600","0.0-227.0-0.0","68","","","","51","0,1,1","4","city","170","probe-75","0.438685116880096","0.5343314562435931","0.09149400128004727","1","","","","","","","",""
"","html-keyboard-response","426","1386605","0.0-227.0-1.0","null","<p></p>","null","","","","","","","","","","","","","","","","","","",""
"","do_trial","427","1391273","0.0-228.0-0.0","110.99999999976717","","","","51","0,0,0","4","city","171","probe-164","0.3309250478080365","0.6270825053348016","0.08595808888553133","0","","","","","","","",""
"","html-keyboard-response","428","1392278","0.0-228.0-1.0","null","<p></p>","null","","","","","","","","","","","","","","","","","","",""
"","do_trial","429","1396933","0.0-229.0-0.0","94","","","","51","1,0,0","4","city","172","probe-82","0.33573994225346565","0.6717327662495363","0.1091218297285933","0","","","","","","","",""
"","html-keyboard-response","430","1397939","0.0-229.0-1.0","null","<p></p>","null","","","","","","","","","","","","","","","","","","",""
"","do_trial","431","1402575","0.0-230.0-0.0","80.00000000023283","","","","50","1,1,0","4","city","173","probe-37","0.25461121284319554","0.6288060463910604","0.15539697194154067","1","","","","","","","",""
"","html-keyboard-response","432","1403580","0.0-230.0-1.0","null","<p></p>","null","","","","","","","","","","","","","","","","","","",""
"","do_trial","433","1408138","0.0-231.0-0.0","0","","","","50","0,1,0","4","city","174","probe-194","0.349093680537664","0.6270574341172254","0.0878335366433879","1","","","","","","","",""
"","html-keyboard-response","434","1409143","0.0-231.0-1.0","null","<p></p>","null","","","","","","","","","","","","","","","","","","",""
"","do_trial","435","1413943","0.0-232.0-0.0","242.99999999976717","","","","50","0,1,0","4","city","175","probe-162","0.15413482486736688","0.6214089237461788","0.06565492037809607","1","","","","","","","",""
"","html-keyboard-response","436","1414948","0.0-232.0-1.0","null","<p></p>","null","","","","","","","","","","","","","","","","","","",""
"","do_trial","437","1419506","0.0-233.0-0.0","1","","","","50","0,1,0","4","city","176","probe-202","0.25303861343245193","0.5820572044138063","0.09526742560460401","1","","","","","","","",""
"","html-keyboard-response","438","1420512","0.0-233.0-1.0","null","<p></p>","null","","","","","","","","","","","","","","","","","","",""
"","do_trial","439","1425200","0.0-234.0-0.0","124.00000000023283","","","","50","0,1,0","4","city","177","probe-174","0.304631131646249","0.5167711325283589","0.12377356696526963","1","","","","","","","",""
"","html-keyboard-response","440","1426205","0.0-234.0-1.0","null","<p></p>","null","","","","","","","","","","","","","","","","","","",""
"","do_trial","441","1431015","0.0-235.0-0.0","255","","","","50","0,1,0","4","city","178","probe-146","0.28684361888976967","0.5999551315422378","0.17108055002124395","1","","","","","","","",""
"","html-keyboard-response","442","1432018","0.0-235.0-1.0","null","<p></p>","null","","","","","","","","","","","","","","","","","","",""
"","do_trial","443","1436635","0.0-236.0-0.0","61.99999999976717","","","","50","0,1,0","4","city","179","probe-152","0.3223712095632211","0.525175387622675","0.25219271548623295","1","","","","","","","",""
"","html-keyboard-response","444","1437641","0.0-236.0-1.0","null","<p></p>","null","","","","","","","","","","","","","","","","","","",""
"","do_trial","445","1442243","0.0-237.0-0.0","58","","","","50","1,0,0","4","city","180","probe-198","0.3007068832490658","0.37061167991519367","0.29620334539652826","0","","","","","","","",""
"","html-keyboard-response","446","1443248","0.0-237.0-1.0","null","<p></p>","null","","","","","","","","","","","","","","","","","","",""
"","do_trial","447","1448069","0.0-238.0-0.0","257","","","","50","0,1,0","4","city","181","probe-65","0.18304742444240407","0.4900292284803872","0.11875048991206852","1","","","","","","","",""
"","html-keyboard-response","448","1449072","0.0-238.0-1.0","null","<p></p>","null","","","","","","","","","","","","","","","","","","",""
"","do_trial","449","1453922","0.0-239.0-0.0","292.00000000023283","","","","50","0,1,0","4","city","182","probe-211","0.17005890604236407","0.37181017000922195","0.18522281645525787","1","","","","","","","",""
"","html-keyboard-response","450","1454925","0.0-239.0-1.0","null","<p></p>","null","","","","","","","","","","","","","","","","","","",""
"","do_trial","451","1459714","0.0-240.0-0.0","233","","","","50","0,1,0","4","city","183","probe-60","0.08010861528742882","0.5422616124170205","0.05422146343556495","1","","","","","","","",""
"","html-keyboard-response","452","1460720","0.0-240.0-1.0","null","<p></p>","null","","","","","","","","","","","","","","","","","","",""
"","do_trial","453","1465540","0.0-241.0-0.0","262","","","","50","0,0,0","4","city","184","probe-54","0.15105491746732735","0.5049028953432884","0.06389375373146353","0","","","","","","","",""
"","html-keyboard-response","454","1466546","0.0-241.0-1.0","null","<p></p>","null","","","","","","","","","","","","","","","","","","",""
"","do_trial","455","1471116","0.0-242.0-0.0","5","","","","50","0,1,1","4","city","185","probe-189","0.24940862542760042","0.5014339992922039","0.08785093009116857","1","","","","","","","",""
"","html-keyboard-response","456","1472119","0.0-242.0-1.0","null","<p></p>","null","","","","","","","","","","","","","","","","","","",""
"","do_trial","457","1476898","0.0-243.0-0.0","232","","","","50","0,0,1","4","city","186","probe-206","0.3705039340844404","0.5168903435636656","0.06461727538540755","0","","","","","","","",""
"","html-keyboard-response","458","1477902","0.0-243.0-1.0","null","<p></p>","null","","","","","","","","","","","","","","","","","","",""
"","do_trial","459","1482606","0.0-244.0-0.0","142","","","","50","0,0,0","4","city","187","probe-68","0.3577556575041034","0.5237593663346092","0.14806295090732233","0","","","","","","","",""
"","html-keyboard-response","460","1483610","0.0-244.0-1.0","null","<p></p>","null","","","","","","","","","","","","","","","","","","",""
"","do_trial","461","1488242","0.0-245.0-0.0","77","","","","51","0,1,0","4","city","188","probe-148","0.2435456456748917","0.44598534876195894","0.15504468949399333","0","","","","","","","",""
"","html-keyboard-response","462","1489246","0.0-245.0-1.0","null","<p></p>","null","","","","","","","","","","","","","","","","","","",""
"","do_trial","463","1493984","0.0-246.0-0.0","176","","","","50","0,1,0","4","city","189","probe-144","0.21324396137116933","0.5390334105286239","0.05072306511242351","1","","","","","","","",""
"","html-keyboard-response","464","1494990","0.0-246.0-1.0","null","<p></p>","null","","","","","","","","","","","","","","","","","","",""
"","do_bye","465","1496498","0.0-247.0-0.0","null","","","","null","","","","","","","","","","","","","","","","",""
"","do_travel","466","1502502","0.0-248.0-0.0","null","","","","null","","","","","","","","","","","","","","","","",""
"","do_welcome","467","1504011","0.0-248.0-1.0","null","","","","null","","","","","","","","","","","","","","","","",""
"","do_trial","468","1510765","0.0-249.0-0.0","2209","","","","51","0,1,0","5","mountain","190","probe-214","0.1396399777618694","1","0.12318356342957987","0","","","","","","","",""
"","html-keyboard-response","469","1511769","0.0-249.0-1.0","null","<p></p>","null","","","","","","","","","","","","","","","","","","",""
"","do_trial","470","1516471","0.0-250.0-0.0","157","","","","51","0,1,0","5","mountain","191","probe-163","0.08205634062714857","1","0.20483536605262054","0","","","","","","","",""
"","html-keyboard-response","471","1517477","0.0-250.0-1.0","null","<p></p>","null","","","","","","","","","","","","","","","","","","",""
"","do_trial","472","1522115","0.0-251.0-0.0","92","","","","51","0,1,0","5","mountain","192","probe-187","0.10165497393647316","0.7113040444345995","0.1841357492592737","0","","","","","","","",""
"","html-keyboard-response","473","1523120","0.0-251.0-1.0","null","<p></p>","null","","","","","","","","","","","","","","","","","","",""
"","do_trial","474","1527876","0.0-252.0-0.0","199","","","","51","0,1,0","5","mountain","193","probe-190","0.06671600668930093","0.5595010648732679","0.18522960129630017","0","","","","","","","",""
"","html-keyboard-response","475","1528881","0.0-252.0-1.0","null","<p></p>","null","","","","","","","","","","","","","","","","","","",""
"","do_trial","476","1533587","0.0-253.0-0.0","150","","","","50","1,0,0","5","mountain","194","probe-217","0.2175259050127108","0.6589640855900488","0.16351316343099065","0","","","","","","","",""
"","html-keyboard-response","477","1534593","0.0-253.0-1.0","null","<p></p>","null","","","","","","","","","","","","","","","","","","",""
"","do_trial","478","1539241","0.0-254.0-0.0","89","","","","50","0,0,0","5","mountain","195","probe-114","0.34947286689907253","0.6753675972221908","0.1643800028990315","0","","","","","","","",""
"","html-keyboard-response","479","1540244","0.0-254.0-1.0","null","<p></p>","null","","","","","","","","","","","","","","","","","","",""
"","do_trial","480","1544989","0.0-255.0-0.0","194","","","","50","1,1,0","5","mountain","196","probe-216","0.3442955012554081","0.6894040749044987","0.16549522430716299","1","","","","","","","",""
"","html-keyboard-response","481","1545995","0.0-255.0-1.0","null","<p></p>","null","","","","","","","","","","","","","","","","","","",""
"","do_trial","482","1550624","0.0-256.0-0.0","70","","","","50","0,1,1","5","mountain","197","probe-197","0.3898639797360027","0.7771051672811196","0.255904591075803","1","","","","","","","",""
"","html-keyboard-response","483","1551630","0.0-256.0-1.0","null","<p></p>","null","","","","","","","","","","","","","","","","","","",""
"","do_trial","484","1556284","0.0-257.0-0.0","99","","","","50","1,0,0","5","mountain","198","probe-95","0.3908927593292518","0.7702967779339785","0.05588580321207982","0","","","","","","","",""
"","html-keyboard-response","485","1557290","0.0-257.0-1.0","null","<p></p>","null","","","","","","","","","","","","","","","","","","",""
"","do_trial","486","1561973","0.0-258.0-0.0","128","","","","49","0,1,0","5","mountain","199","probe-129","0.3867449695369103","0.6155016402657396","0.09085039125846743","0","","","","","","","",""
"","html-keyboard-response","487","1562979","0.0-258.0-1.0","null","<p></p>","null","","","","","","","","","","","","","","","","","","",""
"","do_trial","488","1567786","0.0-259.0-0.0","241","","","","49","0,1,0","5","mountain","200","probe-133","0.3340773069487938","0.5634955279811673","0.07987589699221903","0","","","","","","","",""
"","html-keyboard-response","489","1568793","0.0-259.0-1.0","null","<p></p>","null","","","","","","","","","","","","","","","","","","",""
"","do_trial","490","1573581","0.0-260.0-0.0","227","","","","49","0,0,0","5","mountain","201","probe-124","0.3733336033849257","0.5741493456385564","0.11237970242287537","0","","","","","","","",""
"","html-keyboard-response","491","1574587","0.0-260.0-1.0","null","<p></p>","null","","","","","","","","","","","","","","","","","","",""
"","do_trial","492","1579323","0.0-261.0-0.0","182","","","","50","1,0,0","5","mountain","202","probe-116","0.4669135142132372","0.4673118027028884","0.09294566418078067","0","","","","","","","",""
"","html-keyboard-response","493","1580329","0.0-261.0-1.0","null","<p></p>","null","","","","","","","","","","","","","","","","","","",""
"","do_trial","494","1585095","0.0-262.0-0.0","205.99999999976717","","","","50","0,1,0","5","mountain","203","probe-43","0.541621899004368","0.43210719894722793","0.1562873139451901","1","","","","","","","",""
"","html-keyboard-response","495","1586099","0.0-262.0-1.0","null","<p></p>","null","","","","","","","","","","","","","","","","","","",""
"","do_trial","496","1590757","0.0-263.0-0.0","93","","","","50","1,0,0","5","mountain","204","probe-86","0.6254699755319411","0.34591598641990723","0.14232300302136588","0","","","","","","","",""
"","html-keyboard-response","497","1591761","0.0-263.0-1.0","null","<p></p>","null","","","","","","","","","","","","","","","","","","",""
"","do_trial","498","1596365","0.0-264.0-0.0","58","","","","49","1,0,0","5","mountain","205","probe-118","0.5640292352699122","0.31277244805628573","0.06181215492960199","1","","","","","","","",""
"","html-keyboard-response","499","1597370","0.0-264.0-1.0","null","<p></p>","null","","","","","","","","","","","","","","","","","","",""
"","do_trial","500","1601987","0.0-265.0-0.0","58","","","","49","0,1,0","5","mountain","206","probe-80","0.6248113650204353","0.2061561716384977","0.05523348443462013","0","","","","","","","",""
"","html-keyboard-response","501","1602992","0.0-265.0-1.0","null","<p></p>","null","","","","","","","","","","","","","","","","","","",""
"","do_trial","502","1607550","0.0-266.0-0.0","0","","","","49","1,0,0","5","mountain","207","probe-44","0.6189680028412743","0.20184355635639406","0.22266584539296794","1","","","","","","","",""
"","html-keyboard-response","503","1608556","0.0-266.0-1.0","null","<p></p>","null","","","","","","","","","","","","","","","","","","",""
"","do_trial","504","1613351","0.0-267.0-0.0","244","","","","49","1,0,0","5","mountain","208","probe-212","0.642832360265526","0.338446155276177","0.16626562467400186","1","","","","","","","",""
"","html-keyboard-response","505","1614356","0.0-267.0-1.0","null","<p></p>","null","","","","","","","","","","","","","","","","","","",""
"","do_trial","506","1619400","0.0-268.0-0.0","486","","","","49","0,1,0","5","mountain","209","probe-229","0.5169690028134394","0.27742895497822234","0.05849361130689259","0","","","","","","","",""
"","html-keyboard-response","507","1620406","0.0-268.0-1.0","null","<p></p>","null","","","","","","","","","","","","","","","","","","",""
"","do_trial","508","1625168","0.0-269.0-0.0","215","","","","50","1,1,0","5","mountain","210","probe-168","0.5798277334630066","0.24440755088542762","0.13721681667111252","1","","","","","","","",""
"","html-keyboard-response","509","1626171","0.0-269.0-1.0","null","<p></p>","null","","","","","","","","","","","","","","","","","","",""
"","do_trial","510","1630719","0.0-270.0-0.0","1","","","","50","0,0,1","5","mountain","211","probe-98","0.539940707521876","0.2840719612504715","0.1518647297183452","0","","","","","","","",""
"","html-keyboard-response","511","1631722","0.0-270.0-1.0","null","<p></p>","null","","","","","","","","","","","","","","","","","","",""
"","do_trial","512","1636280","0.0-271.0-0.0","0","","","","50","0,0,0","5","mountain","212","probe-140","0.5942839532619172","0.3283495399535643","0.16865652872747522","0","","","","","","","",""
"","html-keyboard-response","513","1637284","0.0-271.0-1.0","null","<p></p>","null","","","","","","","","","","","","","","","","","","",""
"","do_trial","514","1642060","0.0-272.0-0.0","218","","","","50","0,0,0","5","mountain","213","probe-14","0.6166812302946808","0.36685078878169775","0.14566671758890423","0","","","","","","","",""
"","html-keyboard-response","515","1643064","0.0-272.0-1.0","null","<p></p>","null","","","","","","","","","","","","","","","","","","",""
"","do_trial","516","1647618","0.0-273.0-0.0","1","","","","51","1,0,0","5","mountain","214","probe-107","0.6543883046892041","0.3907819353508784","0.20365004571190773","0","","","","","","","",""
"","html-keyboard-response","517","1648624","0.0-273.0-1.0","null","<p></p>","null","","","","","","","","","","","","","","","","","","",""
"","do_trial","518","1653238","0.0-274.0-0.0","57","","","","51","1,1,1","5","mountain","215","probe-224","0.7558389559579733","0.5575541871297418","0.24182358877622542","1","","","","","","","",""
"","html-keyboard-response","519","1654244","0.0-274.0-1.0","null","<p></p>","null","","","","","","","","","","","","","","","","","","",""
"","do_trial","520","1659044","0.0-275.0-0.0","251","","","","51","0,0,0","5","mountain","216","probe-27","0.8199123503089136","0.5469825964447197","0.2396867566878262","0","","","","","","","",""
"","html-keyboard-response","521","1660049","0.0-275.0-1.0","null","<p></p>","null","","","","","","","","","","","","","","","","","","",""
"","do_trial","522","1664607","0.0-276.0-0.0","0","","","","51","1,1,0","5","mountain","217","probe-92","0.74122820955107","0.41811603109827256","0.11424762224624394","0","","","","","","","",""
"","html-keyboard-response","523","1665612","0.0-276.0-1.0","null","<p></p>","null","","","","","","","","","","","","","","","","","","",""
"","do_trial","524","1670218","0.0-277.0-0.0","61","","","","51","1,1,0","5","mountain","218","probe-204","0.7012698087167278","0.38142404364981825","0.117657212940441","0","","","","","","","",""
"","html-keyboard-response","525","1671223","0.0-277.0-1.0","null","<p></p>","null","","","","","","","","","","","","","","","","","","",""
"","do_trial","526","1675992","0.0-278.0-0.0","224","","","","51","1,1,0","5","mountain","219","probe-94","0.6074092657334739","0.38081482473683376","0.1756536943881978","0","","","","","","","",""
"","html-keyboard-response","527","1676997","0.0-278.0-1.0","null","<p></p>","null","","","","","","","","","","","","","","","","","","",""
"","do_trial","528","1681543","0.0-279.0-0.0","0","","","","50","1,0,0","5","mountain","220","probe-52","0.38776366211047075","0.3795522593535558","0.05525566582122396","0","","","","","","","",""
"","html-keyboard-response","529","1682548","0.0-279.0-1.0","null","<p></p>","null","","","","","","","","","","","","","","","","","","",""
"","do_trial","530","1687170","0.0-280.0-0.0","69.99999999976717","","","","50","0,0,0","5","mountain","221","probe-53","0.46870748628985653","0.3466603417502708","0.074246178617686","0","","","","","","","",""
"","html-keyboard-response","531","1688176","0.0-280.0-1.0","null","<p></p>","null","","","","","","","","","","","","","","","","","","",""
"","do_trial","532","1692735","0.0-281.0-0.0","14.00000000023283","","","","49","0,1,0","5","mountain","222","probe-184","0.43902787498634704","0.37319443611736747","0.11186801955685806","0","","","","","","","",""
"","html-keyboard-response","533","1693740","0.0-281.0-1.0","null","<p></p>","null","","","","","","","","","","","","","","","","","","",""
"","do_trial","534","1698294","0.0-282.0-0.0","0","","","","49","0,0,0","5","mountain","223","probe-125","0.5263245811201281","0.44605678640588997","0.17465332211275608","0","","","","","","","",""
"","html-keyboard-response","535","1699299","0.0-282.0-1.0","null","<p></p>","null","","","","","","","","","","","","","","","","","","",""
"","do_trial","536","1704061","0.0-283.0-0.0","212","","","","49","0,0,0","5","mountain","224","probe-142","0.43378019382142113","0.4394382819926465","0.06220976955621605","0","","","","","","","",""
"","html-keyboard-response","537","1705066","0.0-283.0-1.0","null","<p></p>","null","","","","","","","","","","","","","","","","","","",""
"","do_trial","538","1709795","0.0-284.0-0.0","168","","","","50","1,0,1","5","mountain","225","probe-165","0.4733877466070626","0.20902950109366247","0.2265075103482352","0","","","","","","","",""
"","html-keyboard-response","539","1710800","0.0-284.0-1.0","null","<p></p>","null","","","","","","","","","","","","","","","","","","",""
"","do_trial","540","1715485","0.0-285.0-0.0","139.00000000023283","","","","50","0,1,0","5","mountain","226","probe-63","0.5914124376777949","0.28367399786618896","0.07934016189009421","1","","","","","","","",""
"","html-keyboard-response","541","1716489","0.0-285.0-1.0","null","<p></p>","null","","","","","","","","","","","","","","","","","","",""
"","do_trial","542","1721196","0.0-286.0-0.0","150","","","","50","0,0,0","5","mountain","227","probe-170","0.7016612288675323","0.26525341944857844","0.11312783153683094","0","","","","","","","",""
"","html-keyboard-response","543","1722199","0.0-286.0-1.0","null","<p></p>","null","","","","","","","","","","","","","","","","","","",""
"","do_trial","544","1726858","0.0-287.0-0.0","113.99999999976717","","","","51","1,0,0","5","mountain","228","probe-36","0.6498344801179377","0.39348087298777124","0.054556242381134094","0","","","","","","","",""
