"success","trial_type","trial_index","time_elapsed","internal_node_id","interactions","blur_events","focus_events","fullscreenenter_events","fullscreenexit_events","rt","stimulus","key_press","subject_id","participant_id","age","gender","prompt","response","choice_outcomes","context_n","context_img_id","trial_n","probe_img_id","pR_red","pR_white","pR_black","outcome","contextArray_ind","validImageProbes","invalidImageProbes","pRew_Red","pRew_White","pRew_Black","availableForMemProbe","choice_blocks"
"true","fullscreen","0","15443","0.0-0.0","""event"",""trial"",""time""
""fullscreenenter"",""0"",""14484""
","
","
","""event"",""trial"",""time""
""fullscreenenter"",""0"",""14484""
","
","","","","","","","","","","","","","","","","","","","","","","","","","",""
"","pavlovia","1","15451","0.0-1.0","""event"",""trial"",""time""
""fullscreenenter"",""0"",""14484""
","
","
","""event"",""trial"",""time""
""fullscreenenter"",""0"",""14484""
","
","","","","","","","","","","","","","","","","","","","","","","","","","",""
"","instruc1","2","60657","0.0-2.0","""event"",""trial"",""time""
""fullscreenenter"",""0"",""14484""
","
","
","""event"",""trial"",""time""
""fullscreenenter"",""0"",""14484""
","
","null","run_exp/static/audio/clip_1_welcome.m4a","null","922","1250","18","Female","<div class='center'><p>Welcome! This is the first part of the study. It will last ~30 minutes. In part 1 and part 2 of the study, you are the head captain of a pirate ship traveling around the world to different islands. You will play a few different games throughout these two parts. Here is an overview of them:</p><br><p>Part 1 (today)</p><p>1. Instructions, practice game, and quiz</p><p>2. Pick a pirate game on 6 different islands</p><br><p>Part 2 (tomorrow)</p><p>3. Pick a pirate game and memory game</p><p>4. Where did you see this ship? </p></div>","","","","","","","","","","","","","","","","","",""
"","html-keyboard-response","3","71813","0.0-3.0","""event"",""trial"",""time""
""fullscreenenter"",""0"",""14484""
","
","
","""event"",""trial"",""time""
""fullscreenenter"",""0"",""14484""
","
","11151.300000000745","<div class='center'><p>Welcome! This is the first part of the study. It will last ~30 minutes. In part 1 and part 2 of the study, you are the head captain of a pirate ship traveling around the world to different islands. You will play a few different games throughout these two parts. Here is an overview of them:</p><br><p>Part 1 (today)</p><p>1. Instructions, practice game, and quiz</p><p>2. Pick a pirate game on 6 different islands</p><br><p>Part 2 (tomorrow)</p><p>3. Pick a pirate game and memory game</p><p>4. Where did you see this ship? </p><p><b>[Press the space bar to continue]</b></p></div>","32","","","","","","","","","","","","","","","","","","","","","","",""
"","instruc2","4","77137","0.0-4.0","""event"",""trial"",""time""
""fullscreenenter"",""0"",""14484""
","
","
","""event"",""trial"",""time""
""fullscreenenter"",""0"",""14484""
","
","null","run_exp/static/audio/clip_2_different_places.m4a","null","","","","","<div class='center'><p>Today, you’ll visit these 6 islands on your journey. You'll be able to see these islands from your ship.</p><p><img src='run_exp/static/images/contexts/all_contexts.png' height='500'></p></div>","","","","","","","","","","","","","","","","","",""
"","html-keyboard-response","5","79084","0.0-5.0","""event"",""trial"",""time""
""fullscreenenter"",""0"",""14484""
","
","
","""event"",""trial"",""time""
""fullscreenenter"",""0"",""14484""
","
","1943.1000000014901","<div class='center'><p>Today, you’ll visit these 6 islands on your journey. You'll be able to see these islands from your ship.</p><p><img src='run_exp/static/images/contexts/all_contexts.png' height='500'></p><p><b>[Press the space bar to continue]</b></p></div>","32","","","","","","","","","","","","","","","","","","","","","","",""
"","instruc3","6","88939","0.0-6.0","""event"",""trial"",""time""
""fullscreenenter"",""0"",""14484""
","
","
","""event"",""trial"",""time""
""fullscreenenter"",""0"",""14484""
","
","null","run_exp/static/audio/clip_3_goal_of_game_1.m4a","null","","","","","<div class='center'><p> The pirates on your ship will rob other ships as they leave the island.</p> These ships have just sold their goods to the islanders, so they will be filled with lots and lots of gold.</p><p><img src='run_exp/static/images/tutorial/ship_center.png' height='400'></p></div>","","","","","","","","","","","","","","","","","",""
"","html-keyboard-response","7","91678","0.0-7.0","""event"",""trial"",""time""
""fullscreenenter"",""0"",""14484""
","
","
","""event"",""trial"",""time""
""fullscreenenter"",""0"",""14484""
","
","2736.10000000149","<div class='center'><p> The pirates on your ship will rob other ships as they leave the island.</p> These ships have just sold their goods to the islanders, so they will be filled with lots and lots of gold.</p><p><img src='run_exp/static/images/tutorial/ship_center.png' height='400'></p><p><b>[Press the space bar to continue]</b></p></div>","32","","","","","","","","","","","","","","","","","","","","","","",""
"","instruc4","8","119790","0.0-8.0","""event"",""trial"",""time""
""fullscreenenter"",""0"",""14484""
","
","
","""event"",""trial"",""time""
""fullscreenenter"",""0"",""14484""
","
","null","run_exp/static/audio/clip_4_goal_of_game_2.m4a","null","","","","","<div class='center'><p>As the head captain, you do not have to rob any ships yourself. Another pirate will be doing the robbing for you. First, you will choose a pirate to rob the next ship.</p><p><img src='run_exp/static/images/tutorial/pirates_all_crop.png' height='200'></p><p>Then, you'll see if the pirate successfully robbed the ship of their gold. If they were successful, then you'll get a stack of gold coins like this:</p><p><img src='run_exp/static/images/tutorial/reward.png' height='150'></p><p> If they were <b>not</b> successful, then you'll get no gold coins, and you'll see a big red x like this: </p><p><img src='run_exp/static/images/tutorial/reward_no.png' height='150'></p><p> How much bonus money you make is based on how many gold coins you collect.</p><div>","","","","","","","","","","","","","","","","","",""
"","html-keyboard-response","9","122233","0.0-9.0","""event"",""trial"",""time""
""fullscreenenter"",""0"",""14484""
","
","
","""event"",""trial"",""time""
""fullscreenenter"",""0"",""14484""
","
","2437.60000000149","<div class='center'><p>As the head captain, you do not have to rob any ships yourself. Another pirate will be doing the robbing for you. First, you will choose a pirate to rob the next ship.</p><p><img src='run_exp/static/images/tutorial/pirates_all_crop.png' height='200'></p><p>Then, you'll see if the pirate successfully robbed the ship of their gold. If they were successful, then you'll get a stack of gold coins like this:</p><p><img src='run_exp/static/images/tutorial/reward.png' height='150'></p><p> If they were <b>not</b> successful, then you'll get no gold coins, and you'll see a big red x like this: </p><p><img src='run_exp/static/images/tutorial/reward_no.png' height='150'></p><p> How much bonus money you make is based on how many gold coins you collect.</p<p><b>[Press the space bar to continue]</b></p></div>","32","","","","","","","","","","","","","","","","","","","","","","",""
"","instruc5","10","143794","0.0-10.0","""event"",""trial"",""time""
""fullscreenenter"",""0"",""14484""
","
","
","""event"",""trial"",""time""
""fullscreenenter"",""0"",""14484""
","
","21556.60000000149","run_exp/static/audio/clip_5_probabilistic.m4a","49","","","","","<div class='center'><p>Even the most skilled pirate can not rob EVERY ship.</p><p> Some ships will have very strong protections against pirate attacks.</p><p> Blue beard, here, is very, very good at robbing ships, but he won't be successful every time he tries to rob one.</p><p> You can press the <b>‘1’</b> key on the keyboard to choose him.</p><p> Try choosing him 10 times to see how often he succeeds at robbing a ship. </p><p><img src='run_exp/static/images/tutorial/blue.png' height='500'></p></div>","","","","","","","","","","","","","","","","","",""
"","html-keyboard-response","11","145297","0.0-11.0","""event"",""trial"",""time""
""fullscreenenter"",""0"",""14484""
","
","
","""event"",""trial"",""time""
""fullscreenenter"",""0"",""14484""
","
","null","<div class='center'><p><img src='run_exp/static/images/tutorial/blue_win.png' height='500'></p></div>","null","","","","","","","","","","","","","","","","","","","","","","",""
"","html-keyboard-response","12","146282","0.0-12.0","""event"",""trial"",""time""
""fullscreenenter"",""0"",""14484""
","
","
","""event"",""trial"",""time""
""fullscreenenter"",""0"",""14484""
","
","982.4000000022352","<div class='center'><img src='run_exp/static/images/tutorial/blue.png' height='500'></p></div>","49","","","","","","","","","","","","","","","","","","","","","","",""
"","html-keyboard-response","13","147785","0.0-13.0","""event"",""trial"",""time""
""fullscreenenter"",""0"",""14484""
","
","
","""event"",""trial"",""time""
""fullscreenenter"",""0"",""14484""
","
","null","<div class='center'><p><img src='run_exp/static/images/tutorial/blue_win.png' height='500'></p></div>","null","","","","","","","","","","","","","","","","","","","","","","",""
"","html-keyboard-response","14","147891","0.0-14.0","""event"",""trial"",""time""
""fullscreenenter"",""0"",""14484""
","
","
","""event"",""trial"",""time""
""fullscreenenter"",""0"",""14484""
","
","103.90000000223517","<div class='center'><img src='run_exp/static/images/tutorial/blue.png' height='500'></p></div>","49","","","","","","","","","","","","","","","","","","","","","","",""
"","html-keyboard-response","15","149393","0.0-15.0","""event"",""trial"",""time""
""fullscreenenter"",""0"",""14484""
","
","
","""event"",""trial"",""time""
""fullscreenenter"",""0"",""14484""
","
","null","<div class='center'><p><img src='run_exp/static/images/tutorial/blue_win.png' height='500'></p></div>","null","","","","","","","","","","","","","","","","","","","","","","",""
"","html-keyboard-response","16","149708","0.0-16.0","""event"",""trial"",""time""
""fullscreenenter"",""0"",""14484""
","
","
","""event"",""trial"",""time""
""fullscreenenter"",""0"",""14484""
","
","312.30000000074506","<div class='center'><img src='run_exp/static/images/tutorial/blue.png' height='500'></p></div>","49","","","","","","","","","","","","","","","","","","","","","","",""
"","html-keyboard-response","17","151210","0.0-17.0","""event"",""trial"",""time""
""fullscreenenter"",""0"",""14484""
","
","
","""event"",""trial"",""time""
""fullscreenenter"",""0"",""14484""
","
","null","<div class='center'><p><img src='run_exp/static/images/tutorial/blue_no_win.png' height='500'></p></div>","null","","","","","","","","","","","","","","","","","","","","","","",""
"","html-keyboard-response","18","151633","0.0-18.0","""event"",""trial"",""time""
""fullscreenenter"",""0"",""14484""
","
","
","""event"",""trial"",""time""
""fullscreenenter"",""0"",""14484""
","
","420.80000000074506","<div class='center'><img src='run_exp/static/images/tutorial/blue.png' height='500'></p></div>","49","","","","","","","","","","","","","","","","","","","","","","",""
"","html-keyboard-response","19","153135","0.0-19.0","""event"",""trial"",""time""
""fullscreenenter"",""0"",""14484""
","
","
","""event"",""trial"",""time""
""fullscreenenter"",""0"",""14484""
","
","null","<div class='center'><p><img src='run_exp/static/images/tutorial/blue_win.png' height='500'></p></div>","null","","","","","","","","","","","","","","","","","","","","","","",""
"","html-keyboard-response","20","153602","0.0-20.0","""event"",""trial"",""time""
""fullscreenenter"",""0"",""14484""
","
","
","""event"",""trial"",""time""
""fullscreenenter"",""0"",""14484""
","
","464.69999999925494","<div class='center'><img src='run_exp/static/images/tutorial/blue.png' height='500'></p></div>","49","","","","","","","","","","","","","","","","","","","","","","",""
"","html-keyboard-response","21","155104","0.0-21.0","""event"",""trial"",""time""
""fullscreenenter"",""0"",""14484""
","
","
","""event"",""trial"",""time""
""fullscreenenter"",""0"",""14484""
","
","null","<div class='center'><p><img src='run_exp/static/images/tutorial/blue_win.png' height='500'></p></div>","null","","","","","","","","","","","","","","","","","","","","","","",""
"","html-keyboard-response","22","155420","0.0-22.0","""event"",""trial"",""time""
""fullscreenenter"",""0"",""14484""
","
","
","""event"",""trial"",""time""
""fullscreenenter"",""0"",""14484""
","
","313.19999999925494","<div class='center'><img src='run_exp/static/images/tutorial/blue.png' height='500'></p></div>","49","","","","","","","","","","","","","","","","","","","","","","",""
"","html-keyboard-response","23","156922","0.0-23.0","""event"",""trial"",""time""
""fullscreenenter"",""0"",""14484""
","
","
","""event"",""trial"",""time""
""fullscreenenter"",""0"",""14484""
","
","null","<div class='center'><p><img src='run_exp/static/images/tutorial/blue_win.png' height='500'></p></div>","null","","","","","","","","","","","","","","","","","","","","","","",""
"","html-keyboard-response","24","157215","0.0-24.0","""event"",""trial"",""time""
""fullscreenenter"",""0"",""14484""
","
","
","""event"",""trial"",""time""
""fullscreenenter"",""0"",""14484""
","
","291.30000000074506","<div class='center'><img src='run_exp/static/images/tutorial/blue.png' height='500'></p></div>","49","","","","","","","","","","","","","","","","","","","","","","",""
"","html-keyboard-response","25","158717","0.0-25.0","""event"",""trial"",""time""
""fullscreenenter"",""0"",""14484""
","
","
","""event"",""trial"",""time""
""fullscreenenter"",""0"",""14484""
","
","null","<div class='center'><p><img src='run_exp/static/images/tutorial/blue_no_win.png' height='500'></p></div>","null","","","","","","","","","","","","","","","","","","","","","","",""
"","html-keyboard-response","26","158992","0.0-26.0","""event"",""trial"",""time""
""fullscreenenter"",""0"",""14484""
","
","
","""event"",""trial"",""time""
""fullscreenenter"",""0"",""14484""
","
","272.3999999985099","<div class='center'><img src='run_exp/static/images/tutorial/blue.png' height='500'></p></div>","49","","","","","","","","","","","","","","","","","","","","","","",""
"","html-keyboard-response","27","160494","0.0-27.0","""event"",""trial"",""time""
""fullscreenenter"",""0"",""14484""
","
","
","""event"",""trial"",""time""
""fullscreenenter"",""0"",""14484""
","
","null","<div class='center'><p><img src='run_exp/static/images/tutorial/blue_win.png' height='500'></p></div>","null","","","","","","","","","","","","","","","","","","","","","","",""
"","html-keyboard-response","28","160778","0.0-28.0","""event"",""trial"",""time""
""fullscreenenter"",""0"",""14484""
","
","
","""event"",""trial"",""time""
""fullscreenenter"",""0"",""14484""
","
","281.19999999925494","<div class='center'><img src='run_exp/static/images/tutorial/blue.png' height='500'></p></div>","49","","","","","","","","","","","","","","","","","","","","","","",""
"","html-keyboard-response","29","162280","0.0-29.0","""event"",""trial"",""time""
""fullscreenenter"",""0"",""14484""
","
","
","""event"",""trial"",""time""
""fullscreenenter"",""0"",""14484""
","
","null","<div class='center'><p><img src='run_exp/static/images/tutorial/blue_win.png' height='500'></p></div>","null","","","","","","","","","","","","","","","","","","","","","","",""
"","instruc6","30","167692","0.0-30.0","""event"",""trial"",""time""
""fullscreenenter"",""0"",""14484""
","
","
","""event"",""trial"",""time""
""fullscreenenter"",""0"",""14484""
","
","null","run_exp/static/audio/clip_6_blue_beard_outcome.m4a","null","","","","","<div class='center'><p> See, he succeeded in robbing the ships most of the time but not every time. </p></div>","","","","","","","","","","","","","","","","","",""
"","html-keyboard-response","31","168990","0.0-31.0","""event"",""trial"",""time""
""fullscreenenter"",""0"",""14484""
","
","
","""event"",""trial"",""time""
""fullscreenenter"",""0"",""14484""
","
","1294","<div class='center'><p> See, he succeeded in robbing the ships most of the time but not every time. </p><p><b>[Press the space bar to continue]</b></p></div>","32","","","","","","","","","","","","","","","","","","","","","","",""
"","audio-keyboard-response","32","185445","0.0-32.0","""event"",""trial"",""time""
""fullscreenenter"",""0"",""14484""
","
","
","""event"",""trial"",""time""
""fullscreenenter"",""0"",""14484""
","
","16450.400000002235","run_exp/static/audio/clip_7_pick_pirate.m4a","50","","","","","","","","","","","","","","","","","","","","","","",""
"","audio-keyboard-response","33","189921","0.0-33.0-0.0","""event"",""trial"",""time""
""fullscreenenter"",""0"",""14484""
","
","
","""event"",""trial"",""time""
""fullscreenenter"",""0"",""14484""
","
","4470.800000000745","run_exp/static/audio/clip_8_chosen_pirate_win.m4a","32","","","","","","","","","","","","","","","","","","","","","","",""
"","audio-keyboard-response","34","192428","0.0-33.0-1.0","""event"",""trial"",""time""
""fullscreenenter"",""0"",""14484""
","
","
","""event"",""trial"",""time""
""fullscreenenter"",""0"",""14484""
","
","2504","run_exp/static/audio/clip_9_pick_a_pirate_again.m4a","51","","","","","","","","","","","","","","","","","","","","","","",""
"","audio-keyboard-response","35","196662","0.0-34.0-0.0","""event"",""trial"",""time""
""fullscreenenter"",""0"",""14484""
","
","
","""event"",""trial"",""time""
""fullscreenenter"",""0"",""14484""
","
","4228.199999999255","run_exp/static/audio/clip_10_chosen_pirate_loss.m4a","32","","","","","","","","","","","","","","","","","","","","","","",""
"","instruc9","36","202261","0.0-35.0-0.0","""event"",""trial"",""time""
""fullscreenenter"",""0"",""14484""
","
","
","""event"",""trial"",""time""
""fullscreenenter"",""0"",""14484""
","
","null","run_exp/static/audio/clip_11_time_out.m4a","null","","","","","<div class='center'><p>If you don’t make your choice fast enough, you’ll have to wait a few seconds before you can make another one. </p><p><img src='run_exp/static/images/miscellaneous/hurry_up.png' height='500'></p></div>","","","","","","","","","","","","","","","","","",""
"","html-keyboard-response","37","202927","0.0-35.0-1.0","""event"",""trial"",""time""
""fullscreenenter"",""0"",""14484""
","
","
","""event"",""trial"",""time""
""fullscreenenter"",""0"",""14484""
","
","662.8000000007451","<div class='center'><p>If you don’t make your choice fast enough, you’ll have to wait a few seconds before you can make another one. </p><p><img src='run_exp/static/images/miscellaneous/hurry_up.png' height='500'></p><p><b>[Press the space bar to continue]</b></p></div>","32","","","","","","","","","","","","","","","","","","","","","","",""
"","instruc10","38","242219","0.0-35.0-2.0","""event"",""trial"",""time""
""fullscreenenter"",""0"",""14484""
","
","
","""event"",""trial"",""time""
""fullscreenenter"",""0"",""14484""
","
","null","run_exp/static/audio/clip_12_probe.m4a","null","","","","","<div class='center'><p>Once you've chosen a pirate, you’ll be shown the ship they are robbing. You will never rob the same ship twice. Ships can be told apart from one another by the image on them. These are the goods that they sell. See, this ship has a travel mug on it. </p><p> You’ll have to remember which island you saw each ship on. You will win more gold coins and hence more bonus money if you remember correctly! To help you remember, you can imagine a story. For example, here, you could imagine a mug full of water in the desert. Or, as another example, if on the forest island, your pirate robbed a ship with an apple on it, you could imagine an apple falling from a tree in the forest. </p><p><img src='run_exp/static/images/tutorial/example_probe.png' height='500'></p></div>","","","","","","","","","","","","","","","","","",""
"","html-keyboard-response","39","255626","0.0-35.0-3.0","""event"",""trial"",""time""
""fullscreenenter"",""0"",""14484""
","
","
","""event"",""trial"",""time""
""fullscreenenter"",""0"",""14484""
","
","13403.800000000745","<div class='center'><p>Once you've chosen a pirate, you’ll be shown the ship they are robbing. You will never rob the same ship twice. Ships can be told apart from one another by the image on them. These are the goods that they sell. See, this ship has a travel mug on it. </p><p> You’ll have to remember which island you saw each ship on. You will win more gold coins and hence more bonus money if you remember correctly! To help you remember, you can imagine a story. For example, here, you could imagine a mug full of water in the desert. Or, as another example, if on the forest island, your pirate robbed a ship with an apple on it, you could imagine an apple falling from a tree in the forest. </p><p><img src='run_exp/static/images/tutorial/example_probe.png' height='500'></p><p><b>[Press the space bar to continue]</b></p></div>","32","","","","","","","","","","","","","","","","","","","","","","",""
"","instruc11","40","272087","0.0-35.0-4.0","""event"",""trial"",""time""
""fullscreenenter"",""0"",""14484""
","
","
","""event"",""trial"",""time""
""fullscreenenter"",""0"",""14484""
","
","null","run_exp/static/audio/clip_13_changepoint.m4a","null","","","","","<div class='center'><p>How successful a pirate is at robbing ships will depend on the island you’re on.</p><p> A pirate may have visited this island many times before and gained a lot of practice robbing ships there.</p><p>So, they’re more likely to be successful than a pirate who has never visited the island before.</p></div>","","","","","","","","","","","","","","","","","",""
"","html-keyboard-response","41","273245","0.0-35.0-5.0","""event"",""trial"",""time""
""fullscreenenter"",""0"",""14484""
","
","
","""event"",""trial"",""time""
""fullscreenenter"",""0"",""14484""
","
","1156.4000000022352","<div class='center'><p>How successful a pirate is at robbing ships will depend on the island you’re on.</p><p> A pirate may have visited this island many times before and gained a lot of practice robbing ships there.</p><p>So, they’re more likely to be successful than a pirate who has never visited the island before.</p><p><b>[Press the space bar to continue]</b></p></div>","32","","","","","","","","","","","","","","","","","","","","","","",""
"","instruc12","42","314461","0.0-35.0-6.0","""event"",""trial"",""time""
""fullscreenenter"",""0"",""14484""
","
","
","""event"",""trial"",""time""
""fullscreenenter"",""0"",""14484""
","
","null","run_exp/static/audio/clip_14_drift.m4a","null","","","","","<div class='center'><p>How successful a pirate is at robbing ships can also change over the time spent on the island. </p><p> Ships may hear from islanders about the pirates coming and will improve their protections against the attack. This may make it harder to rob them.</p><p> Ships may also become lazy and weaken the strength of their protections. This may make it easier to rob them.</p><br><p>Things are always changing on the high seas! So, try your best to pay attention!</p><p><img src='run_exp/static/images/tutorial/contingency.png' height='500'></p></div>","","","","","","","","","","","","","","","","","",""
"","html-keyboard-response","43","316706","0.0-35.0-7.0","""event"",""trial"",""time""
""fullscreenenter"",""0"",""14484""
","
","
","""event"",""trial"",""time""
""fullscreenenter"",""0"",""14484""
","
","2240.900000002235","<div class='center'><p>How successful a pirate is at robbing ships can also change over the time spent on the island. </p><p> Ships may hear from islanders about the pirates coming and will improve their protections against the attack. This may make it harder to rob them.</p><p> Ships may also become lazy and weaken the strength of their protections. This may make it easier to rob them.</p><br><p>Things are always changing on the high seas! So, try your best to pay attention!</p><p><img src='run_exp/static/images/tutorial/contingency.png' height='500'></p><p><b>[Press the space bar to continue]</b></p></div>","32","","","","","","","","","","","","","","","","","","","","","","",""
"","instruc13","44","352096","0.0-35.0-8.0","""event"",""trial"",""time""
""fullscreenenter"",""0"",""14484""
","
","
","""event"",""trial"",""time""
""fullscreenenter"",""0"",""14484""
","
","null","run_exp/static/audio/clip_15_summary.m4a","null","","","","","<div class='center'><p>Let's go over the instructions quickly again. You have two important things to do: </p><b><p> 1. Pick the pirate who is the best at robbing ships on the current island. </p></b><b><p> 2. Remember on which island a ship was robbed.</p> </b><p>The amount of bonus money you can win depends on both.</p><p><br><p>Let’s try a practice game. The game will start by showing you the pirates. First, pick a pirate using the <b> 1, 2, 3 </b> keys on your keyboard. When you are shown a ship, try to remember which island you’re on by making up a story.</p><p>This is just a practice game, so you’re not playing for money. </p><p> Good luck! This game will be very difficult but try your best!</p></div>","","","","","","","","","","","","","","","","","",""
"","html-keyboard-response","45","353230","0.0-35.0-9.0","""event"",""trial"",""time""
""fullscreenenter"",""0"",""14484""
","
","
","""event"",""trial"",""time""
""fullscreenenter"",""0"",""14484""
","
","1130.699999999255","<div class='center'><p>Let's go over the instructions quickly again. You have two important things to do: </p><b><p> 1. Pick the pirate who is the best at robbing ships on the current island. </p></b><b><p> 2. Remember on which island a ship was robbed.</p> </b><p>The amount of bonus money you can win depends on both.</p><p><br><p>Let’s try a practice game. The game will start by showing you the pirates. First, pick a pirate using the <b> 1, 2, 3 </b> keys on your keyboard. When you are shown a ship, try to remember which island you’re on by making up a story.</p><p>This is just a practice game, so you’re not playing for money. </p><p> Good luck! This game will be very difficult but try your best!</p><p><b>[Press the space bar to continue]</b></p></div>","32","","","","","","","","","","","","","","","","","","","","","","",""
"","do_welcome","46","357241","0.0-35.0-10.0","""event"",""trial"",""time""
""fullscreenenter"",""0"",""14484""
","
","
","""event"",""trial"",""time""
""fullscreenenter"",""0"",""14484""
","
","null","","","","","","","","null","","","","","","","","","","","","","","","","",""
"","do_trial","47","363849","0.0-35.0-11.0","""event"",""trial"",""time""
""fullscreenenter"",""0"",""14484""
","
","
","""event"",""trial"",""time""
""fullscreenenter"",""0"",""14484""
","
","2098.5","","","","","","","","50","1,0,0","","","","","","","","","","","","","","","",""
"","html-keyboard-response","48","364852","0.0-36.0-0.0","""event"",""trial"",""time""
""fullscreenenter"",""0"",""14484""
","
","
","""event"",""trial"",""time""
""fullscreenenter"",""0"",""14484""
","
","null","<p></p>","null","","","","","","","","","","","","","","","","","","","","","","",""
"","do_trial","49","371509","0.0-36.0-1.0","""event"",""trial"",""time""
""fullscreenenter"",""0"",""14484""
","
","
","""event"",""trial"",""time""
""fullscreenenter"",""0"",""14484""
","
","2147.099999997765","","","","","","","","49","1,1,0","","","","","","","","","","","","","","","",""
"","html-keyboard-response","50","372512","0.0-37.0-0.0","""event"",""trial"",""time""
""fullscreenenter"",""0"",""14484""
","
","
","""event"",""trial"",""time""
""fullscreenenter"",""0"",""14484""
","
","null","<p></p>","null","","","","","","","","","","","","","","","","","","","","","","",""
"","do_trial","51","378522","0.0-37.0-1.0","""event"",""trial"",""time""
""fullscreenenter"",""0"",""14484""
","
","
","""event"",""trial"",""time""
""fullscreenenter"",""0"",""14484""
","
","null","","","","","","","","null","1,0,1","","","","","","","","","","","","","","","",""
"","html-keyboard-response","52","379524","0.0-38.0-0.0","""event"",""trial"",""time""
""fullscreenenter"",""0"",""14484""
","
","
","""event"",""trial"",""time""
""fullscreenenter"",""0"",""14484""
","
","null","<p></p>","null","","","","","","","","","","","","","","","","","","","","","","",""
"","do_trial","53","384623","0.0-38.0-1.0","""event"",""trial"",""time""
""fullscreenenter"",""0"",""14484""
","
","
","""event"",""trial"",""time""
""fullscreenenter"",""0"",""14484""
","
","588.1999999992549","","","","","","","","51","1,0,1","","","","","","","","","","","","","","","",""
"","html-keyboard-response","54","385625","0.0-39.0-0.0","""event"",""trial"",""time""
""fullscreenenter"",""0"",""14484""
","
","
","""event"",""trial"",""time""
""fullscreenenter"",""0"",""14484""
","
","null","<p></p>","null","","","","","","","","","","","","","","","","","","","","","","",""
"","do_trial","55","391393","0.0-39.0-1.0","""event"",""trial"",""time""
""fullscreenenter"",""0"",""14484""
","
","
","""event"",""trial"",""time""
""fullscreenenter"",""0"",""14484""
","
","1255.8999999985099","","","","","","","","50","0,1,0","","","","","","","","","","","","","","","",""
"","html-keyboard-response","56","392396","0.0-40.0-0.0","""event"",""trial"",""time""
""fullscreenenter"",""0"",""14484""
","
","
","""event"",""trial"",""time""
""fullscreenenter"",""0"",""14484""
","
","null","<p></p>","null","","","","","","","","","","","","","","","","","","","","","","",""
"","do_trial","57","398107","0.0-40.0-1.0","""event"",""trial"",""time""
""fullscreenenter"",""0"",""14484""
","
","
","""event"",""trial"",""time""
""fullscreenenter"",""0"",""14484""
","
","1199.699999999255","","","","","","","","49","1,0,0","","","","","","","","","","","","","","","",""
"","do_bye","58","399615","0.0-41.0-0.0","""event"",""trial"",""time""
""fullscreenenter"",""0"",""14484""
","
","
","""event"",""trial"",""time""
""fullscreenenter"",""0"",""14484""
","
","null","","","","","","","","null","","","","","","","","","","","","","","","","",""
"","do_travel","59","408620","0.0-41.0-1.0","""event"",""trial"",""time""
""fullscreenenter"",""0"",""14484""
","
","
","""event"",""trial"",""time""
""fullscreenenter"",""0"",""14484""
","
","null","","","","","","","","null","","","","","","","","","","","","","","","","",""
"","do_welcome","60","412629","0.0-41.0-2.0","""event"",""trial"",""time""
""fullscreenenter"",""0"",""14484""
","
","
","""event"",""trial"",""time""
""fullscreenenter"",""0"",""14484""
","
","null","","","","","","","","null","","","","","","","","","","","","","","","","",""
"","do_trial","61","419058","0.0-41.0-3.0","""event"",""trial"",""time""
""fullscreenenter"",""0"",""14484""
","
","
","""event"",""trial"",""time""
""fullscreenenter"",""0"",""14484""
","
","1918","","","","","","","","50","1,0,0","","","","","","","","","","","","","","","",""
"","html-keyboard-response","62","420061","0.0-42.0-0.0","""event"",""trial"",""time""
""fullscreenenter"",""0"",""14484""
","
","
","""event"",""trial"",""time""
""fullscreenenter"",""0"",""14484""
","
","null","<p></p>","null","","","","","","","","","","","","","","","","","","","","","","",""
"","do_trial","63","425857","0.0-42.0-1.0","""event"",""trial"",""time""
""fullscreenenter"",""0"",""14484""
","
","
","""event"",""trial"",""time""
""fullscreenenter"",""0"",""14484""
","
","1284.5999999977648","","","","","","","","49","1,0,1","","","","","","","","","","","","","","","",""
"","html-keyboard-response","64","426859","0.0-43.0-0.0","""event"",""trial"",""time""
""fullscreenenter"",""0"",""14484""
","
","
","""event"",""trial"",""time""
""fullscreenenter"",""0"",""14484""
","
","null","<p></p>","null","","","","","","","","","","","","","","","","","","","","","","",""
"","do_trial","65","433545","0.0-43.0-1.0","""event"",""trial"",""time""
""fullscreenenter"",""0"",""14484""
","
","
","""event"",""trial"",""time""
""fullscreenenter"",""0"",""14484""
","
","2174.5","","","","","","","","51","1,1,0","","","","","","","","","","","","","","","",""
"","html-keyboard-response","66","434548","0.0-44.0-0.0","""event"",""trial"",""time""
""fullscreenenter"",""0"",""14484""
","
","
","""event"",""trial"",""time""
""fullscreenenter"",""0"",""14484""
","
","null","<p></p>","null","","","","","","","","","","","","","","","","","","","","","","",""
"","do_trial","67","439670","0.0-44.0-1.0","""event"",""trial"",""time""
""fullscreenenter"",""0"",""14484""
","
","
","""event"",""trial"",""time""
""fullscreenenter"",""0"",""14484""
","
","612.3000000007451","","","","","","","","50","0,0,1","","","","","","","","","","","","","","","",""
"","html-keyboard-response","68","440673","0.0-45.0-0.0","""event"",""trial"",""time""
""fullscreenenter"",""0"",""14484""
","
","
","""event"",""trial"",""time""
""fullscreenenter"",""0"",""14484""
","
","null","<p></p>","null","","","","","","","","","","","","","","","","","","","","","","",""
"","do_trial","69","445765","0.0-45.0-1.0","""event"",""trial"",""time""
""fullscreenenter"",""0"",""14484""
","
","
","""event"",""trial"",""time""
""fullscreenenter"",""0"",""14484""
","
","582.5","","","","","","","","49","1,0,1","","","","","","","","","","","","","","","",""
"","html-keyboard-response","70","450532","0.0-46.0-0.0","""event"",""trial"",""time""
""fullscreenenter"",""0"",""14484""
","
","
","""event"",""trial"",""time""
""fullscreenenter"",""0"",""14484""
","
","4763.39999999851","<div class='center'><p><img src='run_exp/static/images/tutorial/prac_best_pirate.png'  height='500'></p></div>","49","","","","","","","","","","","","","","","","","","","","","","",""
"","html-keyboard-response","71","453112","0.0-47.0-0.0","""event"",""trial"",""time""
""fullscreenenter"",""0"",""14484""
","
","
","""event"",""trial"",""time""
""fullscreenenter"",""0"",""14484""
","
","2574.60000000149","<div class='center'><p>That's correct! Red beard was the best.</p><p><b>[Press the space bar to continue]</b></p></div>","32","","","","","","","","","","","","","","","","","","","","","","",""
"","html-keyboard-response","72","456353","0.0-47.0-1.0","""event"",""trial"",""time""
""fullscreenenter"",""0"",""14484""
","
","
","""event"",""trial"",""time""
""fullscreenenter"",""0"",""14484""
","
","3239.2000000029802","<div class='center'><p><img src='run_exp/static/images/tutorial/prac_source.png'  height='500'></p></div>","50","","","","","","","","","","","","","","","","","","","","","","",""
"","html-keyboard-response","73","458279","0.0-48.0-0.0","""event"",""trial"",""time""
""fullscreenenter"",""0"",""14484""
","
","
","""event"",""trial"",""time""
""fullscreenenter"",""0"",""14484""
","
","1923.6000000014901","<div class='center'><p>That's correct! You saw this ship on the cavern island.</p><p><b>[Press the space bar to continue]</b></p></div>","32","","","","","","","","","","","","","","","","","","","","","","",""
"","quiz_beginning","74","469549","0.0-48.0-1.0","""event"",""trial"",""time""
""fullscreenenter"",""0"",""14484""
","
","
","""event"",""trial"",""time""
""fullscreenenter"",""0"",""14484""
","
","null","run_exp/static/audio/clip_16_quiz_intro.m4a","null","","","","","<div class='center'><p>Good job on the practice game! Now, you will be asked some true or false questions to make sure you really understand the rules of the game.</p><p> Press <b>'1'</b> on the keyboard for true and press <b>'2'</b> for false.</p></div>","","","","","","","","","","","","","","","","","",""
"","audio-keyboard-response","75","474210","0.0-48.0-2.0","""event"",""trial"",""time""
""fullscreenenter"",""0"",""14484""
","
","
","""event"",""trial"",""time""
""fullscreenenter"",""0"",""14484""
","
","4657.099999997765","run_exp/static/audio/clip_17_q1.m4a","49","","","","","","","","","","","","","","","","","","","","","","",""
"","correct","76","476798","0.0-49.0-0.0","""event"",""trial"",""time""
""fullscreenenter"",""0"",""14484""
","
","
","""event"",""trial"",""time""
""fullscreenenter"",""0"",""14484""
","
","null","run_exp/static/audio/clip_18_correct.m4a","null","","","","","<div class='center'><p>That's correct!</p></div>","","","","","","","","","","","","","","","","","",""
"","html-keyboard-response","77","477750","0.0-49.0-1.0","""event"",""trial"",""time""
""fullscreenenter"",""0"",""14484""
","
","
","""event"",""trial"",""time""
""fullscreenenter"",""0"",""14484""
","
","950.2999999970198","<div class='center'><p>That's correct!</p><p><b>[Press the space bar to continue]</b></p></div>","32","","","","","","","","","","","","","","","","","","","","","","",""
"","audio-keyboard-response","78","485752","0.0-49.0-2.0","""event"",""trial"",""time""
""fullscreenenter"",""0"",""14484""
","
","
","""event"",""trial"",""time""
""fullscreenenter"",""0"",""14484""
","
","8000.199999999255","run_exp/static/audio/clip_20_q2.m4a","50","","","","","","","","","","","","","","","","","","","","","","",""
"","correct","79","488321","0.0-50.0-0.0","""event"",""trial"",""time""
""fullscreenenter"",""0"",""14484""
","
","
","""event"",""trial"",""time""
""fullscreenenter"",""0"",""14484""
","
","null","run_exp/static/audio/clip_18_correct.m4a","null","","","","","<div class='center'><p>That's correct!</p></div>","","","","","","","","","","","","","","","","","",""
"","html-keyboard-response","80","489121","0.0-50.0-1.0","""event"",""trial"",""time""
""fullscreenenter"",""0"",""14484""
","
","
","""event"",""trial"",""time""
""fullscreenenter"",""0"",""14484""
","
","798","<div class='center'><p>That's correct!</p><p><b>[Press the space bar to continue]</b></p></div>","32","","","","","","","","","","","","","","","","","","","","","","",""
"","audio-keyboard-response","81","495521","0.0-50.0-2.0","""event"",""trial"",""time""
""fullscreenenter"",""0"",""14484""
","
","
","""event"",""trial"",""time""
""fullscreenenter"",""0"",""14484""
","
","6398.300000000745","run_exp/static/audio/clip_22_q3.m4a","50","","","","","","","","","","","","","","","","","","","","","","",""
"","correct","82","498078","0.0-51.0-0.0","""event"",""trial"",""time""
""fullscreenenter"",""0"",""14484""
","
","
","""event"",""trial"",""time""
""fullscreenenter"",""0"",""14484""
","
","null","run_exp/static/audio/clip_18_correct.m4a","null","","","","","<div class='center'><p>That's correct!</p></div>","","","","","","","","","","","","","","","","","",""
"","html-keyboard-response","83","498374","0.0-51.0-1.0","""event"",""trial"",""time""
""fullscreenenter"",""0"",""14484""
","
","
","""event"",""trial"",""time""
""fullscreenenter"",""0"",""14484""
","
","294.19999999925494","<div class='center'><p>That's correct!</p><p><b>[Press the space bar to continue]</b></p></div>","32","","","","","","","","","","","","","","","","","","","","","","",""
"","audio-keyboard-response","84","502529","0.0-51.0-2.0","""event"",""trial"",""time""
""fullscreenenter"",""0"",""14484""
","
","
","""event"",""trial"",""time""
""fullscreenenter"",""0"",""14484""
","
","4151.300000000745","run_exp/static/audio/clip_24_q4.m4a","49","","","","","","","","","","","","","","","","","","","","","","",""
"","correct","85","505234","0.0-52.0-0.0","""event"",""trial"",""time""
""fullscreenenter"",""0"",""14484""
","
","
","""event"",""trial"",""time""
""fullscreenenter"",""0"",""14484""
","
","null","run_exp/static/audio/clip_18_correct.m4a","null","","","","","<div class='center'><p>That's correct!</p></div>","","","","","","","","","","","","","","","","","",""
"","html-keyboard-response","86","506145","0.0-52.0-1.0","""event"",""trial"",""time""
""fullscreenenter"",""0"",""14484""
","
","
","""event"",""trial"",""time""
""fullscreenenter"",""0"",""14484""
","
","908.1999999992549","<div class='center'><p>That's correct!</p><p><b>[Press the space bar to continue]</b></p></div>","32","","","","","","","","","","","","","","","","","","","","","","",""
"","q_all_corr","87","514713","0.0-53.0-0.0","""event"",""trial"",""time""
""fullscreenenter"",""0"",""14484""
","
","
","""event"",""trial"",""time""
""fullscreenenter"",""0"",""14484""
","
","null","run_exp/static/audio/clip_27_quiz_all_correct.m4a","null","","","","","<div class='center'><p>Good job! You’re now ready to move on to the real game! Remember this game will be difficult but don't get discouraged and try your best!</p></div>","","","","","","","","","","","","","","","","","",""
"","html-keyboard-response","88","519225","0.0-53.0-1.0","""event"",""trial"",""time""
""fullscreenenter"",""0"",""14484""
","
","
","""event"",""trial"",""time""
""fullscreenenter"",""0"",""14484""
","
","4508.5","<div class='center'><p>Good job! You’re now ready to move on to the real game! Remember this game will be difficult but don't get discouraged and try your best!</p><p><b>[Press the space bar to continue]</b></p></div>","32","","","","","","","","","","","","","","","","","","","","","","",""
"","do_welcome","89","523233","0.0-54.0-0.0","""event"",""trial"",""time""
""fullscreenenter"",""0"",""14484""
","
","
","""event"",""trial"",""time""
""fullscreenenter"",""0"",""14484""
","
","null","","","","","","","","null","","","","","","","","","","","","","","","","",""
"","do_trial","90","530407","0.0-55.0-0.0","""event"",""trial"",""time""
""fullscreenenter"",""0"",""14484""
","
","
","""event"",""trial"",""time""
""fullscreenenter"",""0"",""14484""
","
","2597.7000000029802","","","","","","","","50","1,0,0","0","mountain","0","probe-177","0.6","0.3","0.1","0","","","","","","","",""
"","html-keyboard-response","91","531410","0.0-55.0-1.0","""event"",""trial"",""time""
""fullscreenenter"",""0"",""14484""
","
","
","""event"",""trial"",""time""
""fullscreenenter"",""0"",""14484""
","
","null","<p></p>","null","","","","","","","","","","","","","","","","","","","","","","",""
"","do_trial","92","537011","0.0-56.0-0.0","""event"",""trial"",""time""
""fullscreenenter"",""0"",""14484""
","
","
","""event"",""trial"",""time""
""fullscreenenter"",""0"",""14484""
","
","1035.6000000014901","","","","","","","","49","1,1,0","0","mountain","1","probe-68","0.6431588570768676","0.2867406445016528","0.10551039545844404","1","","","","","","","",""
"","html-keyboard-response","93","538014","0.0-56.0-1.0","""event"",""trial"",""time""
""fullscreenenter"",""0"",""14484""
","
","
","""event"",""trial"",""time""
""fullscreenenter"",""0"",""14484""
","
","null","<p></p>","null","","","","","","","","","","","","","","","","","","","","","","",""
"","do_trial","94","543973","0.0-57.0-0.0","""event"",""trial"",""time""
""fullscreenenter"",""0"",""14484""
","
","
","""event"",""trial"",""time""
""fullscreenenter"",""0"",""14484""
","
","1394.800000000745","","","","","","","","51","0,1,0","0","mountain","2","probe-214","0.6877121827975704","0.4111747336737622","0.1072022678254523","0","","","","","","","",""
"","html-keyboard-response","95","544978","0.0-57.0-1.0","""event"",""trial"",""time""
""fullscreenenter"",""0"",""14484""
","
","
","""event"",""trial"",""time""
""fullscreenenter"",""0"",""14484""
","
","null","<p></p>","null","","","","","","","","","","","","","","","","","","","","","","",""
"","do_trial","96","550156","0.0-58.0-0.0","""event"",""trial"",""time""
""fullscreenenter"",""0"",""14484""
","
","
","""event"",""trial"",""time""
""fullscreenenter"",""0"",""14484""
","
","615","","","","","","","","49","1,0,0","0","mountain","3","probe-32","0.543417135770449","0.31489059752308807","0.05177236925432418","1","","","","","","","",""
"","html-keyboard-response","97","551159","0.0-58.0-1.0","""event"",""trial"",""time""
""fullscreenenter"",""0"",""14484""
","
","
","""event"",""trial"",""time""
""fullscreenenter"",""0"",""14484""
","
","null","<p></p>","null","","","","","","","","","","","","","","","","","","","","","","",""
"","do_trial","98","556531","0.0-59.0-0.0","""event"",""trial"",""time""
""fullscreenenter"",""0"",""14484""
","
","
","""event"",""trial"",""time""
""fullscreenenter"",""0"",""14484""
","
","807.2000000029802","","","","","","","","49","0,0,1","0","mountain","4","probe-168","0.5721764500509419","0.33978852769554835","0.17310078477744928","0","","","","","","","",""
"","html-keyboard-response","99","557534","0.0-59.0-1.0","""event"",""trial"",""time""
""fullscreenenter"",""0"",""14484""
","
","
","""event"",""trial"",""time""
""fullscreenenter"",""0"",""14484""
","
","null","<p></p>","null","","","","","","","","","","","","","","","","","","","","","","",""
"","do_trial","100","563620","0.0-60.0-0.0","""event"",""trial"",""time""
""fullscreenenter"",""0"",""14484""
","
","
","""event"",""trial"",""time""
""fullscreenenter"",""0"",""14484""
","
","1519.5","","","","","","","","50","1,0,0","0","mountain","5","probe-84","0.644370515308873","0.2992927688581427","0.15907637580895193","0","","","","","","","",""
"","html-keyboard-response","101","564623","0.0-60.0-1.0","""event"",""trial"",""time""
""fullscreenenter"",""0"",""14484""
","
","
","""event"",""trial"",""time""
""fullscreenenter"",""0"",""14484""
","
","null","<p></p>","null","","","","","","","","","","","","","","","","","","","","","","",""
"","do_trial","102","570263","0.0-61.0-0.0","""event"",""trial"",""time""
""fullscreenenter"",""0"",""14484""
","
","
","""event"",""trial"",""time""
""fullscreenenter"",""0"",""14484""
","
","1076.3999999985099","","","","","","","","49","0,0,0","0","mountain","6","probe-105","0.6206379875346681","0.42546004104713253","0.15929524428694947","0","","","","","","","",""
"","html-keyboard-response","103","571265","0.0-61.0-1.0","""event"",""trial"",""time""
""fullscreenenter"",""0"",""14484""
","
","
","""event"",""trial"",""time""
""fullscreenenter"",""0"",""14484""
","
","null","<p></p>","null","","","","","","","","","","","","","","","","","","","","","","",""
"","do_trial","104","576163","0.0-62.0-0.0","""event"",""trial"",""time""
""fullscreenenter"",""0"",""14484""
","
","
","""event"",""trial"",""time""
""fullscreenenter"",""0"",""14484""
","
","332.8999999985099","","","","","","","","51","0,0,0","0","mountain","7","probe-139","0.5517567739797705","0.396573482439906","0.27782887129369116","0","","","","","","","",""
"","html-keyboard-response","105","577166","0.0-62.0-1.0","""event"",""trial"",""time""
""fullscreenenter"",""0"",""14484""
","
","
","""event"",""trial"",""time""
""fullscreenenter"",""0"",""14484""
","
","null","<p></p>","null","","","","","","","","","","","","","","","","","","","","","","",""
"","do_trial","106","582290","0.0-63.0-0.0","""event"",""trial"",""time""
""fullscreenenter"",""0"",""14484""
","
","
","""event"",""trial"",""time""
""fullscreenenter"",""0"",""14484""
","
","560.0999999977648","","","","","","","","50","1,0,0","0","mountain","8","probe-85","0.6214187173181819","0.4038968317054804","0.2857988789727456","0","","","","","","","",""
"","html-keyboard-response","107","583293","0.0-63.0-1.0","""event"",""trial"",""time""
""fullscreenenter"",""0"",""14484""
","
","
","""event"",""trial"",""time""
""fullscreenenter"",""0"",""14484""
","
","null","<p></p>","null","","","","","","","","","","","","","","","","","","","","","","",""
"","do_trial","108","588126","0.0-64.0-0.0","""event"",""trial"",""time""
""fullscreenenter"",""0"",""14484""
","
","
","""event"",""trial"",""time""
""fullscreenenter"",""0"",""14484""
","
","268.5999999977648","","","","","","","","49","1,0,0","0","mountain","9","probe-205","0.504110016449549","0.21346817378632213","0.24667290341000034","1","","","","","","","",""
"","html-keyboard-response","109","589129","0.0-64.0-1.0","""event"",""trial"",""time""
""fullscreenenter"",""0"",""14484""
","
","
","""event"",""trial"",""time""
""fullscreenenter"",""0"",""14484""
","
","null","<p></p>","null","","","","","","","","","","","","","","","","","","","","","","",""
"","do_trial","110","594389","0.0-65.0-0.0","""event"",""trial"",""time""
""fullscreenenter"",""0"",""14484""
","
","
","""event"",""trial"",""time""
""fullscreenenter"",""0"",""14484""
","
","696.5","","","","","","","","49","1,0,0","0","mountain","10","probe-11","0.39277260854339185","0.28337868165374797","0.29217522394466644","1","","","","","","","",""
"","html-keyboard-response","111","595391","0.0-65.0-1.0","""event"",""trial"",""time""
""fullscreenenter"",""0"",""14484""
","
","
","""event"",""trial"",""time""
""fullscreenenter"",""0"",""14484""
","
","null","<p></p>","null","","","","","","","","","","","","","","","","","","","","","","",""
"","do_trial","112","600367","0.0-66.0-0.0","""event"",""trial"",""time""
""fullscreenenter"",""0"",""14484""
","
","
","""event"",""trial"",""time""
""fullscreenenter"",""0"",""14484""
","
","409.8999999985099","","","","","","","","51","1,1,0","0","mountain","11","probe-171","0.5205287456861473","0.30593288685429526","0.17298150825078104","0","","","","","","","",""
"","html-keyboard-response","113","601370","0.0-66.0-1.0","""event"",""trial"",""time""
""fullscreenenter"",""0"",""14484""
","
","
","""event"",""trial"",""time""
""fullscreenenter"",""0"",""14484""
","
","null","<p></p>","null","","","","","","","","","","","","","","","","","","","","","","",""
"","do_trial","114","606167","0.0-67.0-0.0","""event"",""trial"",""time""
""fullscreenenter"",""0"",""14484""
","
","
","""event"",""trial"",""time""
""fullscreenenter"",""0"",""14484""
","
","232.09999999776483","","","","","","","","49","0,0,0","0","mountain","12","probe-201","0.6169667218575957","0.2492751062976079","0.06119299211354065","0","","","","","","","",""
"","html-keyboard-response","115","607169","0.0-67.0-1.0","""event"",""trial"",""time""
""fullscreenenter"",""0"",""14484""
","
","
","""event"",""trial"",""time""
""fullscreenenter"",""0"",""14484""
","
","null","<p></p>","null","","","","","","","","","","","","","","","","","","","","","","",""
"","do_trial","116","611970","0.0-68.0-0.0","""event"",""trial"",""time""
""fullscreenenter"",""0"",""14484""
","
","
","""event"",""trial"",""time""
""fullscreenenter"",""0"",""14484""
","
","235.89999999850988","","","","","","","","50","0,0,0","0","mountain","13","probe-63","0.6117098683297145","0.24437923503191392","0.10756555729079036","0","","","","","","","",""
"","html-keyboard-response","117","612972","0.0-68.0-1.0","""event"",""trial"",""time""
""fullscreenenter"",""0"",""14484""
","
","
","""event"",""trial"",""time""
""fullscreenenter"",""0"",""14484""
","
","null","<p></p>","null","","","","","","","","","","","","","","","","","","","","","","",""
"","do_trial","118","617763","0.0-69.0-0.0","""event"",""trial"",""time""
""fullscreenenter"",""0"",""14484""
","
","
","""event"",""trial"",""time""
""fullscreenenter"",""0"",""14484""
","
","224.80000000074506","","","","","","","","49","0,0,0","0","mountain","14","probe-167","0.5573117537094754","0.22138983418899244","0.12003029929558656","0","","","","","","","",""
"","html-keyboard-response","119","618766","0.0-69.0-1.0","""event"",""trial"",""time""
""fullscreenenter"",""0"",""14484""
","
","
","""event"",""trial"",""time""
""fullscreenenter"",""0"",""14484""
","
","null","<p></p>","null","","","","","","","","","","","","","","","","","","","","","","",""
"","do_trial","120","623854","0.0-70.0-0.0","""event"",""trial"",""time""
""fullscreenenter"",""0"",""14484""
","
","
","""event"",""trial"",""time""
""fullscreenenter"",""0"",""14484""
","
","525.7999999970198","","","","","","","","51","1,0,0","0","mountain","15","probe-17","0.624458047603111","0.3591532922210463","0.06052721010194863","0","","","","","","","",""
"","html-keyboard-response","121","624857","0.0-70.0-1.0","""event"",""trial"",""time""
""fullscreenenter"",""0"",""14484""
","
","
","""event"",""trial"",""time""
""fullscreenenter"",""0"",""14484""
","
","null","<p></p>","null","","","","","","","","","","","","","","","","","","","","","","",""
"","do_trial","122","629686","0.0-71.0-0.0","""event"",""trial"",""time""
""fullscreenenter"",""0"",""14484""
","
","
","""event"",""trial"",""time""
""fullscreenenter"",""0"",""14484""
","
","264.0999999977648","","","","","","","","49","1,0,0","0","mountain","16","probe-150","0.680871747266823","0.36273637952860277","0.09042066656627623","1","","","","","","","",""
"","html-keyboard-response","123","630688","0.0-71.0-1.0","""event"",""trial"",""time""
""fullscreenenter"",""0"",""14484""
","
","
","""event"",""trial"",""time""
""fullscreenenter"",""0"",""14484""
","
","null","<p></p>","null","","","","","","","","","","","","","","","","","","","","","","",""
"","do_trial","124","635856","0.0-72.0-0.0","""event"",""trial"",""time""
""fullscreenenter"",""0"",""14484""
","
","
","""event"",""trial"",""time""
""fullscreenenter"",""0"",""14484""
","
","602.1999999992549","","","","","","","","49","1,0,0","0","mountain","17","probe-10","0.5644624841795859","0.3740847302121546","0.10091319779774864","1","","","","","","","",""
"","html-keyboard-response","125","636859","0.0-72.0-1.0","""event"",""trial"",""time""
""fullscreenenter"",""0"",""14484""
","
","
","""event"",""trial"",""time""
""fullscreenenter"",""0"",""14484""
","
","null","<p></p>","null","","","","","","","","","","","","","","","","","","","","","","",""
"","do_trial","126","641811","0.0-73.0-0.0","""event"",""trial"",""time""
""fullscreenenter"",""0"",""14484""
","
","
","""event"",""trial"",""time""
""fullscreenenter"",""0"",""14484""
","
","386","","","","","","","","50","1,0,0","0","mountain","18","probe-98","0.6416113703618254","0.4656962668611839","0.07103895899816472","0","","","","","","","",""
"","html-keyboard-response","127","642814","0.0-73.0-1.0","""event"",""trial"",""time""
""fullscreenenter"",""0"",""14484""
","
","
","""event"",""trial"",""time""
""fullscreenenter"",""0"",""14484""
","
","null","<p></p>","null","","","","","","","","","","","","","","","","","","","","","","",""
"","do_trial","128","647621","0.0-74.0-0.0","""event"",""trial"",""time""
""fullscreenenter"",""0"",""14484""
","
","
","""event"",""trial"",""time""
""fullscreenenter"",""0"",""14484""
","
","241.89999999850988","","","","","","","","49","1,0,0","0","mountain","19","probe-210","0.7412042098180789","0.3769400281597458","0.05579818890444671","1","","","","","","","",""
"","html-keyboard-response","129","648626","0.0-74.0-1.0","""event"",""trial"",""time""
""fullscreenenter"",""0"",""14484""
","
","
","""event"",""trial"",""time""
""fullscreenenter"",""0"",""14484""
","
","null","<p></p>","null","","","","","","","","","","","","","","","","","","","","","","",""
"","do_trial","130","654273","0.0-75.0-0.0","""event"",""trial"",""time""
""fullscreenenter"",""0"",""14484""
","
","
","""event"",""trial"",""time""
""fullscreenenter"",""0"",""14484""
","
","1083.8999999985099","","","","","","","","49","1,0,0","0","mountain","20","probe-49","0.5909998888876584","0.2101060903401293","0.06323618366446648","1","","","","","","","",""
"","html-keyboard-response","131","655275","0.0-75.0-1.0","""event"",""trial"",""time""
""fullscreenenter"",""0"",""14484""
","
","
","""event"",""trial"",""time""
""fullscreenenter"",""0"",""14484""
","
","null","<p></p>","null","","","","","","","","","","","","","","","","","","","","","","",""
"","do_trial","132","660538","0.0-76.0-0.0","""event"",""trial"",""time""
""fullscreenenter"",""0"",""14484""
","
","
","""event"",""trial"",""time""
""fullscreenenter"",""0"",""14484""
","
","698.5","","","","","","","","51","0,0,0","0","mountain","21","probe-81","0.6112344118389657","0.18481892455178778","0.06387359632989441","0","","","","","","","",""
"","html-keyboard-response","133","661541","0.0-76.0-1.0","""event"",""trial"",""time""
""fullscreenenter"",""0"",""14484""
","
","
","""event"",""trial"",""time""
""fullscreenenter"",""0"",""14484""
","
","null","<p></p>","null","","","","","","","","","","","","","","","","","","","","","","",""
"","do_trial","134","666574","0.0-77.0-0.0","""event"",""trial"",""time""
""fullscreenenter"",""0"",""14484""
","
","
","""event"",""trial"",""time""
""fullscreenenter"",""0"",""14484""
","
","468.1000000014901","","","","","","","","49","1,0,0","0","mountain","22","probe-20","0.6984592993284381","0.19364466936585928","0.07767187975708818","1","","","","","","","",""
"","html-keyboard-response","135","667577","0.0-77.0-1.0","""event"",""trial"",""time""
""fullscreenenter"",""0"",""14484""
","
","
","""event"",""trial"",""time""
""fullscreenenter"",""0"",""14484""
","
","null","<p></p>","null","","","","","","","","","","","","","","","","","","","","","","",""
"","do_trial","136","673339","0.0-78.0-0.0","""event"",""trial"",""time""
""fullscreenenter"",""0"",""14484""
","
","
","""event"",""trial"",""time""
""fullscreenenter"",""0"",""14484""
","
","1197","","","","","","","","49","1,0,0","0","mountain","23","probe-26","0.77028179020594","0.30782513028385045","0.16133999296623788","1","","","","","","","",""
"","html-keyboard-response","137","674341","0.0-78.0-1.0","""event"",""trial"",""time""
""fullscreenenter"",""0"",""14484""
","
","
","""event"",""trial"",""time""
""fullscreenenter"",""0"",""14484""
","
","null","<p></p>","null","","","","","","","","","","","","","","","","","","","","","","",""
"","do_trial","138","680042","0.0-79.0-0.0","""event"",""trial"",""time""
""fullscreenenter"",""0"",""14484""
","
","
","""event"",""trial"",""time""
""fullscreenenter"",""0"",""14484""
","
","1136.2000000029802","","","","","","","","49","1,0,0","0","mountain","24","probe-195","0.7407848676944241","0.18671138174127705","0.24583978852146218","1","","","","","","","",""
"","html-keyboard-response","139","681044","0.0-79.0-1.0","""event"",""trial"",""time""
""fullscreenenter"",""0"",""14484""
","
","
","""event"",""trial"",""time""
""fullscreenenter"",""0"",""14484""
","
","null","<p></p>","null","","","","","","","","","","","","","","","","","","","","","","",""
"","do_trial","140","686300","0.0-80.0-0.0","""event"",""trial"",""time""
""fullscreenenter"",""0"",""14484""
","
","
","""event"",""trial"",""time""
""fullscreenenter"",""0"",""14484""
","
","690.9000000022352","","","","","","","","50","1,0,0","0","mountain","25","probe-197","0.7936055311602924","0.3511922339627118","0.343946466179392","0","","","","","","","",""
"","html-keyboard-response","141","687303","0.0-80.0-1.0","""event"",""trial"",""time""
""fullscreenenter"",""0"",""14484""
","
","
","""event"",""trial"",""time""
""fullscreenenter"",""0"",""14484""
","
","null","<p></p>","null","","","","","","","","","","","","","","","","","","","","","","",""
"","do_trial","142","692307","0.0-81.0-0.0","""event"",""trial"",""time""
""fullscreenenter"",""0"",""14484""
","
","
","""event"",""trial"",""time""
""fullscreenenter"",""0"",""14484""
","
","439.3999999985099","","","","","","","","49","1,1,0","0","mountain","26","probe-117","0.7144693686868842","0.40755303888527217","0.3274141756174775","1","","","","","","","",""
"","html-keyboard-response","143","693309","0.0-81.0-1.0","""event"",""trial"",""time""
""fullscreenenter"",""0"",""14484""
","
","
","""event"",""trial"",""time""
""fullscreenenter"",""0"",""14484""
","
","null","<p></p>","null","","","","","","","","","","","","","","","","","","","","","","",""
"","do_trial","144","700834","0.0-82.0-0.0","""event"",""trial"",""time""
""fullscreenenter"",""0"",""14484""
","
","
","""event"",""trial"",""time""
""fullscreenenter"",""0"",""14484""
","
","2961.10000000149","","","","","","","","49","1,0,1","0","mountain","27","probe-18","0.6827559640559306","0.42382649976242476","0.35892571648394805","1","","","","","","","",""
"","html-keyboard-response","145","701837","0.0-82.0-1.0","""event"",""trial"",""time""
""fullscreenenter"",""0"",""14484""
","
","
","""event"",""trial"",""time""
""fullscreenenter"",""0"",""14484""
","
","null","<p></p>","null","","","","","","","","","","","","","","","","","","","","","","",""
"","do_trial","146","707865","0.0-83.0-0.0","""event"",""trial"",""time""
""fullscreenenter"",""0"",""14484""
","
","
","""event"",""trial"",""time""
""fullscreenenter"",""0"",""14484""
","
","1462.5999999977648","","","","","","","","49","1,0,0","0","mountain","28","probe-93","0.6967178924583104","0.3049717366278165","0.3365760112406588","1","","","","","","","",""
"","html-keyboard-response","147","708867","0.0-83.0-1.0","""event"",""trial"",""time""
""fullscreenenter"",""0"",""14484""
","
","
","""event"",""trial"",""time""
""fullscreenenter"",""0"",""14484""
","
","null","<p></p>","null","","","","","","","","","","","","","","","","","","","","","","",""
"","do_trial","148","713762","0.0-84.0-0.0","""event"",""trial"",""time""
""fullscreenenter"",""0"",""14484""
","
","
","""event"",""trial"",""time""
""fullscreenenter"",""0"",""14484""
","
","332.1000000014901","","","","","","","","49","0,0,0","0","mountain","29","probe-137","0.6948166610721865","0.34866919365694815","0.10454927473699899","0","","","","","","","",""
"","html-keyboard-response","149","714765","0.0-84.0-1.0","""event"",""trial"",""time""
""fullscreenenter"",""0"",""14484""
","
","
","""event"",""trial"",""time""
""fullscreenenter"",""0"",""14484""
","
","null","<p></p>","null","","","","","","","","","","","","","","","","","","","","","","",""
"","do_bye","150","716273","0.0-85.0-0.0","""event"",""trial"",""time""
""fullscreenenter"",""0"",""14484""
","
","
","""event"",""trial"",""time""
""fullscreenenter"",""0"",""14484""
","
","null","","","","","","","","null","","","","","","","","","","","","","","","","",""
"","break","151","758178","0.0-85.0-1.0","""event"",""trial"",""time""
""fullscreenenter"",""0"",""14484""
","
","
","""event"",""trial"",""time""
""fullscreenenter"",""0"",""14484""
","
","41903","<div class='center'><p>Time to take a quick break! You have 2 minutes to rest, but you can move on sooner if you'd like.</p><p> Press the <b>space bar</b> to continue.</p></div>","32","","","","","","","","","","","","","","","","","","","","","","",""
"","do_travel","152","767183","0.0-86.0-0.0","""event"",""trial"",""time""
""fullscreenenter"",""0"",""14484""
","
","
","""event"",""trial"",""time""
""fullscreenenter"",""0"",""14484""
","
","null","","","","","","","","null","","","","","","","","","","","","","","","","",""
"","do_welcome","153","771192","0.0-86.0-1.0","""event"",""trial"",""time""
""fullscreenenter"",""0"",""14484""
","
","
","""event"",""trial"",""time""
""fullscreenenter"",""0"",""14484""
","
","null","","","","","","","","null","","","","","","","","","","","","","","","","",""
"","do_trial","154","777780","0.0-87.0-0.0","""event"",""trial"",""time""
""fullscreenenter"",""0"",""14484""
","
","
","""event"",""trial"",""time""
""fullscreenenter"",""0"",""14484""
","
","2022.8999999985099","","","","","","","","50","1,0,0","1","coast","30","probe-180","1","0.42843147317443697","0.0591191725097337","0","","","","","","","",""
"","html-keyboard-response","155","778783","0.0-87.0-1.0","""event"",""trial"",""time""
""fullscreenenter"",""0"",""14484""
","
","
","""event"",""trial"",""time""
""fullscreenenter"",""0"",""14484""
","
","null","<p></p>","null","","","","","","","","","","","","","","","","","","","","","","",""
"","do_trial","156","784171","0.0-88.0-0.0","""event"",""trial"",""time""
""fullscreenenter"",""0"",""14484""
","
","
","""event"",""trial"",""time""
""fullscreenenter"",""0"",""14484""
","
","823.5","","","","","","","","51","1,0,0","1","coast","31","probe-61","1","0.476203031891433","0.1276392608506587","0","","","","","","","",""
"","html-keyboard-response","157","785173","0.0-88.0-1.0","""event"",""trial"",""time""
""fullscreenenter"",""0"",""14484""
","
","
","""event"",""trial"",""time""
""fullscreenenter"",""0"",""14484""
","
","null","<p></p>","null","","","","","","","","","","","","","","","","","","","","","","",""
"","do_trial","158","790160","0.0-89.0-0.0","""event"",""trial"",""time""
""fullscreenenter"",""0"",""14484""
","
","
","""event"",""trial"",""time""
""fullscreenenter"",""0"",""14484""
","
","422.5999999977648","","","","","","","","49","1,1,1","1","coast","32","probe-79","1","0.42268697374055214","0.22120439855198867","1","","","","","","","",""
"","html-keyboard-response","159","791162","0.0-89.0-1.0","""event"",""trial"",""time""
""fullscreenenter"",""0"",""14484""
","
","
","""event"",""trial"",""time""
""fullscreenenter"",""0"",""14484""
","
","null","<p></p>","null","","","","","","","","","","","","","","","","","","","","","","",""
"","do_trial","160","796393","0.0-90.0-0.0","""event"",""trial"",""time""
""fullscreenenter"",""0"",""14484""
","
","
","""event"",""trial"",""time""
""fullscreenenter"",""0"",""14484""
","
","666.5","","","","","","","","49","1,0,0","1","coast","33","probe-143","0.794761109116858","0.3426993081306859","0.06120751398984359","1","","","","","","","",""
"","html-keyboard-response","161","797395","0.0-90.0-1.0","""event"",""trial"",""time""
""fullscreenenter"",""0"",""14484""
","
","
","""event"",""trial"",""time""
""fullscreenenter"",""0"",""14484""
","
","null","<p></p>","null","","","","","","","","","","","","","","","","","","","","","","",""
"","do_trial","162","803439","0.0-91.0-0.0","""event"",""trial"",""time""
""fullscreenenter"",""0"",""14484""
","
","
","""event"",""trial"",""time""
""fullscreenenter"",""0"",""14484""
","
","1478","","","","","","","","49","1,0,0","1","coast","34","probe-116","0.6974651898827938","0.2798492267209593","0.1030008013850092","1","","","","","","","",""
"","html-keyboard-response","163","804441","0.0-91.0-1.0","""event"",""trial"",""time""
""fullscreenenter"",""0"",""14484""
","
","
","""event"",""trial"",""time""
""fullscreenenter"",""0"",""14484""
","
","null","<p></p>","null","","","","","","","","","","","","","","","","","","","","","","",""
"","do_trial","164","810004","0.0-92.0-0.0","""event"",""trial"",""time""
""fullscreenenter"",""0"",""14484""
","
","
","""event"",""trial"",""time""
""fullscreenenter"",""0"",""14484""
","
","999.2999999970198","","","","","","","","50","1,0,0","1","coast","35","probe-134","0.7364948816217066","0.25578262845673655","0.18905816564933864","0","","","","","","","",""
"","html-keyboard-response","165","811007","0.0-92.0-1.0","""event"",""trial"",""time""
""fullscreenenter"",""0"",""14484""
","
","
","""event"",""trial"",""time""
""fullscreenenter"",""0"",""14484""
","
","null","<p></p>","null","","","","","","","","","","","","","","","","","","","","","","",""
"","do_trial","166","815945","0.0-93.0-0.0","""event"",""trial"",""time""
""fullscreenenter"",""0"",""14484""
","
","
","""event"",""trial"",""time""
""fullscreenenter"",""0"",""14484""
","
","375.30000000074506","","","","","","","","51","1,0,0","1","coast","36","probe-60","0.6125751507816427","0.3131892451291472","0.22642654818157057","0","","","","","","","",""
"","html-keyboard-response","167","816948","0.0-93.0-1.0","""event"",""trial"",""time""
""fullscreenenter"",""0"",""14484""
","
","
","""event"",""trial"",""time""
""fullscreenenter"",""0"",""14484""
","
","null","<p></p>","null","","","","","","","","","","","","","","","","","","","","","","",""
"","do_trial","168","821776","0.0-94.0-0.0","""event"",""trial"",""time""
""fullscreenenter"",""0"",""14484""
","
","
","""event"",""trial"",""time""
""fullscreenenter"",""0"",""14484""
","
","258.20000000298023","","","","","","","","49","1,0,0","1","coast","37","probe-62","0.5948116715920696","0.26970827923261076","0.25490884223121574","1","","","","","","","",""
"","html-keyboard-response","169","822779","0.0-94.0-1.0","""event"",""trial"",""time""
""fullscreenenter"",""0"",""14484""
","
","
","""event"",""trial"",""time""
""fullscreenenter"",""0"",""14484""
","
","null","<p></p>","null","","","","","","","","","","","","","","","","","","","","","","",""
"","do_trial","170","827581","0.0-95.0-0.0","""event"",""trial"",""time""
""fullscreenenter"",""0"",""14484""
","
","
","""event"",""trial"",""time""
""fullscreenenter"",""0"",""14484""
","
","237.40000000223517","","","","","","","","49","1,0,1","1","coast","38","probe-128","0.6431351343310512","0.1412758228183665","0.27959248670991704","1","","","","","","","",""
"","html-keyboard-response","171","828583","0.0-95.0-1.0","""event"",""trial"",""time""
""fullscreenenter"",""0"",""14484""
","
","
","""event"",""trial"",""time""
""fullscreenenter"",""0"",""14484""
","
","null","<p></p>","null","","","","","","","","","","","","","","","","","","","","","","",""
"","do_trial","172","833368","0.0-96.0-0.0","""event"",""trial"",""time""
""fullscreenenter"",""0"",""14484""
","
","
","""event"",""trial"",""time""
""fullscreenenter"",""0"",""14484""
","
","218.19999999925494","","","","","","","","49","1,0,1","1","coast","39","probe-106","0.48773122529404833","0.28224483378975934","0.36458219996870717","1","","","","","","","",""
"","html-keyboard-response","173","834371","0.0-96.0-1.0","""event"",""trial"",""time""
""fullscreenenter"",""0"",""14484""
","
","
","""event"",""trial"",""time""
""fullscreenenter"",""0"",""14484""
","
","null","<p></p>","null","","","","","","","","","","","","","","","","","","","","","","",""
"","do_trial","174","839766","0.0-97.0-0.0","""event"",""trial"",""time""
""fullscreenenter"",""0"",""14484""
","
","
","""event"",""trial"",""time""
""fullscreenenter"",""0"",""14484""
","
","831.5","","","","","","","","50","1,0,0","1","coast","40","probe-203","0.4678948714654586","0.3137012244813898","0.36869165358404543","0","","","","","","","",""
"","html-keyboard-response","175","840769","0.0-97.0-1.0","""event"",""trial"",""time""
""fullscreenenter"",""0"",""14484""
","
","
","""event"",""trial"",""time""
""fullscreenenter"",""0"",""14484""
","
","null","<p></p>","null","","","","","","","","","","","","","","","","","","","","","","",""
"","do_trial","176","845844","0.0-98.0-0.0","""event"",""trial"",""time""
""fullscreenenter"",""0"",""14484""
","
","
","""event"",""trial"",""time""
""fullscreenenter"",""0"",""14484""
","
","511.69999999925494","","","","","","","","49","1,0,0","1","coast","41","probe-46","0.5697328375441224","0.333562389837876","0.4896310912132723","1","","","","","","","",""
"","html-keyboard-response","177","846846","0.0-98.0-1.0","""event"",""trial"",""time""
""fullscreenenter"",""0"",""14484""
","
","
","""event"",""trial"",""time""
""fullscreenenter"",""0"",""14484""
","
","null","<p></p>","null","","","","","","","","","","","","","","","","","","","","","","",""
"","do_trial","178","852335","0.0-99.0-0.0","""event"",""trial"",""time""
""fullscreenenter"",""0"",""14484""
","
","
","""event"",""trial"",""time""
""fullscreenenter"",""0"",""14484""
","
","923.4000000022352","","","","","","","","49","1,1,1","1","coast","42","probe-92","0.3831464183641667","0.3794086093371769","0.4959883373467511","1","","","","","","","",""
"","html-keyboard-response","179","853338","0.0-99.0-1.0","""event"",""trial"",""time""
""fullscreenenter"",""0"",""14484""
","
","
","""event"",""trial"",""time""
""fullscreenenter"",""0"",""14484""
","
","null","<p></p>","null","","","","","","","","","","","","","","","","","","","","","","",""
"","do_trial","180","859477","0.0-100.0-0.0","""event"",""trial"",""time""
""fullscreenenter"",""0"",""14484""
","
","
","""event"",""trial"",""time""
""fullscreenenter"",""0"",""14484""
","
","1575.7000000029802","","","","","","","","49","0,0,0","1","coast","43","probe-73","0.384253718355602","0.4246060611560891","0.48796429030837496","0","","","","","","","",""
"","html-keyboard-response","181","860479","0.0-100.0-1.0","""event"",""trial"",""time""
""fullscreenenter"",""0"",""14484""
","
","
","""event"",""trial"",""time""
""fullscreenenter"",""0"",""14484""
","
","null","<p></p>","null","","","","","","","","","","","","","","","","","","","","","","",""
"","do_trial","182","865405","0.0-101.0-0.0","""event"",""trial"",""time""
""fullscreenenter"",""0"",""14484""
","
","
","""event"",""trial"",""time""
""fullscreenenter"",""0"",""14484""
","
","360.80000000074506","","","","","","","","50","0,1,0","1","coast","44","probe-108","0.27749176058372355","0.4787901045700366","0.46806919601340663","1","","","","","","","",""
"","html-keyboard-response","183","866408","0.0-101.0-1.0","""event"",""trial"",""time""
""fullscreenenter"",""0"",""14484""
","
","
","""event"",""trial"",""time""
""fullscreenenter"",""0"",""14484""
","
","null","<p></p>","null","","","","","","","","","","","","","","","","","","","","","","",""
"","do_trial","184","871751","0.0-102.0-0.0","""event"",""trial"",""time""
""fullscreenenter"",""0"",""14484""
","
","
","""event"",""trial"",""time""
""fullscreenenter"",""0"",""14484""
","
","778.0999999977648","","","","","","","","50","0,1,1","1","coast","45","probe-02","0.2676743729721533","0.5346118229165567","0.31052822401345864","1","","","","","","","",""
"","html-keyboard-response","185","872753","0.0-102.0-1.0","""event"",""trial"",""time""
""fullscreenenter"",""0"",""14484""
","
","
","""event"",""trial"",""time""
""fullscreenenter"",""0"",""14484""
","
","null","<p></p>","null","","","","","","","","","","","","","","","","","","","","","","",""
"","do_trial","186","877413","0.0-103.0-0.0","""event"",""trial"",""time""
""fullscreenenter"",""0"",""14484""
","
","
","""event"",""trial"",""time""
""fullscreenenter"",""0"",""14484""
","
","93","","","","","","","","51","0,0,1","1","coast","46","probe-173","0.176239271895704","0.6535609214743989","0.2714257616400385","1","","","","","","","",""
"","html-keyboard-response","187","878415","0.0-103.0-1.0","""event"",""trial"",""time""
""fullscreenenter"",""0"",""14484""
","
","
","""event"",""trial"",""time""
""fullscreenenter"",""0"",""14484""
","
","null","<p></p>","null","","","","","","","","","","","","","","","","","","","","","","",""
"","do_trial","188","884046","0.0-104.0-0.0","""event"",""trial"",""time""
""fullscreenenter"",""0"",""14484""
","
","
","""event"",""trial"",""time""
""fullscreenenter"",""0"",""14484""
","
","1066.199999999255","","","","","","","","50","1,1,1","1","coast","47","probe-217","0.3534682125159618","0.46158245202051407","0.43244989625706204","1","","","","","","","",""
"","html-keyboard-response","189","885049","0.0-104.0-1.0","""event"",""trial"",""time""
""fullscreenenter"",""0"",""14484""
","
","
","""event"",""trial"",""time""
""fullscreenenter"",""0"",""14484""
","
","null","<p></p>","null","","","","","","","","","","","","","","","","","","","","","","",""
"","do_trial","190","889912","0.0-105.0-0.0","""event"",""trial"",""time""
""fullscreenenter"",""0"",""14484""
","
","
","""event"",""trial"",""time""
""fullscreenenter"",""0"",""14484""
","
","298.5","","","","","","","","49","0,0,1","1","coast","48","probe-226","0.1487342419969299","0.6633685980984595","0.4883629909151872","0","","","","","","","",""
"","html-keyboard-response","191","890915","0.0-105.0-1.0","""event"",""trial"",""time""
""fullscreenenter"",""0"",""14484""
","
","
","""event"",""trial"",""time""
""fullscreenenter"",""0"",""14484""
","
","null","<p></p>","null","","","","","","","","","","","","","","","","","","","","","","",""
"","do_trial","192","895832","0.0-106.0-0.0","""event"",""trial"",""time""
""fullscreenenter"",""0"",""14484""
","
","
","""event"",""trial"",""time""
""fullscreenenter"",""0"",""14484""
","
","353.8999999985099","","","","","","","","50","0,0,1","1","coast","49","probe-65","0.06839707391129497","0.5564357864407192","0.35077932388251926","0","","","","","","","",""
"","html-keyboard-response","193","896835","0.0-106.0-1.0","""event"",""trial"",""time""
""fullscreenenter"",""0"",""14484""
","
","
","""event"",""trial"",""time""
""fullscreenenter"",""0"",""14484""
","
","null","<p></p>","null","","","","","","","","","","","","","","","","","","","","","","",""
"","do_trial","194","901750","0.0-107.0-0.0","""event"",""trial"",""time""
""fullscreenenter"",""0"",""14484""
","
","
","""event"",""trial"",""time""
""fullscreenenter"",""0"",""14484""
","
","349.8999999985099","","","","","","","","51","0,0,0","1","coast","50","probe-22","0.21564428338340869","0.5237891012642485","0.2818272691846071","0","","","","","","","",""
"","html-keyboard-response","195","902752","0.0-107.0-1.0","""event"",""trial"",""time""
""fullscreenenter"",""0"",""14484""
","
","
","""event"",""trial"",""time""
""fullscreenenter"",""0"",""14484""
","
","null","<p></p>","null","","","","","","","","","","","","","","","","","","","","","","",""
"","do_trial","196","907650","0.0-108.0-0.0","""event"",""trial"",""time""
""fullscreenenter"",""0"",""14484""
","
","
","""event"",""trial"",""time""
""fullscreenenter"",""0"",""14484""
","
","332.70000000298023","","","","","","","","49","0,0,0","1","coast","51","probe-169","0.18073407085719076","0.5182824045639887","0.2917441153093754","0","","","","","","","",""
"","html-keyboard-response","197","908653","0.0-108.0-1.0","""event"",""trial"",""time""
""fullscreenenter"",""0"",""14484""
","
","
","""event"",""trial"",""time""
""fullscreenenter"",""0"",""14484""
","
","null","<p></p>","null","","","","","","","","","","","","","","","","","","","","","","",""
"","do_trial","198","913542","0.0-109.0-0.0","""event"",""trial"",""time""
""fullscreenenter"",""0"",""14484""
","
","
","""event"",""trial"",""time""
""fullscreenenter"",""0"",""14484""
","
","327","","","","","","","","50","0,1,1","1","coast","52","probe-104","0.090959727831708","0.4023773813599929","0.3384074274965335","1","","","","","","","",""
"","html-keyboard-response","199","914545","0.0-109.0-1.0","""event"",""trial"",""time""
""fullscreenenter"",""0"",""14484""
","
","
","""event"",""trial"",""time""
""fullscreenenter"",""0"",""14484""
","
","null","<p></p>","null","","","","","","","","","","","","","","","","","","","","","","",""
"","do_trial","200","921128","0.0-110.0-0.0","""event"",""trial"",""time""
""fullscreenenter"",""0"",""14484""
","
","
","""event"",""trial"",""time""
""fullscreenenter"",""0"",""14484""
","
","2018.2000000029802","","","","","","","","50","0,1,0","1","coast","53","probe-223","0.14838991233182466","0.41510431682244153","0.395348747511956","1","","","","","","","",""
"","html-keyboard-response","201","922131","0.0-110.0-1.0","""event"",""trial"",""time""
""fullscreenenter"",""0"",""14484""
","
","
","""event"",""trial"",""time""
""fullscreenenter"",""0"",""14484""
","
","null","<p></p>","null","","","","","","","","","","","","","","","","","","","","","","",""
"","do_trial","202","928254","0.0-111.0-0.0","""event"",""trial"",""time""
""fullscreenenter"",""0"",""14484""
","
","
","""event"",""trial"",""time""
""fullscreenenter"",""0"",""14484""
","
","1558","","","","","","","","49","0,1,0","1","coast","54","probe-118","0.05865375941881551","0.2839807657960511","0.2928531978648013","0","","","","","","","",""
"","html-keyboard-response","203","929257","0.0-111.0-1.0","""event"",""trial"",""time""
""fullscreenenter"",""0"",""14484""
","
","
","""event"",""trial"",""time""
""fullscreenenter"",""0"",""14484""
","
","null","<p></p>","null","","","","","","","","","","","","","","","","","","","","","","",""
"","do_trial","204","935337","0.0-112.0-0.0","""event"",""trial"",""time""
""fullscreenenter"",""0"",""14484""
","
","
","""event"",""trial"",""time""
""fullscreenenter"",""0"",""14484""
","
","1516.1000000014901","","","","","","","","51","0,0,0","1","coast","55","probe-30","0.08165946016571798","0.32523354586233966","0.40474088449726653","0","","","","","","","",""
"","html-keyboard-response","205","936340","0.0-112.0-1.0","""event"",""trial"",""time""
""fullscreenenter"",""0"",""14484""
","
","
","""event"",""trial"",""time""
""fullscreenenter"",""0"",""14484""
","
","null","<p></p>","null","","","","","","","","","","","","","","","","","","","","","","",""
"","do_trial","206","941909","0.0-113.0-0.0","""event"",""trial"",""time""
""fullscreenenter"",""0"",""14484""
","
","
","""event"",""trial"",""time""
""fullscreenenter"",""0"",""14484""
","
","1004","","","","","","","","50","0,0,0","1","coast","56","probe-100","0.10892025460799327","0.37730976985853765","0.3919832529324377","0","","","","","","","",""
"","html-keyboard-response","207","942911","0.0-113.0-1.0","""event"",""trial"",""time""
""fullscreenenter"",""0"",""14484""
","
","
","""event"",""trial"",""time""
""fullscreenenter"",""0"",""14484""
","
","null","<p></p>","null","","","","","","","","","","","","","","","","","","","","","","",""
"","do_trial","208","948312","0.0-114.0-0.0","""event"",""trial"",""time""
""fullscreenenter"",""0"",""14484""
","
","
","""event"",""trial"",""time""
""fullscreenenter"",""0"",""14484""
","
","834.8000000007451","","","","","","","","49","0,0,0","1","coast","57","probe-40","0.20443002355962756","0.42965362225705095","0.3777396778714471","0","","","","","","","",""
"","html-keyboard-response","209","949315","0.0-114.0-1.0","""event"",""trial"",""time""
""fullscreenenter"",""0"",""14484""
","
","
","""event"",""trial"",""time""
""fullscreenenter"",""0"",""14484""
","
","null","<p></p>","null","","","","","","","","","","","","","","","","","","","","","","",""
"","do_trial","210","955193","0.0-115.0-0.0","""event"",""trial"",""time""
""fullscreenenter"",""0"",""14484""
","
","
","""event"",""trial"",""time""
""fullscreenenter"",""0"",""14484""
","
","1314.300000000745","","","","","","","","50","0,0,0","1","coast","58","probe-221","0.06911180984217738","0.44302763486761737","0.3339034666899985","0","","","","","","","",""
"","html-keyboard-response","211","956196","0.0-115.0-1.0","""event"",""trial"",""time""
""fullscreenenter"",""0"",""14484""
","
","
","""event"",""trial"",""time""
""fullscreenenter"",""0"",""14484""
","
","null","<p></p>","null","","","","","","","","","","","","","","","","","","","","","","",""
"","do_trial","212","961693","0.0-116.0-0.0","""event"",""trial"",""time""
""fullscreenenter"",""0"",""14484""
","
","
","""event"",""trial"",""time""
""fullscreenenter"",""0"",""14484""
","
","932.8000000007451","","","","","","","","51","0,0,0","1","coast","59","probe-82","0.0891281871417453","0.37435780374240585","0.32826819234090304","0","","","","","","","",""
"","html-keyboard-response","213","962696","0.0-116.0-1.0","""event"",""trial"",""time""
""fullscreenenter"",""0"",""14484""
","
","
","""event"",""trial"",""time""
""fullscreenenter"",""0"",""14484""
","
","null","<p></p>","null","","","","","","","","","","","","","","","","","","","","","","",""
"","do_trial","214","968256","0.0-117.0-0.0","""event"",""trial"",""time""
""fullscreenenter"",""0"",""14484""
","
","
","""event"",""trial"",""time""
""fullscreenenter"",""0"",""14484""
","
","995.5","","","","","","","","49","0,0,0","1","coast","60","probe-152","0.13349832272408726","0.33966426225350865","0.28283357008198245","0","","","","","","","",""
"","html-keyboard-response","215","969259","0.0-117.0-1.0","""event"",""trial"",""time""
""fullscreenenter"",""0"",""14484""
","
","
","""event"",""trial"",""time""
""fullscreenenter"",""0"",""14484""
","
","null","<p></p>","null","","","","","","","","","","","","","","","","","","","","","","",""
"","do_trial","216","974145","0.0-118.0-0.0","""event"",""trial"",""time""
""fullscreenenter"",""0"",""14484""
","
","
","""event"",""trial"",""time""
""fullscreenenter"",""0"",""14484""
","
","322.80000000074506","","","","","","","","50","0,0,1","1","coast","61","probe-23","0.19050039071561162","0.5820837512858259","0.32820883823446745","0","","","","","","","",""
"","html-keyboard-response","217","975148","0.0-118.0-1.0","""event"",""trial"",""time""
""fullscreenenter"",""0"",""14484""
","
","
","""event"",""trial"",""time""
""fullscreenenter"",""0"",""14484""
","
","null","<p></p>","null","","","","","","","","","","","","","","","","","","","","","","",""
"","do_trial","218","980115","0.0-119.0-0.0","""event"",""trial"",""time""
""fullscreenenter"",""0"",""14484""
","
","
","""event"",""trial"",""time""
""fullscreenenter"",""0"",""14484""
","
","402.30000000074506","","","","","","","","50","0,1,1","1","coast","62","probe-19","0.19979488715041194","0.4046451356554526","0.34157789310268494","1","","","","","","","",""
"","html-keyboard-response","219","981117","0.0-119.0-1.0","""event"",""trial"",""time""
""fullscreenenter"",""0"",""14484""
","
","
","""event"",""trial"",""time""
""fullscreenenter"",""0"",""14484""
","
","null","<p></p>","null","","","","","","","","","","","","","","","","","","","","","","",""
"","do_trial","220","986835","0.0-120.0-0.0","""event"",""trial"",""time""
""fullscreenenter"",""0"",""14484""
","
","
","""event"",""trial"",""time""
""fullscreenenter"",""0"",""14484""
","
","1152.300000000745","","","","","","","","50","0,1,0","1","coast","63","probe-202","0.10511624145961478","0.43602656104360576","0.2946318831188051","1","","","","","","","",""
"","html-keyboard-response","221","987837","0.0-120.0-1.0","""event"",""trial"",""time""
""fullscreenenter"",""0"",""14484""
","
","
","""event"",""trial"",""time""
""fullscreenenter"",""0"",""14484""
","
","null","<p></p>","null","","","","","","","","","","","","","","","","","","","","","","",""
"","do_trial","222","992942","0.0-121.0-0.0","""event"",""trial"",""time""
""fullscreenenter"",""0"",""14484""
","
","
","""event"",""trial"",""time""
""fullscreenenter"",""0"",""14484""
","
","535","","","","","","","","51","0,0,0","1","coast","64","probe-78","0.12331328419255938","0.3973307430002364","0.3054188122337702","0","","","","","","","",""
"","html-keyboard-response","223","993945","0.0-121.0-1.0","""event"",""trial"",""time""
""fullscreenenter"",""0"",""14484""
","
","
","""event"",""trial"",""time""
""fullscreenenter"",""0"",""14484""
","
","null","<p></p>","null","","","","","","","","","","","","","","","","","","","","","","",""
"","do_trial","224","999543","0.0-122.0-0.0","""event"",""trial"",""time""
""fullscreenenter"",""0"",""14484""
","
","
","""event"",""trial"",""time""
""fullscreenenter"",""0"",""14484""
","
","1032.300000000745","","","","","","","","50","0,0,0","1","coast","65","probe-213","0.11882402161343451","0.4377529987782405","0.27255653029635635","0","","","","","","","",""
"","html-keyboard-response","225","1000545","0.0-122.0-1.0","""event"",""trial"",""time""
""fullscreenenter"",""0"",""14484""
","
","
","""event"",""trial"",""time""
""fullscreenenter"",""0"",""14484""
","
","null","<p></p>","null","","","","","","","","","","","","","","","","","","","","","","",""
"","do_trial","226","1005565","0.0-123.0-0.0","""event"",""trial"",""time""
""fullscreenenter"",""0"",""14484""
","
","
","""event"",""trial"",""time""
""fullscreenenter"",""0"",""14484""
","
","455.4000000022352","","","","","","","","49","0,1,1","1","coast","66","probe-166","0.06385934532398836","0.48914809644759194","0.4049598451473361","0","","","","","","","",""
"","html-keyboard-response","227","1006567","0.0-123.0-1.0","""event"",""trial"",""time""
""fullscreenenter"",""0"",""14484""
","
","
","""event"",""trial"",""time""
""fullscreenenter"",""0"",""14484""
","
","null","<p></p>","null","","","","","","","","","","","","","","","","","","","","","","",""
"","do_trial","228","1011466","0.0-124.0-0.0","""event"",""trial"",""time""
""fullscreenenter"",""0"",""14484""
","
","
","""event"",""trial"",""time""
""fullscreenenter"",""0"",""14484""
","
","334.70000000298023","","","","","","","","50","0,0,0","1","coast","67","probe-193","0.2655929255860897","0.6370492307068443","0.3596795284279448","0","","","","","","","",""
"","html-keyboard-response","229","1012468","0.0-124.0-1.0","""event"",""trial"",""time""
""fullscreenenter"",""0"",""14484""
","
","
","""event"",""trial"",""time""
""fullscreenenter"",""0"",""14484""
","
","null","<p></p>","null","","","","","","","","","","","","","","","","","","","","","","",""
"","do_trial","230","1017617","0.0-125.0-0.0","""event"",""trial"",""time""
""fullscreenenter"",""0"",""14484""
","
","
","""event"",""trial"",""time""
""fullscreenenter"",""0"",""14484""
","
","583.9000000022352","","","","","","","","51","0,1,1","1","coast","68","probe-28","0.11463860118801317","0.7102883521476937","0.3877299838199207","1","","","","","","","",""
"","html-keyboard-response","231","1018620","0.0-125.0-1.0","""event"",""trial"",""time""
""fullscreenenter"",""0"",""14484""
","
","
","""event"",""trial"",""time""
""fullscreenenter"",""0"",""14484""
","
","null","<p></p>","null","","","","","","","","","","","","","","","","","","","","","","",""
"","do_trial","232","1025391","0.0-126.0-0.0","""event"",""trial"",""time""
""fullscreenenter"",""0"",""14484""
","
","
","""event"",""trial"",""time""
""fullscreenenter"",""0"",""14484""
","
","2204.5","","","","","","","","51","1,0,1","1","coast","69","probe-208","0.05695050506236541","0.741335023301318","0.35895709509588836","1","","","","","","","",""
"","html-keyboard-response","233","1026394","0.0-126.0-1.0","""event"",""trial"",""time""
""fullscreenenter"",""0"",""14484""
","
","
","""event"",""trial"",""time""
""fullscreenenter"",""0"",""14484""
","
","null","<p></p>","null","","","","","","","","","","","","","","","","","","","","","","",""
"","do_bye","234","1027902","0.0-127.0-0.0","""event"",""trial"",""time""
""fullscreenenter"",""0"",""14484""
","
","
","""event"",""trial"",""time""
""fullscreenenter"",""0"",""14484""
","
","null","","","","","","","","null","","","","","","","","","","","","","","","","",""
"","break","235","1104580","0.0-127.0-1.0","""event"",""trial"",""time""
""fullscreenenter"",""0"",""14484""
","
","
","""event"",""trial"",""time""
""fullscreenenter"",""0"",""14484""
","
","76675.5","<div class='center'><p>Time to take a quick break! You have 2 minutes to rest, but you can move on sooner if you'd like.</p><p> Press the <b>space bar</b> to continue.</p></div>","32","","","","","","","","","","","","","","","","","","","","","","",""
"","do_travel","236","1113585","0.0-128.0-0.0","""event"",""trial"",""time""
""fullscreenenter"",""0"",""14484""
","
","
","""event"",""trial"",""time""
""fullscreenenter"",""0"",""14484""
","
","null","","","","","","","","null","","","","","","","","","","","","","","","","",""
"","do_welcome","237","1117594","0.0-128.0-1.0","""event"",""trial"",""time""
""fullscreenenter"",""0"",""14484""
","
","
","""event"",""trial"",""time""
""fullscreenenter"",""0"",""14484""
","
","null","","","","","","","","null","","","","","","","","","","","","","","","","",""
"","do_trial","238","1123368","0.0-129.0-0.0","""event"",""trial"",""time""
""fullscreenenter"",""0"",""14484""
","
","
","""event"",""trial"",""time""
""fullscreenenter"",""0"",""14484""
","
","1209.699999999255","","","","","","","","49","0,1,0","2","city","70","probe-58","0.1296058743457398","1","0.0921099477970564","0","","","","","","","",""
"","html-keyboard-response","239","1124371","0.0-129.0-1.0","""event"",""trial"",""time""
""fullscreenenter"",""0"",""14484""
","
","
","""event"",""trial"",""time""
""fullscreenenter"",""0"",""14484""
","
","null","<p></p>","null","","","","","","","","","","","","","","","","","","","","","","",""
"","do_trial","240","1129045","0.0-130.0-0.0","""event"",""trial"",""time""
""fullscreenenter"",""0"",""14484""
","
","
","""event"",""trial"",""time""
""fullscreenenter"",""0"",""14484""
","
","110.89999999850988","","","","","","","","50","0,1,0","2","city","71","probe-158","0.1806423074532194","1","0.15119539126020884","1","","","","","","","",""
"","html-keyboard-response","241","1130048","0.0-130.0-1.0","""event"",""trial"",""time""
""fullscreenenter"",""0"",""14484""
","
","
","""event"",""trial"",""time""
""fullscreenenter"",""0"",""14484""
","
","null","<p></p>","null","","","","","","","","","","","","","","","","","","","","","","",""
"","do_trial","242","1134967","0.0-131.0-0.0","""event"",""trial"",""time""
""fullscreenenter"",""0"",""14484""
","
","
","""event"",""trial"",""time""
""fullscreenenter"",""0"",""14484""
","
","353.30000000074506","","","","","","","","51","0,1,0","2","city","72","probe-126","0.08939948424807895","0.78789460900394","0.12327233354206732","0","","","","","","","",""
"","html-keyboard-response","243","1135969","0.0-131.0-1.0","""event"",""trial"",""time""
""fullscreenenter"",""0"",""14484""
","
","
","""event"",""trial"",""time""
""fullscreenenter"",""0"",""14484""
","
","null","<p></p>","null","","","","","","","","","","","","","","","","","","","","","","",""
"","do_trial","244","1140779","0.0-132.0-0.0","""event"",""trial"",""time""
""fullscreenenter"",""0"",""14484""
","
","
","""event"",""trial"",""time""
""fullscreenenter"",""0"",""14484""
","
","243.39999999850988","","","","","","","","50","1,1,1","2","city","73","probe-94","0.17091141771916402","0.695878685852587","0.27305232962637027","1","","","","","","","",""
"","html-keyboard-response","245","1141782","0.0-132.0-1.0","""event"",""trial"",""time""
""fullscreenenter"",""0"",""14484""
","
","
","""event"",""trial"",""time""
""fullscreenenter"",""0"",""14484""
","
","null","<p></p>","null","","","","","","","","","","","","","","","","","","","","","","",""
"","do_trial","246","1146752","0.0-133.0-0.0","""event"",""trial"",""time""
""fullscreenenter"",""0"",""14484""
","
","
","""event"",""trial"",""time""
""fullscreenenter"",""0"",""14484""
","
","404.80000000074506","","","","","","","","50","0,1,1","2","city","74","probe-107","0.13535670105654116","0.7493819424048642","0.13493221732570473","1","","","","","","","",""
"","html-keyboard-response","247","1147754","0.0-133.0-1.0","""event"",""trial"",""time""
""fullscreenenter"",""0"",""14484""
","
","
","""event"",""trial"",""time""
""fullscreenenter"",""0"",""14484""
","
","null","<p></p>","null","","","","","","","","","","","","","","","","","","","","","","",""
"","do_trial","248","1152682","0.0-134.0-0.0","""event"",""trial"",""time""
""fullscreenenter"",""0"",""14484""
","
","
","""event"",""trial"",""time""
""fullscreenenter"",""0"",""14484""
","
","362.69999999925494","","","","","","","","51","0,1,0","2","city","75","probe-224","0.08427927503330918","0.7039087868405038","0.13714851148594792","0","","","","","","","",""
"","html-keyboard-response","249","1153685","0.0-134.0-1.0","""event"",""trial"",""time""
""fullscreenenter"",""0"",""14484""
","
","
","""event"",""trial"",""time""
""fullscreenenter"",""0"",""14484""
","
","null","<p></p>","null","","","","","","","","","","","","","","","","","","","","","","",""
"","do_trial","250","1158643","0.0-135.0-0.0","""event"",""trial"",""time""
""fullscreenenter"",""0"",""14484""
","
","
","""event"",""trial"",""time""
""fullscreenenter"",""0"",""14484""
","
","394.79999999701977","","","","","","","","50","0,1,0","2","city","76","probe-165","0.06295692778561357","0.79149487895776","0.18625184482106918","1","","","","","","","",""
"","html-keyboard-response","251","1159646","0.0-135.0-1.0","""event"",""trial"",""time""
""fullscreenenter"",""0"",""14484""
","
","
","""event"",""trial"",""time""
""fullscreenenter"",""0"",""14484""
","
","null","<p></p>","null","","","","","","","","","","","","","","","","","","","","","","",""
"","do_trial","252","1165032","0.0-136.0-0.0","""event"",""trial"",""time""
""fullscreenenter"",""0"",""14484""
","
","
","""event"",""trial"",""time""
""fullscreenenter"",""0"",""14484""
","
","821","","","","","","","","50","0,0,0","2","city","77","probe-162","0.13321481427186144","0.6206491404056683","0.23012184927166815","0","","","","","","","",""
"","html-keyboard-response","253","1166035","0.0-136.0-1.0","""event"",""trial"",""time""
""fullscreenenter"",""0"",""14484""
","
","
","""event"",""trial"",""time""
""fullscreenenter"",""0"",""14484""
","
","null","<p></p>","null","","","","","","","","","","","","","","","","","","","","","","",""
"","do_trial","254","1170979","0.0-137.0-0.0","""event"",""trial"",""time""
""fullscreenenter"",""0"",""14484""
","
","
","""event"",""trial"",""time""
""fullscreenenter"",""0"",""14484""
","
","382.29999999701977","","","","","","","","49","0,0,1","2","city","78","probe-200","0.13851465572581562","0.5566757740700333","0.27568473997926696","0","","","","","","","",""
"","html-keyboard-response","255","1171981","0.0-137.0-1.0","""event"",""trial"",""time""
""fullscreenenter"",""0"",""14484""
","
","
","""event"",""trial"",""time""
""fullscreenenter"",""0"",""14484""
","
","null","<p></p>","null","","","","","","","","","","","","","","","","","","","","","","",""
"","do_trial","256","1176868","0.0-138.0-0.0","""event"",""trial"",""time""
""fullscreenenter"",""0"",""14484""
","
","
","""event"",""trial"",""time""
""fullscreenenter"",""0"",""14484""
","
","323.19999999925494","","","","","","","","50","0,0,0","2","city","79","probe-156","0.1509308691713562","0.6208710826034884","0.32749084798510025","0","","","","","","","",""
"","html-keyboard-response","257","1177870","0.0-138.0-1.0","""event"",""trial"",""time""
""fullscreenenter"",""0"",""14484""
","
","
","""event"",""trial"",""time""
""fullscreenenter"",""0"",""14484""
","
","null","<p></p>","null","","","","","","","","","","","","","","","","","","","","","","",""
"","do_trial","258","1182480","0.0-139.0-0.0","""event"",""trial"",""time""
""fullscreenenter"",""0"",""14484""
","
","
","""event"",""trial"",""time""
""fullscreenenter"",""0"",""14484""
","
","46.30000000074506","","","","","","","","51","1,0,0","2","city","80","probe-27","0.2531368020147955","0.5014270526330459","0.4002730544437254","0","","","","","","","",""
"","html-keyboard-response","259","1183483","0.0-139.0-1.0","""event"",""trial"",""time""
""fullscreenenter"",""0"",""14484""
","
","
","""event"",""trial"",""time""
""fullscreenenter"",""0"",""14484""
","
","null","<p></p>","null","","","","","","","","","","","","","","","","","","","","","","",""
"","do_trial","260","1188760","0.0-140.0-0.0","""event"",""trial"",""time""
""fullscreenenter"",""0"",""14484""
","
","
","""event"",""trial"",""time""
""fullscreenenter"",""0"",""14484""
","
