"success","trial_type","trial_index","time_elapsed","internal_node_id","interactions","blur_events","focus_events","fullscreenenter_events","fullscreenexit_events","rt","stimulus","key_press","subject_id","participant_id","age","gender","prompt","response","choice_outcomes","context_n","context_img_id","trial_n","probe_img_id","pR_red","pR_white","pR_black","outcome","contextArray_ind","validImageProbes","invalidImageProbes","pRew_Red","pRew_White","pRew_Black","availableForMemProbe","choice_blocks"
"true","fullscreen","0","4031","0.0-0.0","""event"",""trial"",""time""
""fullscreenenter"",""0"",""3029""
","
","
","""event"",""trial"",""time""
""fullscreenenter"",""0"",""3029""
","
","","","","","","","","","","","","","","","","","","","","","","","","","",""
"","pavlovia","1","4037","0.0-1.0","""event"",""trial"",""time""
""fullscreenenter"",""0"",""3029""
","
","
","""event"",""trial"",""time""
""fullscreenenter"",""0"",""3029""
","
","","","","","","","","","","","","","","","","","","","","","","","","","",""
"","instruc1","2","49121","0.0-2.0","""event"",""trial"",""time""
""fullscreenenter"",""0"",""3029""
","
","
","""event"",""trial"",""time""
""fullscreenenter"",""0"",""3029""
","
","null","run_exp/static/audio/clip_1_welcome.m4a","null","247","104","11","Female","<div class='center'><p>Welcome! This is the first part of the study. It will last ~30 minutes. In part 1 and part 2 of the study, you are the head captain of a pirate ship traveling around the world to different islands. You will play a few different games throughout these two parts. Here is an overview of them:</p><br><p>Part 1 (today)</p><p>1. Instructions, practice game, and quiz</p><p>2. Pick a pirate game on 6 different islands</p><br><p>Part 2 (tomorrow)</p><p>3. Pick a pirate game and memory game</p><p>4. Where did you see this ship? </p></div>","","","","","","","","","","","","","","","","","",""
"","html-keyboard-response","3","51644","0.0-3.0","""event"",""trial"",""time""
""fullscreenenter"",""0"",""3029""
","
","
","""event"",""trial"",""time""
""fullscreenenter"",""0"",""3029""
","
","2522","<div class='center'><p>Welcome! This is the first part of the study. It will last ~30 minutes. In part 1 and part 2 of the study, you are the head captain of a pirate ship traveling around the world to different islands. You will play a few different games throughout these two parts. Here is an overview of them:</p><br><p>Part 1 (today)</p><p>1. Instructions, practice game, and quiz</p><p>2. Pick a pirate game on 6 different islands</p><br><p>Part 2 (tomorrow)</p><p>3. Pick a pirate game and memory game</p><p>4. Where did you see this ship? </p><p><b>[Press the space bar to continue]</b></p></div>","32","","","","","","","","","","","","","","","","","","","","","","",""
"","instruc2","4","56941","0.0-4.0","""event"",""trial"",""time""
""fullscreenenter"",""0"",""3029""
","
","
","""event"",""trial"",""time""
""fullscreenenter"",""0"",""3029""
","
","null","run_exp/static/audio/clip_2_different_places.m4a","null","","","","","<div class='center'><p>Today, you’ll visit these 6 islands on your journey. You'll be able to see these islands from your ship.</p><p><img src='run_exp/static/images/contexts/all_contexts.png' height='500'></p></div>","","","","","","","","","","","","","","","","","",""
"","html-keyboard-response","5","59477","0.0-5.0","""event"",""trial"",""time""
""fullscreenenter"",""0"",""3029""
","
","
","""event"",""trial"",""time""
""fullscreenenter"",""0"",""3029""
","
","2532.699999988079","<div class='center'><p>Today, you’ll visit these 6 islands on your journey. You'll be able to see these islands from your ship.</p><p><img src='run_exp/static/images/contexts/all_contexts.png' height='500'></p><p><b>[Press the space bar to continue]</b></p></div>","32","","","","","","","","","","","","","","","","","","","","","","",""
"","instruc3","6","69160","0.0-6.0","""event"",""trial"",""time""
""fullscreenenter"",""0"",""3029""
","
","
","""event"",""trial"",""time""
""fullscreenenter"",""0"",""3029""
","
","null","run_exp/static/audio/clip_3_goal_of_game_1.m4a","null","","","","","<div class='center'><p> The pirates on your ship will rob other ships as they leave the island.</p> These ships have just sold their goods to the islanders, so they will be filled with lots and lots of gold.</p><p><img src='run_exp/static/images/tutorial/ship_center.png' height='400'></p></div>","","","","","","","","","","","","","","","","","",""
"","html-keyboard-response","7","71918","0.0-7.0","""event"",""trial"",""time""
""fullscreenenter"",""0"",""3029""
","
","
","""event"",""trial"",""time""
""fullscreenenter"",""0"",""3029""
","
","2757.100000023842","<div class='center'><p> The pirates on your ship will rob other ships as they leave the island.</p> These ships have just sold their goods to the islanders, so they will be filled with lots and lots of gold.</p><p><img src='run_exp/static/images/tutorial/ship_center.png' height='400'></p><p><b>[Press the space bar to continue]</b></p></div>","32","","","","","","","","","","","","","","","","","","","","","","",""
"","instruc4","8","99899","0.0-8.0","""event"",""trial"",""time""
""fullscreenenter"",""0"",""3029""
","
","
","""event"",""trial"",""time""
""fullscreenenter"",""0"",""3029""
","
","null","run_exp/static/audio/clip_4_goal_of_game_2.m4a","null","","","","","<div class='center'><p>As the head captain, you do not have to rob any ships yourself. Another pirate will be doing the robbing for you. First, you will choose a pirate to rob the next ship.</p><p><img src='run_exp/static/images/tutorial/pirates_all_crop.png' height='200'></p><p>Then, you'll see if the pirate successfully robbed the ship of their gold. If they were successful, then you'll get a stack of gold coins like this:</p><p><img src='run_exp/static/images/tutorial/reward.png' height='150'></p><p> If they were <b>not</b> successful, then you'll get no gold coins, and you'll see a big red x like this: </p><p><img src='run_exp/static/images/tutorial/reward_no.png' height='150'></p><p> How much bonus money you make is based on how many gold coins you collect.</p><div>","","","","","","","","","","","","","","","","","",""
"","html-keyboard-response","9","103035","0.0-9.0","""event"",""trial"",""time""
""fullscreenenter"",""0"",""3029""
","
","
","""event"",""trial"",""time""
""fullscreenenter"",""0"",""3029""
","
","3132.399999976158","<div class='center'><p>As the head captain, you do not have to rob any ships yourself. Another pirate will be doing the robbing for you. First, you will choose a pirate to rob the next ship.</p><p><img src='run_exp/static/images/tutorial/pirates_all_crop.png' height='200'></p><p>Then, you'll see if the pirate successfully robbed the ship of their gold. If they were successful, then you'll get a stack of gold coins like this:</p><p><img src='run_exp/static/images/tutorial/reward.png' height='150'></p><p> If they were <b>not</b> successful, then you'll get no gold coins, and you'll see a big red x like this: </p><p><img src='run_exp/static/images/tutorial/reward_no.png' height='150'></p><p> How much bonus money you make is based on how many gold coins you collect.</p<p><b>[Press the space bar to continue]</b></p></div>","32","","","","","","","","","","","","","","","","","","","","","","",""
"","instruc5","10","124861","0.0-10.0","""event"",""trial"",""time""
""fullscreenenter"",""0"",""3029""
","
","
","""event"",""trial"",""time""
""fullscreenenter"",""0"",""3029""
","
","21823.100000023842","run_exp/static/audio/clip_5_probabilistic.m4a","49","","","","","<div class='center'><p>Even the most skilled pirate can not rob EVERY ship.</p><p> Some ships will have very strong protections against pirate attacks.</p><p> Blue beard, here, is very, very good at robbing ships, but he won't be successful every time he tries to rob one.</p><p> You can press the <b>‘1’</b> key on the keyboard to choose him.</p><p> Try choosing him 10 times to see how often he succeeds at robbing a ship. </p><p><img src='run_exp/static/images/tutorial/blue.png' height='500'></p></div>","","","","","","","","","","","","","","","","","",""
"","html-keyboard-response","11","126367","0.0-11.0","""event"",""trial"",""time""
""fullscreenenter"",""0"",""3029""
","
","
","""event"",""trial"",""time""
""fullscreenenter"",""0"",""3029""
","
","null","<div class='center'><p><img src='run_exp/static/images/tutorial/blue_win.png' height='500'></p></div>","null","","","","","","","","","","","","","","","","","","","","","","",""
"","html-keyboard-response","12","127410","0.0-12.0","""event"",""trial"",""time""
""fullscreenenter"",""0"",""3029""
","
","
","""event"",""trial"",""time""
""fullscreenenter"",""0"",""3029""
","
","1041.6000000238419","<div class='center'><img src='run_exp/static/images/tutorial/blue.png' height='500'></p></div>","49","","","","","","","","","","","","","","","","","","","","","","",""
"","html-keyboard-response","13","128926","0.0-13.0","""event"",""trial"",""time""
""fullscreenenter"",""0"",""3029""
","
","
","""event"",""trial"",""time""
""fullscreenenter"",""0"",""3029""
","
","null","<div class='center'><p><img src='run_exp/static/images/tutorial/blue_win.png' height='500'></p></div>","null","","","","","","","","","","","","","","","","","","","","","","",""
"","html-keyboard-response","14","130107","0.0-14.0","""event"",""trial"",""time""
""fullscreenenter"",""0"",""3029""
","
","
","""event"",""trial"",""time""
""fullscreenenter"",""0"",""3029""
","
","1178.7999999523163","<div class='center'><img src='run_exp/static/images/tutorial/blue.png' height='500'></p></div>","49","","","","","","","","","","","","","","","","","","","","","","",""
"","html-keyboard-response","15","131626","0.0-15.0","""event"",""trial"",""time""
""fullscreenenter"",""0"",""3029""
","
","
","""event"",""trial"",""time""
""fullscreenenter"",""0"",""3029""
","
","null","<div class='center'><p><img src='run_exp/static/images/tutorial/blue_win.png' height='500'></p></div>","null","","","","","","","","","","","","","","","","","","","","","","",""
"","html-keyboard-response","16","131786","0.0-16.0","""event"",""trial"",""time""
""fullscreenenter"",""0"",""3029""
","
","
","""event"",""trial"",""time""
""fullscreenenter"",""0"",""3029""
","
","158.5","<div class='center'><img src='run_exp/static/images/tutorial/blue.png' height='500'></p></div>","49","","","","","","","","","","","","","","","","","","","","","","",""
"","html-keyboard-response","17","133291","0.0-17.0","""event"",""trial"",""time""
""fullscreenenter"",""0"",""3029""
","
","
","""event"",""trial"",""time""
""fullscreenenter"",""0"",""3029""
","
","null","<div class='center'><p><img src='run_exp/static/images/tutorial/blue_no_win.png' height='500'></p></div>","null","","","","","","","","","","","","","","","","","","","","","","",""
"","html-keyboard-response","18","134169","0.0-18.0","""event"",""trial"",""time""
""fullscreenenter"",""0"",""3029""
","
","
","""event"",""trial"",""time""
""fullscreenenter"",""0"",""3029""
","
","876.3000000119209","<div class='center'><img src='run_exp/static/images/tutorial/blue.png' height='500'></p></div>","49","","","","","","","","","","","","","","","","","","","","","","",""
"","html-keyboard-response","19","135682","0.0-19.0","""event"",""trial"",""time""
""fullscreenenter"",""0"",""3029""
","
","
","""event"",""trial"",""time""
""fullscreenenter"",""0"",""3029""
","
","null","<div class='center'><p><img src='run_exp/static/images/tutorial/blue_win.png' height='500'></p></div>","null","","","","","","","","","","","","","","","","","","","","","","",""
"","html-keyboard-response","20","136179","0.0-20.0","""event"",""trial"",""time""
""fullscreenenter"",""0"",""3029""
","
","
","""event"",""trial"",""time""
""fullscreenenter"",""0"",""3029""
","
","496.2000000476837","<div class='center'><img src='run_exp/static/images/tutorial/blue.png' height='500'></p></div>","49","","","","","","","","","","","","","","","","","","","","","","",""
"","html-keyboard-response","21","137695","0.0-21.0","""event"",""trial"",""time""
""fullscreenenter"",""0"",""3029""
","
","
","""event"",""trial"",""time""
""fullscreenenter"",""0"",""3029""
","
","null","<div class='center'><p><img src='run_exp/static/images/tutorial/blue_win.png' height='500'></p></div>","null","","","","","","","","","","","","","","","","","","","","","","",""
"","html-keyboard-response","22","138299","0.0-22.0","""event"",""trial"",""time""
""fullscreenenter"",""0"",""3029""
","
","
","""event"",""trial"",""time""
""fullscreenenter"",""0"",""3029""
","
","602","<div class='center'><img src='run_exp/static/images/tutorial/blue.png' height='500'></p></div>","49","","","","","","","","","","","","","","","","","","","","","","",""
"","html-keyboard-response","23","139802","0.0-23.0","""event"",""trial"",""time""
""fullscreenenter"",""0"",""3029""
","
","
","""event"",""trial"",""time""
""fullscreenenter"",""0"",""3029""
","
","null","<div class='center'><p><img src='run_exp/static/images/tutorial/blue_win.png' height='500'></p></div>","null","","","","","","","","","","","","","","","","","","","","","","",""
"","html-keyboard-response","24","140185","0.0-24.0","""event"",""trial"",""time""
""fullscreenenter"",""0"",""3029""
","
","
","""event"",""trial"",""time""
""fullscreenenter"",""0"",""3029""
","
","381.2000000476837","<div class='center'><img src='run_exp/static/images/tutorial/blue.png' height='500'></p></div>","49","","","","","","","","","","","","","","","","","","","","","","",""
"","html-keyboard-response","25","141695","0.0-25.0","""event"",""trial"",""time""
""fullscreenenter"",""0"",""3029""
","
","
","""event"",""trial"",""time""
""fullscreenenter"",""0"",""3029""
","
","null","<div class='center'><p><img src='run_exp/static/images/tutorial/blue_no_win.png' height='500'></p></div>","null","","","","","","","","","","","","","","","","","","","","","","",""
"","html-keyboard-response","26","142393","0.0-26.0","""event"",""trial"",""time""
""fullscreenenter"",""0"",""3029""
","
","
","""event"",""trial"",""time""
""fullscreenenter"",""0"",""3029""
","
","696.3000000119209","<div class='center'><img src='run_exp/static/images/tutorial/blue.png' height='500'></p></div>","49","","","","","","","","","","","","","","","","","","","","","","",""
"","html-keyboard-response","27","143896","0.0-27.0","""event"",""trial"",""time""
""fullscreenenter"",""0"",""3029""
","
","
","""event"",""trial"",""time""
""fullscreenenter"",""0"",""3029""
","
","null","<div class='center'><p><img src='run_exp/static/images/tutorial/blue_win.png' height='500'></p></div>","null","","","","","","","","","","","","","","","","","","","","","","",""
"","html-keyboard-response","28","144299","0.0-28.0","""event"",""trial"",""time""
""fullscreenenter"",""0"",""3029""
","
","
","""event"",""trial"",""time""
""fullscreenenter"",""0"",""3029""
","
","401.19999998807907","<div class='center'><img src='run_exp/static/images/tutorial/blue.png' height='500'></p></div>","49","","","","","","","","","","","","","","","","","","","","","","",""
"","html-keyboard-response","29","145811","0.0-29.0","""event"",""trial"",""time""
""fullscreenenter"",""0"",""3029""
","
","
","""event"",""trial"",""time""
""fullscreenenter"",""0"",""3029""
","
","null","<div class='center'><p><img src='run_exp/static/images/tutorial/blue_win.png' height='500'></p></div>","null","","","","","","","","","","","","","","","","","","","","","","",""
"","instruc6","30","151205","0.0-30.0","""event"",""trial"",""time""
""fullscreenenter"",""0"",""3029""
","
","
","""event"",""trial"",""time""
""fullscreenenter"",""0"",""3029""
","
","null","run_exp/static/audio/clip_6_blue_beard_outcome.m4a","null","","","","","<div class='center'><p> See, he succeeded in robbing the ships most of the time but not every time. </p></div>","","","","","","","","","","","","","","","","","",""
"","html-keyboard-response","31","153370","0.0-31.0","""event"",""trial"",""time""
""fullscreenenter"",""0"",""3029""
","
","
","""event"",""trial"",""time""
""fullscreenenter"",""0"",""3029""
","
","2164","<div class='center'><p> See, he succeeded in robbing the ships most of the time but not every time. </p><p><b>[Press the space bar to continue]</b></p></div>","32","","","","","","","","","","","","","","","","","","","","","","",""
"","audio-keyboard-response","32","169956","0.0-32.0","""event"",""trial"",""time""
""fullscreenenter"",""0"",""3029""
","
","
","""event"",""trial"",""time""
""fullscreenenter"",""0"",""3029""
","
","16590.899999976158","run_exp/static/audio/clip_7_pick_pirate.m4a","50","","","","","","","","","","","","","","","","","","","","","","",""
"","audio-keyboard-response","33","175437","0.0-33.0-0.0","""event"",""trial"",""time""
""fullscreenenter"",""0"",""3029""
","
","
","""event"",""trial"",""time""
""fullscreenenter"",""0"",""3029""
","
","5478.900000035763","run_exp/static/audio/clip_8_chosen_pirate_win.m4a","32","","","","","","","","","","","","","","","","","","","","","","",""
"","audio-keyboard-response","34","177485","0.0-33.0-1.0","""event"",""trial"",""time""
""fullscreenenter"",""0"",""3029""
","
","
","""event"",""trial"",""time""
""fullscreenenter"",""0"",""3029""
","
","2045.3999999761581","run_exp/static/audio/clip_9_pick_a_pirate_again.m4a","51","","","","","","","","","","","","","","","","","","","","","","",""
"","audio-keyboard-response","35","182742","0.0-34.0-0.0","""event"",""trial"",""time""
""fullscreenenter"",""0"",""3029""
","
","
","""event"",""trial"",""time""
""fullscreenenter"",""0"",""3029""
","
","5253.300000011921","run_exp/static/audio/clip_10_chosen_pirate_loss.m4a","32","","","","","","","","","","","","","","","","","","","","","","",""
"","instruc9","36","188219","0.0-35.0-0.0","""event"",""trial"",""time""
""fullscreenenter"",""0"",""3029""
","
","
","""event"",""trial"",""time""
""fullscreenenter"",""0"",""3029""
","
","null","run_exp/static/audio/clip_11_time_out.m4a","null","","","","","<div class='center'><p>If you don’t make your choice fast enough, you’ll have to wait a few seconds before you can make another one. </p><p><img src='run_exp/static/images/miscellaneous/hurry_up.png' height='500'></p></div>","","","","","","","","","","","","","","","","","",""
"","html-keyboard-response","37","189565","0.0-35.0-1.0","""event"",""trial"",""time""
""fullscreenenter"",""0"",""3029""
","
","
","""event"",""trial"",""time""
""fullscreenenter"",""0"",""3029""
","
","1343.7999999523163","<div class='center'><p>If you don’t make your choice fast enough, you’ll have to wait a few seconds before you can make another one. </p><p><img src='run_exp/static/images/miscellaneous/hurry_up.png' height='500'></p><p><b>[Press the space bar to continue]</b></p></div>","32","","","","","","","","","","","","","","","","","","","","","","",""
"","instruc10","38","228640","0.0-35.0-2.0","""event"",""trial"",""time""
""fullscreenenter"",""0"",""3029""
","
","
","""event"",""trial"",""time""
""fullscreenenter"",""0"",""3029""
","
","null","run_exp/static/audio/clip_12_probe.m4a","null","","","","","<div class='center'><p>Once you've chosen a pirate, you’ll be shown the ship they are robbing. You will never rob the same ship twice. Ships can be told apart from one another by the image on them. These are the goods that they sell. See, this ship has a travel mug on it. </p><p> You’ll have to remember which island you saw each ship on. You will win more gold coins and hence more bonus money if you remember correctly! To help you remember, you can imagine a story. For example, here, you could imagine a mug full of water in the desert. Or, as another example, if on the forest island, your pirate robbed a ship with an apple on it, you could imagine an apple falling from a tree in the forest. </p><p><img src='run_exp/static/images/tutorial/example_probe.png' height='500'></p></div>","","","","","","","","","","","","","","","","","",""
"","html-keyboard-response","39","231036","0.0-35.0-3.0","""event"",""trial"",""time""
""fullscreenenter"",""0"",""3029""
","
","
","""event"",""trial"",""time""
""fullscreenenter"",""0"",""3029""
","
","2385.699999988079","<div class='center'><p>Once you've chosen a pirate, you’ll be shown the ship they are robbing. You will never rob the same ship twice. Ships can be told apart from one another by the image on them. These are the goods that they sell. See, this ship has a travel mug on it. </p><p> You’ll have to remember which island you saw each ship on. You will win more gold coins and hence more bonus money if you remember correctly! To help you remember, you can imagine a story. For example, here, you could imagine a mug full of water in the desert. Or, as another example, if on the forest island, your pirate robbed a ship with an apple on it, you could imagine an apple falling from a tree in the forest. </p><p><img src='run_exp/static/images/tutorial/example_probe.png' height='500'></p><p><b>[Press the space bar to continue]</b></p></div>","32","","","","","","","","","","","","","","","","","","","","","","",""
"","instruc11","40","247446","0.0-35.0-4.0","""event"",""trial"",""time""
""fullscreenenter"",""0"",""3029""
","
","
","""event"",""trial"",""time""
""fullscreenenter"",""0"",""3029""
","
","null","run_exp/static/audio/clip_13_changepoint.m4a","null","","","","","<div class='center'><p>How successful a pirate is at robbing ships will depend on the island you’re on.</p><p> A pirate may have visited this island many times before and gained a lot of practice robbing ships there.</p><p>So, they’re more likely to be successful than a pirate who has never visited the island before.</p></div>","","","","","","","","","","","","","","","","","",""
"","html-keyboard-response","41","250452","0.0-35.0-5.0","""event"",""trial"",""time""
""fullscreenenter"",""0"",""3029""
","
","
","""event"",""trial"",""time""
""fullscreenenter"",""0"",""3029""
","
","3005.5","<div class='center'><p>How successful a pirate is at robbing ships will depend on the island you’re on.</p><p> A pirate may have visited this island many times before and gained a lot of practice robbing ships there.</p><p>So, they’re more likely to be successful than a pirate who has never visited the island before.</p><p><b>[Press the space bar to continue]</b></p></div>","32","","","","","","","","","","","","","","","","","","","","","","",""
"","instruc12","42","291546","0.0-35.0-6.0","""event"",""trial"",""time""
""fullscreenenter"",""0"",""3029""
","
","
","""event"",""trial"",""time""
""fullscreenenter"",""0"",""3029""
","
","null","run_exp/static/audio/clip_14_drift.m4a","null","","","","","<div class='center'><p>How successful a pirate is at robbing ships can also change over the time spent on the island. </p><p> Ships may hear from islanders about the pirates coming and will improve their protections against the attack. This may make it harder to rob them.</p><p> Ships may also become lazy and weaken the strength of their protections. This may make it easier to rob them.</p><br><p>Things are always changing on the high seas! So, try your best to pay attention!</p><p><img src='run_exp/static/images/tutorial/contingency.png' height='500'></p></div>","","","","","","","","","","","","","","","","","",""
"","html-keyboard-response","43","295724","0.0-35.0-7.0","""event"",""trial"",""time""
""fullscreenenter"",""0"",""3029""
","
","
","""event"",""trial"",""time""
""fullscreenenter"",""0"",""3029""
","
","4175.5","<div class='center'><p>How successful a pirate is at robbing ships can also change over the time spent on the island. </p><p> Ships may hear from islanders about the pirates coming and will improve their protections against the attack. This may make it harder to rob them.</p><p> Ships may also become lazy and weaken the strength of their protections. This may make it easier to rob them.</p><br><p>Things are always changing on the high seas! So, try your best to pay attention!</p><p><img src='run_exp/static/images/tutorial/contingency.png' height='500'></p><p><b>[Press the space bar to continue]</b></p></div>","32","","","","","","","","","","","","","","","","","","","","","","",""
"","instruc13","44","330905","0.0-35.0-8.0","""event"",""trial"",""time""
""fullscreenenter"",""0"",""3029""
","
","
","""event"",""trial"",""time""
""fullscreenenter"",""0"",""3029""
","
","null","run_exp/static/audio/clip_15_summary.m4a","null","","","","","<div class='center'><p>Let's go over the instructions quickly again. You have two important things to do: </p><b><p> 1. Pick the pirate who is the best at robbing ships on the current island. </p></b><b><p> 2. Remember on which island a ship was robbed.</p> </b><p>The amount of bonus money you can win depends on both.</p><p><br><p>Let’s try a practice game. The game will start by showing you the pirates. First, pick a pirate using the <b> 1, 2, 3 </b> keys on your keyboard. When you are shown a ship, try to remember which island you’re on by making up a story.</p><p>This is just a practice game, so you’re not playing for money. </p><p> Good luck! This game will be very difficult but try your best!</p></div>","","","","","","","","","","","","","","","","","",""
"","html-keyboard-response","45","331732","0.0-35.0-9.0","""event"",""trial"",""time""
""fullscreenenter"",""0"",""3029""
","
","
","""event"",""trial"",""time""
""fullscreenenter"",""0"",""3029""
","
","824.1000000238419","<div class='center'><p>Let's go over the instructions quickly again. You have two important things to do: </p><b><p> 1. Pick the pirate who is the best at robbing ships on the current island. </p></b><b><p> 2. Remember on which island a ship was robbed.</p> </b><p>The amount of bonus money you can win depends on both.</p><p><br><p>Let’s try a practice game. The game will start by showing you the pirates. First, pick a pirate using the <b> 1, 2, 3 </b> keys on your keyboard. When you are shown a ship, try to remember which island you’re on by making up a story.</p><p>This is just a practice game, so you’re not playing for money. </p><p> Good luck! This game will be very difficult but try your best!</p><p><b>[Press the space bar to continue]</b></p></div>","32","","","","","","","","","","","","","","","","","","","","","","",""
"","do_welcome","46","335764","0.0-35.0-10.0","""event"",""trial"",""time""
""fullscreenenter"",""0"",""3029""
","
","
","""event"",""trial"",""time""
""fullscreenenter"",""0"",""3029""
","
","null","","","","","","","","null","","","","","","","","","","","","","","","","",""
"","do_trial","47","341663","0.0-35.0-11.0","""event"",""trial"",""time""
""fullscreenenter"",""0"",""3029""
","
","
","""event"",""trial"",""time""
""fullscreenenter"",""0"",""3029""
","
","1390.0999999642372","","","","","","","","49","1,0,0","","","","","","","","","","","","","","","",""
"","html-keyboard-response","48","342673","0.0-36.0-0.0","""event"",""trial"",""time""
""fullscreenenter"",""0"",""3029""
","
","
","""event"",""trial"",""time""
""fullscreenenter"",""0"",""3029""
","
","null","<p></p>","null","","","","","","","","","","","","","","","","","","","","","","",""
"","do_trial","49","347981","0.0-36.0-1.0","""event"",""trial"",""time""
""fullscreenenter"",""0"",""3029""
","
","
","""event"",""trial"",""time""
""fullscreenenter"",""0"",""3029""
","
","794.1000000238419","","","","","","","","51","1,1,0","","","","","","","","","","","","","","","",""
"","html-keyboard-response","50","348993","0.0-37.0-0.0","""event"",""trial"",""time""
""fullscreenenter"",""0"",""3029""
","
","
","""event"",""trial"",""time""
""fullscreenenter"",""0"",""3029""
","
","null","<p></p>","null","","","","","","","","","","","","","","","","","","","","","","",""
"","do_trial","51","353933","0.0-37.0-1.0","""event"",""trial"",""time""
""fullscreenenter"",""0"",""3029""
","
","
","""event"",""trial"",""time""
""fullscreenenter"",""0"",""3029""
","
","418","","","","","","","","50","1,0,1","","","","","","","","","","","","","","","",""
"","html-keyboard-response","52","354945","0.0-38.0-0.0","""event"",""trial"",""time""
""fullscreenenter"",""0"",""3029""
","
","
","""event"",""trial"",""time""
""fullscreenenter"",""0"",""3029""
","
","null","<p></p>","null","","","","","","","","","","","","","","","","","","","","","","",""
"","do_trial","53","359627","0.0-38.0-1.0","""event"",""trial"",""time""
""fullscreenenter"",""0"",""3029""
","
","
","""event"",""trial"",""time""
""fullscreenenter"",""0"",""3029""
","
","165.20000004768372","","","","","","","","49","0,1,0","","","","","","","","","","","","","","","",""
"","html-keyboard-response","54","360630","0.0-39.0-0.0","""event"",""trial"",""time""
""fullscreenenter"",""0"",""3029""
","
","
","""event"",""trial"",""time""
""fullscreenenter"",""0"",""3029""
","
","null","<p></p>","null","","","","","","","","","","","","","","","","","","","","","","",""
"","do_trial","55","366149","0.0-39.0-1.0","""event"",""trial"",""time""
""fullscreenenter"",""0"",""3029""
","
","
","""event"",""trial"",""time""
""fullscreenenter"",""0"",""3029""
","
","994.6999999880791","","","","","","","","51","1,0,0","","","","","","","","","","","","","","","",""
"","do_bye","56","367665","0.0-40.0-0.0","""event"",""trial"",""time""
""fullscreenenter"",""0"",""3029""
","
","
","""event"",""trial"",""time""
""fullscreenenter"",""0"",""3029""
","
","null","","","","","","","","null","","","","","","","","","","","","","","","","",""
"","do_travel","57","376671","0.0-40.0-1.0","""event"",""trial"",""time""
""fullscreenenter"",""0"",""3029""
","
","
","""event"",""trial"",""time""
""fullscreenenter"",""0"",""3029""
","
","null","","","","","","","","null","","","","","","","","","","","","","","","","",""
"","do_welcome","58","380681","0.0-40.0-2.0","""event"",""trial"",""time""
""fullscreenenter"",""0"",""3029""
","
","
","""event"",""trial"",""time""
""fullscreenenter"",""0"",""3029""
","
","null","","","","","","","","null","","","","","","","","","","","","","","","","",""
"","do_trial","59","385951","0.0-40.0-3.0","""event"",""trial"",""time""
""fullscreenenter"",""0"",""3029""
","
","
","""event"",""trial"",""time""
""fullscreenenter"",""0"",""3029""
","
","751.3999999761581","","","","","","","","49","1,0,0","","","","","","","","","","","","","","","",""
"","html-keyboard-response","60","386971","0.0-41.0-0.0","""event"",""trial"",""time""
""fullscreenenter"",""0"",""3029""
","
","
","""event"",""trial"",""time""
""fullscreenenter"",""0"",""3029""
","
","null","<p></p>","null","","","","","","","","","","","","","","","","","","","","","","",""
"","do_trial","61","392268","0.0-41.0-1.0","""event"",""trial"",""time""
""fullscreenenter"",""0"",""3029""
","
","
","""event"",""trial"",""time""
""fullscreenenter"",""0"",""3029""
","
","784.6999999880791","","","","","","","","49","1,0,1","","","","","","","","","","","","","","","",""
"","html-keyboard-response","62","393282","0.0-42.0-0.0","""event"",""trial"",""time""
""fullscreenenter"",""0"",""3029""
","
","
","""event"",""trial"",""time""
""fullscreenenter"",""0"",""3029""
","
","null","<p></p>","null","","","","","","","","","","","","","","","","","","","","","","",""
"","do_trial","63","398713","0.0-42.0-1.0","""event"",""trial"",""time""
""fullscreenenter"",""0"",""3029""
","
","
","""event"",""trial"",""time""
""fullscreenenter"",""0"",""3029""
","
","915.5999999642372","","","","","","","","49","1,1,0","","","","","","","","","","","","","","","",""
"","html-keyboard-response","64","399728","0.0-43.0-0.0","""event"",""trial"",""time""
""fullscreenenter"",""0"",""3029""
","
","
","""event"",""trial"",""time""
""fullscreenenter"",""0"",""3029""
","
","null","<p></p>","null","","","","","","","","","","","","","","","","","","","","","","",""
"","do_trial","65","405028","0.0-43.0-1.0","""event"",""trial"",""time""
""fullscreenenter"",""0"",""3029""
","
","
","""event"",""trial"",""time""
""fullscreenenter"",""0"",""3029""
","
","789.5","","","","","","","","49","0,0,1","","","","","","","","","","","","","","","",""
"","html-keyboard-response","66","406045","0.0-44.0-0.0","""event"",""trial"",""time""
""fullscreenenter"",""0"",""3029""
","
","
","""event"",""trial"",""time""
""fullscreenenter"",""0"",""3029""
","
","null","<p></p>","null","","","","","","","","","","","","","","","","","","","","","","",""
"","do_trial","67","412098","0.0-44.0-1.0","""event"",""trial"",""time""
""fullscreenenter"",""0"",""3029""
","
","
","""event"",""trial"",""time""
""fullscreenenter"",""0"",""3029""
","
","1532.199999988079","","","","","","","","49","1,0,1","","","","","","","","","","","","","","","",""
"","html-keyboard-response","68","413666","0.0-45.0-0.0","""event"",""trial"",""time""
""fullscreenenter"",""0"",""3029""
","
","
","""event"",""trial"",""time""
""fullscreenenter"",""0"",""3029""
","
","1569.199999988079","<div class='center'><p><img src='run_exp/static/images/tutorial/prac_best_pirate.png'  height='500'></p></div>","49","","","","","","","","","","","","","","","","","","","","","","",""
"","html-keyboard-response","69","416051","0.0-46.0-0.0","""event"",""trial"",""time""
""fullscreenenter"",""0"",""3029""
","
","
","""event"",""trial"",""time""
""fullscreenenter"",""0"",""3029""
","
","2383.7999999523163","<div class='center'><p>That's correct! Red beard was the best.</p><p><b>[Press the space bar to continue]</b></p></div>","32","","","","","","","","","","","","","","","","","","","","","","",""
"","html-keyboard-response","70","420050","0.0-46.0-1.0","""event"",""trial"",""time""
""fullscreenenter"",""0"",""3029""
","
","
","""event"",""trial"",""time""
""fullscreenenter"",""0"",""3029""
","
","3996.699999988079","<div class='center'><p><img src='run_exp/static/images/tutorial/prac_source.png'  height='500'></p></div>","50","","","","","","","","","","","","","","","","","","","","","","",""
"","html-keyboard-response","71","422162","0.0-47.0-0.0","""event"",""trial"",""time""
""fullscreenenter"",""0"",""3029""
","
","
","""event"",""trial"",""time""
""fullscreenenter"",""0"",""3029""
","
","2111","<div class='center'><p>That's correct! You saw this ship on the cavern island.</p><p><b>[Press the space bar to continue]</b></p></div>","32","","","","","","","","","","","","","","","","","","","","","","",""
"","quiz_beginning","72","433356","0.0-47.0-1.0","""event"",""trial"",""time""
""fullscreenenter"",""0"",""3029""
","
","
","""event"",""trial"",""time""
""fullscreenenter"",""0"",""3029""
","
","null","run_exp/static/audio/clip_16_quiz_intro.m4a","null","","","","","<div class='center'><p>Good job on the practice game! Now, you will be asked some true or false questions to make sure you really understand the rules of the game.</p><p> Press <b>'1'</b> on the keyboard for true and press <b>'2'</b> for false.</p></div>","","","","","","","","","","","","","","","","","",""
"","audio-keyboard-response","73","439545","0.0-47.0-2.0","""event"",""trial"",""time""
""fullscreenenter"",""0"",""3029""
","
","
","""event"",""trial"",""time""
""fullscreenenter"",""0"",""3029""
","
","6187.100000023842","run_exp/static/audio/clip_17_q1.m4a","49","","","","","","","","","","","","","","","","","","","","","","",""
"","correct","74","441956","0.0-48.0-0.0","""event"",""trial"",""time""
""fullscreenenter"",""0"",""3029""
","
","
","""event"",""trial"",""time""
""fullscreenenter"",""0"",""3029""
","
","null","run_exp/static/audio/clip_18_correct.m4a","null","","","","","<div class='center'><p>That's correct!</p></div>","","","","","","","","","","","","","","","","","",""
"","html-keyboard-response","75","443192","0.0-48.0-1.0","""event"",""trial"",""time""
""fullscreenenter"",""0"",""3029""
","
","
","""event"",""trial"",""time""
""fullscreenenter"",""0"",""3029""
","
","1235.300000011921","<div class='center'><p>That's correct!</p><p><b>[Press the space bar to continue]</b></p></div>","32","","","","","","","","","","","","","","","","","","","","","","",""
"","audio-keyboard-response","76","450601","0.0-48.0-2.0","""event"",""trial"",""time""
""fullscreenenter"",""0"",""3029""
","
","
","""event"",""trial"",""time""
""fullscreenenter"",""0"",""3029""
","
","7408.099999964237","run_exp/static/audio/clip_20_q2.m4a","50","","","","","","","","","","","","","","","","","","","","","","",""
"","correct","77","452996","0.0-49.0-0.0","""event"",""trial"",""time""
""fullscreenenter"",""0"",""3029""
","
","
","""event"",""trial"",""time""
""fullscreenenter"",""0"",""3029""
","
","null","run_exp/static/audio/clip_18_correct.m4a","null","","","","","<div class='center'><p>That's correct!</p></div>","","","","","","","","","","","","","","","","","",""
"","html-keyboard-response","78","453809","0.0-49.0-1.0","""event"",""trial"",""time""
""fullscreenenter"",""0"",""3029""
","
","
","""event"",""trial"",""time""
""fullscreenenter"",""0"",""3029""
","
","812.3999999761581","<div class='center'><p>That's correct!</p><p><b>[Press the space bar to continue]</b></p></div>","32","","","","","","","","","","","","","","","","","","","","","","",""
"","audio-keyboard-response","79","461227","0.0-49.0-2.0","""event"",""trial"",""time""
""fullscreenenter"",""0"",""3029""
","
","
","""event"",""trial"",""time""
""fullscreenenter"",""0"",""3029""
","
","7417.699999988079","run_exp/static/audio/clip_22_q3.m4a","50","","","","","","","","","","","","","","","","","","","","","","",""
"","correct","80","463616","0.0-50.0-0.0","""event"",""trial"",""time""
""fullscreenenter"",""0"",""3029""
","
","
","""event"",""trial"",""time""
""fullscreenenter"",""0"",""3029""
","
","null","run_exp/static/audio/clip_18_correct.m4a","null","","","","","<div class='center'><p>That's correct!</p></div>","","","","","","","","","","","","","","","","","",""
"","html-keyboard-response","81","464547","0.0-50.0-1.0","""event"",""trial"",""time""
""fullscreenenter"",""0"",""3029""
","
","
","""event"",""trial"",""time""
""fullscreenenter"",""0"",""3029""
","
","929.5","<div class='center'><p>That's correct!</p><p><b>[Press the space bar to continue]</b></p></div>","32","","","","","","","","","","","","","","","","","","","","","","",""
"","audio-keyboard-response","82","468881","0.0-50.0-2.0","""event"",""trial"",""time""
""fullscreenenter"",""0"",""3029""
","
","
","""event"",""trial"",""time""
""fullscreenenter"",""0"",""3029""
","
","4332.700000047684","run_exp/static/audio/clip_24_q4.m4a","49","","","","","","","","","","","","","","","","","","","","","","",""
"","correct","83","471316","0.0-51.0-0.0","""event"",""trial"",""time""
""fullscreenenter"",""0"",""3029""
","
","
","""event"",""trial"",""time""
""fullscreenenter"",""0"",""3029""
","
","null","run_exp/static/audio/clip_18_correct.m4a","null","","","","","<div class='center'><p>That's correct!</p></div>","","","","","","","","","","","","","","","","","",""
"","html-keyboard-response","84","471938","0.0-51.0-1.0","""event"",""trial"",""time""
""fullscreenenter"",""0"",""3029""
","
","
","""event"",""trial"",""time""
""fullscreenenter"",""0"",""3029""
","
","620.5999999642372","<div class='center'><p>That's correct!</p><p><b>[Press the space bar to continue]</b></p></div>","32","","","","","","","","","","","","","","","","","","","","","","",""
"","q_all_corr","85","480417","0.0-52.0-0.0","""event"",""trial"",""time""
""fullscreenenter"",""0"",""3029""
","
","
","""event"",""trial"",""time""
""fullscreenenter"",""0"",""3029""
","
","null","run_exp/static/audio/clip_27_quiz_all_correct.m4a","null","","","","","<div class='center'><p>Good job! You’re now ready to move on to the real game! Remember this game will be difficult but don't get discouraged and try your best!</p></div>","","","","","","","","","","","","","","","","","",""
"","html-keyboard-response","86","480803","0.0-52.0-1.0","""event"",""trial"",""time""
""fullscreenenter"",""0"",""3029""
","
","
","""event"",""trial"",""time""
""fullscreenenter"",""0"",""3029""
","
","385","<div class='center'><p>Good job! You’re now ready to move on to the real game! Remember this game will be difficult but don't get discouraged and try your best!</p><p><b>[Press the space bar to continue]</b></p></div>","32","","","","","","","","","","","","","","","","","","","","","","",""
"","do_welcome","87","484816","0.0-53.0-0.0","""event"",""trial"",""time""
""fullscreenenter"",""0"",""3029""
","
","
","""event"",""trial"",""time""
""fullscreenenter"",""0"",""3029""
","
","null","","","","","","","","null","","","","","","","","","","","","","","","","",""
"","do_trial","88","490145","0.0-54.0-0.0","""event"",""trial"",""time""
""fullscreenenter"",""0"",""3029""
","
","
","""event"",""trial"",""time""
""fullscreenenter"",""0"",""3029""
","
","783.7999999523163","","","","","","","","49","0,1,0","0","coast","0","probe-25","0.6","0.3","0.1","0","","","","","","","",""
"","html-keyboard-response","89","491165","0.0-54.0-1.0","""event"",""trial"",""time""
""fullscreenenter"",""0"",""3029""
","
","
","""event"",""trial"",""time""
""fullscreenenter"",""0"",""3029""
","
","null","<p></p>","null","","","","","","","","","","","","","","","","","","","","","","",""
"","do_trial","90","495956","0.0-55.0-0.0","""event"",""trial"",""time""
""fullscreenenter"",""0"",""3029""
","
","
","""event"",""trial"",""time""
""fullscreenenter"",""0"",""3029""
","
","238.5","","","","","","","","50","0,0,1","0","coast","1","probe-16","0.5263724792280751","0.2996926712148655","0.21817018255239037","0","","","","","","","",""
"","html-keyboard-response","91","496963","0.0-55.0-1.0","""event"",""trial"",""time""
""fullscreenenter"",""0"",""3029""
","
","
","""event"",""trial"",""time""
""fullscreenenter"",""0"",""3029""
","
","null","<p></p>","null","","","","","","","","","","","","","","","","","","","","","","",""
"","do_trial","92","502080","0.0-56.0-0.0","""event"",""trial"",""time""
""fullscreenenter"",""0"",""3029""
","
","
","""event"",""trial"",""time""
""fullscreenenter"",""0"",""3029""
","
","565.0999999642372","","","","","","","","51","0,0,1","0","coast","2","probe-145","0.497152294937833","0.256150988738021","0.3818116861169511","1","","","","","","","",""
"","html-keyboard-response","93","503093","0.0-56.0-1.0","""event"",""trial"",""time""
""fullscreenenter"",""0"",""3029""
","
","
","""event"",""trial"",""time""
""fullscreenenter"",""0"",""3029""
","
","null","<p></p>","null","","","","","","","","","","","","","","","","","","","","","","",""
"","do_trial","94","507765","0.0-57.0-0.0","""event"",""trial"",""time""
""fullscreenenter"",""0"",""3029""
","
","
","""event"",""trial"",""time""
""fullscreenenter"",""0"",""3029""
","
","125.90000003576279","","","","","","","","51","0,0,0","0","coast","3","probe-09","0.5056733891974736","0.36349130558506404","0.35212071147230833","0","","","","","","","",""
"","html-keyboard-response","95","508777","0.0-57.0-1.0","""event"",""trial"",""time""
""fullscreenenter"",""0"",""3029""
","
","
","""event"",""trial"",""time""
""fullscreenenter"",""0"",""3029""
","
","null","<p></p>","null","","","","","","","","","","","","","","","","","","","","","","",""
"","do_trial","96","513665","0.0-58.0-0.0","""event"",""trial"",""time""
""fullscreenenter"",""0"",""3029""
","
","
","""event"",""trial"",""time""
""fullscreenenter"",""0"",""3029""
","
","342.30000001192093","","","","","","","","51","0,0,0","0","coast","4","probe-222","0.6574999837135073","0.35628029089483826","0.29488291826927115","0","","","","","","","",""
"","html-keyboard-response","97","514677","0.0-58.0-1.0","""event"",""trial"",""time""
""fullscreenenter"",""0"",""3029""
","
","
","""event"",""trial"",""time""
""fullscreenenter"",""0"",""3029""
","
","null","<p></p>","null","","","","","","","","","","","","","","","","","","","","","","",""
"","do_trial","98","519815","0.0-59.0-0.0","""event"",""trial"",""time""
""fullscreenenter"",""0"",""3029""
","
","
","""event"",""trial"",""time""
""fullscreenenter"",""0"",""3029""
","
","586","","","","","","","","50","1,0,0","0","coast","5","probe-50","0.5828057138086153","0.3325830066596187","0.33734356117117925","0","","","","","","","",""
"","html-keyboard-response","99","520829","0.0-59.0-1.0","""event"",""trial"",""time""
""fullscreenenter"",""0"",""3029""
","
","
","""event"",""trial"",""time""
""fullscreenenter"",""0"",""3029""
","
","null","<p></p>","null","","","","","","","","","","","","","","","","","","","","","","",""
"","do_trial","100","526016","0.0-60.0-0.0","""event"",""trial"",""time""
""fullscreenenter"",""0"",""3029""
","
","
","""event"",""trial"",""time""
""fullscreenenter"",""0"",""3029""
","
","645.3000000119209","","","","","","","","51","1,0,1","0","coast","6","probe-71","0.7342487239096314","0.32319356293105095","0.18729564113032404","1","","","","","","","",""
"","html-keyboard-response","101","527030","0.0-60.0-1.0","""event"",""trial"",""time""
""fullscreenenter"",""0"",""3029""
","
","
","""event"",""trial"",""time""
""fullscreenenter"",""0"",""3029""
","
","null","<p></p>","null","","","","","","","","","","","","","","","","","","","","","","",""
"","do_trial","102","532264","0.0-61.0-0.0","""event"",""trial"",""time""
""fullscreenenter"",""0"",""3029""
","
","
","""event"",""trial"",""time""
""fullscreenenter"",""0"",""3029""
","
","683.4000000357628","","","","","","","","51","0,0,0","0","coast","7","probe-113","0.6707666964456146","0.2893833497401167","0.14581692824026182","0","","","","","","","",""
"","html-keyboard-response","103","533278","0.0-61.0-1.0","""event"",""trial"",""time""
""fullscreenenter"",""0"",""3029""
","
","
","""event"",""trial"",""time""
""fullscreenenter"",""0"",""3029""
","
","null","<p></p>","null","","","","","","","","","","","","","","","","","","","","","","",""
"","do_trial","104","538531","0.0-62.0-0.0","""event"",""trial"",""time""
""fullscreenenter"",""0"",""3029""
","
","
","""event"",""trial"",""time""
""fullscreenenter"",""0"",""3029""
","
","706.8000000119209","","","","","","","","51","1,1,0","0","coast","8","probe-130","0.6746938011522918","0.3560183619073926","0.1676392603147972","0","","","","","","","",""
"","html-keyboard-response","105","539544","0.0-62.0-1.0","""event"",""trial"",""time""
""fullscreenenter"",""0"",""3029""
","
","
","""event"",""trial"",""time""
""fullscreenenter"",""0"",""3029""
","
","null","<p></p>","null","","","","","","","","","","","","","","","","","","","","","","",""
"","do_trial","106","544419","0.0-63.0-0.0","""event"",""trial"",""time""
""fullscreenenter"",""0"",""3029""
","
","
","""event"",""trial"",""time""
""fullscreenenter"",""0"",""3029""
","
","323.9000000357628","","","","","","","","51","1,0,0","0","coast","9","probe-57","0.5879281685038416","0.14795680166213399","0.09064976783776495","0","","","","","","","",""
"","html-keyboard-response","107","545429","0.0-63.0-1.0","""event"",""trial"",""time""
""fullscreenenter"",""0"",""3029""
","
","
","""event"",""trial"",""time""
""fullscreenenter"",""0"",""3029""
","
","null","<p></p>","null","","","","","","","","","","","","","","","","","","","","","","",""
"","do_trial","108","550339","0.0-64.0-0.0","""event"",""trial"",""time""
""fullscreenenter"",""0"",""3029""
","
","
","""event"",""trial"",""time""
""fullscreenenter"",""0"",""3029""
","
","371.80000001192093","","","","","","","","49","1,0,0","0","coast","10","probe-226","0.7049913315913291","0.14872538504693975","0.1279619744339468","1","","","","","","","",""
"","html-keyboard-response","109","551346","0.0-64.0-1.0","""event"",""trial"",""time""
""fullscreenenter"",""0"",""3029""
","
","
","""event"",""trial"",""time""
""fullscreenenter"",""0"",""3029""
","
","null","<p></p>","null","","","","","","","","","","","","","","","","","","","","","","",""
"","do_trial","110","557874","0.0-65.0-0.0","""event"",""trial"",""time""
""fullscreenenter"",""0"",""3029""
","
","
","""event"",""trial"",""time""
""fullscreenenter"",""0"",""3029""
","
","1971.4000000357628","","","","","","","","49","0,0,0","0","coast","11","probe-223","0.7769706122200642","0.16158836536916923","0.1108784750247393","0","","","","","","","",""
"","html-keyboard-response","111","558879","0.0-65.0-1.0","""event"",""trial"",""time""
""fullscreenenter"",""0"",""3029""
","
","
","""event"",""trial"",""time""
""fullscreenenter"",""0"",""3029""
","
","null","<p></p>","null","","","","","","","","","","","","","","","","","","","","","","",""
"","do_trial","112","564925","0.0-66.0-0.0","""event"",""trial"",""time""
""fullscreenenter"",""0"",""3029""
","
","
","""event"",""trial"",""time""
""fullscreenenter"",""0"",""3029""
","
","null","","","","","","","","null","1,0,0","0","coast","12","probe-22","0.8562294520429307","0.29463441917123745","0.0560695080370504","","","","","","","","",""
"","html-keyboard-response","113","565931","0.0-66.0-1.0","""event"",""trial"",""time""
""fullscreenenter"",""0"",""3029""
","
","
","""event"",""trial"",""time""
""fullscreenenter"",""0"",""3029""
","
","null","<p></p>","null","","","","","","","","","","","","","","","","","","","","","","",""
"","do_trial","114","571300","0.0-67.0-0.0","""event"",""trial"",""time""
""fullscreenenter"",""0"",""3029""
","
","
","""event"",""trial"",""time""
""fullscreenenter"",""0"",""3029""
","
","830","","","","","","","","51","1,0,0","0","coast","13","probe-78","0.7068717876841187","0.32639446486215895","0.10645993637899209","0","","","","","","","",""
"","html-keyboard-response","115","572305","0.0-67.0-1.0","""event"",""trial"",""time""
""fullscreenenter"",""0"",""3029""
","
","
","""event"",""trial"",""time""
""fullscreenenter"",""0"",""3029""
","
","null","<p></p>","null","","","","","","","","","","","","","","","","","","","","","","",""
"","do_trial","116","577249","0.0-68.0-0.0","""event"",""trial"",""time""
""fullscreenenter"",""0"",""3029""
","
","
","""event"",""trial"",""time""
""fullscreenenter"",""0"",""3029""
","
","397.80000001192093","","","","","","","","49","1,0,0","0","coast","14","probe-146","0.8042597219078438","0.19420406248435051","0.124242294653688","1","","","","","","","",""
"","html-keyboard-response","117","578264","0.0-68.0-1.0","""event"",""trial"",""time""
""fullscreenenter"",""0"",""3029""
","
","
","""event"",""trial"",""time""
""fullscreenenter"",""0"",""3029""
","
","null","<p></p>","null","","","","","","","","","","","","","","","","","","","","","","",""
"","do_trial","118","583452","0.0-69.0-0.0","""event"",""trial"",""time""
""fullscreenenter"",""0"",""3029""
","
","
","""event"",""trial"",""time""
""fullscreenenter"",""0"",""3029""
","
","649.1000000238419","","","","","","","","49","1,0,1","0","coast","15","probe-180","0.6818428103795867","0.2981555241264034","0.09555203045703549","1","","","","","","","",""
"","html-keyboard-response","119","584462","0.0-69.0-1.0","""event"",""trial"",""time""
""fullscreenenter"",""0"",""3029""
","
","
","""event"",""trial"",""time""
""fullscreenenter"",""0"",""3029""
","
","null","<p></p>","null","","","","","","","","","","","","","","","","","","","","","","",""
"","do_trial","120","589264","0.0-70.0-0.0","""event"",""trial"",""time""
""fullscreenenter"",""0"",""3029""
","
","
","""event"",""trial"",""time""
""fullscreenenter"",""0"",""3029""
","
","248.80000001192093","","","","","","","","49","0,0,0","0","coast","16","probe-19","0.5960755684032598","0.26050848610610877","0.10247133684075835","0","","","","","","","",""
"","html-keyboard-response","121","590279","0.0-70.0-1.0","""event"",""trial"",""time""
""fullscreenenter"",""0"",""3029""
","
","
","""event"",""trial"",""time""
""fullscreenenter"",""0"",""3029""
","
","null","<p></p>","null","","","","","","","","","","","","","","","","","","","","","","",""
"","do_trial","122","595246","0.0-71.0-0.0","""event"",""trial"",""time""
""fullscreenenter"",""0"",""3029""
","
","
","""event"",""trial"",""time""
""fullscreenenter"",""0"",""3029""
","
","426.5","","","","","","","","49","0,1,0","0","coast","17","probe-03","0.7640619493710292","0.1029618437142031","0.06141209061473502","0","","","","","","","",""
"","html-keyboard-response","123","596261","0.0-71.0-1.0","""event"",""trial"",""time""
""fullscreenenter"",""0"",""3029""
","
","
","""event"",""trial"",""time""
""fullscreenenter"",""0"",""3029""
","
","null","<p></p>","null","","","","","","","","","","","","","","","","","","","","","","",""
"","do_trial","124","601464","0.0-72.0-0.0","""event"",""trial"",""time""
""fullscreenenter"",""0"",""3029""
","
","
","""event"",""trial"",""time""
""fullscreenenter"",""0"",""3029""
","
","628.4000000357628","","","","","","","","49","0,0,0","0","coast","18","probe-193","0.798579773398162","0.21483019970731262","0.0826637126697888","0","","","","","","","",""
"","html-keyboard-response","125","602481","0.0-72.0-1.0","""event"",""trial"",""time""
""fullscreenenter"",""0"",""3029""
","
","
","""event"",""trial"",""time""
""fullscreenenter"",""0"",""3029""
","
","null","<p></p>","null","","","","","","","","","","","","","","","","","","","","","","",""
"","do_trial","126","607467","0.0-73.0-0.0","""event"",""trial"",""time""
""fullscreenenter"",""0"",""3029""
","
","
","""event"",""trial"",""time""
""fullscreenenter"",""0"",""3029""
","
","447.89999997615814","","","","","","","","51","1,0,1","0","coast","19","probe-58","0.8233593329735667","0.2384953713352443","0.24325526730298103","1","","","","","","","",""
"","html-keyboard-response","127","608481","0.0-73.0-1.0","""event"",""trial"",""time""
""fullscreenenter"",""0"",""3029""
","
","
","""event"",""trial"",""time""
""fullscreenenter"",""0"",""3029""
","
","null","<p></p>","null","","","","","","","","","","","","","","","","","","","","","","",""
"","do_trial","128","613386","0.0-74.0-0.0","""event"",""trial"",""time""
""fullscreenenter"",""0"",""3029""
","
","
","""event"",""trial"",""time""
""fullscreenenter"",""0"",""3029""
","
","358.19999998807907","","","","","","","","49","0,0,0","0","coast","20","probe-109","0.7593527018450928","0.1203007624756253","0.21815280327437264","0","","","","","","","",""
"","html-keyboard-response","129","614392","0.0-74.0-1.0","""event"",""trial"",""time""
""fullscreenenter"",""0"",""3029""
","
","
","""event"",""trial"",""time""
""fullscreenenter"",""0"",""3029""
","
","null","<p></p>","null","","","","","","","","","","","","","","","","","","","","","","",""
"","do_trial","130","619584","0.0-75.0-0.0","""event"",""trial"",""time""
""fullscreenenter"",""0"",""3029""
","
","
","""event"",""trial"",""time""
""fullscreenenter"",""0"",""3029""
","
","645.4000000357628","","","","","","","","49","1,1,0","0","coast","21","probe-41","0.6385532378906694","0.15946472022786895","0.055139364820637624","1","","","","","","","",""
"","html-keyboard-response","131","620597","0.0-75.0-1.0","""event"",""trial"",""time""
""fullscreenenter"",""0"",""3029""
","
","
","""event"",""trial"",""time""
""fullscreenenter"",""0"",""3029""
","
","null","<p></p>","null","","","","","","","","","","","","","","","","","","","","","","",""
"","do_trial","132","626132","0.0-76.0-0.0","""event"",""trial"",""time""
""fullscreenenter"",""0"",""3029""
","
","
","""event"",""trial"",""time""
""fullscreenenter"",""0"",""3029""
","
","997","","","","","","","","51","1,0,0","0","coast","22","probe-139","0.5798038655655396","0.41170220307883953","0.0650934713406772","0","","","","","","","",""
"","html-keyboard-response","133","627140","0.0-76.0-1.0","""event"",""trial"",""time""
""fullscreenenter"",""0"",""3029""
","
","
","""event"",""trial"",""time""
""fullscreenenter"",""0"",""3029""
","
","null","<p></p>","null","","","","","","","","","","","","","","","","","","","","","","",""
"","do_trial","134","632234","0.0-77.0-0.0","""event"",""trial"",""time""
""fullscreenenter"",""0"",""3029""
","
","
","""event"",""trial"",""time""
""fullscreenenter"",""0"",""3029""
","
","549.5","","","","","","","","49","1,0,0","0","coast","23","probe-46","0.6322634957043833","0.37242325791865766","0.07011197230647224","1","","","","","","","",""
"","html-keyboard-response","135","633247","0.0-77.0-1.0","""event"",""trial"",""time""
""fullscreenenter"",""0"",""3029""
","
","
","""event"",""trial"",""time""
""fullscreenenter"",""0"",""3029""
","
","null","<p></p>","null","","","","","","","","","","","","","","","","","","","","","","",""
"","do_trial","136","638728","0.0-78.0-0.0","""event"",""trial"",""time""
""fullscreenenter"",""0"",""3029""
","
","
","""event"",""trial"",""time""
""fullscreenenter"",""0"",""3029""
","
","938.4000000357628","","","","","","","","49","1,1,0","0","coast","24","probe-98","0.6674681447354506","0.36679201272819606","0.05001856999542081","1","","","","","","","",""
"","html-keyboard-response","137","639730","0.0-78.0-1.0","""event"",""trial"",""time""
""fullscreenenter"",""0"",""3029""
","
","
","""event"",""trial"",""time""
""fullscreenenter"",""0"",""3029""
","
","null","<p></p>","null","","","","","","","","","","","","","","","","","","","","","","",""
"","do_trial","138","645016","0.0-79.0-0.0","""event"",""trial"",""time""
""fullscreenenter"",""0"",""3029""
","
","
","""event"",""trial"",""time""
""fullscreenenter"",""0"",""3029""
","
","742.3000000119209","","","","","","","","49","1,0,0","0","coast","25","probe-64","0.7103292557569646","0.23730661694304162","0.15413500464525534","1","","","","","","","",""
"","html-keyboard-response","139","646033","0.0-79.0-1.0","""event"",""trial"",""time""
""fullscreenenter"",""0"",""3029""
","
","
","""event"",""trial"",""time""
""fullscreenenter"",""0"",""3029""
","
","null","<p></p>","null","","","","","","","","","","","","","","","","","","","","","","",""
"","do_trial","140","650858","0.0-80.0-0.0","""event"",""trial"",""time""
""fullscreenenter"",""0"",""3029""
","
","
","""event"",""trial"",""time""
""fullscreenenter"",""0"",""3029""
","
","285.60000002384186","","","","","","","","49","0,0,0","0","coast","26","probe-197","0.5056422710274425","0.2153087168669504","0.15457501621426048","0","","","","","","","",""
"","html-keyboard-response","141","651864","0.0-80.0-1.0","""event"",""trial"",""time""
""fullscreenenter"",""0"",""3029""
","
","
","""event"",""trial"",""time""
""fullscreenenter"",""0"",""3029""
","
","null","<p></p>","null","","","","","","","","","","","","","","","","","","","","","","",""
"","do_trial","142","656442","0.0-81.0-0.0","""event"",""trial"",""time""
""fullscreenenter"",""0"",""3029""
","
","
","""event"",""trial"",""time""
""fullscreenenter"",""0"",""3029""
","
","31.799999952316284","","","","","","","","49","0,1,0","0","coast","27","probe-137","0.47871908208548625","0.23497335517212697","0.06667503036894706","0","","","","","","","",""
"","html-keyboard-response","143","657452","0.0-81.0-1.0","""event"",""trial"",""time""
""fullscreenenter"",""0"",""3029""
","
","
","""event"",""trial"",""time""
""fullscreenenter"",""0"",""3029""
","
","null","<p></p>","null","","","","","","","","","","","","","","","","","","","","","","",""
"","do_trial","144","662700","0.0-82.0-0.0","""event"",""trial"",""time""
""fullscreenenter"",""0"",""3029""
","
","
","""event"",""trial"",""time""
""fullscreenenter"",""0"",""3029""
","
","707.6999999880791","","","","","","","","49","0,0,0","0","coast","28","probe-54","0.6109742017072968","0.2103809316355096","0.07002456678016204","0","","","","","","","",""
"","html-keyboard-response","145","663717","0.0-82.0-1.0","""event"",""trial"",""time""
""fullscreenenter"",""0"",""3029""
","
","
","""event"",""trial"",""time""
""fullscreenenter"",""0"",""3029""
","
","null","<p></p>","null","","","","","","","","","","","","","","","","","","","","","","",""
"","do_trial","146","668607","0.0-83.0-0.0","""event"",""trial"",""time""
""fullscreenenter"",""0"",""3029""
","
","
","""event"",""trial"",""time""
""fullscreenenter"",""0"",""3029""
","
","337.0999999642372","","","","","","","","51","1,0,0","0","coast","29","probe-97","0.7225484213142473","0.13904925321235703","0.11262707357339843","0","","","","","","","",""
"","html-keyboard-response","147","669623","0.0-83.0-1.0","""event"",""trial"",""time""
""fullscreenenter"",""0"",""3029""
","
","
","""event"",""trial"",""time""
""fullscreenenter"",""0"",""3029""
","
","null","<p></p>","null","","","","","","","","","","","","","","","","","","","","","","",""
"","do_bye","148","671132","0.0-84.0-0.0","""event"",""trial"",""time""
""fullscreenenter"",""0"",""3029""
","
","
","""event"",""trial"",""time""
""fullscreenenter"",""0"",""3029""
","
","null","","","","","","","","null","","","","","","","","","","","","","","","","",""
"","break","149","689773","0.0-84.0-1.0","""event"",""trial"",""time""
""fullscreenenter"",""0"",""3029""
","
","
","""event"",""trial"",""time""
""fullscreenenter"",""0"",""3029""
","
","18639.69999998808","<div class='center'><p>Time to take a quick break! You have 2 minutes to rest, but you can move on sooner if you'd like.</p><p> Press the <b>space bar</b> to continue.</p></div>","32","","","","","","","","","","","","","","","","","","","","","","",""
"","do_travel","150","698784","0.0-85.0-0.0","""event"",""trial"",""time""
""fullscreenenter"",""0"",""3029""
","
","
","""event"",""trial"",""time""
""fullscreenenter"",""0"",""3029""
","
","null","","","","","","","","null","","","","","","","","","","","","","","","","",""
"","do_welcome","151","702814","0.0-85.0-1.0","""event"",""trial"",""time""
""fullscreenenter"",""0"",""3029""
","
","
","""event"",""trial"",""time""
""fullscreenenter"",""0"",""3029""
","
","null","","","","","","","","null","","","","","","","","","","","","","","","","",""
"","do_trial","152","708324","0.0-86.0-0.0","""event"",""trial"",""time""
""fullscreenenter"",""0"",""3029""
","
","
","""event"",""trial"",""time""
""fullscreenenter"",""0"",""3029""
","
","966.1999999880791","","","","","","","","49","1,0,0","1","highway","30","probe-104","1","0.2845778266875844","0.06889296568779793","1","","","","","","","",""
"","html-keyboard-response","153","709335","0.0-86.0-1.0","""event"",""trial"",""time""
""fullscreenenter"",""0"",""3029""
","
","
","""event"",""trial"",""time""
""fullscreenenter"",""0"",""3029""
","
","null","<p></p>","null","","","","","","","","","","","","","","","","","","","","","","",""
"","do_trial","154","714267","0.0-87.0-0.0","""event"",""trial"",""time""
""fullscreenenter"",""0"",""3029""
","
","
","""event"",""trial"",""time""
""fullscreenenter"",""0"",""3029""
","
","361.80000001192093","","","","","","","","49","1,1,0","1","highway","31","probe-177","1","0.36158665315896005","0.23708142267306392","1","","","","","","","",""
"","html-keyboard-response","155","715279","0.0-87.0-1.0","""event"",""trial"",""time""
""fullscreenenter"",""0"",""3029""
","
","
","""event"",""trial"",""time""
""fullscreenenter"",""0"",""3029""
","
","null","<p></p>","null","","","","","","","","","","","","","","","","","","","","","","",""
"","do_trial","156","720584","0.0-88.0-0.0","""event"",""trial"",""time""
""fullscreenenter"",""0"",""3029""
","
","
","""event"",""trial"",""time""
""fullscreenenter"",""0"",""3029""
","
","759.5","","","","","","","","49","1,1,1","1","highway","32","probe-35","1","0.31771567880186036","0.20884888549900932","1","","","","","","","",""
"","html-keyboard-response","157","721596","0.0-88.0-1.0","""event"",""trial"",""time""
""fullscreenenter"",""0"",""3029""
","
","
","""event"",""trial"",""time""
""fullscreenenter"",""0"",""3029""
","
","null","<p></p>","null","","","","","","","","","","","","","","","","","","","","","","",""
"","do_trial","158","726549","0.0-89.0-0.0","""event"",""trial"",""time""
""fullscreenenter"",""0"",""3029""
","
","
","""event"",""trial"",""time""
""fullscreenenter"",""0"",""3029""
","
","402.19999998807907","","","","","","","","49","1,1,0","1","highway","33","probe-44","0.7061894766529762","0.22602236964569147","0.2566698062008883","1","","","","","","","",""
"","html-keyboard-response","159","727563","0.0-89.0-1.0","""event"",""trial"",""time""
""fullscreenenter"",""0"",""3029""
","
","
","""event"",""trial"",""time""
""fullscreenenter"",""0"",""3029""
","
","null","<p></p>","null","","","","","","","","","","","","","","","","","","","","","","",""
"","do_trial","160","733499","0.0-90.0-0.0","""event"",""trial"",""time""
""fullscreenenter"",""0"",""3029""
","
","
","""event"",""trial"",""time""
""fullscreenenter"",""0"",""3029""
","
","1400","","","","","","","","49","1,0,0","1","highway","34","probe-143","0.6718265890881573","0.26916469646739394","0.14834925759420467","1","","","","","","","",""
"","html-keyboard-response","161","734514","0.0-90.0-1.0","""event"",""trial"",""time""
""fullscreenenter"",""0"",""3029""
","
","
","""event"",""trial"",""time""
""fullscreenenter"",""0"",""3029""
","
","null","<p></p>","null","","","","","","","","","","","","","","","","","","","","","","",""
"","do_trial","162","739649","0.0-91.0-0.0","""event"",""trial"",""time""
""fullscreenenter"",""0"",""3029""
","
","
","""event"",""trial"",""time""
""fullscreenenter"",""0"",""3029""
","
","597.7000000476837","","","","","","","","49","1,0,0","1","highway","35","probe-178","0.6072179345703356","0.2976189668071878","0.1743331947788023","1","","","","","","","",""
"","html-keyboard-response","163","740663","0.0-91.0-1.0","""event"",""trial"",""time""
""fullscreenenter"",""0"",""3029""
","
","
","""event"",""trial"",""time""
""fullscreenenter"",""0"",""3029""
","
","null","<p></p>","null","","","","","","","","","","","","","","","","","","","","","","",""
"","do_trial","164","745517","0.0-92.0-0.0","""event"",""trial"",""time""
""fullscreenenter"",""0"",""3029""
","
","
","""event"",""trial"",""time""
""fullscreenenter"",""0"",""3029""
","
","306.5","","","","","","","","49","0,0,0","1","highway","36","probe-56","0.5277841609697951","0.10752039605040398","0.2483645607987643","0","","","","","","","",""
"","html-keyboard-response","165","746529","0.0-92.0-1.0","""event"",""trial"",""time""
""fullscreenenter"",""0"",""3029""
","
","
","""event"",""trial"",""time""
""fullscreenenter"",""0"",""3029""
","
","null","<p></p>","null","","","","","","","","","","","","","","","","","","","","","","",""
"","do_trial","166","751884","0.0-93.0-0.0","""event"",""trial"",""time""
""fullscreenenter"",""0"",""3029""
","
","
","""event"",""trial"",""time""
""fullscreenenter"",""0"",""3029""
","
","815","","","","","","","","49","0,0,0","1","highway","37","probe-186","0.5376275287355834","0.17488230399171045","0.19297132120771504","0","","","","","","","",""
"","html-keyboard-response","167","752894","0.0-93.0-1.0","""event"",""trial"",""time""
""fullscreenenter"",""0"",""3029""
","
","
","""event"",""trial"",""time""
""fullscreenenter"",""0"",""3029""
","
","null","<p></p>","null","","","","","","","","","","","","","","","","","","","","","","",""
"","do_trial","168","757442","0.0-94.0-0.0","""event"",""trial"",""time""
""fullscreenenter"",""0"",""3029""
","
","
","""event"",""trial"",""time""
""fullscreenenter"",""0"",""3029""
","
","0","","","","","","","","50","0,0,0","1","highway","38","probe-176","0.5481656833676452","0.22097070029203855","0.21542551603763221","0","","","","","","","",""
"","html-keyboard-response","169","758448","0.0-94.0-1.0","""event"",""trial"",""time""
""fullscreenenter"",""0"",""3029""
","
","
","""event"",""trial"",""time""
""fullscreenenter"",""0"",""3029""
","
","null","<p></p>","null","","","","","","","","","","","","","","","","","","","","","","",""
"","do_trial","170","763351","0.0-95.0-0.0","""event"",""trial"",""time""
""fullscreenenter"",""0"",""3029""
","
","
","""event"",""trial"",""time""
""fullscreenenter"",""0"",""3029""
","
","360.30000001192093","","","","","","","","49","0,0,0","1","highway","39","probe-156","0.44198929177569946","0.32821974956063193","0.18199388919748302","0","","","","","","","",""
"","html-keyboard-response","171","764364","0.0-95.0-1.0","""event"",""trial"",""time""
""fullscreenenter"",""0"",""3029""
","
","
","""event"",""trial"",""time""
""fullscreenenter"",""0"",""3029""
","
","null","<p></p>","null","","","","","","","","","","","","","","","","","","","","","","",""
"","do_trial","172","769304","0.0-96.0-0.0","""event"",""trial"",""time""
""fullscreenenter"",""0"",""3029""
","
","
","""event"",""trial"",""time""
""fullscreenenter"",""0"",""3029""
","
","399","","","","","","","","51","1,0,1","1","highway","40","probe-201","0.4695991389907239","0.29456571822668337","0.30731434600990054","1","","","","","","","",""
"","html-keyboard-response","173","770309","0.0-96.0-1.0","""event"",""trial"",""time""
""fullscreenenter"",""0"",""3029""
","
","
","""event"",""trial"",""time""
""fullscreenenter"",""0"",""3029""
","
","null","<p></p>","null","","","","","","","","","","","","","","","","","","","","","","",""
"","do_trial","174","775089","0.0-97.0-0.0","""event"",""trial"",""time""
""fullscreenenter"",""0"",""3029""
","
","
","""event"",""trial"",""time""
""fullscreenenter"",""0"",""3029""
","
","243.30000001192093","","","","","","","","51","1,1,1","1","highway","41","probe-199","0.4808104351407912","0.3579693393040858","0.33491420180559417","1","","","","","","","",""
"","html-keyboard-response","175","776098","0.0-97.0-1.0","""event"",""trial"",""time""
""fullscreenenter"",""0"",""3029""
","
","
","""event"",""trial"",""time""
""fullscreenenter"",""0"",""3029""
","
","null","<p></p>","null","","","","","","","","","","","","","","","","","","","","","","",""
"","do_trial","176","781034","0.0-98.0-0.0","""event"",""trial"",""time""
""fullscreenenter"",""0"",""3029""
","
","
","""event"",""trial"",""time""
""fullscreenenter"",""0"",""3029""
","
","384.19999998807907","","","","","","","","51","0,0,0","1","highway","42","probe-102","0.22891821385197467","0.3008957742174206","0.21551804664079066","0","","","","","","","",""
"","html-keyboard-response","177","782046","0.0-98.0-1.0","""event"",""trial"",""time""
""fullscreenenter"",""0"",""3029""
","
","
","""event"",""trial"",""time""
""fullscreenenter"",""0"",""3029""
","
","null","<p></p>","null","","","","","","","","","","","","","","","","","","","","","","",""
"","do_trial","178","787301","0.0-99.0-0.0","""event"",""trial"",""time""
""fullscreenenter"",""0"",""3029""
","
","
","""event"",""trial"",""time""
""fullscreenenter"",""0"",""3029""
","
","714","","","","","","","","49","0,0,0","1","highway","43","probe-215","0.239621353062279","0.4850315292705361","0.25466488107391105","0","","","","","","","",""
"","html-keyboard-response","179","788313","0.0-99.0-1.0","""event"",""trial"",""time""
""fullscreenenter"",""0"",""3029""
","
","
","""event"",""trial"",""time""
""fullscreenenter"",""0"",""3029""
","
","null","<p></p>","null","","","","","","","","","","","","","","","","","","","","","","",""
"","do_trial","180","794359","0.0-100.0-0.0","""event"",""trial"",""time""
""fullscreenenter"",""0"",""3029""
","
","
","""event"",""trial"",""time""
""fullscreenenter"",""0"",""3029""
","
","1480.699999988079","","","","","","","","49","0,1,0","1","highway","44","probe-160","0.251206087024042","0.5801407035732499","0.40738773699761793","0","","","","","","","",""
"","html-keyboard-response","181","795365","0.0-100.0-1.0","""event"",""trial"",""time""
""fullscreenenter"",""0"",""3029""
","
","
","""event"",""trial"",""time""
""fullscreenenter"",""0"",""3029""
","
","null","<p></p>","null","","","","","","","","","","","","","","","","","","","","","","",""
"","do_trial","182","800064","0.0-101.0-0.0","""event"",""trial"",""time""
""fullscreenenter"",""0"",""3029""
","
","
","""event"",""trial"",""time""
""fullscreenenter"",""0"",""3029""
","
","150.5","","","","","","","","50","0,1,0","1","highway","45","probe-05","0.15116117006263552","0.5556187939243784","0.4362616566614931","1","","","","","","","",""
"","html-keyboard-response","183","801071","0.0-101.0-1.0","""event"",""trial"",""time""
""fullscreenenter"",""0"",""3029""
","
","
","""event"",""trial"",""time""
""fullscreenenter"",""0"",""3029""
","
","null","<p></p>","null","","","","","","","","","","","","","","","","","","","","","","",""
"","do_trial","184","806251","0.0-102.0-0.0","""event"",""trial"",""time""
""fullscreenenter"",""0"",""3029""
","
","
","""event"",""trial"",""time""
""fullscreenenter"",""0"",""3029""
","
","640.7999999523163","","","","","","","","49","0,1,1","1","highway","46","probe-47","0.17428555341633964","0.5021259762839563","0.39035358294881783","0","","","","","","","",""
"","html-keyboard-response","185","807263","0.0-102.0-1.0","""event"",""trial"",""time""
""fullscreenenter"",""0"",""3029""
","
","
","""event"",""trial"",""time""
""fullscreenenter"",""0"",""3029""
","
","null","<p></p>","null","","","","","","","","","","","","","","","","","","","","","","",""
"","do_trial","186","812201","0.0-103.0-0.0","""event"",""trial"",""time""
""fullscreenenter"",""0"",""3029""
","
","
","""event"",""trial"",""time""
""fullscreenenter"",""0"",""3029""
","
","399.9000000357628","","","","","","","","50","0,1,0","1","highway","47","probe-200","0.30334449624626275","0.6084720515275702","0.37708836145373675","1","","","","","","","",""
"","html-keyboard-response","187","813213","0.0-103.0-1.0","""event"",""trial"",""time""
""fullscreenenter"",""0"",""3029""
","
","
","""event"",""trial"",""time""
""fullscreenenter"",""0"",""3029""
","
","null","<p></p>","null","","","","","","","","","","","","","","","","","","","","","","",""
"","do_trial","188","817915","0.0-104.0-0.0","""event"",""trial"",""time""
""fullscreenenter"",""0"",""3029""
","
","
","""event"",""trial"",""time""
""fullscreenenter"",""0"",""3029""
","
","150.0999999642372","","","","","","","","50","0,1,0","1","highway","48","probe-70","0.09264919912768788","0.5318079289466742","0.21526344272065384","1","","","","","","","",""
"","html-keyboard-response","189","818926","0.0-104.0-1.0","""event"",""trial"",""time""
""fullscreenenter"",""0"",""3029""
","
","
","""event"",""trial"",""time""
""fullscreenenter"",""0"",""3029""
","
","null","<p></p>","null","","","","","","","","","","","","","","","","","","","","","","",""
"","do_trial","190","823968","0.0-105.0-0.0","""event"",""trial"",""time""
""fullscreenenter"",""0"",""3029""
","
","
","""event"",""trial"",""time""
""fullscreenenter"",""0"",""3029""
","
","490.4000000357628","","","","","","","","50","0,1,1","1","highway","49","probe-144","0.17331293163950512","0.5973999979921646","0.2044079548274226","1","","","","","","","",""
"","html-keyboard-response","191","824981","0.0-105.0-1.0","""event"",""trial"",""time""
""fullscreenenter"",""0"",""3029""
","
","
","""event"",""trial"",""time""
""fullscreenenter"",""0"",""3029""
","
","null","<p></p>","null","","","","","","","","","","","","","","","","","","","","","","",""
"","do_trial","192","829917","0.0-106.0-0.0","""event"",""trial"",""time""
""fullscreenenter"",""0"",""3029""
","
","
","""event"",""trial"",""time""
""fullscreenenter"",""0"",""3029""
","
","386.89999997615814","","","","","","","","50","0,1,0","1","highway","50","probe-151","0.09412608554564049","0.7781202353653929","0.26116702781101475","1","","","","","","","",""
"","html-keyboard-response","193","830930","0.0-106.0-1.0","""event"",""trial"",""time""
""fullscreenenter"",""0"",""3029""
","
","
","""event"",""trial"",""time""
""fullscreenenter"",""0"",""3029""
","
","null","<p></p>","null","","","","","","","","","","","","","","","","","","","","","","",""
"","do_trial","194","835950","0.0-107.0-0.0","""event"",""trial"",""time""
""fullscreenenter"",""0"",""3029""
","
","
","""event"",""trial"",""time""
""fullscreenenter"",""0"",""3029""
","
","463","","","","","","","","50","0,1,0","1","highway","51","probe-67","0.10703188496682606","0.7121863611258453","0.4289238453933254","1","","","","","","","",""
"","html-keyboard-response","195","836962","0.0-107.0-1.0","""event"",""trial"",""time""
""fullscreenenter"",""0"",""3029""
","
","
","""event"",""trial"",""time""
""fullscreenenter"",""0"",""3029""
","
","null","<p></p>","null","","","","","","","","","","","","","","","","","","","","","","",""
"","do_trial","196","842066","0.0-108.0-0.0","""event"",""trial"",""time""
""fullscreenenter"",""0"",""3029""
","
","
","""event"",""trial"",""time""
""fullscreenenter"",""0"",""3029""
","
","555.3999999761581","","","","","","","","50","0,0,0","1","highway","52","probe-230","0.21730443615267667","0.6433301762315062","0.3115146302340072","0","","","","","","","",""
"","html-keyboard-response","197","843082","0.0-108.0-1.0","""event"",""trial"",""time""
""fullscreenenter"",""0"",""3029""
","
","
","""event"",""trial"",""time""
""fullscreenenter"",""0"",""3029""
","
","null","<p></p>","null","","","","","","","","","","","","","","","","","","","","","","",""
"","do_trial","198","848173","0.0-109.0-0.0","""event"",""trial"",""time""
""fullscreenenter"",""0"",""3029""
","
","
","""event"",""trial"",""time""
""fullscreenenter"",""0"",""3029""
","
","542.0999999642372","","","","","","","","50","0,1,0","1","highway","53","probe-06","0.21876707325875372","0.6522957684744685","0.3344055862769041","1","","","","","","","",""
"","html-keyboard-response","199","849181","0.0-109.0-1.0","""event"",""trial"",""time""
""fullscreenenter"",""0"",""3029""
","
","
","""event"",""trial"",""time""
""fullscreenenter"",""0"",""3029""
","
","null","<p></p>","null","","","","","","","","","","","","","","","","","","","","","","",""
"","do_trial","200","854332","0.0-110.0-0.0","""event"",""trial"",""time""
""fullscreenenter"",""0"",""3029""
","
","
","""event"",""trial"",""time""
""fullscreenenter"",""0"",""3029""
","
","594.5","","","","","","","","50","0,0,0","1","highway","54","probe-192","0.16819232492687936","0.6162052449944936","0.34949372134406204","0","","","","","","","",""
"","html-keyboard-response","201","855349","0.0-110.0-1.0","""event"",""trial"",""time""
""fullscreenenter"",""0"",""3029""
","
","
","""event"",""trial"",""time""
""fullscreenenter"",""0"",""3029""
","
","null","<p></p>","null","","","","","","","","","","","","","","","","","","","","","","",""
"","do_trial","202","860348","0.0-111.0-0.0","""event"",""trial"",""time""
""fullscreenenter"",""0"",""3029""
","
","
","""event"",""trial"",""time""
""fullscreenenter"",""0"",""3029""
","
","450.69999998807907","","","","","","","","49","0,1,1","1","highway","55","probe-63","0.17316812068607756","0.5674640661571518","0.40250604264778594","0","","","","","","","",""
"","html-keyboard-response","203","861350","0.0-111.0-1.0","""event"",""trial"",""time""
""fullscreenenter"",""0"",""3029""
","
","
","""event"",""trial"",""time""
""fullscreenenter"",""0"",""3029""
","
","null","<p></p>","null","","","","","","","","","","","","","","","","","","","","","","",""
"","do_trial","204","866552","0.0-112.0-0.0","""event"",""trial"",""time""
""fullscreenenter"",""0"",""3029""
","
","
","""event"",""trial"",""time""
""fullscreenenter"",""0"",""3029""
","
","659.2000000476837","","","","","","","","50","0,1,0","1","highway","56","probe-185","0.19406620905051136","0.6081223855055023","0.2787685112896169","1","","","","","","","",""
"","html-keyboard-response","205","867564","0.0-112.0-1.0","""event"",""trial"",""time""
""fullscreenenter"",""0"",""3029""
","
","
","""event"",""trial"",""time""
""fullscreenenter"",""0"",""3029""
","
","null","<p></p>","null","","","","","","","","","","","","","","","","","","","","","","",""
"","do_trial","206","872464","0.0-113.0-0.0","""event"",""trial"",""time""
""fullscreenenter"",""0"",""3029""
","
","
","""event"",""trial"",""time""
""fullscreenenter"",""0"",""3029""
","
","348.89999997615814","","","","","","","","50","0,0,1","1","highway","57","probe-172","0.12661815012053884","0.6858371768588993","0.42260747147496364","0","","","","","","","",""
"","html-keyboard-response","207","873478","0.0-113.0-1.0","""event"",""trial"",""time""
""fullscreenenter"",""0"",""3029""
","
","
","""event"",""trial"",""time""
""fullscreenenter"",""0"",""3029""
","
","null","<p></p>","null","","","","","","","","","","","","","","","","","","","","","","",""
"","do_trial","208","878519","0.0-114.0-0.0","""event"",""trial"",""time""
""fullscreenenter"",""0"",""3029""
","
","
","""event"",""trial"",""time""
""fullscreenenter"",""0"",""3029""
","
","501","","","","","","","","50","1,0,0","1","highway","58","probe-179","0.25180808042266356","0.6658615224895196","0.4601281622682042","0","","","","","","","",""
"","html-keyboard-response","209","879530","0.0-114.0-1.0","""event"",""trial"",""time""
""fullscreenenter"",""0"",""3029""
","
","
","""event"",""trial"",""time""
""fullscreenenter"",""0"",""3029""
","
","null","<p></p>","null","","","","","","","","","","","","","","","","","","","","","","",""
"","do_trial","210","884867","0.0-115.0-0.0","""event"",""trial"",""time""
""fullscreenenter"",""0"",""3029""
","
","
","""event"",""trial"",""time""
""fullscreenenter"",""0"",""3029""
","
","796.5999999642372","","","","","","","","51","0,1,1","1","highway","59","probe-169","0.13242067814451225","0.7460371211032377","0.2928384910716949","1","","","","","","","",""
"","html-keyboard-response","211","885879","0.0-115.0-1.0","""event"",""trial"",""time""
""fullscreenenter"",""0"",""3029""
","
","
","""event"",""trial"",""time""
""fullscreenenter"",""0"",""3029""
","
","null","<p></p>","null","","","","","","","","","","","","","","","","","","","","","","",""
"","do_trial","212","890868","0.0-116.0-0.0","""event"",""trial"",""time""
""fullscreenenter"",""0"",""3029""
","
","
","""event"",""trial"",""time""
""fullscreenenter"",""0"",""3029""
","
","454.19999998807907","","","","","","","","51","0,1,0","1","highway","60","probe-224","0.10312720513379324","0.6535022191773535","0.29818484205789997","0","","","","","","","",""
"","html-keyboard-response","213","891881","0.0-116.0-1.0","""event"",""trial"",""time""
""fullscreenenter"",""0"",""3029""
","
","
","""event"",""trial"",""time""
""fullscreenenter"",""0"",""3029""
","
","null","<p></p>","null","","","","","","","","","","","","","","","","","","","","","","",""
"","do_trial","214","896933","0.0-117.0-0.0","""event"",""trial"",""time""
""fullscreenenter"",""0"",""3029""
","
","
","""event"",""trial"",""time""
""fullscreenenter"",""0"",""3029""
","
","504.5999999642372","","","","","","","","49","1,1,0","1","highway","61","probe-55","0.07822669684288071","0.56971243964261","0.30993966337347106","1","","","","","","","",""
"","html-keyboard-response","215","897945","0.0-117.0-1.0","""event"",""trial"",""time""
""fullscreenenter"",""0"",""3029""
","
","
","""event"",""trial"",""time""
""fullscreenenter"",""0"",""3029""
","
","null","<p></p>","null","","","","","","","","","","","","","","","","","","","","","","",""
"","do_trial","216","902500","0.0-118.0-0.0","""event"",""trial"",""time""
""fullscreenenter"",""0"",""3029""
","
","
","""event"",""trial"",""time""
""fullscreenenter"",""0"",""3029""
","
","0.10000002384185791","","","","","","","","49","0,1,1","1","highway","62","probe-115","0.2063919614862914","0.6373195643157585","0.23244997438776926","0","","","","","","","",""
"","html-keyboard-response","217","903513","0.0-118.0-1.0","""event"",""trial"",""time""
""fullscreenenter"",""0"",""3029""
","
","
","""event"",""trial"",""time""
""fullscreenenter"",""0"",""3029""
","
","null","<p></p>","null","","","","","","","","","","","","","","","","","","","","","","",""
"","do_trial","218","908468","0.0-119.0-0.0","""event"",""trial"",""time""
""fullscreenenter"",""0"",""3029""
","
","
","""event"",""trial"",""time""
""fullscreenenter"",""0"",""3029""
","
","386.19999998807907","","","","","","","","50","0,1,0","1","highway","63","probe-124","0.21545375803306158","0.6827706788793736","0.35689535013279033","1","","","","","","","",""
"","html-keyboard-response","219","909481","0.0-119.0-1.0","""event"",""trial"",""time""
""fullscreenenter"",""0"",""3029""
","
","
","""event"",""trial"",""time""
""fullscreenenter"",""0"",""3029""
","
","null","<p></p>","null","","","","","","","","","","","","","","","","","","","","","","",""
"","do_trial","220","914748","0.0-120.0-0.0","""event"",""trial"",""time""
""fullscreenenter"",""0"",""3029""
","
","
","""event"",""trial"",""time""
""fullscreenenter"",""0"",""3029""
","
","729.1000000238419","","","","","","","","50","0,1,0","1","highway","64","probe-14","0.16817600707959063","0.5916536299331346","0.31595626019232403","1","","","","","","","",""
"","html-keyboard-response","221","915762","0.0-120.0-1.0","""event"",""trial"",""time""
""fullscreenenter"",""0"",""3029""
","
","
","""event"",""trial"",""time""
""fullscreenenter"",""0"",""3029""
","
","null","<p></p>","null","","","","","","","","","","","","","","","","","","","","","","",""
"","do_trial","222","920843","0.0-121.0-0.0","""event"",""trial"",""time""
""fullscreenenter"",""0"",""3029""
","
","
","""event"",""trial"",""time""
""fullscreenenter"",""0"",""3029""
","
","536","","","","","","","","50","0,1,1","1","highway","65","probe-99","0.13588363074013118","0.5830924689791936","0.46320785282327437","1","","","","","","","",""
"","html-keyboard-response","223","921853","0.0-121.0-1.0","""event"",""trial"",""time""
""fullscreenenter"",""0"",""3029""
","
","
","""event"",""trial"",""time""
""fullscreenenter"",""0"",""3029""
","
","null","<p></p>","null","","","","","","","","","","","","","","","","","","","","","","",""
"","do_trial","224","926818","0.0-122.0-0.0","""event"",""trial"",""time""
""fullscreenenter"",""0"",""3029""
","
","
","""event"",""trial"",""time""
""fullscreenenter"",""0"",""3029""
","
","428","","","","","","","","50","0,1,0","1","highway","66","probe-95","0.1919279217522204","0.6153789928668252","0.39041182983322154","1","","","","","","","",""
"","html-keyboard-response","225","927829","0.0-122.0-1.0","""event"",""trial"",""time""
""fullscreenenter"",""0"",""3029""
","
","
","""event"",""trial"",""time""
""fullscreenenter"",""0"",""3029""
","
","null","<p></p>","null","","","","","","","","","","","","","","","","","","","","","","",""
"","do_trial","226","933050","0.0-123.0-0.0","""event"",""trial"",""time""
""fullscreenenter"",""0"",""3029""
","
","
","""event"",""trial"",""time""
""fullscreenenter"",""0"",""3029""
","
","675.5","","","","","","","","50","0,1,1","1","highway","67","probe-216","0.23361693638437125","0.7912557070865223","0.4790330977510904","1","","","","","","","",""
"","html-keyboard-response","227","934063","0.0-123.0-1.0","""event"",""trial"",""time""
""fullscreenenter"",""0"",""3029""
","
","
","""event"",""trial"",""time""
""fullscreenenter"",""0"",""3029""
","
","null","<p></p>","null","","","","","","","","","","","","","","","","","","","","","","",""
"","do_trial","228","939100","0.0-124.0-0.0","""event"",""trial"",""time""
""fullscreenenter"",""0"",""3029""
","
","
","""event"",""trial"",""time""
""fullscreenenter"",""0"",""3029""
","
","495.69999998807907","","","","","","","","50","0,0,1","1","highway","68","probe-32","0.24047332226330403","0.7462664180684817","0.5280573956148096","0","","","","","","","",""
"","html-keyboard-response","229","940113","0.0-124.0-1.0","""event"",""trial"",""time""
""fullscreenenter"",""0"",""3029""
","
","
","""event"",""trial"",""time""
""fullscreenenter"",""0"",""3029""
","
","null","<p></p>","null","","","","","","","","","","","","","","","","","","","","","","",""
"","do_trial","230","945135","0.0-125.0-0.0","""event"",""trial"",""time""
""fullscreenenter"",""0"",""3029""
","
","
","""event"",""trial"",""time""
""fullscreenenter"",""0"",""3029""
","
","473.89999997615814","","","","","","","","50","0,1,0","1","highway","69","probe-153","0.18004963537234023","0.6874917362699264","0.36575854053877543","1","","","","","","","",""
"","html-keyboard-response","231","946146","0.0-125.0-1.0","""event"",""trial"",""time""
""fullscreenenter"",""0"",""3029""
","
","
","""event"",""trial"",""time""
""fullscreenenter"",""0"",""3029""
","
","null","<p></p>","null","","","","","","","","","","","","","","","","","","","","","","",""
"","do_bye","232","947655","0.0-126.0-0.0","""event"",""trial"",""time""
""fullscreenenter"",""0"",""3029""
","
","
","""event"",""trial"",""time""
""fullscreenenter"",""0"",""3029""
","
","null","","","","","","","","null","","","","","","","","","","","","","","","","",""
"","break","233","979190","0.0-126.0-1.0","""event"",""trial"",""time""
""fullscreenenter"",""0"",""3029""
","
","
","""event"",""trial"",""time""
""fullscreenenter"",""0"",""3029""
","
","31548.5","<div class='center'><p>Time to take a quick break! You have 2 minutes to rest, but you can move on sooner if you'd like.</p><p> Press the <b>space bar</b> to continue.</p></div>","32","","","","","","","","","","","","","","","","","","","","","","",""
"","do_travel","234","988200","0.0-127.0-0.0","""event"",""trial"",""time""
""fullscreenenter"",""0"",""3029""
","
","
","""event"",""trial"",""time""
""fullscreenenter"",""0"",""3029""
","
","null","","","","","","","","null","","","","","","","","","","","","","","","","",""
"","do_welcome","235","992230","0.0-127.0-1.0","""event"",""trial"",""time""
""fullscreenenter"",""0"",""3029""
","
","
","""event"",""trial"",""time""
""fullscreenenter"",""0"",""3029""
","
","null","","","","","","","","null","","","","","","","","","","","","","","","","",""
"","do_trial","236","997650","0.0-128.0-0.0","""event"",""trial"",""time""
""fullscreenenter"",""0"",""3029""
","
","
","""event"",""trial"",""time""
""fullscreenenter"",""0"",""3029""
","
","848.3000000119209","","","","","","","","50","0,1,1","2","forest","70","probe-184","0.05934362679631724","1","0.37741867955384784","1","","","","","","","",""
"","html-keyboard-response","237","998670","0.0-128.0-1.0","""event"",""trial"",""time""
""fullscreenenter"",""0"",""3029""
","
","
","""event"",""trial"",""time""
""fullscreenenter"",""0"",""3029""
","
","null","<p></p>","null","","","","","","","","","","","","","","","","","","","","","","",""
"","do_trial","238","1003848","0.0-129.0-0.0","""event"",""trial"",""time""
""fullscreenenter"",""0"",""3029""
","
","
","""event"",""trial"",""time""
""fullscreenenter"",""0"",""3029""
","
","636.5","","","","","","","","50","0,1,0","2","forest","71","probe-85","0.1637143974719798","1","0.4179742022861879","1","","","","","","","",""
"","html-keyboard-response","239","1004851","0.0-129.0-1.0","""event"",""trial"",""time""
""fullscreenenter"",""0"",""3029""
","
","
","""event"",""trial"",""time""
""fullscreenenter"",""0"",""3029""
","
","null","<p></p>","null","","","","","","","","","","","","","","","","","","","","","","",""
"","do_trial","240","1010020","0.0-130.0-0.0","""event"",""trial"",""time""
""fullscreenenter"",""0"",""3029""
","
","
","""event"",""trial"",""time""
""fullscreenenter"",""0"",""3029""
","
","624.1000000238419","","","","","","","","50","0,1,0","2","forest","72","probe-228","0.1949725132580542","0.7727972163926478","0.287171722765399","1","","","","","","","",""
"","html-keyboard-response","241","1011030","0.0-130.0-1.0","""event"",""trial"",""time""
""fullscreenenter"",""0"",""3029""
","
","
","""event"",""trial"",""time""
""fullscreenenter"",""0"",""3029""
","
","null","<p></p>","null","","","","","","","","","","","","","","","","","","","","","","",""
"","do_trial","242","1016104","0.0-131.0-0.0","""event"",""trial"",""time""
""fullscreenenter"",""0"",""3029""
","
","
","""event"",""trial"",""time""
""fullscreenenter"",""0"",""3029""
","
","516.3000000119209","","","","","","","","50","1,1,0","2","forest","73","probe-129","0.3429547231933134","0.6007172716756842","0.40838547293331945","1","","","","","","","",""
"","html-keyboard-response","243","1017106","0.0-131.0-1.0","""event"",""trial"",""time""
""fullscreenenter"",""0"",""3029""
","
","
","""event"",""trial"",""time""
""fullscreenenter"",""0"",""3029""
","
","null","<p></p>","null","","","","","","","","","","","","","","","","","","","","","","",""
"","do_trial","244","1022478","0.0-132.0-0.0","""event"",""trial"",""time""
""fullscreenenter"",""0"",""3029""
","
","
","""event"",""trial"",""time""
""fullscreenenter"",""0"",""3029""
","
","823.7000000476837","","","","","","","","50","0,1,0","2","forest","74","probe-37","0.3375226556165484","0.6837646196582895","0.353834303567276","1","","","","","","","",""
"","html-keyboard-response","245","1023487","0.0-132.0-1.0","""event"",""trial"",""time""
""fullscreenenter"",""0"",""3029""
","
","
","""event"",""trial"",""time""
""fullscreenenter"",""0"",""3029""
","
","null","<p></p>","null","","","","","","","","","","","","","","","","","","","","","","",""
"","do_trial","246","1028654","0.0-133.0-0.0","""event"",""trial"",""time""
""fullscreenenter"",""0"",""3029""
","
","
","""event"",""trial"",""time""
""fullscreenenter"",""0"",""3029""
","
","626.3999999761581","","","","","","","","50","0,1,0","2","forest","75","probe-210","0.268529817658552","0.5959385525981832","0.3246020973345371","1","","","","","","","",""
"","html-keyboard-response","247","1029657","0.0-133.0-1.0","""event"",""trial"",""time""
""fullscreenenter"",""0"",""3029""
","
","
","""event"",""trial"",""time""
""fullscreenenter"",""0"",""3029""
","
","null","<p></p>","null","","","","","","","","","","","","","","","","","","","","","","",""
"","do_trial","248","1034703","0.0-134.0-0.0","""event"",""trial"",""time""
""fullscreenenter"",""0"",""3029""
","
","
","""event"",""trial"",""time""
""fullscreenenter"",""0"",""3029""
","
","482.5999999642372","","","","","","","","50","0,1,0","2","forest","76","probe-111","0.25469035979591487","0.5617476254470267","0.2494962489345277","1","","","","","","","",""
"","html-keyboard-response","249","1035715","0.0-134.0-1.0","""event"",""trial"",""time""
""fullscreenenter"",""0"",""3029""
","
","
","""event"",""trial"",""time""
""fullscreenenter"",""0"",""3029""
","
","null","<p></p>","null","","","","","","","","","","","","","","","","","","","","","","",""
"","do_trial","250","1040868","0.0-135.0-0.0","""event"",""trial"",""time""
""fullscreenenter"",""0"",""3029""
","
","
","""event"",""trial"",""time""
""fullscreenenter"",""0"",""3029""
","
","587.6000000238419","","","","","","","","50","0,0,0","2","forest","77","probe-150","0.24222441350600407","0.512898180758763","0.24494817203558683","0","","","","","","","",""
"","html-keyboard-response","251","1041883","0.0-135.0-1.0","""event"",""trial"",""time""
""fullscreenenter"",""0"",""3029""
","
","
","""event"",""trial"",""time""
""fullscreenenter"",""0"",""3029""
","
","null","<p></p>","null","","","","","","","","","","","","","","","","","","","","","","",""
"","do_trial","252","1046807","0.0-136.0-0.0","""event"",""trial"",""time""
""fullscreenenter"",""0"",""3029""
","
","
","""event"",""trial"",""time""
""fullscreenenter"",""0"",""3029""
","
","379.30000001192093","","","","","","","","50","0,1,0","2","forest","78","probe-155","0.09860161314209301","0.6169474754808808","0.2741833967117596","1","","","","","","","",""
"","html-keyboard-response","253","1047814","0.0-136.0-1.0","""event"",""trial"",""time""
""fullscreenenter"",""0"",""3029""
","
","
","""event"",""trial"",""time""
""fullscreenenter"",""0"",""3029""
","
","null","<p></p>","null","","","","","","","","","","","","","","","","","","","","","","",""
"","do_trial","254","1053167","0.0-137.0-0.0","""event"",""trial"",""time""
""fullscreenenter"",""0"",""3029""
","
","
","""event"",""trial"",""time""
""fullscreenenter"",""0"",""3029""
","
","788.6000000238419","","","","","","","","50","0,0,0","2","forest","79","probe-82","0.0938377225913947","0.5242564488899327","0.24876411867093054","0","","","","","","","",""
"","html-keyboard-response","255","1054180","0.0-137.0-1.0","""event"",""trial"",""time""
""fullscreenenter"",""0"",""3029""
","
","
","""event"",""trial"",""time""
""fullscreenenter"",""0"",""3029""
","
","null","<p></p>","null","","","","","","","","","","","","","","","","","","","","","","",""
"","do_trial","256","1059502","0.0-138.0-0.0","""event"",""trial"",""time""
""fullscreenenter"",""0"",""3029""
","
","
","""event"",""trial"",""time""
""fullscreenenter"",""0"",""3029""
","
","773","","","","","","","","50","0,1,1","2","forest","80","probe-88","0.08199947190763222","0.5581998471419756","0.24840482642259687","1","","","","","","","",""
"","html-keyboard-response","257","1060517","0.0-138.0-1.0","""event"",""trial"",""time""
""fullscreenenter"",""0"",""3029""
","
","
","""event"",""trial"",""time""
""fullscreenenter"",""0"",""3029""
","
","null","<p></p>","null","","","","","","","","","","","","","","","","","","","","","","",""
"","do_trial","258","1065717","0.0-139.0-0.0","""event"",""trial"",""time""
""fullscreenenter"",""0"",""3029""
","
","
","""event"",""trial"",""time""
""fullscreenenter"",""0"",""3029""
","
","648.1000000238419","","","","","","","","50","0,1,0","2","forest","81","probe-121","0.10821275126870504","0.41573449100449533","0.20578597509291477","1","","","","","","","",""
"","html-keyboard-response","259","1066732","0.0-139.0-1.0","""event"",""trial"",""time""
""fullscreenenter"",""0"",""3029""
","
","
","""event"",""trial"",""time""
""fullscreenenter"",""0"",""3029""
","
","null","<p></p>","null","","","","","","","","","","","","","","","","","","","","","","",""
"","do_trial","260","1071981","0.0-140.0-0.0","""event"",""trial"",""time""
""fullscreenenter"",""0"",""3029""
","
","
","""event"",""trial"",""time""
""fullscreenenter"",""0"",""3029""
","
","707.9000000357628","","","","","","","","50","0,0,1","2","forest","82","probe-127","0.0661344355949264","0.26317083856509843","0.3360855647125339","0","","","","","","","",""
"","html-keyboard-response","261","1072998","0.0-140.0-1.0","""event"",""trial"",""time""
""fullscreenenter"",""0"",""3029""
","
","
","""event"",""trial"",""time""
""fullscreenenter"",""0"",""3029""
","
","null","<p></p>","null","","","","","","","","","","","","","","","","","","","","","","",""
