"success","trial_type","trial_index","time_elapsed","internal_node_id","rt","stimulus","key_press","subject_id","participant_id","age","gender","prompt","response","choice_outcomes","context_n","context_img_id","trial_n","probe_img_id","pR_red","pR_white","pR_black","outcome","contextArray_ind","validImageProbes","invalidImageProbes","pRew_Red","pRew_White","pRew_Black","availableForMemProbe","choice_blocks"
"true","fullscreen","0","4920","0.0-0.0","","","","","","","","","","","","","","","","","","","","","","","","","",""
"","pavlovia","1","4924","0.0-1.0","","","","","","","","","","","","","","","","","","","","","","","","","",""
"","instruc1","2","56099","0.0-2.0","null","run_exp/static/audio/clip_1_welcome.m4a","null","110","384","10","Female","<div class='center'><p>Welcome! This is the first part of the experiment. It will last ~30 minutes. In this experiment, you are the head captain of a pirate ship traveling around the world to different islands. You will play a few different games during this experiment. Here is an overview of these games:</p><br><p>Part 1 (today)</p><p>1. Instructions, practice game, and quiz</p><p>2. Pick a pirate game on 6 different islands</p><br><p>Part 2 (1 day later)</p><p>3. Pick a pirate game and memory game</p><p>4. Where did I see this ship? game</p><p>5. Which pirate was the best? game</p><br><p>Part 3 (1 week later)</p><p>6. Memory game</p></div>","","","","","","","","","","","","","","","","","",""
"","html-keyboard-response","3","59297","0.0-3.0","3194.300000011921","<div class='center'><p>Welcome! This is the first part of the experiment. It will last ~30 minutes. In this experiment, you are the head captain of a pirate ship traveling around the world to different islands. You will play a few different games during this experiment. Here is an overview of these games:</p><br><p>Part 1 (today)</p><p>1. Instructions, practice game, and quiz</p><p>2. Pick a pirate game on 6 different islands</p><br><p>Part 2 (1 day later)</p><p>3. Pick a pirate game and memory game</p><p>4. Where did I see this ship? game</p><p>5. Which pirate was the best? game</p><br><p>Part 3 (1 week later)</p><p>6. Memory game</p><p><b>[Press the space bar to continue]</b></p></div>","32","","","","","","","","","","","","","","","","","","","","","","",""
"","instruc2","4","67280","0.0-4.0","null","run_exp/static/audio/clip_2_different_places.m4a","null","","","","","<div class='center'><p>Today, you’ll visit these 6 islands on your journey. You'll be able to see these islands from your ship.</p><p><img src='run_exp/static/images/contexts/all_contexts.png' height='500'></p></div>","","","","","","","","","","","","","","","","","",""
"","html-keyboard-response","5","68519","0.0-5.0","1233.8999999761581","<div class='center'><p>Today, you’ll visit these 6 islands on your journey. You'll be able to see these islands from your ship.</p><p><img src='run_exp/static/images/contexts/all_contexts.png' height='500'></p><p><b>[Press the space bar to continue]</b></p></div>","32","","","","","","","","","","","","","","","","","","","","","","",""
"","instruc3","6","81100","0.0-6.0","null","run_exp/static/audio/clip_3_goal_of_game_1.m4a","null","","","","","<div class='center'><p> The pirates on your ship will rob other ships as they leave the island</p> These ships have just sold their things to people on the island, so they will be filled with lots and lots of gold.</p><p><img src='run_exp/static/images/tutorial/ship_center.png' height='400'></p></div>","","","","","","","","","","","","","","","","","",""
"","html-keyboard-response","7","82123","0.0-7.0","1017.0999999642372","<div class='center'><p> The pirates on your ship will rob other ships as they leave the island</p> These ships have just sold their things to people on the island, so they will be filled with lots and lots of gold.</p><p><img src='run_exp/static/images/tutorial/ship_center.png' height='400'></p><p><b>[Press the space bar to continue]</b></p></div>","32","","","","","","","","","","","","","","","","","","","","","","",""
"","instruc4","8","115360","0.0-8.0","null","run_exp/static/audio/clip_4_goal_of_game_2.m4a","null","","","","","<div class='center'><p>As the head captain, you do not have to rob any ships yourself.</p><p>Another pirate will be doing the robbing for you. </p><p>First, you will  choose a pirate to rob the next ship.</p><p><img src='run_exp/static/images/tutorial/pirates_all_crop.png' height='200'></p><p>Then, you'll see if the pirate successfully robbed the ship of their gold. If they were successful, then you'll  get a stack of gold coins like this:</p><p><img src='run_exp/static/images/tutorial/reward.png' height='150'></p><p> If they were <b>not</b> successful, then you'll get no gold coins, and you'll see a big red x like this: </p><p><img src='run_exp/static/images/tutorial/reward_no.png' height='150'></p><p> How much bonus money you make is based on how many gold coins you collect.</p><div>","","","","","","","","","","","","","","","","","",""
"","html-keyboard-response","9","119028","0.0-9.0","3662.399999976158","<div class='center'><p>As the head captain, you do not have to rob any ships yourself.</p><p>Another pirate will be doing the robbing for you. </p><p>First, you will  choose a pirate to rob the next ship.</p><p><img src='run_exp/static/images/tutorial/pirates_all_crop.png' height='200'></p><p>Then, you'll see if the pirate successfully robbed the ship of their gold. If they were successful, then you'll  get a stack of gold coins like this:</p><p><img src='run_exp/static/images/tutorial/reward.png' height='150'></p><p> If they were <b>not</b> successful, then you'll get no gold coins, and you'll see a big red x like this: </p><p><img src='run_exp/static/images/tutorial/reward_no.png' height='150'></p><p> How much bonus money you make is based on how many gold coins you collect.</p<p><b>[Press the space bar to continue]</b></p></div>","32","","","","","","","","","","","","","","","","","","","","","","",""
"","instruc5","10","144290","0.0-10.0","25258.099999964237","run_exp/static/audio/clip_5_probabilistic.m4a","49","","","","","<div class='center'><p>Even the most skilled pirate can not rob EVERY ship.</p><p> Some ships will have very strong protections against pirate attacks.</p><p> Blue beard, here, is very, very good at robbing ships, but he won't be successful every time he tries to rob one.</p><p> You can press the <b>‘1’</b> key on the keyboard to choose him.</p><p> Try choosing him 10 times to see how often he succeeds at robbing a ship. </p><p><img src='run_exp/static/images/tutorial/blue.png' height='500'></p></div>","","","","","","","","","","","","","","","","","",""
"","html-keyboard-response","11","145807","0.0-11.0","null","<div class='center'><p><img src='run_exp/static/images/tutorial/blue_win.png' height='500'></p></div>","null","","","","","","","","","","","","","","","","","","","","","","",""
"","html-keyboard-response","12","146689","0.0-12.0","880.3000000119209","<div class='center'><img src='run_exp/static/images/tutorial/blue.png' height='500'></p></div>","49","","","","","","","","","","","","","","","","","","","","","","",""
"","html-keyboard-response","13","148207","0.0-13.0","null","<div class='center'><p><img src='run_exp/static/images/tutorial/blue_win.png' height='500'></p></div>","null","","","","","","","","","","","","","","","","","","","","","","",""
"","html-keyboard-response","14","148662","0.0-14.0","452.60000002384186","<div class='center'><img src='run_exp/static/images/tutorial/blue.png' height='500'></p></div>","49","","","","","","","","","","","","","","","","","","","","","","",""
"","html-keyboard-response","15","150176","0.0-15.0","null","<div class='center'><p><img src='run_exp/static/images/tutorial/blue_win.png' height='500'></p></div>","null","","","","","","","","","","","","","","","","","","","","","","",""
"","html-keyboard-response","16","150600","0.0-16.0","421.60000002384186","<div class='center'><img src='run_exp/static/images/tutorial/blue.png' height='500'></p></div>","49","","","","","","","","","","","","","","","","","","","","","","",""
"","html-keyboard-response","17","152112","0.0-17.0","null","<div class='center'><p><img src='run_exp/static/images/tutorial/blue_no_win.png' height='500'></p></div>","null","","","","","","","","","","","","","","","","","","","","","","",""
"","html-keyboard-response","18","153334","0.0-18.0","1220.199999988079","<div class='center'><img src='run_exp/static/images/tutorial/blue.png' height='500'></p></div>","49","","","","","","","","","","","","","","","","","","","","","","",""
"","html-keyboard-response","19","154851","0.0-19.0","null","<div class='center'><p><img src='run_exp/static/images/tutorial/blue_win.png' height='500'></p></div>","null","","","","","","","","","","","","","","","","","","","","","","",""
"","html-keyboard-response","20","155728","0.0-20.0","875.4000000357628","<div class='center'><img src='run_exp/static/images/tutorial/blue.png' height='500'></p></div>","49","","","","","","","","","","","","","","","","","","","","","","",""
"","html-keyboard-response","21","157240","0.0-21.0","null","<div class='center'><p><img src='run_exp/static/images/tutorial/blue_win.png' height='500'></p></div>","null","","","","","","","","","","","","","","","","","","","","","","",""
"","html-keyboard-response","22","157718","0.0-22.0","477.30000001192093","<div class='center'><img src='run_exp/static/images/tutorial/blue.png' height='500'></p></div>","49","","","","","","","","","","","","","","","","","","","","","","",""
"","html-keyboard-response","23","159227","0.0-23.0","null","<div class='center'><p><img src='run_exp/static/images/tutorial/blue_win.png' height='500'></p></div>","null","","","","","","","","","","","","","","","","","","","","","","",""
"","html-keyboard-response","24","159555","0.0-24.0","325.5999999642372","<div class='center'><img src='run_exp/static/images/tutorial/blue.png' height='500'></p></div>","49","","","","","","","","","","","","","","","","","","","","","","",""
"","html-keyboard-response","25","161062","0.0-25.0","null","<div class='center'><p><img src='run_exp/static/images/tutorial/blue_no_win.png' height='500'></p></div>","null","","","","","","","","","","","","","","","","","","","","","","",""
"","html-keyboard-response","26","161445","0.0-26.0","380.80000001192093","<div class='center'><img src='run_exp/static/images/tutorial/blue.png' height='500'></p></div>","49","","","","","","","","","","","","","","","","","","","","","","",""
"","html-keyboard-response","27","162957","0.0-27.0","null","<div class='center'><p><img src='run_exp/static/images/tutorial/blue_win.png' height='500'></p></div>","null","","","","","","","","","","","","","","","","","","","","","","",""
"","html-keyboard-response","28","163341","0.0-28.0","382.5999999642372","<div class='center'><img src='run_exp/static/images/tutorial/blue.png' height='500'></p></div>","49","","","","","","","","","","","","","","","","","","","","","","",""
"","html-keyboard-response","29","164854","0.0-29.0","null","<div class='center'><p><img src='run_exp/static/images/tutorial/blue_win.png' height='500'></p></div>","null","","","","","","","","","","","","","","","","","","","","","","",""
"","instruc6","30","171613","0.0-30.0","null","run_exp/static/audio/clip_6_blue_beard_outcome.m4a","null","","","","","<div class='center'><p> See, he succeeded in robbing the ships most of the time but not every time. </p></div>","","","","","","","","","","","","","","","","","",""
"","html-keyboard-response","31","172867","0.0-31.0","1251.6000000238419","<div class='center'><p> See, he succeeded in robbing the ships most of the time but not every time. </p><p><b>[Press the space bar to continue]</b></p></div>","32","","","","","","","","","","","","","","","","","","","","","","",""
"","audio-keyboard-response","32","191582","0.0-32.0","18711.899999976158","run_exp/static/audio/clip_7_pick_pirate.m4a","49","","","","","","","","","","","","","","","","","","","","","","",""
"","audio-keyboard-response","33","195794","0.0-33.0-0.0","4204.599999964237","run_exp/static/audio/clip_8_chosen_pirate_win.m4a","32","","","","","","","","","","","","","","","","","","","","","","",""
"","audio-keyboard-response","34","197033","0.0-33.0-1.0","1235.5","run_exp/static/audio/clip_9_pick_a_pirate_again.m4a","50","","","","","","","","","","","","","","","","","","","","","","",""
"","audio-keyboard-response","35","199066","0.0-34.0-0.0","2027.699999988079","run_exp/static/audio/clip_10_chosen_pirate_loss.m4a","32","","","","","","","","","","","","","","","","","","","","","","",""
"","instruc9","36","206253","0.0-35.0-0.0","null","run_exp/static/audio/clip_11_time_out.m4a","null","","","","","<div class='center'><p>If you don’t make your choice fast enough, you’ll have to wait a few seconds before you can make another one. </p><p><img src='run_exp/static/images/miscellaneous/hurry_up.png' height='500'></p></div>","","","","","","","","","","","","","","","","","",""
"","html-keyboard-response","37","206993","0.0-35.0-1.0","735","<div class='center'><p>If you don’t make your choice fast enough, you’ll have to wait a few seconds before you can make another one. </p><p><img src='run_exp/static/images/miscellaneous/hurry_up.png' height='500'></p><p><b>[Press the space bar to continue]</b></p></div>","32","","","","","","","","","","","","","","","","","","","","","","",""
"","instruc10","38","255633","0.0-35.0-2.0","null","run_exp/static/audio/clip_12_probe.m4a","null","","","","","<div class='center'><p>Once you've choose a pirate, you’ll be shown the ship they are robbing.</p><p>You will never rob the same ship twice. After all, ships that have already been robbed won’t have gold on them. </p><p>Ships can be told apart from one another by the image on them. See, this one has a travel mug on it. </p><p> You’ll have to remember which island you saw each ship on.You will win more bonus money if you remember correctly! To help you remember, you can imagine a story. For example, here, you could imagine a mug full of water in the desert. Or, as another example, if on the forest island, your pirate robbed a ship with an apple on it, you could imagine an apple falling from a tree in the forest. </p><p><img src='run_exp/static/images/tutorial/example_probe.png' height='500'></p></div>","","","","","","","","","","","","","","","","","",""
"","html-keyboard-response","39","256437","0.0-35.0-3.0","800.0999999642372","<div class='center'><p>Once you've choose a pirate, you’ll be shown the ship they are robbing.</p><p>You will never rob the same ship twice. After all, ships that have already been robbed won’t have gold on them. </p><p>Ships can be told apart from one another by the image on them. See, this one has a travel mug on it. </p><p> You’ll have to remember which island you saw each ship on.You will win more bonus money if you remember correctly! To help you remember, you can imagine a story. For example, here, you could imagine a mug full of water in the desert. Or, as another example, if on the forest island, your pirate robbed a ship with an apple on it, you could imagine an apple falling from a tree in the forest. </p><p><img src='run_exp/static/images/tutorial/example_probe.png' height='500'></p><p><b>[Press the space bar to continue]</b></p></div>","32","","","","","","","","","","","","","","","","","","","","","","",""
"","instruc11","40","277373","0.0-35.0-4.0","null","run_exp/static/audio/clip_13_changepoint.m4a","null","","","","","<div class='center'><p>How successful a pirate is at robbing ships will depend on the island you’re on.</p><p> A pirate may have visited this island many times before and gained a lot of practice robbing ships there.</p><p>So, they’re more likely to be successful than a pirate who has never visited the island before.</p></div>","","","","","","","","","","","","","","","","","",""
"","html-keyboard-response","41","278345","0.0-35.0-5.0","969.1000000238419","<div class='center'><p>How successful a pirate is at robbing ships will depend on the island you’re on.</p><p> A pirate may have visited this island many times before and gained a lot of practice robbing ships there.</p><p>So, they’re more likely to be successful than a pirate who has never visited the island before.</p><p><b>[Press the space bar to continue]</b></p></div>","32","","","","","","","","","","","","","","","","","","","","","","",""
"","instruc12","42","306393","0.0-35.0-6.0","null","run_exp/static/audio/clip_14_drift.m4a","null","","","","","<div class='center'><p>How successful a pirate is at robbing ships can also change over the time spent on the island. </p><p> Ships may hear from islanders about the pirates coming and will improve their protections against the attack. This may make it harder to rob them.</p><p> Ships may also become lazy and weaken the strength of their protections. This may make it easier to rob them.</p><br><p>Things are always changing on the high seas! So, try your best to pay attention!</p><p><img src='run_exp/static/images/tutorial/contingency.png' height='500'></p></div>","","","","","","","","","","","","","","","","","",""
"","html-keyboard-response","43","308165","0.0-35.0-7.0","1766.5999999642372","<div class='center'><p>How successful a pirate is at robbing ships can also change over the time spent on the island. </p><p> Ships may hear from islanders about the pirates coming and will improve their protections against the attack. This may make it harder to rob them.</p><p> Ships may also become lazy and weaken the strength of their protections. This may make it easier to rob them.</p><br><p>Things are always changing on the high seas! So, try your best to pay attention!</p><p><img src='run_exp/static/images/tutorial/contingency.png' height='500'></p><p><b>[Press the space bar to continue]</b></p></div>","32","","","","","","","","","","","","","","","","","","","","","","",""
"","instruc13","44","353393","0.0-35.0-8.0","null","run_exp/static/audio/clip_15_summary.m4a","null","","","","","<div class='center'><p>Let's go over the instructions quickly again. You have two important things to do: </p><b><p> 1. Pick the pirate who is the best at robbing ships on the current island. This way you'll collect more gold coins!</p></b><b><p> 2. Remember on which island a ship was robbed.</p> </b><p>The amount of bonus money you can win depends on both.</p><p><br><p>Let’s try a practice game. The game will start by showing you the pirates. First, pick a pirate using the <b> 1, 2, 3 </b> keys on your keyboard. When you are shown a ship, try to remember which island you’re on by making up a story.</p><p>This is just a practice game, so you’re not playing for money. </p><p> Good luck! This game will be very difficult but try your best!</p></div>","","","","","","","","","","","","","","","","","",""
"","html-keyboard-response","45","354040","0.0-35.0-9.0","643.8000000119209","<div class='center'><p>Let's go over the instructions quickly again. You have two important things to do: </p><b><p> 1. Pick the pirate who is the best at robbing ships on the current island. This way you'll collect more gold coins!</p></b><b><p> 2. Remember on which island a ship was robbed.</p> </b><p>The amount of bonus money you can win depends on both.</p><p><br><p>Let’s try a practice game. The game will start by showing you the pirates. First, pick a pirate using the <b> 1, 2, 3 </b> keys on your keyboard. When you are shown a ship, try to remember which island you’re on by making up a story.</p><p>This is just a practice game, so you’re not playing for money. </p><p> Good luck! This game will be very difficult but try your best!</p><p><b>[Press the space bar to continue]</b></p></div>","32","","","","","","","","","","","","","","","","","","","","","","",""
"","do_welcome","46","358083","0.0-35.0-10.0","null","","","","","","","","null","","","","","","","","","","","","","","","","",""
"","do_trial","47","364258","0.0-35.0-11.0","1636.300000011921","","","","","","","","50","1,0,0","","","","","","","","","","","","","","","",""
"","html-keyboard-response","48","365263","0.0-36.0-0.0","null","<p></p>","null","","","","","","","","","","","","","","","","","","","","","","",""
"","do_trial","49","370891","0.0-36.0-1.0","1095.800000011921","","","","","","","","49","1,1,0","","","","","","","","","","","","","","","",""
"","html-keyboard-response","50","371897","0.0-37.0-0.0","null","<p></p>","null","","","","","","","","","","","","","","","","","","","","","","",""
"","do_trial","51","377070","0.0-37.0-1.0","643.6000000238419","","","","","","","","49","1,0,1","","","","","","","","","","","","","","","",""
"","html-keyboard-response","52","378089","0.0-38.0-0.0","null","<p></p>","null","","","","","","","","","","","","","","","","","","","","","","",""
"","do_trial","53","383336","0.0-38.0-1.0","725.8999999761581","","","","","","","","49","0,1,0","","","","","","","","","","","","","","","",""
"","html-keyboard-response","54","384353","0.0-39.0-0.0","null","<p></p>","null","","","","","","","","","","","","","","","","","","","","","","",""
"","do_trial","55","389721","0.0-39.0-1.0","852","","","","","","","","51","1,0,0","","","","","","","","","","","","","","","",""
"","do_bye","56","391244","0.0-40.0-0.0","null","","","","","","","","null","","","","","","","","","","","","","","","","",""
"","do_travel","57","400248","0.0-40.0-1.0","null","","","","","","","","null","","","","","","","","","","","","","","","","",""
"","do_welcome","58","404263","0.0-40.0-2.0","null","","","","","","","","null","","","","","","","","","","","","","","","","",""
"","do_trial","59","410719","0.0-40.0-3.0","1924.2000000476837","","","","","","","","50","1,0,0","","","","","","","","","","","","","","","",""
"","html-keyboard-response","60","411736","0.0-41.0-0.0","null","<p></p>","null","","","","","","","","","","","","","","","","","","","","","","",""
"","do_trial","61","416557","0.0-41.0-1.0","305.19999998807907","","","","","","","","49","1,0,1","","","","","","","","","","","","","","","",""
"","html-keyboard-response","62","417568","0.0-42.0-0.0","null","<p></p>","null","","","","","","","","","","","","","","","","","","","","","","",""
"","do_trial","63","425023","0.0-42.0-1.0","2929.2999999523163","","","","","","","","49","1,1,0","","","","","","","","","","","","","","","",""
"","html-keyboard-response","64","426029","0.0-43.0-0.0","null","<p></p>","null","","","","","","","","","","","","","","","","","","","","","","",""
"","do_trial","65","431230","0.0-43.0-1.0","672.3000000119209","","","","","","","","49","0,0,1","","","","","","","","","","","","","","","",""
"","html-keyboard-response","66","432238","0.0-44.0-0.0","null","<p></p>","null","","","","","","","","","","","","","","","","","","","","","","",""
"","do_trial","67","437733","0.0-44.0-1.0","978.8000000119209","","","","","","","","49","1,0,1","","","","","","","","","","","","","","","",""
"","html-keyboard-response","68","440235","0.0-45.0-0.0","2497","<div class='center'><p><img src='run_exp/static/images/tutorial/prac_best_pirate.png'  height='500'></p></div>","49","","","","","","","","","","","","","","","","","","","","","","",""
"","html-keyboard-response","69","442314","0.0-46.0-0.0","2077","<div class='center'><p>That's correct! Red beard was the best.</p><p><b>[Press the space bar to continue]</b></p></div>","32","","","","","","","","","","","","","","","","","","","","","","",""
"","html-keyboard-response","70","445682","0.0-46.0-1.0","3366.300000011921","<div class='center'><p><img src='run_exp/static/images/tutorial/prac_source.png'  height='500'></p></div>","50","","","","","","","","","","","","","","","","","","","","","","",""
"","html-keyboard-response","71","446549","0.0-47.0-0.0","864.3999999761581","<div class='center'><p>That's correct! You saw this ship on the cavern island.</p><p><b>[Press the space bar to continue]</b></p></div>","32","","","","","","","","","","","","","","","","","","","","","","",""
"","quiz_beginning","72","461364","0.0-47.0-1.0","null","run_exp/static/audio/clip_16_quiz_intro.m4a","null","","","","","<div class='center'><p>Good job on the practice game! Now, you will be asked some true or false questions to make sure you really understand the rules of the game.</p><p> Press <b>'1'</b> on the keyboard for true and press <b>'2'</b> for false.</p></div>","","","","","","","","","","","","","","","","","",""
"","audio-keyboard-response","73","465171","0.0-47.0-2.0","3804.100000023842","run_exp/static/audio/clip_17_q1.m4a","50","","","","","","","","","","","","","","","","","","","","","","",""
"","correct","74","468186","0.0-48.0-0.0","null","run_exp/static/audio/clip_18_correct.m4a","null","","","","","<div class='center'><p>That's correct!</p></div>","","","","","","","","","","","","","","","","","",""
"","html-keyboard-response","75","468857","0.0-48.0-1.0","669.5999999642372","<div class='center'><p>That's correct!</p><p><b>[Press the space bar to continue]</b></p></div>","32","","","","","","","","","","","","","","","","","","","","","","",""
"","audio-keyboard-response","76","473779","0.0-48.0-2.0","4918.799999952316","run_exp/static/audio/clip_20_q2.m4a","50","","","","","","","","","","","","","","","","","","","","","","",""
"","correct","77","476745","0.0-49.0-0.0","null","run_exp/static/audio/clip_18_correct.m4a","null","","","","","<div class='center'><p>That's correct!</p></div>","","","","","","","","","","","","","","","","","",""
"","html-keyboard-response","78","477640","0.0-49.0-1.0","893.1999999880791","<div class='center'><p>That's correct!</p><p><b>[Press the space bar to continue]</b></p></div>","32","","","","","","","","","","","","","","","","","","","","","","",""
"","audio-keyboard-response","79","485632","0.0-49.0-2.0","7989.400000035763","run_exp/static/audio/clip_22_q3.m4a","50","","","","","","","","","","","","","","","","","","","","","","",""
"","correct","80","488606","0.0-50.0-0.0","null","run_exp/static/audio/clip_18_correct.m4a","null","","","","","<div class='center'><p>That's correct!</p></div>","","","","","","","","","","","","","","","","","",""
"","html-keyboard-response","81","489070","0.0-50.0-1.0","463.39999997615814","<div class='center'><p>That's correct!</p><p><b>[Press the space bar to continue]</b></p></div>","32","","","","","","","","","","","","","","","","","","","","","","",""
"","audio-keyboard-response","82","493586","0.0-50.0-2.0","4513.199999988079","run_exp/static/audio/clip_24_q4.m4a","49","","","","","","","","","","","","","","","","","","","","","","",""
"","correct","83","496646","0.0-51.0-0.0","null","run_exp/static/audio/clip_18_correct.m4a","null","","","","","<div class='center'><p>That's correct!</p></div>","","","","","","","","","","","","","","","","","",""
"","html-keyboard-response","84","497214","0.0-51.0-1.0","566","<div class='center'><p>That's correct!</p><p><b>[Press the space bar to continue]</b></p></div>","32","","","","","","","","","","","","","","","","","","","","","","",""
"","q_all_corr","85","506186","0.0-52.0-0.0","null","run_exp/static/audio/clip_27_quiz_all_correct.m4a","null","","","","","<div class='center'><p>Good job! You’re now ready to move on to the real game! Remember this game will be difficult but don't get discouraged and try your best!</p></div>","","","","","","","","","","","","","","","","","",""
"","html-keyboard-response","86","507651","0.0-52.0-1.0","1461","<div class='center'><p>Good job! You’re now ready to move on to the real game! Remember this game will be difficult but don't get discouraged and try your best!</p><p><b>[Press the space bar to continue]</b></p></div>","32","","","","","","","","","","","","","","","","","","","","","","",""
"","do_welcome","87","511666","0.0-53.0-0.0","null","","","","","","","","null","","","","","","","","","","","","","","","","",""
"","do_trial","88","517227","0.0-54.0-0.0","962.9000000357628","","","","","","","","49","0,1,0","0","city","0","probe-86","0.6","0.3","0.1","0","","","","","","","",""
"","html-keyboard-response","89","518246","0.0-54.0-1.0","null","<p></p>","null","","","","","","","","","","","","","","","","","","","","","","",""
"","do_trial","90","523217","0.0-55.0-0.0","381.4000000357628","","","","","","","","50","0,0,0","0","city","1","probe-59","0.5159591742452816","0.156444587539077","0.10652737310504724","0","","","","","","","",""
"","html-keyboard-response","91","524221","0.0-55.0-1.0","null","<p></p>","null","","","","","","","","","","","","","","","","","","","","","","",""
"","do_trial","92","529315","0.0-56.0-0.0","486.9000000357628","","","","","","","","51","0,1,0","0","city","2","probe-58","0.5552502473735202","0.1597551646729206","0.13443294908154282","0","","","","","","","",""
"","html-keyboard-response","93","530320","0.0-56.0-1.0","null","<p></p>","null","","","","","","","","","","","","","","","","","","","","","","",""
"","do_trial","94","535549","0.0-57.0-0.0","653.2999999523163","","","","","","","","49","0,0,0","0","city","3","probe-14","0.6262252067488884","0.17226897825359813","0.15822557244472377","0","","","","","","","",""
"","html-keyboard-response","95","536553","0.0-57.0-1.0","null","<p></p>","null","","","","","","","","","","","","","","","","","","","","","","",""
"","do_trial","96","541446","0.0-58.0-0.0","306.80000001192093","","","","","","","","50","0,0,0","0","city","4","probe-110","0.5086708189418073","0.28310471237865054","0.1079505167475292","0","","","","","","","",""
"","html-keyboard-response","97","542454","0.0-58.0-1.0","null","<p></p>","null","","","","","","","","","","","","","","","","","","","","","","",""
"","do_trial","98","547423","0.0-59.0-0.0","399.9000000357628","","","","","","","","51","0,0,0","0","city","5","probe-41","0.45790181981258943","0.35583991753958705","0.1334613209409415","0","","","","","","","",""
"","html-keyboard-response","99","548440","0.0-59.0-1.0","null","<p></p>","null","","","","","","","","","","","","","","","","","","","","","","",""
"","do_trial","100","553629","0.0-60.0-0.0","626.5999999642372","","","","","","","","51","1,0,1","0","city","6","probe-161","0.4817360172544985","0.47385488305196477","0.26167161127398597","1","","","","","","","",""
"","html-keyboard-response","101","554636","0.0-60.0-1.0","null","<p></p>","null","","","","","","","","","","","","","","","","","","","","","","",""
"","do_trial","102","559707","0.0-61.0-0.0","473.19999998807907","","","","","","","","51","0,0,0","0","city","7","probe-202","0.6638112981064783","0.45019574747414437","0.06947301588373932","0","","","","","","","",""
"","html-keyboard-response","103","560714","0.0-61.0-1.0","null","<p></p>","null","","","","","","","","","","","","","","","","","","","","","","",""
"","do_trial","104","565790","0.0-62.0-0.0","459.7000000476837","","","","","","","","51","1,1,0","0","city","8","probe-166","0.7699336812421967","0.2942590344691879","0.09444625979970617","0","","","","","","","",""
"","html-keyboard-response","105","566794","0.0-62.0-1.0","null","<p></p>","null","","","","","","","","","","","","","","","","","","","","","","",""
"","do_trial","106","571658","0.0-63.0-0.0","306.19999998807907","","","","","","","","50","1,0,0","0","city","9","probe-177","0.6814523463633353","0.3981928594040241","0.12116771727075809","0","","","","","","","",""
"","html-keyboard-response","107","572662","0.0-63.0-1.0","null","<p></p>","null","","","","","","","","","","","","","","","","","","","","","","",""
"","do_trial","108","577589","0.0-64.0-0.0","359.80000001192093","","","","","","","","49","0,1,1","0","city","10","probe-37","0.6393391140055623","0.3932047733941309","0.21100197421477374","0","","","","","","","",""
"","html-keyboard-response","109","578592","0.0-64.0-1.0","null","<p></p>","null","","","","","","","","","","","","","","","","","","","","","","",""
"","do_trial","110","584654","0.0-65.0-0.0","null","","","","","","","","null","1,0,1","0","city","11","probe-65","0.588104898693778","0.31187462582845366","0.11898343831103159","","","","","","","","",""
"","html-keyboard-response","111","585673","0.0-65.0-1.0","null","<p></p>","null","","","","","","","","","","","","","","","","","","","","","","",""
"","do_trial","112","590703","0.0-66.0-0.0","437.80000001192093","","","","","","","","50","0,1,0","0","city","12","probe-189","0.5121081956044862","0.34428422587686924","0.05087614917833426","1","","","","","","","",""
"","html-keyboard-response","113","591706","0.0-66.0-1.0","null","<p></p>","null","","","","","","","","","","","","","","","","","","","","","","",""
"","do_trial","114","596806","0.0-67.0-0.0","483.5999999642372","","","","","","","","50","1,1,0","0","city","13","probe-219","0.626590418068129","0.2517158198669257","0.11128770940302021","1","","","","","","","",""
"","html-keyboard-response","115","597812","0.0-67.0-1.0","null","<p></p>","null","","","","","","","","","","","","","","","","","","","","","","",""
"","do_trial","116","603396","0.0-68.0-0.0","985.8000000119209","","","","","","","","50","1,0,1","0","city","14","probe-152","0.650642716415004","0.37169617569123814","0.13980229654172852","0","","","","","","","",""
"","html-keyboard-response","117","604401","0.0-68.0-1.0","null","<p></p>","null","","","","","","","","","","","","","","","","","","","","","","",""
"","do_trial","118","609633","0.0-69.0-0.0","637.6000000238419","","","","","","","","50","1,1,0","0","city","15","probe-73","0.5917336594058688","0.3638255756071999","0.232273702699728","1","","","","","","","",""
"","html-keyboard-response","119","610636","0.0-69.0-1.0","null","<p></p>","null","","","","","","","","","","","","","","","","","","","","","","",""
"","do_trial","120","616114","0.0-70.0-0.0","875","","","","","","","","50","0,1,0","0","city","16","probe-196","0.49865730374483774","0.24313269791259964","0.17295906282726695","1","","","","","","","",""
"","html-keyboard-response","121","617131","0.0-70.0-1.0","null","<p></p>","null","","","","","","","","","","","","","","","","","","","","","","",""
"","do_trial","122","622515","0.0-71.0-0.0","800.8000000119209","","","","","","","","50","1,0,0","0","city","17","probe-117","0.5748723417329594","0.21049231309054384","0.14295136085691204","0","","","","","","","",""
"","html-keyboard-response","123","623518","0.0-71.0-1.0","null","<p></p>","null","","","","","","","","","","","","","","","","","","","","","","",""
"","do_trial","124","630736","0.0-72.0-0.0","2624.199999988079","","","","","","","","50","1,0,0","0","city","18","probe-29","0.7339015545522605","0.29019820265698437","0.08911515153349624","0","","","","","","","",""
"","html-keyboard-response","125","631744","0.0-72.0-1.0","null","<p></p>","null","","","","","","","","","","","","","","","","","","","","","","",""
"","do_trial","126","636890","0.0-73.0-0.0","592.1999999880791","","","","","","","","50","1,1,0","0","city","19","probe-05","0.6129832079500351","0.35605229760868723","0.10805986095326939","1","","","","","","","",""
"","html-keyboard-response","127","637894","0.0-73.0-1.0","null","<p></p>","null","","","","","","","","","","","","","","","","","","","","","","",""
"","do_trial","128","643235","0.0-74.0-0.0","792.8999999761581","","","","","","","","50","0,0,0","0","city","20","probe-151","0.5600988977794347","0.2961543128202869","0.11482204926394758","0","","","","","","","",""
"","html-keyboard-response","129","644238","0.0-74.0-1.0","null","<p></p>","null","","","","","","","","","","","","","","","","","","","","","","",""
"","do_trial","130","650043","0.0-75.0-0.0","1205.1000000238419","","","","","","","","50","1,0,1","0","city","21","probe-114","0.5105569847639678","0.25661434361129937","0.19017669527513967","0","","","","","","","",""
"","html-keyboard-response","131","651046","0.0-75.0-1.0","null","<p></p>","null","","","","","","","","","","","","","","","","","","","","","","",""
"","do_trial","132","656182","0.0-76.0-0.0","568","","","","","","","","50","0,0,0","0","city","22","probe-51","0.6622867992884675","0.13500954178084387","0.08088837866536959","0","","","","","","","",""
"","html-keyboard-response","133","657188","0.0-76.0-1.0","null","<p></p>","null","","","","","","","","","","","","","","","","","","","","","","",""
"","do_trial","134","661794","0.0-77.0-0.0","0.10000002384185791","","","","","","","","49","0,1,0","0","city","23","probe-111","0.7427166557264931","0.24200059982457192","0.09787298392650394","0","","","","","","","",""
"","html-keyboard-response","135","662798","0.0-77.0-1.0","null","<p></p>","null","","","","","","","","","","","","","","","","","","","","","","",""
"","do_trial","136","667949","0.0-78.0-0.0","567.8000000119209","","","","","","","","51","1,1,0","0","city","24","probe-45","0.6684066085310534","0.33524029234193053","0.07997525099516033","0","","","","","","","",""
"","html-keyboard-response","137","668966","0.0-78.0-1.0","null","<p></p>","null","","","","","","","","","","","","","","","","","","","","","","",""
"","do_trial","138","674584","0.0-79.0-0.0","1032.800000011921","","","","","","","","50","0,1,0","0","city","25","probe-124","0.6404567869179256","0.5160114672989122","0.06249310222309492","1","","","","","","","",""
"","html-keyboard-response","139","675588","0.0-79.0-1.0","null","<p></p>","null","","","","","","","","","","","","","","","","","","","","","","",""
"","do_trial","140","680757","0.0-80.0-0.0","573.1999999880791","","","","","","","","50","0,1,0","0","city","26","probe-158","0.596126786166199","0.5153339636783325","0.18237417877719647","1","","","","","","","",""
"","html-keyboard-response","141","681761","0.0-80.0-1.0","null","<p></p>","null","","","","","","","","","","","","","","","","","","","","","","",""
"","do_trial","142","686970","0.0-81.0-0.0","608.5","","","","","","","","50","1,0,0","0","city","27","probe-141","0.6654112748336583","0.3450990184794332","0.1988432220962475","0","","","","","","","",""
"","html-keyboard-response","143","687976","0.0-81.0-1.0","null","<p></p>","null","","","","","","","","","","","","","","","","","","","","","","",""
"","do_trial","144","693261","0.0-82.0-0.0","686.8000000119209","","","","","","","","50","1,1,0","0","city","28","probe-94","0.4906404499767926","0.38903392290509675","0.07309976632894119","1","","","","","","","",""
"","html-keyboard-response","145","694277","0.0-82.0-1.0","null","<p></p>","null","","","","","","","","","","","","","","","","","","","","","","",""
"","do_trial","146","699738","0.0-83.0-0.0","909.7000000476837","","","","","","","","50","1,1,1","0","city","29","probe-119","0.47075001072654393","0.31982359428569057","0.06587990970470407","1","","","","","","","",""
"","html-keyboard-response","147","700757","0.0-83.0-1.0","null","<p></p>","null","","","","","","","","","","","","","","","","","","","","","","",""
"","do_bye","148","702279","0.0-84.0-0.0","null","","","","","","","","null","","","","","","","","","","","","","","","","",""
"","break","149","712238","0.0-84.0-1.0","9956.699999988079","<div class='center'><p>Time to take a quick break! You have 2 minutes to rest, but you can move on sooner if you'd like.</p><p> Press the <b>space bar</b> to continue.</p></div>","32","","","","","","","","","","","","","","","","","","","","","","",""
"","do_travel","150","721253","0.0-85.0-0.0","null","","","","","","","","null","","","","","","","","","","","","","","","","",""
"","do_welcome","151","725271","0.0-85.0-1.0","null","","","","","","","","null","","","","","","","","","","","","","","","","",""
"","do_trial","152","731346","0.0-86.0-0.0","1465.1000000238419","","","","","","","","49","1,0,0","1","countryside","30","probe-75","1","0.3270637949666316","0.20119751442803277","1","","","","","","","",""
"","html-keyboard-response","153","732360","0.0-86.0-1.0","null","<p></p>","null","","","","","","","","","","","","","","","","","","","","","","",""
"","do_trial","154","737699","0.0-87.0-0.0","755.1000000238419","","","","","","","","49","1,1,1","1","countryside","31","probe-142","1","0.4216806892932047","0.25459927841692825","1","","","","","","","",""
"","html-keyboard-response","155","738705","0.0-87.0-1.0","null","<p></p>","null","","","","","","","","","","","","","","","","","","","","","","",""
"","do_trial","156","743890","0.0-88.0-0.0","591.3999999761581","","","","","","","","49","1,1,0","1","countryside","32","probe-139","1","0.5493767281833449","0.17294939348327987","1","","","","","","","",""
"","html-keyboard-response","157","744897","0.0-88.0-1.0","null","<p></p>","null","","","","","","","","","","","","","","","","","","","","","","",""
"","do_trial","158","750097","0.0-89.0-0.0","638.5","","","","","","","","49","1,1,0","1","countryside","33","probe-43","0.7984757883014586","0.4576773469677736","0.18018049249911422","1","","","","","","","",""
"","html-keyboard-response","159","751101","0.0-89.0-1.0","null","<p></p>","null","","","","","","","","","","","","","","","","","","","","","","",""
"","do_trial","160","756179","0.0-90.0-0.0","525.6000000238419","","","","","","","","49","1,1,1","1","countryside","34","probe-131","0.8559827667423736","0.3627811227216301","0.2006490701569242","1","","","","","","","",""
"","html-keyboard-response","161","757183","0.0-90.0-1.0","null","<p></p>","null","","","","","","","","","","","","","","","","","","","","","","",""
"","do_trial","162","762441","0.0-91.0-0.0","648.5999999642372","","","","","","","","49","1,0,1","1","countryside","35","probe-185","0.8050791934166934","0.4909264916985665","0.27223635300584464","1","","","","","","","",""
"","html-keyboard-response","163","763444","0.0-91.0-1.0","null","<p></p>","null","","","","","","","","","","","","","","","","","","","","","","",""
"","do_trial","164","768232","0.0-92.0-0.0","200.69999998807907","","","","","","","","49","0,1,0","1","countryside","36","probe-62","0.7608824643055887","0.5733282756717231","0.14652798046052595","0","","","","","","","",""
"","html-keyboard-response","165","769239","0.0-92.0-1.0","null","<p></p>","null","","","","","","","","","","","","","","","","","","","","","","",""
"","do_trial","166","774668","0.0-93.0-0.0","824.5","","","","","","","","49","1,1,1","1","countryside","37","probe-172","0.7234571237194416","0.4882215522392144","0.2205727562658295","1","","","","","","","",""
"","html-keyboard-response","167","775686","0.0-93.0-1.0","null","<p></p>","null","","","","","","","","","","","","","","","","","","","","","","",""
"","do_trial","168","780943","0.0-94.0-0.0","666.6999999880791","","","","","","","","49","0,1,0","1","countryside","38","probe-71","0.509509256883992","0.4468798145333471","0.34634341613743247","0","","","","","","","",""
"","html-keyboard-response","169","781947","0.0-94.0-1.0","null","<p></p>","null","","","","","","","","","","","","","","","","","","","","","","",""
"","do_trial","170","787048","0.0-95.0-0.0","510.69999998807907","","","","","","","","49","0,1,0","1","countryside","39","probe-10","0.5656393002736354","0.3857025775181761","0.2817293001467742","0","","","","","","","",""
"","html-keyboard-response","171","788051","0.0-95.0-1.0","null","<p></p>","null","","","","","","","","","","","","","","","","","","","","","","",""
"","do_trial","172","792972","0.0-96.0-0.0","320.39999997615814","","","","","","","","49","1,0,1","1","countryside","40","probe-209","0.48571413290966436","0.28686881245613743","0.3874485455890337","1","","","","","","","",""
"","html-keyboard-response","173","793979","0.0-96.0-1.0","null","<p></p>","null","","","","","","","","","","","","","","","","","","","","","","",""
"","do_trial","174","799002","0.0-97.0-0.0","445","","","","","","","","50","0,1,0","1","countryside","41","probe-85","0.3744020018255319","0.2602515808485601","0.392045995027006","1","","","","","","","",""
"","html-keyboard-response","175","800007","0.0-97.0-1.0","null","<p></p>","null","","","","","","","","","","","","","","","","","","","","","","",""
"","do_trial","176","805296","0.0-98.0-0.0","698.3999999761581","","","","","","","","51","0,0,0","1","countryside","42","probe-197","0.3187645984396464","0.45127498379275693","0.07050563157449453","0","","","","","","","",""
"","html-keyboard-response","177","806302","0.0-98.0-1.0","null","<p></p>","null","","","","","","","","","","","","","","","","","","","","","","",""
"","do_trial","178","811244","0.0-99.0-0.0","352.5","","","","","","","","49","1,0,1","1","countryside","43","probe-186","0.30040002028345825","0.43095305123887173","0.2169414120316046","1","","","","","","","",""
"","html-keyboard-response","179","812249","0.0-99.0-1.0","null","<p></p>","null","","","","","","","","","","","","","","","","","","","","","","",""
"","do_trial","180","818364","0.0-100.0-0.0","null","","","","","","","","null","1,1,0","1","countryside","44","probe-17","0.2809495426963164","0.6723620134605511","0.35473164154521114","","","","","","","","",""
"","html-keyboard-response","181","819370","0.0-100.0-1.0","null","<p></p>","null","","","","","","","","","","","","","","","","","","","","","","",""
"","do_trial","182","824311","0.0-101.0-0.0","360.7999999523163","","","","","","","","49","0,1,0","1","countryside","45","probe-107","0.23167862024915004","0.7059929837110542","0.21427443672211696","0","","","","","","","",""
"","html-keyboard-response","183","825315","0.0-101.0-1.0","null","<p></p>","null","","","","","","","","","","","","","","","","","","","","","","",""
"","do_trial","184","830646","0.0-102.0-0.0","720.4000000357628","","","","","","","","50","1,1,0","1","countryside","46","probe-27","0.19458361328946452","0.5883405763682873","0.19230375965881152","1","","","","","","","",""
"","html-keyboard-response","185","831655","0.0-102.0-1.0","null","<p></p>","null","","","","","","","","","","","","","","","","","","","","","","",""
"","do_trial","186","836783","0.0-103.0-0.0","528.8000000119209","","","","","","","","49","0,1,0","1","countryside","47","probe-84","0.1942650267670967","0.6125437159010677","0.14367333299230498","0","","","","","","","",""
"","html-keyboard-response","187","837787","0.0-103.0-1.0","null","<p></p>","null","","","","","","","","","","","","","","","","","","","","","","",""
"","do_trial","188","842821","0.0-104.0-0.0","431.5","","","","","","","","50","0,1,0","1","countryside","48","probe-101","0.15956843276789356","0.5638967194817148","0.11827829819440541","1","","","","","","","",""
"","html-keyboard-response","189","843825","0.0-104.0-1.0","null","<p></p>","null","","","","","","","","","","","","","","","","","","","","","","",""
"","do_trial","190","848827","0.0-105.0-0.0","435.69999998807907","","","","","","","","50","0,1,0","1","countryside","49","probe-121","0.10761740962912925","0.4734267456625894","0.05495807152172083","1","","","","","","","",""
"","html-keyboard-response","191","849845","0.0-105.0-1.0","null","<p></p>","null","","","","","","","","","","","","","","","","","","","","","","",""
"","do_trial","192","854987","0.0-106.0-0.0","541.3999999761581","","","","","","","","50","0,0,0","1","countryside","50","probe-180","0.07020099092691633","0.49794648083064935","0.09655098710380282","0","","","","","","","",""
"","html-keyboard-response","193","855994","0.0-106.0-1.0","null","<p></p>","null","","","","","","","","","","","","","","","","","","","","","","",""
"","do_trial","194","861195","0.0-107.0-0.0","598.3000000119209","","","","","","","","49","1,1,1","1","countryside","51","probe-112","0.13256070447136728","0.5496365243433082","0.23578006642040422","1","","","","","","","",""
"","html-keyboard-response","195","862201","0.0-107.0-1.0","null","<p></p>","null","","","","","","","","","","","","","","","","","","","","","","",""
"","do_trial","196","867663","0.0-108.0-0.0","862.9000000357628","","","","","","","","49","1,0,0","1","countryside","52","probe-137","0.15171232180990157","0.42069942047737074","0.21626398380037942","1","","","","","","","",""
"","html-keyboard-response","197","868669","0.0-108.0-1.0","null","<p></p>","null","","","","","","","","","","","","","","","","","","","","","","",""
"","do_trial","198","874824","0.0-109.0-0.0","1582.800000011921","","","","","","","","49","0,1,0","1","countryside","53","probe-183","0.3045002481786269","0.49920390952307503","0.2095882432452729","0","","","","","","","",""
"","html-keyboard-response","199","875841","0.0-109.0-1.0","null","<p></p>","null","","","","","","","","","","","","","","","","","","","","","","",""
"","do_trial","200","881246","0.0-110.0-0.0","847.9000000357628","","","","","","","","49","0,1,1","1","countryside","54","probe-169","0.29228117377989415","0.4037080146305506","0.2030937076896205","0","","","","","","","",""
"","html-keyboard-response","201","882263","0.0-110.0-1.0","null","<p></p>","null","","","","","","","","","","","","","","","","","","","","","","",""
"","do_trial","202","887231","0.0-111.0-0.0","372.10000002384186","","","","","","","","50","0,1,0","1","countryside","55","probe-08","0.23578999519913663","0.5723962212251985","0.20958758295752333","1","","","","","","","",""
"","html-keyboard-response","203","888247","0.0-111.0-1.0","null","<p></p>","null","","","","","","","","","","","","","","","","","","","","","","",""
"","do_trial","204","893006","0.0-112.0-0.0","171.20000004768372","","","","","","","","50","0,1,0","1","countryside","56","probe-98","0.24570022868400374","0.5621112629945219","0.08573193388607366","1","","","","","","","",""
"","html-keyboard-response","205","894010","0.0-112.0-1.0","null","<p></p>","null","","","","","","","","","","","","","","","","","","","","","","",""
"","do_trial","206","900414","0.0-113.0-0.0","1788.300000011921","","","","","","","","50","0,0,1","1","countryside","57","probe-171","0.3236895698012994","0.473226742530961","0.1718758930254741","0","","","","","","","",""
"","html-keyboard-response","207","901419","0.0-113.0-1.0","null","<p></p>","null","","","","","","","","","","","","","","","","","","","","","","",""
"","do_trial","208","906561","0.0-114.0-0.0","548.8000000119209","","","","","","","","50","1,1,1","1","countryside","58","probe-34","0.27730653901996943","0.4385221401348809","0.14136280539167362","1","","","","","","","",""
"","html-keyboard-response","209","907578","0.0-114.0-1.0","null","<p></p>","null","","","","","","","","","","","","","","","","","","","","","","",""
"","do_trial","210","912612","0.0-115.0-0.0","455.69999998807907","","","","","","","","50","1,0,1","1","countryside","59","probe-127","0.25033526481038393","0.5658929897732348","0.17818967408080924","0","","","","","","","",""
"","html-keyboard-response","211","913620","0.0-115.0-1.0","null","<p></p>","null","","","","","","","","","","","","","","","","","","","","","","",""
"","do_trial","212","919020","0.0-116.0-0.0","804.2999999523163","","","","","","","","50","0,0,1","1","countryside","60","probe-32","0.23411279199398455","0.6230000466861647","0.2505410869809729","0","","","","","","","",""
"","html-keyboard-response","213","920028","0.0-116.0-1.0","null","<p></p>","null","","","","","","","","","","","","","","","","","","","","","","",""
"","do_trial","214","926166","0.0-117.0-0.0","1565.5","","","","","","","","50","0,1,0","1","countryside","61","probe-208","0.19318357554059495","0.8698306889414739","0.06818502284427463","1","","","","","","","",""
"","html-keyboard-response","215","927170","0.0-117.0-1.0","null","<p></p>","null","","","","","","","","","","","","","","","","","","","","","","",""
"","do_trial","216","932092","0.0-118.0-0.0","343","","","","","","","","49","1,1,0","1","countryside","62","probe-70","0.35028424813919096","0.7719637188706758","0.10451200170348686","1","","","","","","","",""
"","html-keyboard-response","217","933097","0.0-118.0-1.0","null","<p></p>","null","","","","","","","","","","","","","","","","","","","","","","",""
"","do_trial","218","938270","0.0-119.0-0.0","616.6999999880791","","","","","","","","49","0,1,0","1","countryside","63","probe-160","0.31916128340433775","0.7147798258636052","0.3288783488686836","0","","","","","","","",""
"","html-keyboard-response","219","939274","0.0-119.0-1.0","null","<p></p>","null","","","","","","","","","","","","","","","","","","","","","","",""
"","do_trial","220","944865","0.0-120.0-0.0","1042.8999999761581","","","","","","","","49","1,0,1","1","countryside","64","probe-175","0.389845669400014","0.5513708127879332","0.22493197051034597","1","","","","","","","",""
"","html-keyboard-response","221","945869","0.0-120.0-1.0","null","<p></p>","null","","","","","","","","","","","","","","","","","","","","","","",""
"","do_trial","222","950785","0.0-121.0-0.0","301.0999999642372","","","","","","","","50","0,0,0","1","countryside","65","probe-39","0.28236897296947494","0.5418804152849644","0.2773599700217262","0","","","","","","","",""
"","html-keyboard-response","223","951801","0.0-121.0-1.0","null","<p></p>","null","","","","","","","","","","","","","","","","","","","","","","",""
"","do_trial","224","956728","0.0-122.0-0.0","341.60000002384186","","","","","","","","50","0,1,0","1","countryside","66","probe-199","0.21147029485318286","0.5918577445049111","0.24331448884481618","1","","","","","","","",""
"","html-keyboard-response","225","957748","0.0-122.0-1.0","null","<p></p>","null","","","","","","","","","","","","","","","","","","","","","","",""
"","do_trial","226","962863","0.0-123.0-0.0","536.5999999642372","","","","","","","","50","0,0,0","1","countryside","67","probe-198","0.10029301086242093","0.4049648928455874","0.21770662566272475","0","","","","","","","",""
"","html-keyboard-response","227","963866","0.0-123.0-1.0","null","<p></p>","null","","","","","","","","","","","","","","","","","","","","","","",""
"","do_trial","228","970626","0.0-124.0-0.0","2163","","","","","","","","50","0,0,0","1","countryside","68","probe-147","0.13721796959535343","0.5038824371960897","0.11557705112014376","0","","","","","","","",""
"","html-keyboard-response","229","971631","0.0-124.0-1.0","null","<p></p>","null","","","","","","","","","","","","","","","","","","","","","","",""
"","do_trial","230","977018","0.0-125.0-0.0","766.8000000119209","","","","","","","","50","0,0,0","1","countryside","69","probe-79","0.11506962359118322","0.5916630291825894","0.10985569459163451","0","","","","","","","",""
"","html-keyboard-response","231","978030","0.0-125.0-1.0","null","<p></p>","null","","","","","","","","","","","","","","","","","","","","","","",""
"","do_bye","232","979553","0.0-126.0-0.0","null","","","","","","","","null","","","","","","","","","","","","","","","","",""
"","break","233","989027","0.0-126.0-1.0","9472.099999964237","<div class='center'><p>Time to take a quick break! You have 2 minutes to rest, but you can move on sooner if you'd like.</p><p> Press the <b>space bar</b> to continue.</p></div>","32","","","","","","","","","","","","","","","","","","","","","","",""
"","do_travel","234","998034","0.0-127.0-0.0","null","","","","","","","","null","","","","","","","","","","","","","","","","",""
"","do_welcome","235","1002050","0.0-127.0-1.0","null","","","","","","","","null","","","","","","","","","","","","","","","","",""
"","do_trial","236","1008013","0.0-128.0-0.0","1404","","","","","","","","50","0,1,0","2","forest","70","probe-26","0.19643114159003916","1","0.15791225025869357","1","","","","","","","",""
"","html-keyboard-response","237","1009020","0.0-128.0-1.0","null","<p></p>","null","","","","","","","","","","","","","","","","","","","","","","",""
"","do_trial","238","1014074","0.0-129.0-0.0","464.60000002384186","","","","","","","","49","1,1,0","2","forest","71","probe-182","0.1823967279699248","1","0.0707450612156858","1","","","","","","","",""
"","html-keyboard-response","239","1015080","0.0-129.0-1.0","null","<p></p>","null","","","","","","","","","","","","","","","","","","","","","","",""
"","do_trial","240","1020821","0.0-130.0-0.0","1116.699999988079","","","","","","","","51","0,0,0","2","forest","72","probe-54","0.2973887053280682","0.7879158833607953","0.16914065159810648","0","","","","","","","",""
"","html-keyboard-response","241","1021838","0.0-130.0-1.0","null","<p></p>","null","","","","","","","","","","","","","","","","","","","","","","",""
"","do_trial","242","1026832","0.0-131.0-0.0","392.2000000476837","","","","","","","","50","1,1,1","2","forest","73","probe-225","0.3340106790746471","0.9058744134500725","0.09433056296857814","1","","","","","","","",""
"","html-keyboard-response","243","1027839","0.0-131.0-1.0","null","<p></p>","null","","","","","","","","","","","","","","","","","","","","","","",""
"","do_trial","244","1033174","0.0-132.0-0.0","735.1000000238419","","","","","","","","50","1,1,0","2","forest","74","probe-173","0.2545901583872203","0.73911612948022","0.14984859013636864","1","","","","","","","",""
"","html-keyboard-response","245","1034180","0.0-132.0-1.0","null","<p></p>","null","","","","","","","","","","","","","","","","","","","","","","",""
"","do_trial","246","1039523","0.0-133.0-0.0","770","","","","","","","","50","0,1,0","2","forest","75","probe-136","0.26110123109964356","0.6795949995638975","0.19599936457194977","1","","","","","","","",""
"","html-keyboard-response","247","1040528","0.0-133.0-1.0","null","<p></p>","null","","","","","","","","","","","","","","","","","","","","","","",""
"","do_trial","248","1045691","0.0-134.0-0.0","548.5","","","","","","","","50","0,0,0","2","forest","76","probe-61","0.19816444610231684","0.5461744693175945","0.15885233000900928","0","","","","","","","",""
"","html-keyboard-response","249","1046696","0.0-134.0-1.0","null","<p></p>","null","","","","","","","","","","","","","","","","","","","","","","",""
"","do_trial","250","1051867","0.0-135.0-0.0","552.3000000119209","","","","","","","","50","0,1,1","2","forest","77","probe-220","0.237953943149826","0.5575851504702043","0.13704677550273509","1","","","","","","","",""
"","html-keyboard-response","251","1052870","0.0-135.0-1.0","null","<p></p>","null","","","","","","","","","","","","","","","","","","","","","","",""
"","do_trial","252","1058199","0.0-136.0-0.0","708","","","","","","","","50","1,0,0","2","forest","78","probe-207","0.19026929418403796","0.5317694855689559","0.16829554683270373","0","","","","","","","",""
"","html-keyboard-response","253","1059205","0.0-136.0-1.0","null","<p></p>","null","","","","","","","","","","","","","","","","","","","","","","",""
"","do_trial","254","1064455","0.0-137.0-0.0","666.7999999523163","","","","","","","","49","0,0,0","2","forest","79","probe-213","0.16556506540595947","0.45961876164113663","0.22074995444173484","0","","","","","","","",""
"","html-keyboard-response","255","1065472","0.0-137.0-1.0","null","<p></p>","null","","","","","","","","","","","","","","","","","","","","","","",""
"","do_trial","256","1070676","0.0-138.0-0.0","620.8000000119209","","","","","","","","51","0,0,0","2","forest","80","probe-80","0.1662358849468242","0.35564144682042326","0.1653995754230069","0","","","","","","","",""
"","html-keyboard-response","257","1071680","0.0-138.0-1.0","null","<p></p>","null","","","","","","","","","","","","","","","","","","","","","","",""
"","do_trial","258","1076951","0.0-139.0-0.0","686.5","","","","","","","","50","0,1,0","2","forest","81","probe-118","0.21124652237435024","0.31913233190678675","0.0888492658770271","1","","","","","","","",""
"","html-keyboard-response","259","1077955","0.0-139.0-1.0","null","<p></p>","null","","","","","","","","","","","","","","","","","","","","","","",""
"","do_trial","260","1084137","0.0-140.0-0.0","1596","","","","","","","","50","0,0,0","2","forest","82","probe-74","0.22805825166138477","0.16545166687784352","0.26645702792154413","0","","","","","","","",""
"","html-keyboard-response","261","1085154","0.0-140.0-1.0","null","<p></p>","null","","","","","","","","","","","","","","","","","","","","","","",""
"","do_trial","262","1090243","0.0-141.0-0.0","479.0999999642372","","","","","","","","50","0,0,1","2","forest","83","probe-154","0.27775330324286424","0.265757401384351","0.4747710695558457","0","","","","","","","",""
"","html-keyboard-response","263","1091246","0.0-141.0-1.0","null","<p></p>","null","","","","","","","","","","","","","","","","","","","","","","",""
"","do_trial","264","1096660","0.0-142.0-0.0","858.6999999880791","","","","","","","","50","0,0,1","2","forest","84","probe-226","0.28603245838957697","0.0827686183861277","0.4577261639053637","0","","","","","","","",""
"","html-keyboard-response","265","1097662","0.0-142.0-1.0","null","<p></p>","null","","","","","","","","","","","","","","","","","","","","","","",""
"","do_trial","266","1102948","0.0-143.0-0.0","686.7000000476837","","","","","","","","50","0,0,0","2","forest","85","probe-157","0.24327556616780638","0.07555177130655831","0.5721466431177514","0","","","","","","","",""
"","html-keyboard-response","267","1103966","0.0-143.0-1.0","null","<p></p>","null","","","","","","","","","","","","","","","","","","","","","","",""
"","do_trial","268","1109183","0.0-144.0-0.0","629.8000000119209","","","","","","","","49","0,0,1","2","forest","86","probe-96","0.19536045707993324","0.07919277758097532","0.5060194550084421","0","","","","","","","",""
"","html-keyboard-response","269","1110186","0.0-144.0-1.0","null","<p></p>","null","","","","","","","","","","","","","","","","","","","","","","",""
"","do_trial","270","1115602","0.0-145.0-0.0","809.6999999880791","","","","","","","","51","1,0,1","2","forest","87","probe-16","0.19958948331456533","0.060796929914617444","0.5388366721594978","1","","","","","","","",""
"","html-keyboard-response","271","1116606","0.0-145.0-1.0","null","<p></p>","null","","","","","","","","","","","","","","","","","","","","","","",""
"","do_trial","272","1121524","0.0-146.0-0.0","358.9000000357628","","","","","","","","51","1,0,1","2","forest","88","probe-133","0.19317230175744463","0.05483980248899793","0.4518122300167104","1","","","","","","","",""
"","html-keyboard-response","273","1122541","0.0-146.0-1.0","null","<p></p>","null","","","","","","","","","","","","","","","","","","","","","","",""
"","do_trial","274","1128254","0.0-147.0-0.0","1142.4000000357628","","","","","","","","51","0,0,0","2","forest","89","probe-57","0.24323203396671664","0.07034978714995366","0.49827310353166604","0","","","","","","","",""
"","html-keyboard-response","275","1129290","0.0-147.0-1.0","null","<p></p>","null","","","","","","","","","","","","","","","","","","","","","","",""
"","do_trial","276","1134873","0.0-148.0-0.0","989.9000000357628","","","","","","","","51","1,0,1","2","forest","90","probe-64","0.19485245065694512","0.05629278649437873","0.6608241201370327","1","","","","","","","",""
"","html-keyboard-response","277","1135879","0.0-148.0-1.0","null","<p></p>","null","","","","","","","","","","","","","","","","","","","","","","",""
"","do_trial","278","1141148","0.0-149.0-0.0","673.2000000476837","","","","","","","","51","1,0,0","2","forest","91","probe-87","0.2843571906300219","0.05718414269464997","0.6332160269334961","0","","","","","","","",""
"","html-keyboard-response","279","1142167","0.0-149.0-1.0","null","<p></p>","null","","","","","","","","","","","","","","","","","","","","","","",""
"","do_trial","280","1147165","0.0-150.0-0.0","398.69999998807907","","","","","","","","50","0,0,0","2","forest","92","probe-42","0.14507156902649193","0.07579305429968088","0.5749365331353987","0","","","","","","","",""
"","html-keyboard-response","281","1148181","0.0-150.0-1.0","null","<p></p>","null","","","","","","","","","","","","","","","","","","","","","","",""
"","do_trial","282","1153417","0.0-151.0-0.0","660.1999999880791","","","","","","","","49","0,0,0","2","forest","93","probe-95","0.21723288407039895","0.13492477845244513","0.4073634128848119","0","","","","","","","",""
"","html-keyboard-response","283","1154422","0.0-151.0-1.0","null","<p></p>","null","","","","","","","","","","","","","","","","","","","","","","",""
"","do_trial","284","1159421","0.0-152.0-0.0","397.39999997615814","","","","","","","","50","0,0,1","2","forest","94","probe-228","0.15227389673435432","0.20000694443137096","0.6641854999863824","0","","","","","","","",""
"","html-keyboard-response","285","1160426","0.0-152.0-1.0","null","<p></p>","null","","","","","","","","","","","","","","","","","","","","","","",""
"","do_trial","286","1165698","0.0-153.0-0.0","654.5","","","","","","","","51","0,1,0","2","forest","95","probe-99","0.24346709700894067","0.09174224148156636","0.5604142880189845","0","","","","","","","",""
"","html-keyboard-response","287","1166702","0.0-153.0-1.0","null","<p></p>","null","","","","","","","","","","","","","","","","","","","","","","",""
"","do_trial","288","1171803","0.0-154.0-0.0","545.8999999761581","","","","","","","","51","0,0,1","2","forest","96","probe-02","0.11638835654272514","0.08597200929746503","0.5507908634202233","1","","","","","","","",""
"","html-keyboard-response","289","1172808","0.0-154.0-1.0","null","<p></p>","null","","","","","","","","","","","","","","","","","","","","","","",""
"","do_trial","290","1178788","0.0-155.0-0.0","1356.800000011921","","","","","","","","51","0,0,1","2","forest","97","probe-193","0.2590376241028881","0.14916155032627487","0.5998968269542112","1","","","","","","","",""
"","html-keyboard-response","291","1179804","0.0-155.0-1.0","null","<p></p>","null","","","","","","","","","","","","","","","","","","","","","","",""
"","do_trial","292","1184755","0.0-156.0-0.0","384.10000002384186","","","","","","","","51","0,0,1","2","forest","98","probe-78","0.33638037373427354","0.16724376135551203","0.6237566978934064","1","","","","","","","",""
"","html-keyboard-response","293","1185760","0.0-156.0-1.0","null","<p></p>","null","","","","","","","","","","","","","","","","","","","","","","",""
"","do_trial","294","1191451","0.0-157.0-0.0","1091","","","","","","","","51","1,0,1","2","forest","99","probe-90","0.4571290825316687","0.15159782651458942","0.6160283230107779","1","","","","","","","",""
"","html-keyboard-response","295","1192455","0.0-157.0-1.0","null","<p></p>","null","","","","","","","","","","","","","","","","","","","","","","",""
"","do_trial","296","1197565","0.0-158.0-0.0","513.5999999642372","","","","","","","","51","1,0,1","2","forest","100","probe-89","0.3623888638788396","0.21930454273108196","0.6573056585493414","1","","","","","","","",""
"","html-keyboard-response","297","1198571","0.0-158.0-1.0","null","<p></p>","null","","","","","","","","","","","","","","","","","","","","","","",""
"","do_trial","298","1203906","0.0-159.0-0.0","744.1999999880791","","","","","","","","51","0,0,1","2","forest","101","probe-181","0.4606455613334869","0.0746546998101253","0.5893438248504514","1","","","","","","","",""
"","html-keyboard-response","299","1204924","0.0-159.0-1.0","null","<p></p>","null","","","","","","","","","","","","","","","","","","","","","","",""
"","do_trial","300","1210191","0.0-160.0-0.0","649.4000000357628","","","","","","","","51","0,1,0","2","forest","102","probe-153","0.33423641275756233","0.1822250643370189","0.7211377173341641","0","","","","","","","",""
"","html-keyboard-response","301","1211200","0.0-160.0-1.0","null","<p></p>","null","","","","","","","","","","","","","","","","","","","","","","",""
"","do_trial","302","1216238","0.0-161.0-0.0","440.89999997615814","","","","","","","","51","0,0,1","2","forest","103","probe-18","0.21594102683578448","0.17667340898311712","0.6542714621604179","1","","","","","","","",""
"","html-keyboard-response","303","1217257","0.0-161.0-1.0","null","<p></p>","null","","","","","","","","","","","","","","","","","","","","","","",""
"","do_trial","304","1223146","0.0-162.0-0.0","1295.300000011921","","","","","","","","51","0,0,0","2","forest","104","probe-04","0.11183132755368969","0.07907888454756817","0.6223757505308793","0","","","","","","","",""
"","html-keyboard-response","305","1224153","0.0-162.0-1.0","null","<p></p>","null","","","","","","","","","","","","","","","","","","","","","","",""
"","do_trial","306","1229204","0.0-163.0-0.0","490","","","","","","","","51","0,0,1","2","forest","105","probe-36","0.13187755467027035","0.19856838221221748","0.6990475276649941","1","","","","","","","",""
"","html-keyboard-response","307","1230214","0.0-163.0-1.0","null","<p></p>","null","","","","","","","","","","","","","","","","","","","","","","",""
"","do_trial","308","1235463","0.0-164.0-0.0","659.7999999523163","","","","","","","","51","0,0,1","2","forest","106","probe-205","0.1663368585239808","0.15309193011036076","0.7489424000772192","1","","","","","","","",""
"","html-keyboard-response","309","1236481","0.0-164.0-1.0","null","<p></p>","null","","","","","","","","","","","","","","","","","","","","","","",""
"","do_trial","310","1242013","0.0-165.0-0.0","931.5","","","","","","","","51","0,0,1","2","forest","107","probe-201","0.38574336104318024","0.2346371114711967","0.6399428194418366","1","","","","","","","",""
"","html-keyboard-response","311","1243017","0.0-165.0-1.0","null","<p></p>","null","","","","","","","","","","","","","","","","","","","","","","",""
"","do_trial","312","1247990","0.0-166.0-0.0","364.89999997615814","","","","","","","","51","0,0,0","2","forest","108","probe-123","0.3788471082955551","0.12405855767175045","0.6395269777315133","0","","","","","","","",""
"","html-keyboard-response","313","1248993","0.0-166.0-1.0","null","<p></p>","null","","","","","","","","","","","","","","","","","","","","","","",""
"","do_trial","314","1253942","0.0-167.0-0.0","362.39999997615814","","","","","","","","51","1,0,1","2","forest","109","probe-126","0.35136611088160996","0.06620140611079925","0.6351734640102888","1","","","","","","","",""
"","html-keyboard-response","315","1254958","0.0-167.0-1.0","null","<p></p>","null","","","","","","","","","","","","","","","","","","","","","","",""
"","do_bye","316","1256479","0.0-168.0-0.0","null","","","","","","","","null","","","","","","","","","","","","","","","","",""
"","break","317","1260277","0.0-168.0-1.0","3795.900000035763","<div class='center'><p>Time to take a quick break! You have 2 minutes to rest, but you can move on sooner if you'd like.</p><p> Press the <b>space bar</b> to continue.</p></div>","32","","","","","","","","","","","","","","","","","","","","","","",""
"","do_travel","318","1269283","0.0-169.0-0.0","null","","","","","","","","null","","","","","","","","","","","","","","","","",""
"","do_welcome","319","1273303","0.0-169.0-1.0","null","","","","","","","","null","","","","","","","","","","","","","","","","",""
"","do_trial","320","1279109","0.0-170.0-0.0","1212.199999988079","","","","","","","","49","0,0,1","3","mountain","110","probe-52","0.46662951534425995","0.2702103905992933","1","0","","","","","","","",""
"","html-keyboard-response","321","1280125","0.0-170.0-1.0","null","<p></p>","null","","","","","","","","","","","","","","","","","","","","","","",""
"","do_trial","322","1285036","0.0-171.0-0.0","340.30000001192093","","","","","","","","50","0,0,1","3","mountain","111","probe-66","0.3214982051373953","0.2289692389324065","1","0","","","","","","","",""
"","html-keyboard-response","323","1286052","0.0-171.0-1.0","null","<p></p>","null","","","","","","","","","","","","","","","","","","","","","","",""
"","do_trial","324","1291632","0.0-172.0-0.0","1023.8999999761581","","","","","","","","51","1,0,1","3","mountain","112","probe-168","0.22914739996524774","0.11525693232134404","0.8083821833988937","1","","","","","","","",""
"","html-keyboard-response","325","1292639","0.0-172.0-1.0","null","<p></p>","null","","","","","","","","","","","","","","","","","","","","","","",""
"","do_trial","326","1297680","0.0-173.0-0.0","475.30000001192093","","","","","","","","51","1,0,1","3","mountain","113","probe-170","0.3319492763947208","0.09207465418063196","0.7411517742209474","1","","","","","","","",""
"","html-keyboard-response","327","1298684","0.0-173.0-1.0","null","<p></p>","null","","","","","","","","","","","","","","","","","","","","","","",""
"","do_trial","328","1303828","0.0-174.0-0.0","593.2000000476837","","","","","","","","51","0,0,1","3","mountain","114","probe-46","0.30236024209866363","0.07978068911815445","0.674504255863267","1","","","","","","","",""
"","html-keyboard-response","329","1304832","0.0-174.0-1.0","null","<p></p>","null","","","","","","","","","","","","","","","","","","","","","","",""
"","do_trial","330","1309911","0.0-175.0-0.0","497.30000001192093","","","","","","","","51","0,0,1","3","mountain","115","probe-150","0.16841289662508666","0.059182803929521854","0.7026159704643553","1","","","","","","","",""
"","html-keyboard-response","331","1310918","0.0-175.0-1.0","null","<p></p>","null","","","","","","","","","","","","","","","","","","","","","","",""
"","do_trial","332","1316301","0.0-176.0-0.0","811","","","","","","","","51","0,0,0","3","mountain","116","probe-22","0.23040934259238857","0.08471815711239308","0.5482719023037109","0","","","","","","","",""
"","html-keyboard-response","333","1317307","0.0-176.0-1.0","null","<p></p>","null","","","","","","","","","","","","","","","","","","","","","","",""
"","do_trial","334","1322609","0.0-177.0-0.0","712.6999999880791","","","","","","","","51","0,0,0","3","mountain","117","probe-120","0.3843627230566228","0.14723640097322252","0.4863807361580274","0","","","","","","","",""
"","html-keyboard-response","335","1323614","0.0-177.0-1.0","null","<p></p>","null","","","","","","","","","","","","","","","","","","","","","","",""
"","do_trial","336","1329231","0.0-178.0-0.0","1022.6999999880791","","","","","","","","51","1,0,0","3","mountain","118","probe-178","0.40949373393134403","0.09742404713973885","0.38373231631649335","0","","","","","","","",""
"","html-keyboard-response","337","1330240","0.0-178.0-1.0","null","<p></p>","null","","","","","","","","","","","","","","","","","","","","","","",""
"","do_trial","338","1335154","0.0-179.0-0.0","322.4000000357628","","","","","","","","50","1,0,0","3","mountain","119","probe-223","0.3753882962444748","0.08481897369446136","0.5596231153821905","0","","","","","","","",""
"","html-keyboard-response","339","1336169","0.0-179.0-1.0","null","<p></p>","null","","","","","","","","","","","","","","","","","","","","","","",""
"","do_trial","340","1341136","0.0-180.0-0.0","397.5","","","","","","","","49","1,0,1","3","mountain","120","probe-104","0.2586084902551685","0.17644586188694958","0.5475661212825926","1","","","","","","","",""
"","html-keyboard-response","341","1342140","0.0-180.0-1.0","null","<p></p>","null","","","","","","","","","","","","","","","","","","","","","","",""
"","do_trial","342","1347088","0.0-181.0-0.0","352.4000000357628","","","","","","","","49","0,0,0","3","mountain","121","probe-12","0.3486878319713935","0.2046489372894053","0.37938076814280564","0","","","","","","","",""
"","html-keyboard-response","343","1348095","0.0-181.0-1.0","null","<p></p>","null","","","","","","","","","","","","","","","","","","","","","","",""
"","do_trial","344","1353286","0.0-182.0-0.0","606","","","","","","","","50","1,0,0","3","mountain","122","probe-92","0.42366082779748526","0.17597761600611087","0.2770044636768072","0","","","","","","","",""
"","html-keyboard-response","345","1354293","0.0-182.0-1.0","null","<p></p>","null","","","","","","","","","","","","","","","","","","","","","","",""
"","do_trial","346","1359882","0.0-183.0-0.0","1001.0999999642372","","","","","","","","51","1,0,0","3","mountain","123","probe-60","0.559958964874972","0.1295459766554337","0.19891841359899562","0","","","","","","","",""
"","html-keyboard-response","347","1360887","0.0-183.0-1.0","null","<p></p>","null","","","","","","","","","","","","","","","","","","","","","","",""
"","do_trial","348","1366314","0.0-184.0-0.0","820.0999999642372","","","","","","","","51","1,0,0","3","mountain","124","probe-194","0.5845816308949562","0.2161580406588441","0.23633305878110655","0","","","","","","","",""
"","html-keyboard-response","349","1367320","0.0-184.0-1.0","null","<p></p>","null","","","","","","","","","","","","","","","","","","","","","","",""
"","do_trial","350","1372840","0.0-185.0-0.0","934.9000000357628","","","","","","","","49","1,0,0","3","mountain","125","probe-222","0.5870119839831569","0.31234003717730374","0.1371364837131007","1","","","","","","","",""
"","html-keyboard-response","351","1373845","0.0-185.0-1.0","null","<p></p>","null","","","","","","","","","","","","","","","","","","","","","","",""
"","do_trial","352","1379113","0.0-186.0-0.0","718.3999999761581","","","","","","","","49","1,0,0","3","mountain","126","probe-56","0.646836496553982","0.4297903532646025","0.09232351824695563","1","","","","","","","",""
"","html-keyboard-response","353","1380127","0.0-186.0-1.0","null","<p></p>","null","","","","","","","","","","","","","","","","","","","","","","",""
"","do_trial","354","1385788","0.0-187.0-0.0","1048.199999988079","","","","","","","","49","1,0,0","3","mountain","127","probe-229","0.646704712573555","0.29970157394003394","0.1595209135017316","1","","","","","","","",""
"","html-keyboard-response","355","1386792","0.0-187.0-1.0","null","<p></p>","null","","","","","","","","","","","","","","","","","","","","","","",""
"","do_trial","356","1391771","0.0-188.0-0.0","386","","","","","","","","49","0,0,0","3","mountain","128","probe-227","0.5545064906111387","0.29404894483773886","0.1208342308831578","0","","","","","","","",""
"","html-keyboard-response","357","1392779","0.0-188.0-1.0","null","<p></p>","null","","","","","","","","","","","","","","","","","","","","","","",""
"","do_trial","358","1398135","0.0-189.0-0.0","780.3999999761581","","","","","","","","49","0,0,0","3","mountain","129","probe-155","0.5858617908484556","0.42978441837444936","0.19945367683102255","0","","","","","","","",""
"","html-keyboard-response","359","1399138","0.0-189.0-1.0","null","<p></p>","null","","","","","","","","","","","","","","","","","","","","","","",""
"","do_trial","360","1403966","0.0-190.0-0.0","202.4000000357628","","","","","","","","50","1,1,0","3","mountain","130","probe-48","0.6653954078277553","0.4128150751480235","0.15566048486691175","1","","","","","","","",""
"","html-keyboard-response","361","1404971","0.0-190.0-1.0","null","<p></p>","null","","","","","","","","","","","","","","","","","","","","","","",""
"","do_trial","362","1410165","0.0-191.0-0.0","577.8999999761581","","","","","","","","50","1,0,0","3","mountain","131","probe-49","0.6469236506132433","0.4019243713083827","0.19033493383300637","0","","","","","","","",""
"","html-keyboard-response","363","1411179","0.0-191.0-1.0","null","<p></p>","null","","","","","","","","","","","","","","","","","","","","","","",""
"","do_trial","364","1416892","0.0-192.0-0.0","1168.5","","","","","","","","51","0,0,0","3","mountain","132","probe-105","0.8123218142996504","0.25037604636083527","0.20762318099633334","0","","","","","","","",""
"","html-keyboard-response","365","1417895","0.0-192.0-1.0","null","<p></p>","null","","","","","","","","","","","","","","","","","","","","","","",""
"","do_trial","366","1423472","0.0-193.0-0.0","1023.1999999880791","","","","","","","","50","1,0,0","3","mountain","133","probe-106","0.7191545956959893","0.3191863820074651","0.07046735235316953","0","","","","","","","",""
"","html-keyboard-response","367","1424480","0.0-193.0-1.0","null","<p></p>","null","","","","","","","","","","","","","","","","","","","","","","",""
"","do_trial","368","1430033","0.0-194.0-0.0","957.4000000357628","","","","","","","","51","0,0,0","3","mountain","134","probe-100","0.628045949808559","0.3788531970110034","0.06300133819716576","0","","","","","","","",""
"","html-keyboard-response","369","1431037","0.0-194.0-1.0","null","<p></p>","null","","","","","","","","","","","","","","","","","","","","","","",""
"","do_trial","370","1436001","0.0-195.0-0.0","402","","","","","","","","49","1,1,0","3","mountain","135","probe-21","0.8642988632336889","0.34587629047237806","0.10177133023115306","1","","","","","","","",""
"","html-keyboard-response","371","1437005","0.0-195.0-1.0","null","<p></p>","null","","","","","","","","","","","","","","","","","","","","","","",""
"","do_trial","372","1442013","0.0-196.0-0.0","390.0999999642372","","","","","","","","49","1,1,0","3","mountain","136","probe-184","0.8313533712250686","0.3355340576208243","0.06642781795582843","1","","","","","","","",""
"","html-keyboard-response","373","1443017","0.0-196.0-1.0","null","<p></p>","null","","","","","","","","","","","","","","","","","","","","","","",""
"","do_trial","374","1449169","0.0-197.0-0.0","1587.1000000238419","","","","","","","","49","1,1,0","3","mountain","137","probe-218","0.771115524913943","0.4255766310578506","0.09783383842456835","1","","","","","","","",""
"","html-keyboard-response","375","1450175","0.0-197.0-1.0","null","<p></p>","null","","","","","","","","","","","","","","","","","","","","","","",""
"","do_trial","376","1455186","0.0-198.0-0.0","394.10000002384186","","","","","","","","49","1,0,1","3","mountain","138","probe-217","0.7762928248333398","0.362294810040007","0.2527269054846019","1","","","","","","","",""
"","html-keyboard-response","377","1456189","0.0-198.0-1.0","null","<p></p>","null","","","","","","","","","","","","","","","","","","","","","","",""
"","do_trial","378","1461517","0.0-199.0-0.0","719.8000000119209","","","","","","","","49","1,0,1","3","mountain","139","probe-138","0.6598152753564999","0.26425844220319944","0.2058717976245456","1","","","","","","","",""
"","html-keyboard-response","379","1462521","0.0-199.0-1.0","null","<p></p>","null","","","","","","","","","","","","","","","","","","","","","","",""
"","do_trial","380","1467637","0.0-200.0-0.0","529.8000000119209","","","","","","","","49","1,0,0","3","mountain","140","probe-211","0.5303851935487552","0.2288205926214589","0.16096407502784235","1","","","","","","","",""
"","html-keyboard-response","381","1468643","0.0-200.0-1.0","null","<p></p>","null","","","","","","","","","","","","","","","","","","","","","","",""
"","do_trial","382","1473857","0.0-201.0-0.0","618.4000000357628","","","","","","","","49","1,0,0","3","mountain","141","probe-187","0.43093454048755236","0.1764836843849939","0.16678204051097362","1","","","","","","","",""
"","html-keyboard-response","383","1474861","0.0-201.0-1.0","null","<p></p>","null","","","","","","","","","","","","","","","","","","","","","","",""
"","do_trial","384","1479942","0.0-202.0-0.0","527.8999999761581","","","","","","","","49","1,0,0","3","mountain","142","probe-134","0.5616962481143813","0.22599799651515606","0.10081455985917223","1","","","","","","","",""
"","html-keyboard-response","385","1480956","0.0-202.0-1.0","null","<p></p>","null","","","","","","","","","","","","","","","","","","","","","","",""
"","do_trial","386","1486185","0.0-203.0-0.0","632.5","","","","","","","","49","1,0,0","3","mountain","143","probe-146","0.5624077592942842","0.3078983350669468","0.09911774637448348","1","","","","","","","",""
"","html-keyboard-response","387","1487191","0.0-203.0-1.0","null","<p></p>","null","","","","","","","","","","","","","","","","","","","","","","",""
"","do_trial","388","1492401","0.0-204.0-0.0","610.5999999642372","","","","","","","","49","0,1,0","3","mountain","144","probe-93","0.6470497810576611","0.43000167116217436","0.08447199738883152","0","","","","","","","",""
"","html-keyboard-response","389","1493407","0.0-204.0-1.0","null","<p></p>","null","","","","","","","","","","","","","","","","","","","","","","",""
"","do_trial","390","1498469","0.0-205.0-0.0","482","","","","","","","","49","0,0,0","3","mountain","145","probe-148","0.675689580393301","0.30053692005646127","0.08331496781231","0","","","","","","","",""
"","html-keyboard-response","391","1499473","0.0-205.0-1.0","null","<p></p>","null","","","","","","","","","","","","","","","","","","","","","","",""
"","do_trial","392","1504713","0.0-206.0-0.0","653.1000000238419","","","","","","","","50","1,0,0","3","mountain","146","probe-195","0.663218977877694","0.1664271440648586","0.09387358935901816","0","","","","","","","",""
"","html-keyboard-response","393","1505721","0.0-206.0-1.0","null","<p></p>","null","","","","","","","","","","","","","","","","","","","","","","",""
"","do_trial","394","1510966","0.0-207.0-0.0","647.1999999880791","","","","","","","","51","0,0,0","3","mountain","147","probe-11","0.6215700763319353","0.1648381455781879","0.08251314174503048","0","","","","","","","",""
"","html-keyboard-response","395","1511972","0.0-207.0-1.0","null","<p></p>","null","","","","","","","","","","","","","","","","","","","","","","",""
"","do_trial","396","1517176","0.0-208.0-0.0","619.3000000119209","","","","","","","","49","0,1,0","3","mountain","148","probe-129","0.7071939771827235","0.2819413434977458","0.07026323487395718","0","","","","","","","",""
"","html-keyboard-response","397","1518182","0.0-208.0-1.0","null","<p></p>","null","","","","","","","","","","","","","","","","","","","","","","",""
"","do_trial","398","1523384","0.0-209.0-0.0","592.8999999761581","","","","","","","","49","0,1,0","3","mountain","149","probe-83","0.6020066951522276","0.25046364153008055","0.10582786859793274","0","","","","","","","",""
"","html-keyboard-response","399","1524388","0.0-209.0-1.0","null","<p></p>","null","","","","","","","","","","","","","","","","","","","","","","",""
"","do_bye","400","1525913","0.0-210.0-0.0","null","","","","","","","","null","","","","","","","","","","","","","","","","",""
"","break","401","1538187","0.0-210.0-1.0","12271.800000011921","<div class='center'><p>Time to take a quick break! You have 2 minutes to rest, but you can move on sooner if you'd like.</p><p> Press the <b>space bar</b> to continue.</p></div>","32","","","","","","","","","","","","","","","","","","","","","","",""
"","do_travel","402","1547195","0.0-211.0-0.0","null","","","","","","","","null","","","","","","","","","","","","","","","","",""
"","do_welcome","403","1551222","0.0-211.0-1.0","null","","","","","","","","null","","","","","","","","","","","","","","","","",""
"","do_trial","404","1556533","0.0-212.0-0.0","711","","","","","","","","49","1,0,0","4","coast","150","probe-216","1","0.36518111524807395","0.1138623525796017","1","","","","","","","",""
"","html-keyboard-response","405","1557536","0.0-212.0-1.0","null","<p></p>","null","","","","","","","","","","","","","","","","","","","","","","",""
"","do_trial","406","1562592","0.0-213.0-0.0","464.2999999523163","","","","","","","","50","1,0,0","4","coast","151","probe-159","1","0.22928317032748652","0.11165064787186353","0","","","","","","","",""
"","html-keyboard-response","407","1563599","0.0-213.0-1.0","null","<p></p>","null","","","","","","","","","","","","","","","","","","","","","","",""
"","do_trial","408","1568657","0.0-214.0-0.0","437.5999999642372","","","","","","","","51","1,0,0","4","coast","152","probe-55","0.9107700882392064","0.1308595658302602","0.09864756240563613","0","","","","","","","",""
"","html-keyboard-response","409","1569663","0.0-214.0-1.0","null","<p></p>","null","","","","","","","","","","","","","","","","","","","","","","",""
"","do_trial","410","1575180","0.0-215.0-0.0","910.6000000238419","","","","","","","","49","1,0,0","4","coast","153","probe-116","0.742227727376681","0.16309114078193165","0.10181921173335315","1","","","","","","","",""
"","html-keyboard-response","411","1576188","0.0-215.0-1.0","null","<p></p>","null","","","","","","","","","","","","","","","","","","","","","","",""
"","do_trial","412","1581627","0.0-216.0-0.0","873.1000000238419","","","","","","","","49","0,0,1","4","coast","154","probe-38","0.8735539731120336","0.34150817753018603","0.1628874262452919","0","","","","","","","",""
"","html-keyboard-response","413","1582631","0.0-216.0-1.0","null","<p></p>","null","","","","","","","","","","","","","","","","","","","","","","",""
"","do_trial","414","1589052","0.0-217.0-0.0","1808","","","","","","","","49","0,0,0","4","coast","155","probe-167","0.8250514643728002","0.2355832751218236","0.07703360458470598","0","","","","","","","",""
"","html-keyboard-response","415","1590071","0.0-217.0-1.0","null","<p></p>","null","","","","","","","","","","","","","","","","","","","","","","",""
"","do_trial","416","1595326","0.0-218.0-0.0","653.3999999761581","","","","","","","","49","1,0,0","4","coast","156","probe-13","0.7443508650790354","0.39373889877158375","0.14462026657282379","1","","","","","","","",""
"","html-keyboard-response","417","1596332","0.0-218.0-1.0","null","<p></p>","null","","","","","","","","","","","","","","","","","","","","","","",""
"","do_trial","418","1601906","0.0-219.0-0.0","970.6999999880791","","","","","","","","49","1,0,0","4","coast","157","probe-200","0.5420494024410133","0.31442879624398934","0.13276521582691858","1","","","","","","","",""
"","html-keyboard-response","419","1602923","0.0-219.0-1.0","null","<p></p>","null","","","","","","","","","","","","","","","","","","","","","","",""
"","do_trial","420","1608174","0.0-220.0-0.0","688.5","","","","","","","","49","0,0,0","4","coast","158","probe-24","0.6406544641047579","0.26016723318346324","0.22480893287902906","0","","","","","","","",""
"","html-keyboard-response","421","1609190","0.0-220.0-1.0","null","<p></p>","null","","","","","","","","","","","","","","","","","","","","","","",""
"","do_trial","422","1614868","0.0-221.0-0.0","1074.300000011921","","","","","","","","49","0,1,1","4","coast","159","probe-23","0.5697347204807227","0.42008928621910924","0.28443351911099135","0","","","","","","","",""
"","html-keyboard-response","423","1615871","0.0-221.0-1.0","null","<p></p>","null","","","","","","","","","","","","","","","","","","","","","","",""
"","do_trial","424","1621201","0.0-222.0-0.0","757.2000000476837","","","","","","","","49","0,0,1","4","coast","160","probe-204","0.536093111919632","0.5828594538219186","0.4400676161337387","0","","","","","","","",""
"","html-keyboard-response","425","1622209","0.0-222.0-1.0","null","<p></p>","null","","","","","","","","","","","","","","","","","","","","","","",""
"","do_trial","426","1627196","0.0-223.0-0.0","393.89999997615814","","","","","","","","50","0,0,0","4","coast","161","probe-192","0.37908123396857335","0.6460545578179268","0.48406819331134626","0","","","","","","","",""
"","html-keyboard-response","427","1628200","0.0-223.0-1.0","null","<p></p>","null","","","","","","","","","","","","","","","","","","","","","","",""
"","do_trial","428","1634277","0.0-224.0-0.0","null","","","","","","","","null","0,1,1","4","coast","162","probe-132","0.2176313719745965","0.6176268630535676","0.3286273030460219","","","","","","","","",""
"","html-keyboard-response","429","1635283","0.0-224.0-1.0","null","<p></p>","null","","","","","","","","","","","","","","","","","","","","","","",""
"","do_trial","430","1640494","0.0-225.0-0.0","595.8999999761581","","","","","","","","51","0,0,1","4","coast","163","probe-82","0.20972876244729421","0.4496994315719971","0.268900470474132","1","","","","","","","",""
"","html-keyboard-response","431","1641501","0.0-225.0-1.0","null","<p></p>","null","","","","","","","","","","","","","","","","","","","","","","",""
"","do_trial","432","1646616","0.0-226.0-0.0","559.6999999880791","","","","","","","","51","0,1,0","4","coast","164","probe-164","0.2746675493262977","0.4676045834173583","0.15866436436270434","0","","","","","","","",""
"","html-keyboard-response","433","1647622","0.0-226.0-1.0","null","<p></p>","null","","","","","","","","","","","","","","","","","","","","","","",""
"","do_trial","434","1653690","0.0-227.0-0.0","1493.5","","","","","","","","50","0,0,0","4","coast","165","probe-174","0.28225764319003754","0.40852054141440347","0.20696096353856977","0","","","","","","","",""
"","html-keyboard-response","435","1654694","0.0-227.0-1.0","null","<p></p>","null","","","","","","","","","","","","","","","","","","","","","","",""
"","do_trial","436","1659987","0.0-228.0-0.0","717.5","","","","","","","","49","0,1,1","4","coast","166","probe-163","0.3557358368960212","0.5188681748401538","0.058111526049337704","0","","","","","","","",""
"","html-keyboard-response","437","1660992","0.0-228.0-1.0","null","<p></p>","null","","","","","","","","","","","","","","","","","","","","","","",""
"","do_trial","438","1666273","0.0-229.0-0.0","719.0999999642372","","","","","","","","51","0,1,0","4","coast","167","probe-81","0.36585803208212925","0.5170297769121243","0.09334630564450729","0","","","","","","","",""
"","html-keyboard-response","439","1667275","0.0-229.0-1.0","null","<p></p>","null","","","","","","","","","","","","","","","","","","","","","","",""
"","do_trial","440","1673748","0.0-230.0-0.0","1908.800000011921","","","","","","","","50","1,0,0","4","coast","168","probe-97","0.31810547347743046","0.6605925436497658","0.057831073817400366","0","","","","","","","",""
"","html-keyboard-response","441","1674754","0.0-230.0-1.0","null","<p></p>","null","","","","","","","","","","","","","","","","","","","","","","",""
"","do_trial","442","1680297","0.0-231.0-0.0","929.2999999523163","","","","","","","","51","0,0,0","4","coast","169","probe-25","0.2859247756824972","0.6578119629492308","0.09613404804048159","0","","","","","","","",""
"","html-keyboard-response","443","1681300","0.0-231.0-1.0","null","<p></p>","null","","","","","","","","","","","","","","","","","","","","","","",""
"","do_trial","444","1688398","0.0-232.0-0.0","2473.699999988079","","","","","","","","51","0,1,0","4","coast","170","probe-162","0.3607414364904999","0.7171555120467775","0.1114104924085187","0","","","","","","","",""
"","html-keyboard-response","445","1689402","0.0-232.0-1.0","null","<p></p>","null","","","","","","","","","","","","","","","","","","","","","","",""
"","do_trial","446","1695532","0.0-233.0-0.0","null","","","","","","","","null","0,1,0","4","coast","171","probe-190","0.18751857068395303","0.48928448761866833","0.09492053084425459","","","","","","","","",""
"","html-keyboard-response","447","1696535","0.0-233.0-1.0","null","<p></p>","null","","","","","","","","","","","","","","","","","","","","","","",""
"","do_trial","448","1701602","0.0-234.0-0.0","490.0999999642372","","","","","","","","50","0,1,0","4","coast","172","probe-176","0.2956710627369134","0.7024293108431566","0.11348082734011973","1","","","","","","","",""
"","html-keyboard-response","449","1702611","0.0-234.0-1.0","null","<p></p>","null","","","","","","","","","","","","","","","","","","","","","","",""
"","do_trial","450","1708045","0.0-235.0-0.0","847.5","","","","","","","","50","0,0,0","4","coast","173","probe-109","0.2905491692410526","0.6003201634086187","0.08908225212879664","0","","","","","","","",""
"","html-keyboard-response","451","1709050","0.0-235.0-1.0","null","<p></p>","null","","","","","","","","","","","","","","","","","","","","","","",""
"","do_trial","452","1714043","0.0-236.0-0.0","435.5","","","","","","","","49","1,1,0","4","coast","174","probe-179","0.27342634905083985","0.5579171811750904","0.06102616785354971","1","","","","","","","",""
"","html-keyboard-response","453","1715049","0.0-236.0-1.0","null","<p></p>","null","","","","","","","","","","","","","","","","","","","","","","",""
"","do_trial","454","1720167","0.0-237.0-0.0","551.8999999761581","","","","","","","","49","0,1,0","4","coast","175","probe-122","0.40318904631399755","0.5307481586192238","0.11738820566179697","0","","","","","","","",""
"","html-keyboard-response","455","1721176","0.0-237.0-1.0","null","<p></p>","null","","","","","","","","","","","","","","","","","","","","","","",""
"","do_trial","456","1726317","0.0-238.0-0.0","555.5","","","","","","","","49","1,0,0","4","coast","176","probe-108","0.3800422959507223","0.5719056204521117","0.11638721285164297","1","","","","","","","",""
"","html-keyboard-response","457","1727321","0.0-238.0-1.0","null","<p></p>","null","","","","","","","","","","","","","","","","","","","","","","",""
"","do_trial","458","1732853","0.0-239.0-0.0","982.1000000238419","","","","","","","","49","0,0,0","4","coast","177","probe-06","0.2807607781070524","0.6127671713750519","0.09020690816528908","0","","","","","","","",""
"","html-keyboard-response","459","1733858","0.0-239.0-1.0","null","<p></p>","null","","","","","","","","","","","","","","","","","","","","","","",""
"","do_trial","460","1739077","0.0-240.0-0.0","639.8999999761581","","","","","","","","49","0,1,0","4","coast","178","probe-53","0.3980447904437142","0.768297027804338","0.16746702279971967","0","","","","","","","",""
"","html-keyboard-response","461","1740086","0.0-240.0-1.0","null","<p></p>","null","","","","","","","","","","","","","","","","","","","","","","",""
"","do_trial","462","1745718","0.0-241.0-0.0","1054.1000000238419","","","","","","","","49","1,1,0","4","coast","179","probe-224","0.2618781297714577","0.6503110565638734","0.10318714663204158","1","","","","","","","",""
"","html-keyboard-response","463","1746723","0.0-241.0-1.0","null","<p></p>","null","","","","","","","","","","","","","","","","","","","","","","",""
"","do_trial","464","1751970","0.0-242.0-0.0","635.8000000119209","","","","","","","","49","0,0,0","4","coast","180","probe-214","0.18169768487853127","0.5783610536364617","0.06190710073616261","0","","","","","","","",""
"","html-keyboard-response","465","1752976","0.0-242.0-1.0","null","<p></p>","null","","","","","","","","","","","","","","","","","","","","","","",""
"","do_trial","466","1758209","0.0-243.0-0.0","650.4000000357628","","","","","","","","49","0,1,0","4","coast","181","probe-143","0.07388044792451309","0.6809401802975364","0.0569822916363672","0","","","","","","","",""
"","html-keyboard-response","467","1759212","0.0-243.0-1.0","null","<p></p>","null","","","","","","","","","","","","","","","","","","","","","","",""
"","do_trial","468","1764232","0.0-244.0-0.0","459.39999997615814","","","","","","","","49","0,0,0","4","coast","182","probe-35","0.19104108105296225","0.6389053116756032","0.1540242543591051","0","","","","","","","",""
"","html-keyboard-response","469","1765237","0.0-244.0-1.0","null","<p></p>","null","","","","","","","","","","","","","","","","","","","","","","",""
"","do_trial","470","1770594","0.0-245.0-0.0","745.2000000476837","","","","","","","","49","1,1,0","4","coast","183","probe-103","0.1548668809992544","0.6695611513174465","0.11893484223172526","1","","","","","","","",""
"","html-keyboard-response","471","1771597","0.0-245.0-1.0","null","<p></p>","null","","","","","","","","","","","","","","","","","","","","","","",""
"","do_trial","472","1776828","0.0-246.0-0.0","635.6999999880791","","","","","","","","49","0,0,1","4","coast","184","probe-47","0.16702476198617142","0.6282391387561839","0.25224503559799566","0","","","","","","","",""
