"success","trial_type","trial_index","time_elapsed","internal_node_id","interactions","blur_events","focus_events","fullscreenenter_events","fullscreenexit_events","rt","stimulus","key_press","subject_id","participant_id","age","gender","prompt","response","choice_outcomes","context_n","context_img_id","trial_n","probe_img_id","pR_red","pR_white","pR_black","outcome","contextArray_ind","validImageProbes","invalidImageProbes","pRew_Red","pRew_White","pRew_Black","availableForMemProbe","choice_blocks"
"true","fullscreen","0","2996","0.0-0.0","""event"",""trial"",""time""
""fullscreenenter"",""0"",""2013""
","
","
","""event"",""trial"",""time""
""fullscreenenter"",""0"",""2013""
","
","","","","","","","","","","","","","","","","","","","","","","","","","",""
"","pavlovia","1","3005","0.0-1.0","""event"",""trial"",""time""
""fullscreenenter"",""0"",""2013""
","
","
","""event"",""trial"",""time""
""fullscreenenter"",""0"",""2013""
","
","","","","","","","","","","","","","","","","","","","","","","","","","",""
"","instruc1","2","48111","0.0-2.0","""event"",""trial"",""time""
""fullscreenenter"",""0"",""2013""
","
","
","""event"",""trial"",""time""
""fullscreenenter"",""0"",""2013""
","
","null","run_exp/static/audio/clip_1_welcome.m4a","null","273","189","14","Male","<div class='center'><p>Welcome! This is the first part of the study. It will last ~30 minutes. In part 1 and part 2 of the study, you are the head captain of a pirate ship traveling around the world to different islands. You will play a few different games throughout these two parts. Here is an overview of them:</p><br><p>Part 1 (today)</p><p>1. Instructions, practice game, and quiz</p><p>2. Pick a pirate game on 6 different islands</p><br><p>Part 2 (tomorrow)</p><p>3. Pick a pirate game and memory game</p><p>4. Where did you see this ship? </p></div>","","","","","","","","","","","","","","","","","",""
"","html-keyboard-response","3","48288","0.0-3.0","""event"",""trial"",""time""
""fullscreenenter"",""0"",""2013""
","
","
","""event"",""trial"",""time""
""fullscreenenter"",""0"",""2013""
","
","174.29999999981374","<div class='center'><p>Welcome! This is the first part of the study. It will last ~30 minutes. In part 1 and part 2 of the study, you are the head captain of a pirate ship traveling around the world to different islands. You will play a few different games throughout these two parts. Here is an overview of them:</p><br><p>Part 1 (today)</p><p>1. Instructions, practice game, and quiz</p><p>2. Pick a pirate game on 6 different islands</p><br><p>Part 2 (tomorrow)</p><p>3. Pick a pirate game and memory game</p><p>4. Where did you see this ship? </p><p><b>[Press the space bar to continue]</b></p></div>","32","","","","","","","","","","","","","","","","","","","","","","",""
"","instruc2","4","53866","0.0-4.0","""event"",""trial"",""time""
""fullscreenenter"",""0"",""2013""
","
","
","""event"",""trial"",""time""
""fullscreenenter"",""0"",""2013""
","
","null","run_exp/static/audio/clip_2_different_places.m4a","null","","","","","<div class='center'><p>Today, you’ll visit these 6 islands on your journey. You'll be able to see these islands from your ship.</p><p><img src='run_exp/static/images/contexts/all_contexts.png' height='500'></p></div>","","","","","","","","","","","","","","","","","",""
"","html-keyboard-response","5","57730","0.0-5.0","""event"",""trial"",""time""
""fullscreenenter"",""0"",""2013""
","
","
","""event"",""trial"",""time""
""fullscreenenter"",""0"",""2013""
","
","3860","<div class='center'><p>Today, you’ll visit these 6 islands on your journey. You'll be able to see these islands from your ship.</p><p><img src='run_exp/static/images/contexts/all_contexts.png' height='500'></p><p><b>[Press the space bar to continue]</b></p></div>","32","","","","","","","","","","","","","","","","","","","","","","",""
"","instruc3","6","67699","0.0-6.0","""event"",""trial"",""time""
""fullscreenenter"",""0"",""2013""
","
","
","""event"",""trial"",""time""
""fullscreenenter"",""0"",""2013""
","
","null","run_exp/static/audio/clip_3_goal_of_game_1.m4a","null","","","","","<div class='center'><p> The pirates on your ship will rob other ships as they leave the island.</p> These ships have just sold their goods to the islanders, so they will be filled with lots and lots of gold.</p><p><img src='run_exp/static/images/tutorial/ship_center.png' height='400'></p></div>","","","","","","","","","","","","","","","","","",""
"","html-keyboard-response","7","68492","0.0-7.0","""event"",""trial"",""time""
""fullscreenenter"",""0"",""2013""
","
","
","""event"",""trial"",""time""
""fullscreenenter"",""0"",""2013""
","
","788.5999999996275","<div class='center'><p> The pirates on your ship will rob other ships as they leave the island.</p> These ships have just sold their goods to the islanders, so they will be filled with lots and lots of gold.</p><p><img src='run_exp/static/images/tutorial/ship_center.png' height='400'></p><p><b>[Press the space bar to continue]</b></p></div>","32","","","","","","","","","","","","","","","","","","","","","","",""
"","instruc4","8","96754","0.0-8.0","""event"",""trial"",""time""
""fullscreenenter"",""0"",""2013""
","
","
","""event"",""trial"",""time""
""fullscreenenter"",""0"",""2013""
","
","null","run_exp/static/audio/clip_4_goal_of_game_2.m4a","null","","","","","<div class='center'><p>As the head captain, you do not have to rob any ships yourself. Another pirate will be doing the robbing for you. First, you will choose a pirate to rob the next ship.</p><p><img src='run_exp/static/images/tutorial/pirates_all_crop.png' height='200'></p><p>Then, you'll see if the pirate successfully robbed the ship of their gold. If they were successful, then you'll get a stack of gold coins like this:</p><p><img src='run_exp/static/images/tutorial/reward.png' height='150'></p><p> If they were <b>not</b> successful, then you'll get no gold coins, and you'll see a big red x like this: </p><p><img src='run_exp/static/images/tutorial/reward_no.png' height='150'></p><p> How much bonus money you make is based on how many gold coins you collect.</p><div>","","","","","","","","","","","","","","","","","",""
"","html-keyboard-response","9","99210","0.0-9.0","""event"",""trial"",""time""
""fullscreenenter"",""0"",""2013""
","
","
","""event"",""trial"",""time""
""fullscreenenter"",""0"",""2013""
","
","2450.7000000001863","<div class='center'><p>As the head captain, you do not have to rob any ships yourself. Another pirate will be doing the robbing for you. First, you will choose a pirate to rob the next ship.</p><p><img src='run_exp/static/images/tutorial/pirates_all_crop.png' height='200'></p><p>Then, you'll see if the pirate successfully robbed the ship of their gold. If they were successful, then you'll get a stack of gold coins like this:</p><p><img src='run_exp/static/images/tutorial/reward.png' height='150'></p><p> If they were <b>not</b> successful, then you'll get no gold coins, and you'll see a big red x like this: </p><p><img src='run_exp/static/images/tutorial/reward_no.png' height='150'></p><p> How much bonus money you make is based on how many gold coins you collect.</p<p><b>[Press the space bar to continue]</b></p></div>","32","","","","","","","","","","","","","","","","","","","","","","",""
"","instruc5","10","119531","0.0-10.0","""event"",""trial"",""time""
""fullscreenenter"",""0"",""2013""
","
","
","""event"",""trial"",""time""
""fullscreenenter"",""0"",""2013""
","
","20316.60000000056","run_exp/static/audio/clip_5_probabilistic.m4a","49","","","","","<div class='center'><p>Even the most skilled pirate can not rob EVERY ship.</p><p> Some ships will have very strong protections against pirate attacks.</p><p> Blue beard, here, is very, very good at robbing ships, but he won't be successful every time he tries to rob one.</p><p> You can press the <b>‘1’</b> key on the keyboard to choose him.</p><p> Try choosing him 10 times to see how often he succeeds at robbing a ship. </p><p><img src='run_exp/static/images/tutorial/blue.png' height='500'></p></div>","","","","","","","","","","","","","","","","","",""
"","html-keyboard-response","11","121034","0.0-11.0","""event"",""trial"",""time""
""fullscreenenter"",""0"",""2013""
","
","
","""event"",""trial"",""time""
""fullscreenenter"",""0"",""2013""
","
","null","<div class='center'><p><img src='run_exp/static/images/tutorial/blue_win.png' height='500'></p></div>","null","","","","","","","","","","","","","","","","","","","","","","",""
"","html-keyboard-response","12","122423","0.0-12.0","""event"",""trial"",""time""
""fullscreenenter"",""0"",""2013""
","
","
","""event"",""trial"",""time""
""fullscreenenter"",""0"",""2013""
","
","1383.9000000003725","<div class='center'><img src='run_exp/static/images/tutorial/blue.png' height='500'></p></div>","49","","","","","","","","","","","","","","","","","","","","","","",""
"","html-keyboard-response","13","123926","0.0-13.0","""event"",""trial"",""time""
""fullscreenenter"",""0"",""2013""
","
","
","""event"",""trial"",""time""
""fullscreenenter"",""0"",""2013""
","
","null","<div class='center'><p><img src='run_exp/static/images/tutorial/blue_win.png' height='500'></p></div>","null","","","","","","","","","","","","","","","","","","","","","","",""
"","html-keyboard-response","14","124501","0.0-14.0","""event"",""trial"",""time""
""fullscreenenter"",""0"",""2013""
","
","
","""event"",""trial"",""time""
""fullscreenenter"",""0"",""2013""
","
","567.7999999998137","<div class='center'><img src='run_exp/static/images/tutorial/blue.png' height='500'></p></div>","49","","","","","","","","","","","","","","","","","","","","","","",""
"","html-keyboard-response","15","126005","0.0-15.0","""event"",""trial"",""time""
""fullscreenenter"",""0"",""2013""
","
","
","""event"",""trial"",""time""
""fullscreenenter"",""0"",""2013""
","
","null","<div class='center'><p><img src='run_exp/static/images/tutorial/blue_win.png' height='500'></p></div>","null","","","","","","","","","","","","","","","","","","","","","","",""
"","html-keyboard-response","16","126289","0.0-16.0","""event"",""trial"",""time""
""fullscreenenter"",""0"",""2013""
","
","
","""event"",""trial"",""time""
""fullscreenenter"",""0"",""2013""
","
","281.70000000018626","<div class='center'><img src='run_exp/static/images/tutorial/blue.png' height='500'></p></div>","49","","","","","","","","","","","","","","","","","","","","","","",""
"","html-keyboard-response","17","127790","0.0-17.0","""event"",""trial"",""time""
""fullscreenenter"",""0"",""2013""
","
","
","""event"",""trial"",""time""
""fullscreenenter"",""0"",""2013""
","
","null","<div class='center'><p><img src='run_exp/static/images/tutorial/blue_no_win.png' height='500'></p></div>","null","","","","","","","","","","","","","","","","","","","","","","",""
"","html-keyboard-response","18","128267","0.0-18.0","""event"",""trial"",""time""
""fullscreenenter"",""0"",""2013""
","
","
","""event"",""trial"",""time""
""fullscreenenter"",""0"",""2013""
","
","475","<div class='center'><img src='run_exp/static/images/tutorial/blue.png' height='500'></p></div>","49","","","","","","","","","","","","","","","","","","","","","","",""
"","html-keyboard-response","19","129770","0.0-19.0","""event"",""trial"",""time""
""fullscreenenter"",""0"",""2013""
","
","
","""event"",""trial"",""time""
""fullscreenenter"",""0"",""2013""
","
","null","<div class='center'><p><img src='run_exp/static/images/tutorial/blue_win.png' height='500'></p></div>","null","","","","","","","","","","","","","","","","","","","","","","",""
"","html-keyboard-response","20","130062","0.0-20.0","""event"",""trial"",""time""
""fullscreenenter"",""0"",""2013""
","
","
","""event"",""trial"",""time""
""fullscreenenter"",""0"",""2013""
","
","288.80000000074506","<div class='center'><img src='run_exp/static/images/tutorial/blue.png' height='500'></p></div>","49","","","","","","","","","","","","","","","","","","","","","","",""
"","html-keyboard-response","21","131564","0.0-21.0","""event"",""trial"",""time""
""fullscreenenter"",""0"",""2013""
","
","
","""event"",""trial"",""time""
""fullscreenenter"",""0"",""2013""
","
","null","<div class='center'><p><img src='run_exp/static/images/tutorial/blue_win.png' height='500'></p></div>","null","","","","","","","","","","","","","","","","","","","","","","",""
"","html-keyboard-response","22","131856","0.0-22.0","""event"",""trial"",""time""
""fullscreenenter"",""0"",""2013""
","
","
","""event"",""trial"",""time""
""fullscreenenter"",""0"",""2013""
","
","285.5","<div class='center'><img src='run_exp/static/images/tutorial/blue.png' height='500'></p></div>","49","","","","","","","","","","","","","","","","","","","","","","",""
"","html-keyboard-response","23","133360","0.0-23.0","""event"",""trial"",""time""
""fullscreenenter"",""0"",""2013""
","
","
","""event"",""trial"",""time""
""fullscreenenter"",""0"",""2013""
","
","null","<div class='center'><p><img src='run_exp/static/images/tutorial/blue_win.png' height='500'></p></div>","null","","","","","","","","","","","","","","","","","","","","","","",""
"","html-keyboard-response","24","133697","0.0-24.0","""event"",""trial"",""time""
""fullscreenenter"",""0"",""2013""
","
","
","""event"",""trial"",""time""
""fullscreenenter"",""0"",""2013""
","
","335.5","<div class='center'><img src='run_exp/static/images/tutorial/blue.png' height='500'></p></div>","49","","","","","","","","","","","","","","","","","","","","","","",""
"","html-keyboard-response","25","135200","0.0-25.0","""event"",""trial"",""time""
""fullscreenenter"",""0"",""2013""
","
","
","""event"",""trial"",""time""
""fullscreenenter"",""0"",""2013""
","
","null","<div class='center'><p><img src='run_exp/static/images/tutorial/blue_no_win.png' height='500'></p></div>","null","","","","","","","","","","","","","","","","","","","","","","",""
"","html-keyboard-response","26","137023","0.0-26.0","""event"",""trial"",""time""
""fullscreenenter"",""0"",""2013""
","
","
","""event"",""trial"",""time""
""fullscreenenter"",""0"",""2013""
","
","1819.4000000003725","<div class='center'><img src='run_exp/static/images/tutorial/blue.png' height='500'></p></div>","49","","","","","","","","","","","","","","","","","","","","","","",""
"","html-keyboard-response","27","138528","0.0-27.0","""event"",""trial"",""time""
""fullscreenenter"",""0"",""2013""
","
","
","""event"",""trial"",""time""
""fullscreenenter"",""0"",""2013""
","
","null","<div class='center'><p><img src='run_exp/static/images/tutorial/blue_win.png' height='500'></p></div>","null","","","","","","","","","","","","","","","","","","","","","","",""
"","html-keyboard-response","28","138863","0.0-28.0","""event"",""trial"",""time""
""fullscreenenter"",""0"",""2013""
","
","
","""event"",""trial"",""time""
""fullscreenenter"",""0"",""2013""
","
","329.70000000018626","<div class='center'><img src='run_exp/static/images/tutorial/blue.png' height='500'></p></div>","49","","","","","","","","","","","","","","","","","","","","","","",""
"","html-keyboard-response","29","140366","0.0-29.0","""event"",""trial"",""time""
""fullscreenenter"",""0"",""2013""
","
","
","""event"",""trial"",""time""
""fullscreenenter"",""0"",""2013""
","
","null","<div class='center'><p><img src='run_exp/static/images/tutorial/blue_win.png' height='500'></p></div>","null","","","","","","","","","","","","","","","","","","","","","","",""
"","instruc6","30","145874","0.0-30.0","""event"",""trial"",""time""
""fullscreenenter"",""0"",""2013""
","
","
","""event"",""trial"",""time""
""fullscreenenter"",""0"",""2013""
","
","null","run_exp/static/audio/clip_6_blue_beard_outcome.m4a","null","","","","","<div class='center'><p> See, he succeeded in robbing the ships most of the time but not every time. </p></div>","","","","","","","","","","","","","","","","","",""
"","html-keyboard-response","31","147152","0.0-31.0","""event"",""trial"",""time""
""fullscreenenter"",""0"",""2013""
","
","
","""event"",""trial"",""time""
""fullscreenenter"",""0"",""2013""
","
","1273.5999999996275","<div class='center'><p> See, he succeeded in robbing the ships most of the time but not every time. </p><p><b>[Press the space bar to continue]</b></p></div>","32","","","","","","","","","","","","","","","","","","","","","","",""
"","audio-keyboard-response","32","166514","0.0-32.0","""event"",""trial"",""time""
""fullscreenenter"",""0"",""2013""
","
","
","""event"",""trial"",""time""
""fullscreenenter"",""0"",""2013""
","
","19356.799999999814","run_exp/static/audio/clip_7_pick_pirate.m4a","49","","","","","","","","","","","","","","","","","","","","","","",""
"","audio-keyboard-response","33","235906","0.0-33.0-0.0","""event"",""trial"",""time""
""fullscreenenter"",""0"",""2013""
","
","
","""event"",""trial"",""time""
""fullscreenenter"",""0"",""2013""
","
","69386.29999999981","run_exp/static/audio/clip_8_chosen_pirate_win.m4a","32","","","","","","","","","","","","","","","","","","","","","","",""
"","audio-keyboard-response","34","237943","0.0-33.0-1.0","""event"",""trial"",""time""
""fullscreenenter"",""0"",""2013""
","
","
","""event"",""trial"",""time""
""fullscreenenter"",""0"",""2013""
","
","2030.9000000003725","run_exp/static/audio/clip_9_pick_a_pirate_again.m4a","50","","","","","","","","","","","","","","","","","","","","","","",""
"","audio-keyboard-response","35","239570","0.0-34.0-0.0","""event"",""trial"",""time""
""fullscreenenter"",""0"",""2013""
","
","
","""event"",""trial"",""time""
""fullscreenenter"",""0"",""2013""
","
","1618.8999999994412","run_exp/static/audio/clip_10_chosen_pirate_loss.m4a","32","","","","","","","","","","","","","","","","","","","","","","",""
"","instruc9","36","245275","0.0-35.0-0.0","""event"",""trial"",""time""
""fullscreenenter"",""0"",""2013""
","
","
","""event"",""trial"",""time""
""fullscreenenter"",""0"",""2013""
","
","null","run_exp/static/audio/clip_11_time_out.m4a","null","","","","","<div class='center'><p>If you don’t make your choice fast enough, you’ll have to wait a few seconds before you can make another one. </p><p><img src='run_exp/static/images/miscellaneous/hurry_up.png' height='500'></p></div>","","","","","","","","","","","","","","","","","",""
"","html-keyboard-response","37","245909","0.0-35.0-1.0","""event"",""trial"",""time""
""fullscreenenter"",""0"",""2013""
","
","
","""event"",""trial"",""time""
""fullscreenenter"",""0"",""2013""
","
","626.5999999996275","<div class='center'><p>If you don’t make your choice fast enough, you’ll have to wait a few seconds before you can make another one. </p><p><img src='run_exp/static/images/miscellaneous/hurry_up.png' height='500'></p><p><b>[Press the space bar to continue]</b></p></div>","32","","","","","","","","","","","","","","","","","","","","","","",""
"","instruc10","38","285192","0.0-35.0-2.0","""event"",""trial"",""time""
""fullscreenenter"",""0"",""2013""
","
","
","""event"",""trial"",""time""
""fullscreenenter"",""0"",""2013""
","
","null","run_exp/static/audio/clip_12_probe.m4a","null","","","","","<div class='center'><p>Once you've chosen a pirate, you’ll be shown the ship they are robbing. You will never rob the same ship twice. Ships can be told apart from one another by the image on them. These are the goods that they sell. See, this ship has a travel mug on it. </p><p> You’ll have to remember which island you saw each ship on. You will win more gold coins and hence more bonus money if you remember correctly! To help you remember, you can imagine a story. For example, here, you could imagine a mug full of water in the desert. Or, as another example, if on the forest island, your pirate robbed a ship with an apple on it, you could imagine an apple falling from a tree in the forest. </p><p><img src='run_exp/static/images/tutorial/example_probe.png' height='500'></p></div>","","","","","","","","","","","","","","","","","",""
"","html-keyboard-response","39","285760","0.0-35.0-3.0","""event"",""trial"",""time""
""fullscreenenter"",""0"",""2013""
","
","
","""event"",""trial"",""time""
""fullscreenenter"",""0"",""2013""
","
","564.8999999994412","<div class='center'><p>Once you've chosen a pirate, you’ll be shown the ship they are robbing. You will never rob the same ship twice. Ships can be told apart from one another by the image on them. These are the goods that they sell. See, this ship has a travel mug on it. </p><p> You’ll have to remember which island you saw each ship on. You will win more gold coins and hence more bonus money if you remember correctly! To help you remember, you can imagine a story. For example, here, you could imagine a mug full of water in the desert. Or, as another example, if on the forest island, your pirate robbed a ship with an apple on it, you could imagine an apple falling from a tree in the forest. </p><p><img src='run_exp/static/images/tutorial/example_probe.png' height='500'></p><p><b>[Press the space bar to continue]</b></p></div>","32","","","","","","","","","","","","","","","","","","","","","","",""
"","instruc11","40","302366","0.0-35.0-4.0","""event"",""trial"",""time""
""fullscreenenter"",""0"",""2013""
","
","
","""event"",""trial"",""time""
""fullscreenenter"",""0"",""2013""
","
","null","run_exp/static/audio/clip_13_changepoint.m4a","null","","","","","<div class='center'><p>How successful a pirate is at robbing ships will depend on the island you’re on.</p><p> A pirate may have visited this island many times before and gained a lot of practice robbing ships there.</p><p>So, they’re more likely to be successful than a pirate who has never visited the island before.</p></div>","","","","","","","","","","","","","","","","","",""
"","html-keyboard-response","41","305260","0.0-35.0-5.0","""event"",""trial"",""time""
""fullscreenenter"",""0"",""2013""
","
","
","""event"",""trial"",""time""
""fullscreenenter"",""0"",""2013""
","
","2891.600000000559","<div class='center'><p>How successful a pirate is at robbing ships will depend on the island you’re on.</p><p> A pirate may have visited this island many times before and gained a lot of practice robbing ships there.</p><p>So, they’re more likely to be successful than a pirate who has never visited the island before.</p><p><b>[Press the space bar to continue]</b></p></div>","32","","","","","","","","","","","","","","","","","","","","","","",""
"","instruc12","42","346555","0.0-35.0-6.0","""event"",""trial"",""time""
""fullscreenenter"",""0"",""2013""
","
","
","""event"",""trial"",""time""
""fullscreenenter"",""0"",""2013""
","
","null","run_exp/static/audio/clip_14_drift.m4a","null","","","","","<div class='center'><p>How successful a pirate is at robbing ships can also change over the time spent on the island. </p><p> Ships may hear from islanders about the pirates coming and will improve their protections against the attack. This may make it harder to rob them.</p><p> Ships may also become lazy and weaken the strength of their protections. This may make it easier to rob them.</p><br><p>Things are always changing on the high seas! So, try your best to pay attention!</p><p><img src='run_exp/static/images/tutorial/contingency.png' height='500'></p></div>","","","","","","","","","","","","","","","","","",""
"","html-keyboard-response","43","347363","0.0-35.0-7.0","""event"",""trial"",""time""
""fullscreenenter"",""0"",""2013""
","
","
","""event"",""trial"",""time""
""fullscreenenter"",""0"",""2013""
","
","801.3999999994412","<div class='center'><p>How successful a pirate is at robbing ships can also change over the time spent on the island. </p><p> Ships may hear from islanders about the pirates coming and will improve their protections against the attack. This may make it harder to rob them.</p><p> Ships may also become lazy and weaken the strength of their protections. This may make it easier to rob them.</p><br><p>Things are always changing on the high seas! So, try your best to pay attention!</p><p><img src='run_exp/static/images/tutorial/contingency.png' height='500'></p><p><b>[Press the space bar to continue]</b></p></div>","32","","","","","","","","","","","","","","","","","","","","","","",""
"","instruc13","44","382667","0.0-35.0-8.0","""event"",""trial"",""time""
""fullscreenenter"",""0"",""2013""
","
","
","""event"",""trial"",""time""
""fullscreenenter"",""0"",""2013""
","
","null","run_exp/static/audio/clip_15_summary.m4a","null","","","","","<div class='center'><p>Let's go over the instructions quickly again. You have two important things to do: </p><b><p> 1. Pick the pirate who is the best at robbing ships on the current island. </p></b><b><p> 2. Remember on which island a ship was robbed.</p> </b><p>The amount of bonus money you can win depends on both.</p><p><br><p>Let’s try a practice game. The game will start by showing you the pirates. First, pick a pirate using the <b> 1, 2, 3 </b> keys on your keyboard. When you are shown a ship, try to remember which island you’re on by making up a story.</p><p>This is just a practice game, so you’re not playing for money. </p><p> Good luck! This game will be very difficult but try your best!</p></div>","","","","","","","","","","","","","","","","","",""
"","html-keyboard-response","45","384394","0.0-35.0-9.0","""event"",""trial"",""time""
""fullscreenenter"",""0"",""2013""
","
","
","""event"",""trial"",""time""
""fullscreenenter"",""0"",""2013""
","
","1723.7999999998137","<div class='center'><p>Let's go over the instructions quickly again. You have two important things to do: </p><b><p> 1. Pick the pirate who is the best at robbing ships on the current island. </p></b><b><p> 2. Remember on which island a ship was robbed.</p> </b><p>The amount of bonus money you can win depends on both.</p><p><br><p>Let’s try a practice game. The game will start by showing you the pirates. First, pick a pirate using the <b> 1, 2, 3 </b> keys on your keyboard. When you are shown a ship, try to remember which island you’re on by making up a story.</p><p>This is just a practice game, so you’re not playing for money. </p><p> Good luck! This game will be very difficult but try your best!</p><p><b>[Press the space bar to continue]</b></p></div>","32","","","","","","","","","","","","","","","","","","","","","","",""
"","do_welcome","46","388412","0.0-35.0-10.0","""event"",""trial"",""time""
""fullscreenenter"",""0"",""2013""
","
","
","""event"",""trial"",""time""
""fullscreenenter"",""0"",""2013""
","
","null","","","","","","","","null","","","","","","","","","","","","","","","","",""
"","do_trial","47","395418","0.0-35.0-11.0","""event"",""trial"",""time""
""fullscreenenter"",""0"",""2013""
","
","
","""event"",""trial"",""time""
""fullscreenenter"",""0"",""2013""
","
","2481.7000000001863","","","","","","","","49","1,0,0","","","","","","","","","","","","","","","",""
"","html-keyboard-response","48","396421","0.0-36.0-0.0","""event"",""trial"",""time""
""fullscreenenter"",""0"",""2013""
","
","
","""event"",""trial"",""time""
""fullscreenenter"",""0"",""2013""
","
","null","<p></p>","null","","","","","","","","","","","","","","","","","","","","","","",""
"","do_trial","49","402358","0.0-36.0-1.0","""event"",""trial"",""time""
""fullscreenenter"",""0"",""2013""
","
","
","""event"",""trial"",""time""
""fullscreenenter"",""0"",""2013""
","
","1422.2000000001863","","","","","","","","49","1,1,0","","","","","","","","","","","","","","","",""
"","html-keyboard-response","50","403360","0.0-37.0-0.0","""event"",""trial"",""time""
""fullscreenenter"",""0"",""2013""
","
","
","""event"",""trial"",""time""
""fullscreenenter"",""0"",""2013""
","
","null","<p></p>","null","","","","","","","","","","","","","","","","","","","","","","",""
"","do_trial","51","409381","0.0-37.0-1.0","""event"",""trial"",""time""
""fullscreenenter"",""0"",""2013""
","
","
","""event"",""trial"",""time""
""fullscreenenter"",""0"",""2013""
","
","null","","","","","","","","null","1,0,1","","","","","","","","","","","","","","","",""
"","html-keyboard-response","52","410386","0.0-38.0-0.0","""event"",""trial"",""time""
""fullscreenenter"",""0"",""2013""
","
","
","""event"",""trial"",""time""
""fullscreenenter"",""0"",""2013""
","
","null","<p></p>","null","","","","","","","","","","","","","","","","","","","","","","",""
"","do_trial","53","416339","0.0-38.0-1.0","""event"",""trial"",""time""
""fullscreenenter"",""0"",""2013""
","
","
","""event"",""trial"",""time""
""fullscreenenter"",""0"",""2013""
","
","1428","","","","","","","","49","1,0,1","","","","","","","","","","","","","","","",""
"","html-keyboard-response","54","417343","0.0-39.0-0.0","""event"",""trial"",""time""
""fullscreenenter"",""0"",""2013""
","
","
","""event"",""trial"",""time""
""fullscreenenter"",""0"",""2013""
","
","null","<p></p>","null","","","","","","","","","","","","","","","","","","","","","","",""
"","do_trial","55","423213","0.0-39.0-1.0","""event"",""trial"",""time""
""fullscreenenter"",""0"",""2013""
","
","
","""event"",""trial"",""time""
""fullscreenenter"",""0"",""2013""
","
","1344.1000000005588","","","","","","","","49","0,1,0","","","","","","","","","","","","","","","",""
"","html-keyboard-response","56","424217","0.0-40.0-0.0","""event"",""trial"",""time""
""fullscreenenter"",""0"",""2013""
","
","
","""event"",""trial"",""time""
""fullscreenenter"",""0"",""2013""
","
","null","<p></p>","null","","","","","","","","","","","","","","","","","","","","","","",""
"","do_trial","57","430555","0.0-40.0-1.0","""event"",""trial"",""time""
""fullscreenenter"",""0"",""2013""
","
","
","""event"",""trial"",""time""
""fullscreenenter"",""0"",""2013""
","
","1823.2999999998137","","","","","","","","49","1,0,0","","","","","","","","","","","","","","","",""
"","do_bye","58","432082","0.0-41.0-0.0","""event"",""trial"",""time""
""fullscreenenter"",""0"",""2013""
","
","
","""event"",""trial"",""time""
""fullscreenenter"",""0"",""2013""
","
","null","","","","","","","","null","","","","","","","","","","","","","","","","",""
"","do_travel","59","441098","0.0-41.0-1.0","""event"",""trial"",""time""
""fullscreenenter"",""0"",""2013""
","
","
","""event"",""trial"",""time""
""fullscreenenter"",""0"",""2013""
","
","null","","","","","","","","null","","","","","","","","","","","","","","","","",""
"","do_welcome","60","445129","0.0-41.0-2.0","""event"",""trial"",""time""
""fullscreenenter"",""0"",""2013""
","
","
","""event"",""trial"",""time""
""fullscreenenter"",""0"",""2013""
","
","null","","","","","","","","null","","","","","","","","","","","","","","","","",""
"","do_trial","61","450957","0.0-41.0-3.0","""event"",""trial"",""time""
""fullscreenenter"",""0"",""2013""
","
","
","""event"",""trial"",""time""
""fullscreenenter"",""0"",""2013""
","
","1304.9000000003725","","","","","","","","49","1,0,0","","","","","","","","","","","","","","","",""
"","html-keyboard-response","62","451962","0.0-42.0-0.0","""event"",""trial"",""time""
""fullscreenenter"",""0"",""2013""
","
","
","""event"",""trial"",""time""
""fullscreenenter"",""0"",""2013""
","
","null","<p></p>","null","","","","","","","","","","","","","","","","","","","","","","",""
"","do_trial","63","457573","0.0-42.0-1.0","""event"",""trial"",""time""
""fullscreenenter"",""0"",""2013""
","
","
","""event"",""trial"",""time""
""fullscreenenter"",""0"",""2013""
","
","1070.7000000001863","","","","","","","","49","1,0,1","","","","","","","","","","","","","","","",""
"","html-keyboard-response","64","458577","0.0-43.0-0.0","""event"",""trial"",""time""
""fullscreenenter"",""0"",""2013""
","
","
","""event"",""trial"",""time""
""fullscreenenter"",""0"",""2013""
","
","null","<p></p>","null","","","","","","","","","","","","","","","","","","","","","","",""
"","do_trial","65","464161","0.0-43.0-1.0","""event"",""trial"",""time""
""fullscreenenter"",""0"",""2013""
","
","
","""event"",""trial"",""time""
""fullscreenenter"",""0"",""2013""
","
","1058.5","","","","","","","","49","1,1,0","","","","","","","","","","","","","","","",""
"","html-keyboard-response","66","465165","0.0-44.0-0.0","""event"",""trial"",""time""
""fullscreenenter"",""0"",""2013""
","
","
","""event"",""trial"",""time""
""fullscreenenter"",""0"",""2013""
","
","null","<p></p>","null","","","","","","","","","","","","","","","","","","","","","","",""
"","do_trial","67","470242","0.0-44.0-1.0","""event"",""trial"",""time""
""fullscreenenter"",""0"",""2013""
","
","
","""event"",""trial"",""time""
""fullscreenenter"",""0"",""2013""
","
","565.7999999998137","","","","","","","","49","0,0,1","","","","","","","","","","","","","","","",""
"","html-keyboard-response","68","471249","0.0-45.0-0.0","""event"",""trial"",""time""
""fullscreenenter"",""0"",""2013""
","
","
","""event"",""trial"",""time""
""fullscreenenter"",""0"",""2013""
","
","null","<p></p>","null","","","","","","","","","","","","","","","","","","","","","","",""
"","do_trial","69","476241","0.0-45.0-1.0","""event"",""trial"",""time""
""fullscreenenter"",""0"",""2013""
","
","
","""event"",""trial"",""time""
""fullscreenenter"",""0"",""2013""
","
","467.40000000037253","","","","","","","","49","1,0,1","","","","","","","","","","","","","","","",""
"","html-keyboard-response","70","479283","0.0-46.0-0.0","""event"",""trial"",""time""
""fullscreenenter"",""0"",""2013""
","
","
","""event"",""trial"",""time""
""fullscreenenter"",""0"",""2013""
","
","3034.100000000559","<div class='center'><p><img src='run_exp/static/images/tutorial/prac_best_pirate.png'  height='500'></p></div>","49","","","","","","","","","","","","","","","","","","","","","","",""
"","html-keyboard-response","71","480859","0.0-47.0-0.0","""event"",""trial"",""time""
""fullscreenenter"",""0"",""2013""
","
","
","""event"",""trial"",""time""
""fullscreenenter"",""0"",""2013""
","
","1566.800000000745","<div class='center'><p>That's correct! Red beard was the best.</p><p><b>[Press the space bar to continue]</b></p></div>","32","","","","","","","","","","","","","","","","","","","","","","",""
"","html-keyboard-response","72","484595","0.0-47.0-1.0","""event"",""trial"",""time""
""fullscreenenter"",""0"",""2013""
","
","
","""event"",""trial"",""time""
""fullscreenenter"",""0"",""2013""
","
","3729.7999999998137","<div class='center'><p><img src='run_exp/static/images/tutorial/prac_source.png'  height='500'></p></div>","50","","","","","","","","","","","","","","","","","","","","","","",""
"","html-keyboard-response","73","486439","0.0-48.0-0.0","""event"",""trial"",""time""
""fullscreenenter"",""0"",""2013""
","
","
","""event"",""trial"",""time""
""fullscreenenter"",""0"",""2013""
","
","1836.7000000001863","<div class='center'><p>That's correct! You saw this ship on the cavern island.</p><p><b>[Press the space bar to continue]</b></p></div>","32","","","","","","","","","","","","","","","","","","","","","","",""
"","quiz_beginning","74","497757","0.0-48.0-1.0","""event"",""trial"",""time""
""fullscreenenter"",""0"",""2013""
","
","
","""event"",""trial"",""time""
""fullscreenenter"",""0"",""2013""
","
","null","run_exp/static/audio/clip_16_quiz_intro.m4a","null","","","","","<div class='center'><p>Good job on the practice game! Now, you will be asked some true or false questions to make sure you really understand the rules of the game.</p><p> Press <b>'1'</b> on the keyboard for true and press <b>'2'</b> for false.</p></div>","","","","","","","","","","","","","","","","","",""
"","audio-keyboard-response","75","500828","0.0-48.0-2.0","""event"",""trial"",""time""
""fullscreenenter"",""0"",""2013""
","
","
","""event"",""trial"",""time""
""fullscreenenter"",""0"",""2013""
","
","3064.7000000001863","run_exp/static/audio/clip_17_q1.m4a","49","","","","","","","","","","","","","","","","","","","","","","",""
"","correct","76","503420","0.0-49.0-0.0","""event"",""trial"",""time""
""fullscreenenter"",""0"",""2013""
","
","
","""event"",""trial"",""time""
""fullscreenenter"",""0"",""2013""
","
","null","run_exp/static/audio/clip_18_correct.m4a","null","","","","","<div class='center'><p>That's correct!</p></div>","","","","","","","","","","","","","","","","","",""
"","html-keyboard-response","77","504826","0.0-49.0-1.0","""event"",""trial"",""time""
""fullscreenenter"",""0"",""2013""
","
","
","""event"",""trial"",""time""
""fullscreenenter"",""0"",""2013""
","
","1403.3999999994412","<div class='center'><p>That's correct!</p><p><b>[Press the space bar to continue]</b></p></div>","32","","","","","","","","","","","","","","","","","","","","","","",""
"","audio-keyboard-response","78","512022","0.0-49.0-2.0","""event"",""trial"",""time""
""fullscreenenter"",""0"",""2013""
","
","
","""event"",""trial"",""time""
""fullscreenenter"",""0"",""2013""
","
","7191.299999999814","run_exp/static/audio/clip_20_q2.m4a","50","","","","","","","","","","","","","","","","","","","","","","",""
"","correct","79","514564","0.0-50.0-0.0","""event"",""trial"",""time""
""fullscreenenter"",""0"",""2013""
","
","
","""event"",""trial"",""time""
""fullscreenenter"",""0"",""2013""
","
","null","run_exp/static/audio/clip_18_correct.m4a","null","","","","","<div class='center'><p>That's correct!</p></div>","","","","","","","","","","","","","","","","","",""
"","html-keyboard-response","80","515513","0.0-50.0-1.0","""event"",""trial"",""time""
""fullscreenenter"",""0"",""2013""
","
","
","""event"",""trial"",""time""
""fullscreenenter"",""0"",""2013""
","
","946.8999999994412","<div class='center'><p>That's correct!</p><p><b>[Press the space bar to continue]</b></p></div>","32","","","","","","","","","","","","","","","","","","","","","","",""
"","audio-keyboard-response","81","518853","0.0-50.0-2.0","""event"",""trial"",""time""
""fullscreenenter"",""0"",""2013""
","
","
","""event"",""trial"",""time""
""fullscreenenter"",""0"",""2013""
","
","3336.399999999441","run_exp/static/audio/clip_22_q3.m4a","50","","","","","","","","","","","","","","","","","","","","","","",""
"","correct","82","521436","0.0-51.0-0.0","""event"",""trial"",""time""
""fullscreenenter"",""0"",""2013""
","
","
","""event"",""trial"",""time""
""fullscreenenter"",""0"",""2013""
","
","null","run_exp/static/audio/clip_18_correct.m4a","null","","","","","<div class='center'><p>That's correct!</p></div>","","","","","","","","","","","","","","","","","",""
"","html-keyboard-response","83","522235","0.0-51.0-1.0","""event"",""trial"",""time""
""fullscreenenter"",""0"",""2013""
","
","
","""event"",""trial"",""time""
""fullscreenenter"",""0"",""2013""
","
","794.2999999998137","<div class='center'><p>That's correct!</p><p><b>[Press the space bar to continue]</b></p></div>","32","","","","","","","","","","","","","","","","","","","","","","",""
"","audio-keyboard-response","84","524119","0.0-51.0-2.0","""event"",""trial"",""time""
""fullscreenenter"",""0"",""2013""
","
","
","""event"",""trial"",""time""
""fullscreenenter"",""0"",""2013""
","
","1873.8999999994412","run_exp/static/audio/clip_24_q4.m4a","49","","","","","","","","","","","","","","","","","","","","","","",""
"","correct","85","526821","0.0-52.0-0.0","""event"",""trial"",""time""
""fullscreenenter"",""0"",""2013""
","
","
","""event"",""trial"",""time""
""fullscreenenter"",""0"",""2013""
","
","null","run_exp/static/audio/clip_18_correct.m4a","null","","","","","<div class='center'><p>That's correct!</p></div>","","","","","","","","","","","","","","","","","",""
"","html-keyboard-response","86","527360","0.0-52.0-1.0","""event"",""trial"",""time""
""fullscreenenter"",""0"",""2013""
","
","
","""event"",""trial"",""time""
""fullscreenenter"",""0"",""2013""
","
","531.8000000007451","<div class='center'><p>That's correct!</p><p><b>[Press the space bar to continue]</b></p></div>","32","","","","","","","","","","","","","","","","","","","","","","",""
"","q_all_corr","87","536102","0.0-53.0-0.0","""event"",""trial"",""time""
""fullscreenenter"",""0"",""2013""
","
","
","""event"",""trial"",""time""
""fullscreenenter"",""0"",""2013""
","
","null","run_exp/static/audio/clip_27_quiz_all_correct.m4a","null","","","","","<div class='center'><p>Good job! You’re now ready to move on to the real game! Remember this game will be difficult but don't get discouraged and try your best!</p></div>","","","","","","","","","","","","","","","","","",""
"","html-keyboard-response","88","536944","0.0-53.0-1.0","""event"",""trial"",""time""
""fullscreenenter"",""0"",""2013""
","
","
","""event"",""trial"",""time""
""fullscreenenter"",""0"",""2013""
","
","833.5","<div class='center'><p>Good job! You’re now ready to move on to the real game! Remember this game will be difficult but don't get discouraged and try your best!</p><p><b>[Press the space bar to continue]</b></p></div>","32","","","","","","","","","","","","","","","","","","","","","","",""
"","do_welcome","89","540965","0.0-54.0-0.0","""event"",""trial"",""time""
""fullscreenenter"",""0"",""2013""
","
","
","""event"",""trial"",""time""
""fullscreenenter"",""0"",""2013""
","
","null","","","","","","","","null","","","","","","","","","","","","","","","","",""
"","do_trial","90","547043","0.0-55.0-0.0","""event"",""trial"",""time""
""fullscreenenter"",""0"",""2013""
","
","
","""event"",""trial"",""time""
""fullscreenenter"",""0"",""2013""
","
","1449.8999999994412","","","","","","","","49","0,1,1","0","highway","0","probe-176","0.6","0.3","0.1","0","","","","","","","",""
"","html-keyboard-response","91","548047","0.0-55.0-1.0","""event"",""trial"",""time""
""fullscreenenter"",""0"",""2013""
","
","
","""event"",""trial"",""time""
""fullscreenenter"",""0"",""2013""
","
","null","<p></p>","null","","","","","","","","","","","","","","","","","","","","","","",""
"","do_trial","92","553696","0.0-56.0-0.0","""event"",""trial"",""time""
""fullscreenenter"",""0"",""2013""
","
","
","""event"",""trial"",""time""
""fullscreenenter"",""0"",""2013""
","
","1045","","","","","","","","49","1,0,0","0","highway","1","probe-49","0.6137045760105582","0.5603092442987141","0.21876101427009972","1","","","","","","","",""
"","html-keyboard-response","93","554700","0.0-56.0-1.0","""event"",""trial"",""time""
""fullscreenenter"",""0"",""2013""
","
","
","""event"",""trial"",""time""
""fullscreenenter"",""0"",""2013""
","
","null","<p></p>","null","","","","","","","","","","","","","","","","","","","","","","",""
"","do_trial","94","560802","0.0-57.0-0.0","""event"",""trial"",""time""
""fullscreenenter"",""0"",""2013""
","
","
","""event"",""trial"",""time""
""fullscreenenter"",""0"",""2013""
","
","null","","","","","","","","null","1,0,0","0","highway","2","probe-148","0.6110137613432006","0.598294706265106","0.0576582537771508","","","","","","","","",""
"","html-keyboard-response","95","561818","0.0-57.0-1.0","""event"",""trial"",""time""
""fullscreenenter"",""0"",""2013""
","
","
","""event"",""trial"",""time""
""fullscreenenter"",""0"",""2013""
","
","null","<p></p>","null","","","","","","","","","","","","","","","","","","","","","","",""
"","do_trial","96","567448","0.0-58.0-0.0","""event"",""trial"",""time""
""fullscreenenter"",""0"",""2013""
","
","
","""event"",""trial"",""time""
""fullscreenenter"",""0"",""2013""
","
","1026.300000000745","","","","","","","","49","1,1,0","0","highway","3","probe-26","0.6653402171704651","0.404506593384351","0.0629527805885596","1","","","","","","","",""
"","html-keyboard-response","97","568454","0.0-58.0-1.0","""event"",""trial"",""time""
""fullscreenenter"",""0"",""2013""
","
","
","""event"",""trial"",""time""
""fullscreenenter"",""0"",""2013""
","
","null","<p></p>","null","","","","","","","","","","","","","","","","","","","","","","",""
"","do_trial","98","573522","0.0-59.0-0.0","""event"",""trial"",""time""
""fullscreenenter"",""0"",""2013""
","
","
","""event"",""trial"",""time""
""fullscreenenter"",""0"",""2013""
","
","456.59999999962747","","","","","","","","49","1,1,0","0","highway","4","probe-140","0.7277672171131565","0.4011623681538792","0.1323193365617655","1","","","","","","","",""
"","html-keyboard-response","99","574528","0.0-59.0-1.0","""event"",""trial"",""time""
""fullscreenenter"",""0"",""2013""
","
","
","""event"",""trial"",""time""
""fullscreenenter"",""0"",""2013""
","
","null","<p></p>","null","","","","","","","","","","","","","","","","","","","","","","",""
"","do_trial","100","579403","0.0-60.0-0.0","""event"",""trial"",""time""
""fullscreenenter"",""0"",""2013""
","
","
","""event"",""trial"",""time""
""fullscreenenter"",""0"",""2013""
","
","265.5","","","","","","","","49","0,0,0","0","highway","5","probe-61","0.6839109466126334","0.47492509156406776","0.08264435527046754","0","","","","","","","",""
"","html-keyboard-response","101","580410","0.0-60.0-1.0","""event"",""trial"",""time""
""fullscreenenter"",""0"",""2013""
","
","
","""event"",""trial"",""time""
""fullscreenenter"",""0"",""2013""
","
","null","<p></p>","null","","","","","","","","","","","","","","","","","","","","","","",""
"","do_trial","102","585740","0.0-61.0-0.0","""event"",""trial"",""time""
""fullscreenenter"",""0"",""2013""
","
","
","""event"",""trial"",""time""
""fullscreenenter"",""0"",""2013""
","
","721","","","","","","","","49","1,0,0","0","highway","6","probe-197","0.8303246798607512","0.29385388266945794","0.10923300765562186","1","","","","","","","",""
"","html-keyboard-response","103","586747","0.0-61.0-1.0","""event"",""trial"",""time""
""fullscreenenter"",""0"",""2013""
","
","
","""event"",""trial"",""time""
""fullscreenenter"",""0"",""2013""
","
","null","<p></p>","null","","","","","","","","","","","","","","","","","","","","","","",""
"","do_trial","104","591885","0.0-62.0-0.0","""event"",""trial"",""time""
""fullscreenenter"",""0"",""2013""
","
","
","""event"",""trial"",""time""
""fullscreenenter"",""0"",""2013""
","
","529","","","","","","","","49","1,1,0","0","highway","7","probe-174","0.6087853294110377","0.2809974767847094","0.1106659040651878","1","","","","","","","",""
"","html-keyboard-response","105","592887","0.0-62.0-1.0","""event"",""trial"",""time""
""fullscreenenter"",""0"",""2013""
","
","
","""event"",""trial"",""time""
""fullscreenenter"",""0"",""2013""
","
","null","<p></p>","null","","","","","","","","","","","","","","","","","","","","","","",""
"","do_trial","106","598274","0.0-63.0-0.0","""event"",""trial"",""time""
""fullscreenenter"",""0"",""2013""
","
","
","""event"",""trial"",""time""
""fullscreenenter"",""0"",""2013""
","
","790.7999999998137","","","","","","","","49","0,0,0","0","highway","8","probe-75","0.6862002030683799","0.30470565548129025","0.17002996479386476","0","","","","","","","",""
"","html-keyboard-response","107","599278","0.0-63.0-1.0","""event"",""trial"",""time""
""fullscreenenter"",""0"",""2013""
","
","
","""event"",""trial"",""time""
""fullscreenenter"",""0"",""2013""
","
","null","<p></p>","null","","","","","","","","","","","","","","","","","","","","","","",""
"","do_trial","108","604461","0.0-64.0-0.0","""event"",""trial"",""time""
""fullscreenenter"",""0"",""2013""
","
","
","""event"",""trial"",""time""
""fullscreenenter"",""0"",""2013""
","
","573.2000000001863","","","","","","","","49","1,0,0","0","highway","9","probe-118","0.6979980547428317","0.11167502977342508","0.07336112232083203","1","","","","","","","",""
"","html-keyboard-response","109","605468","0.0-64.0-1.0","""event"",""trial"",""time""
""fullscreenenter"",""0"",""2013""
","
","
","""event"",""trial"",""time""
""fullscreenenter"",""0"",""2013""
","
","null","<p></p>","null","","","","","","","","","","","","","","","","","","","","","","",""
"","do_trial","110","610480","0.0-65.0-0.0","""event"",""trial"",""time""
""fullscreenenter"",""0"",""2013""
","
","
","""event"",""trial"",""time""
""fullscreenenter"",""0"",""2013""
","
","403.8999999994412","","","","","","","","49","1,0,0","0","highway","10","probe-21","0.44654536825635727","0.08267187585474173","0.24165400477001223","1","","","","","","","",""
"","html-keyboard-response","111","611486","0.0-65.0-1.0","""event"",""trial"",""time""
""fullscreenenter"",""0"",""2013""
","
","
","""event"",""trial"",""time""
""fullscreenenter"",""0"",""2013""
","
","null","<p></p>","null","","","","","","","","","","","","","","","","","","","","","","",""
"","do_trial","112","616684","0.0-66.0-0.0","""event"",""trial"",""time""
""fullscreenenter"",""0"",""2013""
","
","
","""event"",""trial"",""time""
""fullscreenenter"",""0"",""2013""
","
","599.0999999996275","","","","","","","","49","1,1,0","0","highway","11","probe-156","0.5831249571671759","0.05654657300895231","0.08539131908978995","1","","","","","","","",""
"","html-keyboard-response","113","617691","0.0-66.0-1.0","""event"",""trial"",""time""
""fullscreenenter"",""0"",""2013""
","
","
","""event"",""trial"",""time""
""fullscreenenter"",""0"",""2013""
","
","null","<p></p>","null","","","","","","","","","","","","","","","","","","","","","","",""
"","do_trial","114","622821","0.0-67.0-0.0","""event"",""trial"",""time""
""fullscreenenter"",""0"",""2013""
","
","
","""event"",""trial"",""time""
""fullscreenenter"",""0"",""2013""
","
","530.1999999992549","","","","","","","","49","0,0,0","0","highway","12","probe-155","0.5619421376221173","0.1855299837379884","0.08581279965346461","0","","","","","","","",""
"","html-keyboard-response","115","623825","0.0-67.0-1.0","""event"",""trial"",""time""
""fullscreenenter"",""0"",""2013""
","
","
","""event"",""trial"",""time""
""fullscreenenter"",""0"",""2013""
","
","null","<p></p>","null","","","","","","","","","","","","","","","","","","","","","","",""
"","do_trial","116","628990","0.0-68.0-0.0","""event"",""trial"",""time""
""fullscreenenter"",""0"",""2013""
","
","
","""event"",""trial"",""time""
""fullscreenenter"",""0"",""2013""
","
","557.1000000005588","","","","","","","","49","0,0,0","0","highway","13","probe-178","0.41423807001117413","0.31420555277518936","0.10226884415876124","0","","","","","","","",""
"","html-keyboard-response","117","629996","0.0-68.0-1.0","""event"",""trial"",""time""
""fullscreenenter"",""0"",""2013""
","
","
","""event"",""trial"",""time""
""fullscreenenter"",""0"",""2013""
","
","null","<p></p>","null","","","","","","","","","","","","","","","","","","","","","","",""
"","do_trial","118","635120","0.0-69.0-0.0","""event"",""trial"",""time""
""fullscreenenter"",""0"",""2013""
","
","
","""event"",""trial"",""time""
""fullscreenenter"",""0"",""2013""
","
","515.6999999992549","","","","","","","","49","1,0,0","0","highway","14","probe-190","0.5262421401522264","0.3739241957315916","0.06650307577827713","1","","","","","","","",""
"","html-keyboard-response","119","636126","0.0-69.0-1.0","""event"",""trial"",""time""
""fullscreenenter"",""0"",""2013""
","
","
","""event"",""trial"",""time""
""fullscreenenter"",""0"",""2013""
","
","null","<p></p>","null","","","","","","","","","","","","","","","","","","","","","","",""
"","do_trial","120","641254","0.0-70.0-0.0","""event"",""trial"",""time""
""fullscreenenter"",""0"",""2013""
","
","
","""event"",""trial"",""time""
""fullscreenenter"",""0"",""2013""
","
","527.9000000003725","","","","","","","","49","1,0,0","0","highway","15","probe-44","0.5008736681262022","0.34073703800480404","0.21554692865373867","1","","","","","","","",""
"","html-keyboard-response","121","642260","0.0-70.0-1.0","""event"",""trial"",""time""
""fullscreenenter"",""0"",""2013""
","
","
","""event"",""trial"",""time""
""fullscreenenter"",""0"",""2013""
","
","null","<p></p>","null","","","","","","","","","","","","","","","","","","","","","","",""
"","do_trial","122","647979","0.0-71.0-0.0","""event"",""trial"",""time""
""fullscreenenter"",""0"",""2013""
","
","
","""event"",""trial"",""time""
""fullscreenenter"",""0"",""2013""
","
","1110.2000000001863","","","","","","","","49","0,1,0","0","highway","16","probe-38","0.45746150821030185","0.2767912287395877","0.2143398533276503","0","","","","","","","",""
"","html-keyboard-response","123","648984","0.0-71.0-1.0","""event"",""trial"",""time""
""fullscreenenter"",""0"",""2013""
","
","
","""event"",""trial"",""time""
""fullscreenenter"",""0"",""2013""
","
","null","<p></p>","null","","","","","","","","","","","","","","","","","","","","","","",""
"","do_trial","124","654596","0.0-72.0-0.0","""event"",""trial"",""time""
""fullscreenenter"",""0"",""2013""
","
","
","""event"",""trial"",""time""
""fullscreenenter"",""0"",""2013""
","
","1001.4000000003725","","","","","","","","49","1,0,0","0","highway","17","probe-31","0.5108483950295195","0.3789342081187819","0.15612407594977562","1","","","","","","","",""
"","html-keyboard-response","125","655603","0.0-72.0-1.0","""event"",""trial"",""time""
""fullscreenenter"",""0"",""2013""
","
","
","""event"",""trial"",""time""
""fullscreenenter"",""0"",""2013""
","
","null","<p></p>","null","","","","","","","","","","","","","","","","","","","","","","",""
"","do_trial","126","660777","0.0-73.0-0.0","""event"",""trial"",""time""
""fullscreenenter"",""0"",""2013""
","
","
","""event"",""trial"",""time""
""fullscreenenter"",""0"",""2013""
","
","566.0999999996275","","","","","","","","49","1,0,0","0","highway","18","probe-94","0.7081887628762416","0.4134804832847447","0.06079314952594276","1","","","","","","","",""
"","html-keyboard-response","127","661782","0.0-73.0-1.0","""event"",""trial"",""time""
""fullscreenenter"",""0"",""2013""
","
","
","""event"",""trial"",""time""
""fullscreenenter"",""0"",""2013""
","
","null","<p></p>","null","","","","","","","","","","","","","","","","","","","","","","",""
"","do_trial","128","666926","0.0-74.0-0.0","""event"",""trial"",""time""
""fullscreenenter"",""0"",""2013""
","
","
","""event"",""trial"",""time""
""fullscreenenter"",""0"",""2013""
","
","537.9000000003725","","","","","","","","49","0,0,1","0","highway","19","probe-204","0.6548233114736217","0.579440241191287","0.2453083986794736","0","","","","","","","",""
"","html-keyboard-response","129","667932","0.0-74.0-1.0","""event"",""trial"",""time""
""fullscreenenter"",""0"",""2013""
","
","
","""event"",""trial"",""time""
""fullscreenenter"",""0"",""2013""
","
","null","<p></p>","null","","","","","","","","","","","","","","","","","","","","","","",""
"","do_trial","130","672834","0.0-75.0-0.0","""event"",""trial"",""time""
""fullscreenenter"",""0"",""2013""
","
","
","""event"",""trial"",""time""
""fullscreenenter"",""0"",""2013""
","
","300.6000000005588","","","","","","","","49","1,0,0","0","highway","20","probe-149","0.6519064022922137","0.5182014137052771","0.13339097538131484","1","","","","","","","",""
"","html-keyboard-response","131","673838","0.0-75.0-1.0","""event"",""trial"",""time""
""fullscreenenter"",""0"",""2013""
","
","
","""event"",""trial"",""time""
""fullscreenenter"",""0"",""2013""
","
","null","<p></p>","null","","","","","","","","","","","","","","","","","","","","","","",""
"","do_trial","132","679039","0.0-76.0-0.0","""event"",""trial"",""time""
""fullscreenenter"",""0"",""2013""
","
","
","""event"",""trial"",""time""
""fullscreenenter"",""0"",""2013""
","
","588.4000000003725","","","","","","","","49","1,0,1","0","highway","21","probe-63","0.620154562926406","0.396783350870372","0.06592128395579085","1","","","","","","","",""
"","html-keyboard-response","133","680044","0.0-76.0-1.0","""event"",""trial"",""time""
""fullscreenenter"",""0"",""2013""
","
","
","""event"",""trial"",""time""
""fullscreenenter"",""0"",""2013""
","
","null","<p></p>","null","","","","","","","","","","","","","","","","","","","","","","",""
"","do_trial","134","685826","0.0-77.0-0.0","""event"",""trial"",""time""
""fullscreenenter"",""0"",""2013""
","
","
","""event"",""trial"",""time""
""fullscreenenter"",""0"",""2013""
","
","1179.5","","","","","","","","49","1,1,0","0","highway","22","probe-147","0.772596660674676","0.4956210466749929","0.09446365284574115","1","","","","","","","",""
"","html-keyboard-response","135","686832","0.0-77.0-1.0","""event"",""trial"",""time""
""fullscreenenter"",""0"",""2013""
","
","
","""event"",""trial"",""time""
""fullscreenenter"",""0"",""2013""
","
","null","<p></p>","null","","","","","","","","","","","","","","","","","","","","","","",""
"","do_trial","136","692143","0.0-78.0-0.0","""event"",""trial"",""time""
""fullscreenenter"",""0"",""2013""
","
","
","""event"",""trial"",""time""
""fullscreenenter"",""0"",""2013""
","
","699.8999999994412","","","","","","","","49","1,1,0","0","highway","23","probe-15","0.6110636390386628","0.4319020018557365","0.06616233161046059","1","","","","","","","",""
"","html-keyboard-response","137","693152","0.0-78.0-1.0","""event"",""trial"",""time""
""fullscreenenter"",""0"",""2013""
","
","
","""event"",""trial"",""time""
""fullscreenenter"",""0"",""2013""
","
","null","<p></p>","null","","","","","","","","","","","","","","","","","","","","","","",""
"","do_trial","138","698723","0.0-79.0-0.0","""event"",""trial"",""time""
""fullscreenenter"",""0"",""2013""
","
","
","""event"",""trial"",""time""
""fullscreenenter"",""0"",""2013""
","
","963.7999999998137","","","","","","","","51","1,0,0","0","highway","24","probe-77","0.6531472675954558","0.37918934033852986","0.2632372719023539","0","","","","","","","",""
"","html-keyboard-response","139","699727","0.0-79.0-1.0","""event"",""trial"",""time""
""fullscreenenter"",""0"",""2013""
","
","
","""event"",""trial"",""time""
""fullscreenenter"",""0"",""2013""
","
","null","<p></p>","null","","","","","","","","","","","","","","","","","","","","","","",""
"","do_trial","140","705199","0.0-80.0-0.0","""event"",""trial"",""time""
""fullscreenenter"",""0"",""2013""
","
","
","""event"",""trial"",""time""
""fullscreenenter"",""0"",""2013""
","
","866.4000000003725","","","","","","","","49","1,0,0","0","highway","25","probe-97","0.7633895770061478","0.2659295924947683","0.09980922711631823","1","","","","","","","",""
"","html-keyboard-response","141","706202","0.0-80.0-1.0","""event"",""trial"",""time""
""fullscreenenter"",""0"",""2013""
","
","
","""event"",""trial"",""time""
""fullscreenenter"",""0"",""2013""
","
","null","<p></p>","null","","","","","","","","","","","","","","","","","","","","","","",""
"","do_trial","142","712126","0.0-81.0-0.0","""event"",""trial"",""time""
""fullscreenenter"",""0"",""2013""
","
","
","""event"",""trial"",""time""
""fullscreenenter"",""0"",""2013""
","
","1325.5","","","","","","","","49","0,0,1","0","highway","26","probe-84","0.7281171588492397","0.3239670991084577","0.13523588682348028","0","","","","","","","",""
"","html-keyboard-response","143","713129","0.0-81.0-1.0","""event"",""trial"",""time""
""fullscreenenter"",""0"",""2013""
","
","
","""event"",""trial"",""time""
""fullscreenenter"",""0"",""2013""
","
","null","<p></p>","null","","","","","","","","","","","","","","","","","","","","","","",""
"","do_trial","144","718190","0.0-82.0-0.0","""event"",""trial"",""time""
""fullscreenenter"",""0"",""2013""
","
","
","""event"",""trial"",""time""
""fullscreenenter"",""0"",""2013""
","
","465.8999999994412","","","","","","","","49","1,0,0","0","highway","27","probe-212","0.5588548857148234","0.427310060352149","0.0974516462585758","1","","","","","","","",""
"","html-keyboard-response","145","719197","0.0-82.0-1.0","""event"",""trial"",""time""
""fullscreenenter"",""0"",""2013""
","
","
","""event"",""trial"",""time""
""fullscreenenter"",""0"",""2013""
","
","null","<p></p>","null","","","","","","","","","","","","","","","","","","","","","","",""
"","do_trial","146","724340","0.0-83.0-0.0","""event"",""trial"",""time""
""fullscreenenter"",""0"",""2013""
","
","
","""event"",""trial"",""time""
""fullscreenenter"",""0"",""2013""
","
","541.4000000003725","","","","","","","","49","1,1,0","0","highway","28","probe-10","0.6543607188733976","0.3734703661798987","0.08854232236410672","1","","","","","","","",""
"","html-keyboard-response","147","725345","0.0-83.0-1.0","""event"",""trial"",""time""
""fullscreenenter"",""0"",""2013""
","
","
","""event"",""trial"",""time""
""fullscreenenter"",""0"",""2013""
","
","null","<p></p>","null","","","","","","","","","","","","","","","","","","","","","","",""
"","do_trial","148","730453","0.0-84.0-0.0","""event"",""trial"",""time""
""fullscreenenter"",""0"",""2013""
","
","
","""event"",""trial"",""time""
""fullscreenenter"",""0"",""2013""
","
","503.20000000018626","","","","","","","","49","1,0,0","0","highway","29","probe-196","0.6098979666664105","0.39613354430282466","0.05346530512554822","1","","","","","","","",""
"","html-keyboard-response","149","731459","0.0-84.0-1.0","""event"",""trial"",""time""
""fullscreenenter"",""0"",""2013""
","
","
","""event"",""trial"",""time""
""fullscreenenter"",""0"",""2013""
","
","null","<p></p>","null","","","","","","","","","","","","","","","","","","","","","","",""
"","do_bye","150","732974","0.0-85.0-0.0","""event"",""trial"",""time""
""fullscreenenter"",""0"",""2013""
","
","
","""event"",""trial"",""time""
""fullscreenenter"",""0"",""2013""
","
","null","","","","","","","","null","","","","","","","","","","","","","","","","",""
"","break","151","735770","0.0-85.0-1.0","""event"",""trial"",""time""
""fullscreenenter"",""0"",""2013""
","
","
","""event"",""trial"",""time""
""fullscreenenter"",""0"",""2013""
","
","2791.2000000001863","<div class='center'><p>Time to take a quick break! You have 2 minutes to rest, but you can move on sooner if you'd like.</p><p> Press the <b>space bar</b> to continue.</p></div>","32","","","","","","","","","","","","","","","","","","","","","","",""
"","do_travel","152","744786","0.0-86.0-0.0","""event"",""trial"",""time""
""fullscreenenter"",""0"",""2013""
","
","
","""event"",""trial"",""time""
""fullscreenenter"",""0"",""2013""
","
","null","","","","","","","","null","","","","","","","","","","","","","","","","",""
"","do_welcome","153","748798","0.0-86.0-1.0","""event"",""trial"",""time""
""fullscreenenter"",""0"",""2013""
","
","
","""event"",""trial"",""time""
""fullscreenenter"",""0"",""2013""
","
","null","","","","","","","","null","","","","","","","","","","","","","","","","",""
"","do_trial","154","755104","0.0-87.0-0.0","""event"",""trial"",""time""
""fullscreenenter"",""0"",""2013""
","
","
","""event"",""trial"",""time""
""fullscreenenter"",""0"",""2013""
","
","1708","","","","","","","","49","1,1,0","1","mountain","30","probe-162","1","0.3703439689325515","0.10599667813378975","1","","","","","","","",""
"","html-keyboard-response","155","756109","0.0-87.0-1.0","""event"",""trial"",""time""
""fullscreenenter"",""0"",""2013""
","
","
","""event"",""trial"",""time""
""fullscreenenter"",""0"",""2013""
","
","null","<p></p>","null","","","","","","","","","","","","","","","","","","","","","","",""
"","do_trial","156","761047","0.0-88.0-0.0","""event"",""trial"",""time""
""fullscreenenter"",""0"",""2013""
","
","
","""event"",""trial"",""time""
""fullscreenenter"",""0"",""2013""
","
","325.20000000018626","","","","","","","","49","1,0,0","1","mountain","31","probe-146","1","0.46993956130033787","0.08662236197415148","1","","","","","","","",""
"","html-keyboard-response","157","762053","0.0-88.0-1.0","""event"",""trial"",""time""
""fullscreenenter"",""0"",""2013""
","
","
","""event"",""trial"",""time""
""fullscreenenter"",""0"",""2013""
","
","null","<p></p>","null","","","","","","","","","","","","","","","","","","","","","","",""
"","do_trial","158","767257","0.0-89.0-0.0","""event"",""trial"",""time""
""fullscreenenter"",""0"",""2013""
","
","
","""event"",""trial"",""time""
""fullscreenenter"",""0"",""2013""
","
","594.2999999998137","","","","","","","","49","1,1,0","1","mountain","32","probe-72","1","0.39473393339565","0.13924130937033727","1","","","","","","","",""
"","html-keyboard-response","159","768262","0.0-89.0-1.0","""event"",""trial"",""time""
""fullscreenenter"",""0"",""2013""
","
","
","""event"",""trial"",""time""
""fullscreenenter"",""0"",""2013""
","
","null","<p></p>","null","","","","","","","","","","","","","","","","","","","","","","",""
"","do_trial","160","773491","0.0-90.0-0.0","""event"",""trial"",""time""
""fullscreenenter"",""0"",""2013""
","
","
","""event"",""trial"",""time""
""fullscreenenter"",""0"",""2013""
","
","617.7000000001863","","","","","","","","49","0,0,0","1","mountain","33","probe-164","0.7925072859930865","0.2571761993133424","0.11183849635600285","0","","","","","","","",""
"","html-keyboard-response","161","774498","0.0-90.0-1.0","""event"",""trial"",""time""
""fullscreenenter"",""0"",""2013""
","
","
","""event"",""trial"",""time""
""fullscreenenter"",""0"",""2013""
","
","null","<p></p>","null","","","","","","","","","","","","","","","","","","","","","","",""
"","do_trial","162","779557","0.0-91.0-0.0","""event"",""trial"",""time""
""fullscreenenter"",""0"",""2013""
","
","
","""event"",""trial"",""time""
""fullscreenenter"",""0"",""2013""
","
","456","","","","","","","","49","0,0,0","1","mountain","34","probe-173","0.8646971717396019","0.05888365387505161","0.10993665134758046","0","","","","","","","",""
"","html-keyboard-response","163","780564","0.0-91.0-1.0","""event"",""trial"",""time""
""fullscreenenter"",""0"",""2013""
","
","
","""event"",""trial"",""time""
""fullscreenenter"",""0"",""2013""
","
","null","<p></p>","null","","","","","","","","","","","","","","","","","","","","","","",""
"","do_trial","164","785508","0.0-92.0-0.0","""event"",""trial"",""time""
""fullscreenenter"",""0"",""2013""
","
","
","""event"",""trial"",""time""
""fullscreenenter"",""0"",""2013""
","
","344.79999999981374","","","","","","","","49","1,0,0","1","mountain","35","probe-41","0.7008495536014191","0.24155866492678138","0.09298820457889143","1","","","","","","","",""
"","html-keyboard-response","165","786513","0.0-92.0-1.0","""event"",""trial"",""time""
""fullscreenenter"",""0"",""2013""
","
","
","""event"",""trial"",""time""
""fullscreenenter"",""0"",""2013""
","
","null","<p></p>","null","","","","","","","","","","","","","","","","","","","","","","",""
"","do_trial","166","791548","0.0-93.0-0.0","""event"",""trial"",""time""
""fullscreenenter"",""0"",""2013""
","
","
","""event"",""trial"",""time""
""fullscreenenter"",""0"",""2013""
","
","427.29999999981374","","","","","","","","49","1,0,0","1","mountain","36","probe-40","0.6951301809361992","0.3504483481073527","0.12976113359039312","1","","","","","","","",""
"","html-keyboard-response","167","792557","0.0-93.0-1.0","""event"",""trial"",""time""
""fullscreenenter"",""0"",""2013""
","
","
","""event"",""trial"",""time""
""fullscreenenter"",""0"",""2013""
","
","null","<p></p>","null","","","","","","","","","","","","","","","","","","","","","","",""
"","do_trial","168","797571","0.0-94.0-0.0","""event"",""trial"",""time""
""fullscreenenter"",""0"",""2013""
","
","
","""event"",""trial"",""time""
""fullscreenenter"",""0"",""2013""
","
","403.29999999981374","","","","","","","","49","1,0,0","1","mountain","37","probe-08","0.7841742711046973","0.4589480766421145","0.078963470115654","1","","","","","","","",""
"","html-keyboard-response","169","798579","0.0-94.0-1.0","""event"",""trial"",""time""
""fullscreenenter"",""0"",""2013""
","
","
","""event"",""trial"",""time""
""fullscreenenter"",""0"",""2013""
","
","null","<p></p>","null","","","","","","","","","","","","","","","","","","","","","","",""
"","do_trial","170","803698","0.0-95.0-0.0","""event"",""trial"",""time""
""fullscreenenter"",""0"",""2013""
","
","
","""event"",""trial"",""time""
""fullscreenenter"",""0"",""2013""
","
","508.59999999962747","","","","","","","","49","0,0,0","1","mountain","38","probe-193","0.5161572988338923","0.29470580325815016","0.08926646440716436","0","","","","","","","",""
"","html-keyboard-response","171","804702","0.0-95.0-1.0","""event"",""trial"",""time""
""fullscreenenter"",""0"",""2013""
","
","
","""event"",""trial"",""time""
""fullscreenenter"",""0"",""2013""
","
","null","<p></p>","null","","","","","","","","","","","","","","","","","","","","","","",""
"","do_trial","172","809437","0.0-96.0-0.0","""event"",""trial"",""time""
""fullscreenenter"",""0"",""2013""
","
","
","""event"",""trial"",""time""
""fullscreenenter"",""0"",""2013""
","
","130.40000000037253","","","","","","","","49","1,0,0","1","mountain","39","probe-57","0.5720866796187197","0.22918728349266937","0.20865300269867945","1","","","","","","","",""
"","html-keyboard-response","173","810444","0.0-96.0-1.0","""event"",""trial"",""time""
""fullscreenenter"",""0"",""2013""
","
","
","""event"",""trial"",""time""
""fullscreenenter"",""0"",""2013""
","
","null","<p></p>","null","","","","","","","","","","","","","","","","","","","","","","",""
"","do_trial","174","815917","0.0-97.0-0.0","""event"",""trial"",""time""
""fullscreenenter"",""0"",""2013""
","
","
","""event"",""trial"",""time""
""fullscreenenter"",""0"",""2013""
","
","862.2999999998137","","","","","","","","49","1,0,1","1","mountain","40","probe-181","0.610292958199645","0.23115359319829615","0.1568931653074568","1","","","","","","","",""
"","html-keyboard-response","175","816924","0.0-97.0-1.0","""event"",""trial"",""time""
""fullscreenenter"",""0"",""2013""
","
","
","""event"",""trial"",""time""
""fullscreenenter"",""0"",""2013""
","
","null","<p></p>","null","","","","","","","","","","","","","","","","","","","","","","",""
"","do_trial","176","822087","0.0-98.0-0.0","""event"",""trial"",""time""
""fullscreenenter"",""0"",""2013""
","
","
","""event"",""trial"",""time""
""fullscreenenter"",""0"",""2013""
","
","553.8000000007451","","","","","","","","49","1,1,0","1","mountain","41","probe-168","0.6537984045690799","0.3332355928365044","0.1082704675456462","1","","","","","","","",""
"","html-keyboard-response","177","823093","0.0-98.0-1.0","""event"",""trial"",""time""
""fullscreenenter"",""0"",""2013""
","
","
","""event"",""trial"",""time""
""fullscreenenter"",""0"",""2013""
","
","null","<p></p>","null","","","","","","","","","","","","","","","","","","","","","","",""
"","do_trial","178","828119","0.0-99.0-0.0","""event"",""trial"",""time""
""fullscreenenter"",""0"",""2013""
","
","
","""event"",""trial"",""time""
""fullscreenenter"",""0"",""2013""
","
","419.59999999962747","","","","","","","","49","1,0,0","1","mountain","42","probe-12","0.4875097669798538","0.3404190127120462","0.0800187802895082","1","","","","","","","",""
"","html-keyboard-response","179","829126","0.0-99.0-1.0","""event"",""trial"",""time""
""fullscreenenter"",""0"",""2013""
","
","
","""event"",""trial"",""time""
""fullscreenenter"",""0"",""2013""
","
","null","<p></p>","null","","","","","","","","","","","","","","","","","","","","","","",""
"","do_trial","180","834181","0.0-100.0-0.0","""event"",""trial"",""time""
""fullscreenenter"",""0"",""2013""
","
","
","""event"",""trial"",""time""
""fullscreenenter"",""0"",""2013""
","
","447","","","","","","","","49","0,0,0","1","mountain","43","probe-19","0.5643555859562221","0.5257876120918683","0.12222777489229168","0","","","","","","","",""
"","html-keyboard-response","181","835187","0.0-100.0-1.0","""event"",""trial"",""time""
""fullscreenenter"",""0"",""2013""
","
","
","""event"",""trial"",""time""
""fullscreenenter"",""0"",""2013""
","
","null","<p></p>","null","","","","","","","","","","","","","","","","","","","","","","",""
"","do_trial","182","840133","0.0-101.0-0.0","""event"",""trial"",""time""
""fullscreenenter"",""0"",""2013""
","
","
","""event"",""trial"",""time""
""fullscreenenter"",""0"",""2013""
","
","335.1000000005588","","","","","","","","49","0,1,0","1","mountain","44","probe-70","0.37518778036507777","0.5370011528856495","0.06556627370221473","0","","","","","","","",""
"","html-keyboard-response","183","841137","0.0-101.0-1.0","""event"",""trial"",""time""
""fullscreenenter"",""0"",""2013""
","
","
","""event"",""trial"",""time""
""fullscreenenter"",""0"",""2013""
","
","null","<p></p>","null","","","","","","","","","","","","","","","","","","","","","","",""
"","do_trial","184","846118","0.0-102.0-0.0","""event"",""trial"",""time""
""fullscreenenter"",""0"",""2013""
","
","
","""event"",""trial"",""time""
""fullscreenenter"",""0"",""2013""
","
","379.90000000037253","","","","","","","","49","0,0,0","1","mountain","45","probe-18","0.5190145048916952","0.4953636799693927","0.05596095323901226","0","","","","","","","",""
"","html-keyboard-response","185","847124","0.0-102.0-1.0","""event"",""trial"",""time""
""fullscreenenter"",""0"",""2013""
","
","
","""event"",""trial"",""time""
""fullscreenenter"",""0"",""2013""
","
","null","<p></p>","null","","","","","","","","","","","","","","","","","","","","","","",""
"","do_trial","186","852343","0.0-103.0-0.0","""event"",""trial"",""time""
""fullscreenenter"",""0"",""2013""
","
","
","""event"",""trial"",""time""
""fullscreenenter"",""0"",""2013""
","
","616.0999999996275","","","","","","","","49","0,0,1","1","mountain","46","probe-06","0.5024790858941313","0.5850675849608037","0.2744119145742291","0","","","","","","","",""
"","html-keyboard-response","187","853346","0.0-103.0-1.0","""event"",""trial"",""time""
""fullscreenenter"",""0"",""2013""
","
","
","""event"",""trial"",""time""
""fullscreenenter"",""0"",""2013""
","
","null","<p></p>","null","","","","","","","","","","","","","","","","","","","","","","",""
"","do_trial","188","858292","0.0-104.0-0.0","""event"",""trial"",""time""
""fullscreenenter"",""0"",""2013""
","
","
","""event"",""trial"",""time""
""fullscreenenter"",""0"",""2013""
","
","349.19999999925494","","","","","","","","49","1,1,0","1","mountain","47","probe-46","0.4245732156487628","0.45284788973685397","0.25751209135759595","1","","","","","","","",""
"","html-keyboard-response","189","859297","0.0-104.0-1.0","""event"",""trial"",""time""
""fullscreenenter"",""0"",""2013""
","
","
","""event"",""trial"",""time""
""fullscreenenter"",""0"",""2013""
","
","null","<p></p>","null","","","","","","","","","","","","","","","","","","","","","","",""
"","do_trial","190","864410","0.0-105.0-0.0","""event"",""trial"",""time""
""fullscreenenter"",""0"",""2013""
","
","
","""event"",""trial"",""time""
""fullscreenenter"",""0"",""2013""
","
","500.59999999962747","","","","","","","","49","0,0,0","1","mountain","48","probe-47","0.3689926629406736","0.44843944825376325","0.12731896381090232","0","","","","","","","",""
"","html-keyboard-response","191","865419","0.0-105.0-1.0","""event"",""trial"",""time""
""fullscreenenter"",""0"",""2013""
","
","
","""event"",""trial"",""time""
""fullscreenenter"",""0"",""2013""
","
","null","<p></p>","null","","","","","","","","","","","","","","","","","","","","","","",""
"","do_trial","192","870748","0.0-106.0-0.0","""event"",""trial"",""time""
""fullscreenenter"",""0"",""2013""
","
","
","""event"",""trial"",""time""
""fullscreenenter"",""0"",""2013""
","
","721.6000000005588","","","","","","","","49","1,1,0","1","mountain","49","probe-96","0.3769162808433605","0.4816978609640264","0.10484267689356244","1","","","","","","","",""
"","html-keyboard-response","193","871757","0.0-106.0-1.0","""event"",""trial"",""time""
""fullscreenenter"",""0"",""2013""
","
","
","""event"",""trial"",""time""
""fullscreenenter"",""0"",""2013""
","
","null","<p></p>","null","","","","","","","","","","","","","","","","","","","","","","",""
"","do_trial","194","876894","0.0-107.0-0.0","""event"",""trial"",""time""
""fullscreenenter"",""0"",""2013""
","
","
","""event"",""trial"",""time""
""fullscreenenter"",""0"",""2013""
","
","520.7999999998137","","","","","","","","49","1,0,0","1","mountain","50","probe-157","0.4828362493748526","0.5554893273401956","0.238188479848222","1","","","","","","","",""
"","html-keyboard-response","195","877901","0.0-107.0-1.0","""event"",""trial"",""time""
""fullscreenenter"",""0"",""2013""
","
","
","""event"",""trial"",""time""
""fullscreenenter"",""0"",""2013""
","
","null","<p></p>","null","","","","","","","","","","","","","","","","","","","","","","",""
"","do_trial","196","883001","0.0-108.0-0.0","""event"",""trial"",""time""
""fullscreenenter"",""0"",""2013""
","
","
","""event"",""trial"",""time""
""fullscreenenter"",""0"",""2013""
","
","498.79999999981374","","","","","","","","49","0,1,0","1","mountain","51","probe-144","0.3792576661398711","0.543756742924837","0.15764082921266812","0","","","","","","","",""
"","html-keyboard-response","197","884009","0.0-108.0-1.0","""event"",""trial"",""time""
""fullscreenenter"",""0"",""2013""
","
","
","""event"",""trial"",""time""
""fullscreenenter"",""0"",""2013""
","
","null","<p></p>","null","","","","","","","","","","","","","","","","","","","","","","",""
"","do_trial","198","888948","0.0-109.0-0.0","""event"",""trial"",""time""
""fullscreenenter"",""0"",""2013""
","
","
","""event"",""trial"",""time""
""fullscreenenter"",""0"",""2013""
","
","331","","","","","","","","49","1,0,0","1","mountain","52","probe-221","0.22367554069815737","0.6666635235324586","0.26074341112045807","1","","","","","","","",""
"","html-keyboard-response","199","889955","0.0-109.0-1.0","""event"",""trial"",""time""
""fullscreenenter"",""0"",""2013""
","
","
","""event"",""trial"",""time""
""fullscreenenter"",""0"",""2013""
","
","null","<p></p>","null","","","","","","","","","","","","","","","","","","","","","","",""
"","do_trial","200","895080","0.0-110.0-0.0","""event"",""trial"",""time""
""fullscreenenter"",""0"",""2013""
","
","
","""event"",""trial"",""time""
""fullscreenenter"",""0"",""2013""
","
","512.2000000001863","","","","","","","","49","0,0,1","1","mountain","53","probe-185","0.3416547747223819","0.684895401944191","0.268754419773622","0","","","","","","","",""
"","html-keyboard-response","201","896087","0.0-110.0-1.0","""event"",""trial"",""time""
""fullscreenenter"",""0"",""2013""
","
","
","""event"",""trial"",""time""
""fullscreenenter"",""0"",""2013""
","
","null","<p></p>","null","","","","","","","","","","","","","","","","","","","","","","",""
"","do_trial","202","901149","0.0-111.0-0.0","""event"",""trial"",""time""
""fullscreenenter"",""0"",""2013""
","
","
","""event"",""trial"",""time""
""fullscreenenter"",""0"",""2013""
","
","449","","","","","","","","49","0,1,0","1","mountain","54","probe-171","0.47291466238967284","0.47762768207840484","0.18234897869398836","0","","","","","","","",""
"","html-keyboard-response","203","902156","0.0-111.0-1.0","""event"",""trial"",""time""
""fullscreenenter"",""0"",""2013""
","
","
","""event"",""trial"",""time""
""fullscreenenter"",""0"",""2013""
","
","null","<p></p>","null","","","","","","","","","","","","","","","","","","","","","","",""
"","do_trial","204","907940","0.0-112.0-0.0","""event"",""trial"",""time""
""fullscreenenter"",""0"",""2013""
","
","
","""event"",""trial"",""time""
""fullscreenenter"",""0"",""2013""
","
","1185.2000000001863","","","","","","","","49","0,0,0","1","mountain","55","probe-195","0.3459301241155338","0.6102668781736612","0.28186032770418273","0","","","","","","","",""
"","html-keyboard-response","205","908945","0.0-112.0-1.0","""event"",""trial"",""time""
""fullscreenenter"",""0"",""2013""
","
","
","""event"",""trial"",""time""
""fullscreenenter"",""0"",""2013""
","
","null","<p></p>","null","","","","","","","","","","","","","","","","","","","","","","",""
"","do_trial","206","914491","0.0-113.0-0.0","""event"",""trial"",""time""
""fullscreenenter"",""0"",""2013""
","
","
","""event"",""trial"",""time""
""fullscreenenter"",""0"",""2013""
","
","944.8000000007451","","","","","","","","49","0,0,0","1","mountain","56","probe-89","0.40697607458023316","0.6093133776065524","0.20529496921948706","0","","","","","","","",""
"","html-keyboard-response","207","915495","0.0-113.0-1.0","""event"",""trial"",""time""
""fullscreenenter"",""0"",""2013""
","
","
","""event"",""trial"",""time""
""fullscreenenter"",""0"",""2013""
","
","null","<p></p>","null","","","","","","","","","","","","","","","","","","","","","","",""
"","do_trial","208","920580","0.0-114.0-0.0","""event"",""trial"",""time""
""fullscreenenter"",""0"",""2013""
","
","
","""event"",""trial"",""time""
""fullscreenenter"",""0"",""2013""
","
","486.90000000037253","","","","","","","","49","0,1,0","1","mountain","57","probe-22","0.2943425396535192","0.5609283460192804","0.07048590940153333","0","","","","","","","",""
"","html-keyboard-response","209","921587","0.0-114.0-1.0","""event"",""trial"",""time""
""fullscreenenter"",""0"",""2013""
","
","
","""event"",""trial"",""time""
""fullscreenenter"",""0"",""2013""
","
","null","<p></p>","null","","","","","","","","","","","","","","","","","","","","","","",""
"","do_trial","210","926712","0.0-115.0-0.0","""event"",""trial"",""time""
""fullscreenenter"",""0"",""2013""
","
","
","""event"",""trial"",""time""
""fullscreenenter"",""0"",""2013""
","
","516.8999999994412","","","","","","","","49","1,0,0","1","mountain","58","probe-216","0.2801828323282169","0.5478633604021209","0.15445328433443434","1","","","","","","","",""
"","html-keyboard-response","211","927716","0.0-115.0-1.0","""event"",""trial"",""time""
""fullscreenenter"",""0"",""2013""
","
","
","""event"",""trial"",""time""
""fullscreenenter"",""0"",""2013""
","
","null","<p></p>","null","","","","","","","","","","","","","","","","","","","","","","",""
"","do_trial","212","932873","0.0-116.0-0.0","""event"",""trial"",""time""
""fullscreenenter"",""0"",""2013""
","
","
","""event"",""trial"",""time""
""fullscreenenter"",""0"",""2013""
","
","551.2000000001863","","","","","","","","49","0,1,0","1","mountain","59","probe-120","0.32443865344696654","0.6657128757756963","0.158129102300942","0","","","","","","","",""
"","html-keyboard-response","213","933879","0.0-116.0-1.0","""event"",""trial"",""time""
""fullscreenenter"",""0"",""2013""
","
","
","""event"",""trial"",""time""
""fullscreenenter"",""0"",""2013""
","
","null","<p></p>","null","","","","","","","","","","","","","","","","","","","","","","",""
"","do_trial","214","939082","0.0-117.0-0.0","""event"",""trial"",""time""
""fullscreenenter"",""0"",""2013""
","
","
","""event"",""trial"",""time""
""fullscreenenter"",""0"",""2013""
","
","598","","","","","","","","49","0,0,0","1","mountain","60","probe-85","0.37639117654760507","0.7697720599971257","0.14006402640578394","0","","","","","","","",""
"","html-keyboard-response","215","940093","0.0-117.0-1.0","""event"",""trial"",""time""
""fullscreenenter"",""0"",""2013""
","
","
","""event"",""trial"",""time""
""fullscreenenter"",""0"",""2013""
","
","null","<p></p>","null","","","","","","","","","","","","","","","","","","","","","","",""
"","do_trial","216","945132","0.0-118.0-0.0","""event"",""trial"",""time""
""fullscreenenter"",""0"",""2013""
","
","
","""event"",""trial"",""time""
""fullscreenenter"",""0"",""2013""
","
","430.70000000018626","","","","","","","","49","0,1,0","1","mountain","61","probe-99","0.30342522868495747","0.7198269649887149","0.14046538008647397","0","","","","","","","",""
"","html-keyboard-response","217","946137","0.0-118.0-1.0","""event"",""trial"",""time""
""fullscreenenter"",""0"",""2013""
","
","
","""event"",""trial"",""time""
""fullscreenenter"",""0"",""2013""
","
","null","<p></p>","null","","","","","","","","","","","","","","","","","","","","","","",""
"","do_trial","218","952525","0.0-119.0-0.0","""event"",""trial"",""time""
""fullscreenenter"",""0"",""2013""
","
","
","""event"",""trial"",""time""
""fullscreenenter"",""0"",""2013""
","
","1776.7999999998137","","","","","","","","51","1,1,0","1","mountain","62","probe-53","0.346461718794488","0.4909699291099191","0.06884769327197991","0","","","","","","","",""
"","html-keyboard-response","219","953528","0.0-119.0-1.0","""event"",""trial"",""time""
""fullscreenenter"",""0"",""2013""
","
","
","""event"",""trial"",""time""
""fullscreenenter"",""0"",""2013""
","
","null","<p></p>","null","","","","","","","","","","","","","","","","","","","","","","",""
"","do_trial","220","958553","0.0-120.0-0.0","""event"",""trial"",""time""
""fullscreenenter"",""0"",""2013""
","
","
","""event"",""trial"",""time""
""fullscreenenter"",""0"",""2013""
","
","409.79999999981374","","","","","","","","51","0,0,0","1","mountain","63","probe-102","0.46996026786637446","0.44211130144533306","0.09226054193804224","0","","","","","","","",""
"","html-keyboard-response","221","959559","0.0-120.0-1.0","""event"",""trial"",""time""
""fullscreenenter"",""0"",""2013""
","
","
","""event"",""trial"",""time""
""fullscreenenter"",""0"",""2013""
","
","null","<p></p>","null","","","","","","","","","","","","","","","","","","","","","","",""
"","do_trial","222","965493","0.0-121.0-0.0","""event"",""trial"",""time""
""fullscreenenter"",""0"",""2013""
","
","
","""event"",""trial"",""time""
""fullscreenenter"",""0"",""2013""
","
","1325.7999999998137","","","","","","","","50","0,1,1","1","mountain","64","probe-108","0.338404130387159","0.49766148945474603","0.21041837690815243","1","","","","","","","",""
"","html-keyboard-response","223","966498","0.0-121.0-1.0","""event"",""trial"",""time""
""fullscreenenter"",""0"",""2013""
","
","
","""event"",""trial"",""time""
""fullscreenenter"",""0"",""2013""
","
","null","<p></p>","null","","","","","","","","","","","","","","","","","","","","","","",""
"","do_trial","224","973388","0.0-122.0-0.0","""event"",""trial"",""time""
""fullscreenenter"",""0"",""2013""
","
","
","""event"",""trial"",""time""
""fullscreenenter"",""0"",""2013""
","
","2282.0999999996275","","","","","","","","50","0,1,1","1","mountain","65","probe-82","0.24652833960114107","0.5940525109052539","0.26716901960391265","1","","","","","","","",""
"","html-keyboard-response","225","974395","0.0-122.0-1.0","""event"",""trial"",""time""
""fullscreenenter"",""0"",""2013""
","
","
","""event"",""trial"",""time""
""fullscreenenter"",""0"",""2013""
","
","null","<p></p>","null","","","","","","","","","","","","","","","","","","","","","","",""
"","do_trial","226","979365","0.0-123.0-0.0","""event"",""trial"",""time""
""fullscreenenter"",""0"",""2013""
","
","
","""event"",""trial"",""time""
""fullscreenenter"",""0"",""2013""
","
","360.09999999962747","","","","","","","","50","1,0,0","1","mountain","66","probe-27","0.1391406280700907","0.7254418121612654","0.15550494992435362","0","","","","","","","",""
"","html-keyboard-response","227","980372","0.0-123.0-1.0","""event"",""trial"",""time""
""fullscreenenter"",""0"",""2013""
","
","
","""event"",""trial"",""time""
""fullscreenenter"",""0"",""2013""
","
","null","<p></p>","null","","","","","","","","","","","","","","","","","","","","","","",""
"","do_trial","228","985292","0.0-124.0-0.0","""event"",""trial"",""time""
""fullscreenenter"",""0"",""2013""
","
","
","""event"",""trial"",""time""
""fullscreenenter"",""0"",""2013""
","
","308.70000000018626","","","","","","","","49","0,1,0","1","mountain","67","probe-175","0.21793407801647122","0.7556334228003674","0.18226497267831016","0","","","","","","","",""
"","html-keyboard-response","229","986299","0.0-124.0-1.0","""event"",""trial"",""time""
""fullscreenenter"",""0"",""2013""
","
","
","""event"",""trial"",""time""
""fullscreenenter"",""0"",""2013""
","
","null","<p></p>","null","","","","","","","","","","","","","","","","","","","","","","",""
"","do_trial","230","991310","0.0-125.0-0.0","""event"",""trial"",""time""
""fullscreenenter"",""0"",""2013""
","
","
","""event"",""trial"",""time""
""fullscreenenter"",""0"",""2013""
","
","404.70000000018626","","","","","","","","49","0,0,0","1","mountain","68","probe-104","0.3307717864500245","0.5542025027516199","0.05292799711741976","0","","","","","","","",""
"","html-keyboard-response","231","992316","0.0-125.0-1.0","""event"",""trial"",""time""
""fullscreenenter"",""0"",""2013""
","
","
","""event"",""trial"",""time""
""fullscreenenter"",""0"",""2013""
","
","null","<p></p>","null","","","","","","","","","","","","","","","","","","","","","","",""
"","do_trial","232","997218","0.0-126.0-0.0","""event"",""trial"",""time""
""fullscreenenter"",""0"",""2013""
","
","
","""event"",""trial"",""time""
""fullscreenenter"",""0"",""2013""
","
","294.59999999962747","","","","","","","","49","0,1,0","1","mountain","69","probe-160","0.2673849697450953","0.5446127466305434","0.127778435262912","0","","","","","","","",""
"","html-keyboard-response","233","998222","0.0-126.0-1.0","""event"",""trial"",""time""
""fullscreenenter"",""0"",""2013""
","
","
","""event"",""trial"",""time""
""fullscreenenter"",""0"",""2013""
","
","null","<p></p>","null","","","","","","","","","","","","","","","","","","","","","","",""
"","do_bye","234","999735","0.0-127.0-0.0","""event"",""trial"",""time""
""fullscreenenter"",""0"",""2013""
","
","
","""event"",""trial"",""time""
""fullscreenenter"",""0"",""2013""
","
","null","","","","","","","","null","","","","","","","","","","","","","","","","",""
"","break","235","1000699","0.0-127.0-1.0","""event"",""trial"",""time""
""fullscreenenter"",""0"",""2013""
","
","
","""event"",""trial"",""time""
""fullscreenenter"",""0"",""2013""
","
","960.7000000001863","<div class='center'><p>Time to take a quick break! You have 2 minutes to rest, but you can move on sooner if you'd like.</p><p> Press the <b>space bar</b> to continue.</p></div>","32","","","","","","","","","","","","","","","","","","","","","","",""
"","do_travel","236","1009712","0.0-128.0-0.0","""event"",""trial"",""time""
""fullscreenenter"",""0"",""2013""
","
","
","""event"",""trial"",""time""
""fullscreenenter"",""0"",""2013""
","
","null","","","","","","","","null","","","","","","","","","","","","","","","","",""
"","do_welcome","237","1013735","0.0-128.0-1.0","""event"",""trial"",""time""
""fullscreenenter"",""0"",""2013""
","
","
","""event"",""trial"",""time""
""fullscreenenter"",""0"",""2013""
","
","null","","","","","","","","null","","","","","","","","","","","","","","","","",""
"","do_trial","238","1020388","0.0-129.0-0.0","""event"",""trial"",""time""
""fullscreenenter"",""0"",""2013""
","
","
","""event"",""trial"",""time""
""fullscreenenter"",""0"",""2013""
","
","2035.7999999998137","","","","","","","","49","0,1,0","2","coast","70","probe-65","0.303061893033416","1","0.2343968865748731","0","","","","","","","",""
"","html-keyboard-response","239","1021395","0.0-129.0-1.0","""event"",""trial"",""time""
""fullscreenenter"",""0"",""2013""
","
","
","""event"",""trial"",""time""
""fullscreenenter"",""0"",""2013""
","
","null","<p></p>","null","","","","","","","","","","","","","","","","","","","","","","",""
"","do_trial","240","1026466","0.0-130.0-0.0","""event"",""trial"",""time""
""fullscreenenter"",""0"",""2013""
","
","
","""event"",""trial"",""time""
""fullscreenenter"",""0"",""2013""
","
","461.59999999962747","","","","","","","","49","1,1,0","2","coast","71","probe-117","0.27248279383292995","1","0.21642635899551554","1","","","","","","","",""
"","html-keyboard-response","241","1027472","0.0-130.0-1.0","""event"",""trial"",""time""
""fullscreenenter"",""0"",""2013""
","
","
","""event"",""trial"",""time""
""fullscreenenter"",""0"",""2013""
","
","null","<p></p>","null","","","","","","","","","","","","","","","","","","","","","","",""
"","do_trial","242","1032394","0.0-131.0-0.0","""event"",""trial"",""time""
""fullscreenenter"",""0"",""2013""
","
","
","""event"",""trial"",""time""
""fullscreenenter"",""0"",""2013""
","
","313.79999999981374","","","","","","","","49","0,1,0","2","coast","72","probe-68","0.23632097705670688","0.7667325304084847","0.15649681066697896","0","","","","","","","",""
"","html-keyboard-response","243","1033402","0.0-131.0-1.0","""event"",""trial"",""time""
""fullscreenenter"",""0"",""2013""
","
","
","""event"",""trial"",""time""
""fullscreenenter"",""0"",""2013""
","
","null","<p></p>","null","","","","","","","","","","","","","","","","","","","","","","",""
"","do_trial","244","1038419","0.0-132.0-0.0","""event"",""trial"",""time""
""fullscreenenter"",""0"",""2013""
","
","
","""event"",""trial"",""time""
""fullscreenenter"",""0"",""2013""
","
","405.6000000005588","","","","","","","","49","0,1,0","2","coast","73","probe-09","0.31801895172500877","0.6572619243018474","0.1809122039604056","0","","","","","","","",""
"","html-keyboard-response","245","1039424","0.0-132.0-1.0","""event"",""trial"",""time""
""fullscreenenter"",""0"",""2013""
","
","
","""event"",""trial"",""time""
""fullscreenenter"",""0"",""2013""
","
","null","<p></p>","null","","","","","","","","","","","","","","","","","","","","","","",""
"","do_trial","246","1044397","0.0-133.0-0.0","""event"",""trial"",""time""
""fullscreenenter"",""0"",""2013""
","
","
","""event"",""trial"",""time""
""fullscreenenter"",""0"",""2013""
","
","362.70000000018626","","","","","","","","49","1,1,0","2","coast","74","probe-172","0.41073243475190063","0.5835905967709336","0.06958214008469528","1","","","","","","","",""
"","html-keyboard-response","247","1045405","0.0-133.0-1.0","""event"",""trial"",""time""
""fullscreenenter"",""0"",""2013""
","
","
","""event"",""trial"",""time""
""fullscreenenter"",""0"",""2013""
","
","null","<p></p>","null","","","","","","","","","","","","","","","","","","","","","","",""
"","do_trial","248","1050391","0.0-134.0-0.0","""event"",""trial"",""time""
""fullscreenenter"",""0"",""2013""
","
","
","""event"",""trial"",""time""
""fullscreenenter"",""0"",""2013""
","
","378","","","","","","","","49","0,0,0","2","coast","75","probe-11","0.4727975609389865","0.5822118922814538","0.11071699254564832","0","","","","","","","",""
"","html-keyboard-response","249","1051398","0.0-134.0-1.0","""event"",""trial"",""time""
""fullscreenenter"",""0"",""2013""
","
","
","""event"",""trial"",""time""
""fullscreenenter"",""0"",""2013""
","
","null","<p></p>","null","","","","","","","","","","","","","","","","","","","","","","",""
"","do_trial","250","1056515","0.0-135.0-0.0","""event"",""trial"",""time""
""fullscreenenter"",""0"",""2013""
","
","
","""event"",""trial"",""time""
""fullscreenenter"",""0"",""2013""
","
","516.8999999994412","","","","","","","","49","0,0,0","2","coast","76","probe-203","0.4127688559600229","0.4978030001116925","0.21004196247089119","0","","","","","","","",""
"","html-keyboard-response","251","1057522","0.0-135.0-1.0","""event"",""trial"",""time""
""fullscreenenter"",""0"",""2013""
","
","
","""event"",""trial"",""time""
""fullscreenenter"",""0"",""2013""
","
","null","<p></p>","null","","","","","","","","","","","","","","","","","","","","","","",""
"","do_trial","252","1062703","0.0-136.0-0.0","""event"",""trial"",""time""
""fullscreenenter"",""0"",""2013""
","
","
","""event"",""trial"",""time""
""fullscreenenter"",""0"",""2013""
","
","571.9000000003725","","","","","","","","49","0,0,0","2","coast","77","probe-123","0.42389274799556353","0.5521945975599192","0.16869010796249698","0","","","","","","","",""
"","html-keyboard-response","253","1063708","0.0-136.0-1.0","""event"",""trial"",""time""
""fullscreenenter"",""0"",""2013""
","
","
","""event"",""trial"",""time""
""fullscreenenter"",""0"",""2013""
","
","null","<p></p>","null","","","","","","","","","","","","","","","","","","","","","","",""
"","do_trial","254","1068596","0.0-137.0-0.0","""event"",""trial"",""time""
""fullscreenenter"",""0"",""2013""
","
","
","""event"",""trial"",""time""
""fullscreenenter"",""0"",""2013""
","
","281","","","","","","","","49","1,1,0","2","coast","78","probe-111","0.28552642920481397","0.4251517344658414","0.22727105064491","1","","","","","","","",""
"","html-keyboard-response","255","1069605","0.0-137.0-1.0","""event"",""trial"",""time""
""fullscreenenter"",""0"",""2013""
","
","
","""event"",""trial"",""time""
""fullscreenenter"",""0"",""2013""
","
","null","<p></p>","null","","","","","","","","","","","","","","","","","","","","","","",""
"","do_trial","256","1074774","0.0-138.0-0.0","""event"",""trial"",""time""
""fullscreenenter"",""0"",""2013""
","
","
","""event"",""trial"",""time""
""fullscreenenter"",""0"",""2013""
","
","561.5","","","","","","","","49","0,0,0","2","coast","79","probe-01","0.2623067415404657","0.4860521171546367","0.1814280347078212","0","","","","","","","",""
"","html-keyboard-response","257","1075780","0.0-138.0-1.0","""event"",""trial"",""time""
""fullscreenenter"",""0"",""2013""
","
","
","""event"",""trial"",""time""
""fullscreenenter"",""0"",""2013""
","
","null","<p></p>","null","","","","","","","","","","","","","","","","","","","","","","",""
"","do_trial","258","1080978","0.0-139.0-0.0","""event"",""trial"",""time""
""fullscreenenter"",""0"",""2013""
","
","
","""event"",""trial"",""time""
""fullscreenenter"",""0"",""2013""
","
","596.7000000001863","","","","","","","","49","0,1,0","2","coast","80","probe-14","0.28565331095673224","0.592633519411576","0.15163881197609752","0","","","","","","","",""
"","html-keyboard-response","259","1081987","0.0-139.0-1.0","""event"",""trial"",""time""
""fullscreenenter"",""0"",""2013""
","
","
","""event"",""trial"",""time""
""fullscreenenter"",""0"",""2013""
","
","null","<p></p>","null","","","","","","","","","","","","","","","","","","","","","","",""
"","do_trial","260","1087007","0.0-140.0-0.0","""event"",""trial"",""time""
""fullscreenenter"",""0"",""2013""
","
","
","""event"",""trial"",""time""
""fullscreenenter"",""0"",""2013""
","
","412","","","","","","","","49","1,0,1","2","coast","81","probe-154","0.2559304986820881","0.5552988443831702","0.14597182808645418","1","","","","","","","",""
"","html-keyboard-response","261","1088012","0.0-140.0-1.0","""event"",""trial"",""time""
""fullscreenenter"",""0"",""2013""
","
","
","""event"",""trial"",""time""
""fullscreenenter"",""0"",""2013""
","
