"success","trial_type","trial_index","time_elapsed","internal_node_id","rt","stimulus","key_press","subject_id","response","choice_outcomes","context_n","context_img_id","trial_n","probe_img_id","pR_red","pR_white","pR_black","outcome","contextArray_ind","validImageProbes","invalidImageProbes","pRew_Red","pRew_White","pRew_Black","availableForMemProbe","choice_blocks"
"true","fullscreen","0","2932","0.0-0.0","","","","","","","","","","","","","","","","","","","","","",""
"","pavlovia","1","2934","0.0-1.0","","","","","","","","","","","","","","","","","","","","","",""
"","html-keyboard-response","2","4115","0.0-2.0","1179.8999999761581","<div class='center'><p>Welcome! This is the first day of the experiment which will last ~30 minutes. In this experiment, you are the head captain of a pirate ship traveling around the world to different places. You will complete several different tasks during this experiment. Here is an overview of these tasks:</p><br><p>Day 1</p><p>1. Tutorial and quiz</p><p>2. Pick a pirate game in 6 different places</p><br><p>Day 2</p><p>3. Pick a pirate game and memory game</p><p>4. Final questions and payment</p><br><p>If you complete the entire experiment, you will receive $15 and a possible bonus payment.</p><p><b>[Press the space bar to begin the tutorial]</b></p></div>","32","5ee95e0e8737a0304baac70a","","","","","","","","","","","","","","","","","",""
"","html-keyboard-response","3","4610","0.0-3.0","494.60000002384186","<div class='center'><p>You’ll stop at these 6 islands on your journey. You'll be able to see them in the distance from your ship.</p><p><img src='run_exp/static/images/contexts/all_contexts.png' height='500'></p><p><b>[Press the space bar to continue]</b></p></div>","32","","","","","","","","","","","","","","","","","","",""
"","html-keyboard-response","4","5234","0.0-4.0","623.6999999284744","<div class='center'><p> The pirates on your ship will rob other ships as they leave island</p> These ships have just sold their things to the people living on the island, so they will have lots and lots of gold on them.</p><p><img src='run_exp/static/images/tutorial/ship_center.png' height='400'></p><p><b>[Press the space bar to continue]</b></p></div>","32","","","","","","","","","","","","","","","","","","",""
"","html-keyboard-response","5","5786","0.0-5.0","550.8000000715256","<div class='center'><p>As the head captain, you do not have to rob any ships yourself.</p><p>Another pirate will be doing the robbing for you. </p><p><img src='run_exp/static/images/tutorial/pirates_all_crop.png' height='200'></p><p>If they could rob the ship, then you will get a stack of gold coins like this:</p><p><img src='run_exp/static/images/tutorial/reward.png' height='150'></p><p> If they couldn't rob the ship, then you will get no gold coins and you'll see a big red x like this: </p><p><img src='run_exp/static/images/tutorial/reward_no.png' height='150'></p><p> How much bonus money you make is based on how many gold coins you collect.</p><p><b>[Press the space bar to continue]</b></p><div>","32","","","","","","","","","","","","","","","","","","",""
"","html-keyboard-response","6","7570","0.0-6.0","1783.3000000715256","<div class='center'><p>Even the most skilled pirate can not rob EVERY ship.</p><p> Some ships will have very strong defenses against pirate attacks.</p><p> For example, blue beard, here, is very, very good at robbing ships.</p><p> You can press the <b>‘1’</b> button on the keyboard to choose him.</p><p> Try choosing him 10 times to see how often he can rob a ship. </p><p><img src='run_exp/static/images/tutorial/blue.png' height='500'></p></div>","49","","","","","","","","","","","","","","","","","","",""
"","html-keyboard-response","7","9076","0.0-7.0","null","<div class='center'><p><img src='run_exp/static/images/tutorial/blue_win.png' height='500'></p></div>","null","","","","","","","","","","","","","","","","","","",""
"","html-keyboard-response","8","9498","0.0-8.0","421.5","<div class='center'><img src='run_exp/static/images/tutorial/blue.png' height='500'></p></div>","49","","","","","","","","","","","","","","","","","","",""
"","html-keyboard-response","9","11001","0.0-9.0","null","<div class='center'><p><img src='run_exp/static/images/tutorial/blue_win.png' height='500'></p></div>","null","","","","","","","","","","","","","","","","","","",""
"","html-keyboard-response","10","12338","0.0-10.0","1336.8000000715256","<div class='center'><img src='run_exp/static/images/tutorial/blue.png' height='500'></p></div>","49","","","","","","","","","","","","","","","","","","",""
"","html-keyboard-response","11","13839","0.0-11.0","null","<div class='center'><p><img src='run_exp/static/images/tutorial/blue_win.png' height='500'></p></div>","null","","","","","","","","","","","","","","","","","","",""
"","html-keyboard-response","12","14170","0.0-12.0","330.5","<div class='center'><img src='run_exp/static/images/tutorial/blue.png' height='500'></p></div>","49","","","","","","","","","","","","","","","","","","",""
"","html-keyboard-response","13","15672","0.0-13.0","null","<div class='center'><p><img src='run_exp/static/images/tutorial/blue_no_win.png' height='500'></p></div>","null","","","","","","","","","","","","","","","","","","",""
"","html-keyboard-response","14","16018","0.0-14.0","346.1999999284744","<div class='center'><img src='run_exp/static/images/tutorial/blue.png' height='500'></p></div>","49","","","","","","","","","","","","","","","","","","",""
"","html-keyboard-response","15","17524","0.0-15.0","null","<div class='center'><p><img src='run_exp/static/images/tutorial/blue_win.png' height='500'></p></div>","null","","","","","","","","","","","","","","","","","","",""
"","html-keyboard-response","16","17850","0.0-16.0","325.40000009536743","<div class='center'><img src='run_exp/static/images/tutorial/blue.png' height='500'></p></div>","49","","","","","","","","","","","","","","","","","","",""
"","html-keyboard-response","17","19351","0.0-17.0","null","<div class='center'><p><img src='run_exp/static/images/tutorial/blue_win.png' height='500'></p></div>","null","","","","","","","","","","","","","","","","","","",""
"","html-keyboard-response","18","19594","0.0-18.0","242.89999997615814","<div class='center'><img src='run_exp/static/images/tutorial/blue.png' height='500'></p></div>","49","","","","","","","","","","","","","","","","","","",""
"","html-keyboard-response","19","21097","0.0-19.0","null","<div class='center'><p><img src='run_exp/static/images/tutorial/blue_win.png' height='500'></p></div>","null","","","","","","","","","","","","","","","","","","",""
"","html-keyboard-response","20","21338","0.0-20.0","240.79999995231628","<div class='center'><img src='run_exp/static/images/tutorial/blue.png' height='500'></p></div>","49","","","","","","","","","","","","","","","","","","",""
"","html-keyboard-response","21","22840","0.0-21.0","null","<div class='center'><p><img src='run_exp/static/images/tutorial/blue_no_win.png' height='500'></p></div>","null","","","","","","","","","","","","","","","","","","",""
"","html-keyboard-response","22","23122","0.0-22.0","281.10000002384186","<div class='center'><img src='run_exp/static/images/tutorial/blue.png' height='500'></p></div>","49","","","","","","","","","","","","","","","","","","",""
"","html-keyboard-response","23","24625","0.0-23.0","null","<div class='center'><p><img src='run_exp/static/images/tutorial/blue_win.png' height='500'></p></div>","null","","","","","","","","","","","","","","","","","","",""
"","html-keyboard-response","24","24890","0.0-24.0","265","<div class='center'><img src='run_exp/static/images/tutorial/blue.png' height='500'></p></div>","49","","","","","","","","","","","","","","","","","","",""
"","html-keyboard-response","25","26395","0.0-25.0","null","<div class='center'><p><img src='run_exp/static/images/tutorial/blue_win.png' height='500'></p></div>","null","","","","","","","","","","","","","","","","","","",""
"","html-keyboard-response","26","27170","0.0-26.0","774.3000000715256","<div class='center'><p> See, he could rob the ships most of the time but not every time. </p><p><b>[Press the space bar to continue]</b></p></div>","32","","","","","","","","","","","","","","","","","","",""
"","html-keyboard-response","27","27746","0.0-27.0","575.2000000476837","<div class='center'><p>You will get to choose which of three pirates you want to rob the next ship. <p>Press the <b>‘1’</b> button on your keyboard to pick the pirate with the red beard.</p><p> Press <b>‘2’</b> to pick the pirate with the white beard.</p><p> Press <b>‘3’</b> to pick the pirate with the black beard.</p><p>Try picking a pirate now!</p><p><img src='run_exp/static/images/tutorial/all_pirates.png' height='500'></p></div>","49","","","","","","","","","","","","","","","","","","",""
"","html-keyboard-response","28","28122","0.0-28.0-0.0","375","<div class='center'><p>This pirate could rob the ship!</p><p><img src='run_exp/static/images/tutorial/red_win.png' height='500'></p><p><b>[Press the space bar to continue]</b></p></div>","32","","","","","","","","","","","","","","","","","","",""
"","html-keyboard-response","29","28730","0.0-28.0-1.0","607.4000000953674","<div class='center'><p>Now try choosing another</p><p><img src='run_exp/static/images/tutorial/all_pirates.png' height='500'></p></div>","49","","","","","","","","","","","","","","","","","","",""
"","html-keyboard-response","30","29194","0.0-29.0-0.0","463.3000000715256","<div class='center'><p>This pirate could not rob the ship.</p><p><img src='run_exp/static/images/tutorial/red_no_win.png' height='500'></p><p><b>[Press the space bar to continue]</b></p></div>","32","","","","","","","","","","","","","","","","","","",""
"","html-keyboard-response","31","29642","0.0-30.0-0.0","447.39999997615814","<div class='center'><p>If you don’t make your choice fast enough, you’ll have to wait a few seconds before you can make another one. </p><p>You can’t collect more gold coins. You just have to sit and wait.</p><p><img src='run_exp/static/images/miscellaneous/hurry_up.png' height='500'></p><p><b>[Press the space bar to continue]</b></p></div>","32","","","","","","","","","","","","","","","","","","",""
"","html-keyboard-response","32","30090","0.0-30.0-1.0","447.60000002384186","<div class='center'><p>Once you choose a pirate, you’ll be shown the ship they are robbing.</p><p>You will never rob the same ship twice.</p><p>Ships can be told apart from one another by the image on them.</p><p> Every time you see a ship, you will have to remember on which island you saw it.</p><p> Remembering correctly will help you win more bonus money!</p><p>A helpful strategy is to try to come up with a story of the object on the ship interacting with the current island scene.</p><p> For example, here, you could imagine a mug full of water in the desert. </p><p>For a ship with an apple on it on the forest island, you could imagine an apple falling from a tree in the forest.</p><p><img src='run_exp/static/images/tutorial/example_probe.png' height='500'></p><p><b>[Press the space bar to continue]</b></p></div>","32","","","","","","","","","","","","","","","","","","",""
"","html-keyboard-response","33","31010","0.0-30.0-2.0","919.6000000238419","<div class='center'><p>How good a pirate is at robbing ships will depend on the current island.</p><p> A pirate may have visited the island many times before and gained a lot of practice robbing ships there.</p><p>So, they're more likely to bring back gold coins than a pirate who has never visited this island before. </p><p><b>[Press the space bar to continue]</b></p></div>","32","","","","","","","","","","","","","","","","","","",""
"","html-keyboard-response","34","31570","0.0-30.0-3.0","559.6999999284744","<div class='center'><p>How good a pirate is at robbing ships can also change over the time spent on the island<p> Ships may hear from islanders about the pirates coming and will improve their protection against the attack. This may make it harder to rob them.</p><p> Ships may also become lazy and lower their protection. This may make it easier to rob them.</p><br><p>Things are always changing on the high seas! So, try your best to pay attention!</p><p><img src='run_exp/static/images/tutorial/contingency.png' height='500'></p><p><b>[Press the space bar to continue]</b></p></div>","32","","","","","","","","","","","","","","","","","","",""
"","html-keyboard-response","35","32042","0.0-30.0-4.0","471.5","<div class='center'><p>Let's go over the instructions quickly again.You have two important things to do: </p><b><p> 1. Pick the pirate who is the best at robbing ships on the current island.</p></b><b><p> 2. Remember on which island a ship was robbed.</p> </b><p>How much bonus money you make is based on both. </p><br><p>Let’s try a practice game. The game will start by showing you the pirates. First pick a pirate using the <b> 1, 2, 3 </b> buttons on your keyboard. When you are shown a ship, try to remember the island you’re on by making up a story.</p><p> You only have 3 seconds to pick a pirate, so please make a choice quickly! If you are too slow, you’ll have to wait a bit during the time out.</p><p> Don’t feel rushed, but please do try to make a choice every time.</p><p>This is just a practice game, so you’re not playing for money. </p><p> Good luck, remember press <b>'1'</b> to choose red beard, <b>'2'</b> to choose white beard, and <b>'3'</b> to choose black beard</p><p><b>[Press the space bar to begin the practice game]</b></p></div>","32","","","","","","","","","","","","","","","","","","",""
"","do_welcome","36","33547","0.0-30.0-5.0","null","","","","null","","","","","","","","","","","","","","","","",""
"","do_trial","37","38596","0.0-30.0-6.0","539.4000000953674","","","","49","1,0,0","","","","","","","","","","","","","","","",""
"","html-keyboard-response","38","39599","0.0-31.0-0.0","null","<p></p>","null","","","","","","","","","","","","","","","","","","",""
"","do_trial","39","44515","0.0-31.0-1.0","407.90000009536743","","","","49","1,1,0","","","","","","","","","","","","","","","",""
"","html-keyboard-response","40","45518","0.0-32.0-0.0","null","<p></p>","null","","","","","","","","","","","","","","","","","","",""
"","do_trial","41","50288","0.0-32.0-1.0","264.7000000476837","","","","49","1,0,1","","","","","","","","","","","","","","","",""
"","html-keyboard-response","42","51290","0.0-33.0-0.0","null","<p></p>","null","","","","","","","","","","","","","","","","","","",""
"","do_trial","43","56113","0.0-33.0-1.0","316.7999999523163","","","","49","0,1,0","","","","","","","","","","","","","","","",""
"","html-keyboard-response","44","57115","0.0-34.0-0.0","null","<p></p>","null","","","","","","","","","","","","","","","","","","",""
"","do_trial","45","61830","0.0-34.0-1.0","211.39999997615814","","","","49","1,0,0","","","","","","","","","","","","","","","",""
"","do_bye","46","63337","0.0-35.0-0.0","null","","","","null","","","","","","","","","","","","","","","","",""
"","do_travel","47","69338","0.0-35.0-1.0","null","","","","null","","","","","","","","","","","","","","","","",""
"","do_welcome","48","70844","0.0-35.0-2.0","null","","","","null","","","","","","","","","","","","","","","","",""
"","do_trial","49","75748","0.0-35.0-3.0","395.10000002384186","","","","49","1,0,0","","","","","","","","","","","","","","","",""
"","html-keyboard-response","50","76752","0.0-36.0-0.0","null","<p></p>","null","","","","","","","","","","","","","","","","","","",""
"","do_trial","51","81532","0.0-36.0-1.0","270.40000009536743","","","","49","1,0,1","","","","","","","","","","","","","","","",""
"","html-keyboard-response","52","82535","0.0-37.0-0.0","null","<p></p>","null","","","","","","","","","","","","","","","","","","",""
"","do_trial","53","87340","0.0-37.0-1.0","297","","","","49","1,1,0","","","","","","","","","","","","","","","",""
"","html-keyboard-response","54","88340","0.0-38.0-0.0","null","<p></p>","null","","","","","","","","","","","","","","","","","","",""
"","do_trial","55","93098","0.0-38.0-1.0","251.89999997615814","","","","49","0,0,1","","","","","","","","","","","","","","","",""
"","html-keyboard-response","56","94101","0.0-39.0-0.0","null","<p></p>","null","","","","","","","","","","","","","","","","","","",""
"","do_trial","57","98901","0.0-39.0-1.0","291.60000002384186","","","","49","1,0,1","","","","","","","","","","","","","","","",""
"","html-keyboard-response","58","99579","0.0-40.0-0.0","673.5","<div class='center'><p><img src='run_exp/static/images/tutorial/prac_best_pirate.png'  height='500'></p></div>","49","","","","","","","","","","","","","","","","","","",""
"","html-keyboard-response","59","100307","0.0-41.0-0.0","727.5","<div class='center'><p>That's correct! Red beard was the best.</p><p><b>[Press the space bar to continue]</b></p></div>","32","","","","","","","","","","","","","","","","","","",""
"","html-keyboard-response","60","100923","0.0-41.0-1.0","615.3000000715256","<div class='center'><p><img src='run_exp/static/images/tutorial/prac_source.png'  height='500'></p></div>","50","","","","","","","","","","","","","","","","","","",""
"","html-keyboard-response","61","101171","0.0-42.0-0.0","247.40000009536743","<div class='center'><p>That's correct! You saw this ship on the cavern island.</p><p><b>[Press the space bar to continue]</b></p></div>","32","","","","","","","","","","","","","","","","","","",""
"","html-keyboard-response","62","101547","0.0-42.0-1.0","375.7000000476837","<div class='center'><p>Good job on the practice game! Now, you will be asked you some true or false questions to make sure you really understand the rules of the game.</p><p> Press <b>'1'</b> on the keyboard for true and press <b>'2'</b> for false.</p><p><b>[Press the space bar to begin the quiz]</b></p></div>","32","","","","","","","","","","","","","","","","","","",""
"","html-keyboard-response","63","102235","0.0-42.0-2.0","687.6000000238419","<div class='center'><p>You win bonus money by making choices as fast as possible.</p><p>Press 1 for true and press  2 for false.</p></div>","50","","","","","","","","","","","","","","","","","","",""
"","html-keyboard-response","64","102451","0.0-43.0-0.0","215.40000009536743","<div class='center'><p>That's correct!</p> <p><b>[press the space bar to continue with the quiz]</b></p></div>","32","","","","","","","","","","","","","","","","","","",""
"","html-keyboard-response","65","102691","0.0-43.0-1.0","239.60000002384186","<div class='center'><p>You press the <b>‘3’</b> button on the keyboard to choose the red bearded pirate. </p><p>Press 1 for true and press  2 for false.</p></div>","50","","","","","","","","","","","","","","","","","","",""
"","html-keyboard-response","66","102972","0.0-44.0-0.0","279.40000009536743","<div class='center'><p>That's correct!</p> <p><b>[press the space bar to continue with the quiz]</b></p></div>","32","","","","","","","","","","","","","","","","","","",""
"","html-keyboard-response","67","103204","0.0-44.0-1.0","231.59999990463257","<div class='center'><p>The pirate who is the best at robbing ships on the first island will be the best on every other island.</p><p>Press 1 for true and press  2 for false.</p></div>","50","","","","","","","","","","","","","","","","","","",""
"","html-keyboard-response","68","103484","0.0-45.0-0.0","279.39999997615814","<div class='center'><p>That's correct!</p> <p><b>[press the space bar to continue with the quiz]</b></p></div>","32","","","","","","","","","","","","","","","","","","",""
"","html-keyboard-response","69","103748","0.0-45.0-1.0","263.40000009536743","<div class='center'><p>You should remember the island where a pirate robbed a ship.</p><p>Press 1 for true and press  2 for false.</p></div>","49","","","","","","","","","","","","","","","","","","",""
"","html-keyboard-response","70","103932","0.0-46.0-0.0","177.70000004768372","<div class='center'><p>That's correct!</p> <p><b>[press the space bar to continue with the quiz]</b></p></div>","32","","","","","","","","","","","","","","","","","","",""
"","html-keyboard-response","71","104755","0.0-47.0-0.0","823.6000000238419","<div class='center'><p>Good job! You’re now ready to move on to the real game!</p> <p><br>[press the space bar to begin!]</br></p></div>","32","","","","","","","","","","","","","","","","","","",""
"","do_welcome","72","106263","0.0-48.0-0.0","null","","","","null","","","","","","","","","","","","","","","","",""
"","do_trial","73","111093","0.0-49.0-0.0","291.40000009536743","","","","49","1,1,0","0","highway","0","probe-13","0.6","0.3","0.1","1","","","","","","","",""
"","html-keyboard-response","74","112100","0.0-49.0-1.0","null","<p></p>","null","","","","","","","","","","","","","","","","","","",""
"","do_trial","75","116930","0.0-50.0-0.0","294.40000009536743","","","","49","0,1,0","0","highway","1","probe-164","0.5287557931900858","0.25553499488984893","0.09112684231555475","0","","","","","","","",""
"","html-keyboard-response","76","117933","0.0-50.0-1.0","null","<p></p>","null","","","","","","","","","","","","","","","","","","",""
"","do_bye","77","119438","0.0-51.0-0.0","null","","","","null","","","","","","","","","","","","","","","","",""
"","do_travel","78","125444","0.0-52.0-0.0","null","","","","null","","","","","","","","","","","","","","","","",""
"","do_welcome","79","126951","0.0-52.0-1.0","null","","","","null","","","","","","","","","","","","","","","","",""
"","do_trial","80","131861","0.0-53.0-0.0","371.3000000715256","","","","49","0,1,0","1","forest","2","probe-170","0.42154432552833226","0.2025031575868124","0.11041774972958911","0","","","","","","","",""
"","html-keyboard-response","81","132865","0.0-53.0-1.0","null","<p></p>","null","","","","","","","","","","","","","","","","","","",""
"","do_trial","82","137734","0.0-54.0-0.0","330.2999999523163","","","","49","0,0,0","1","forest","3","probe-109","0.5617077690168103","0.18391420548925694","0.057054838623793104","0","","","","","","","",""
"","html-keyboard-response","83","138736","0.0-54.0-1.0","null","<p></p>","null","","","","","","","","","","","","","","","","","","",""
"","do_bye","84","140240","0.0-55.0-0.0","null","","","","null","","","","","","","","","","","","","","","","",""
"","do_travel","85","146242","0.0-56.0-0.0","null","","","","null","","","","","","","","","","","","","","","","",""
"","do_welcome","86","147747","0.0-56.0-1.0","null","","","","null","","","","","","","","","","","","","","","","",""
"","do_trial","87","152653","0.0-57.0-0.0","365.90000009536743","","","","49","1,0,1","2","city","4","probe-08","0.6177895843926744","0.30287700174201404","0.24361352955768126","1","","","","","","","",""
"","html-keyboard-response","88","153654","0.0-57.0-1.0","null","<p></p>","null","","","","","","","","","","","","","","","","","","",""
"","do_trial","89","158485","0.0-58.0-0.0","292.89999997615814","","","","49","0,0,0","2","city","5","probe-05","0.5613360980201881","0.40890458618500897","0.1689596616057553","0","","","","","","","",""
"","html-keyboard-response","90","159488","0.0-58.0-1.0","null","<p></p>","null","","","","","","","","","","","","","","","","","","",""
"","do_bye","91","160995","0.0-59.0-0.0","null","","","","null","","","","","","","","","","","","","","","","",""
"","do_travel","92","166998","0.0-60.0-0.0","null","","","","null","","","","","","","","","","","","","","","","",""
"","do_welcome","93","168506","0.0-60.0-1.0","null","","","","null","","","","","","","","","","","","","","","","",""
"","do_trial","94","173484","0.0-61.0-0.0","440.7000000476837","","","","49","0,0,0","3","countryside","6","probe-222","0.5441890438386489","0.384645922364816","0.18913761501892956","0","","","","","","","",""
"","html-keyboard-response","95","174485","0.0-61.0-1.0","null","<p></p>","null","","","","","","","","","","","","","","","","","","",""
"","do_trial","96","179301","0.0-62.0-0.0","278.10000002384186","","","","49","0,1,0","3","countryside","7","probe-63","0.68650534144106","0.2561615300862535","0.23730302774341566","0","","","","","","","",""
"","html-keyboard-response","97","180304","0.0-62.0-1.0","null","<p></p>","null","","","","","","","","","","","","","","","","","","",""
"","do_bye","98","181807","0.0-63.0-0.0","null","","","","null","","","","","","","","","","","","","","","","",""
"","do_travel","99","187811","0.0-64.0-0.0","null","","","","null","","","","","","","","","","","","","","","","",""
"","do_welcome","100","189315","0.0-64.0-1.0","null","","","","null","","","","","","","","","","","","","","","","",""
"","do_trial","101","194250","0.0-65.0-0.0","400.39999997615814","","","","49","0,0,0","4","mountain","8","probe-210","0.6335499096609241","0.2751181402262092","0.0777835756529143","0","","","","","","","",""
"","html-keyboard-response","102","195253","0.0-65.0-1.0","null","<p></p>","null","","","","","","","","","","","","","","","","","","",""
"","do_trial","103","200125","0.0-66.0-0.0","333.7000000476837","","","","49","0,0,0","4","mountain","9","probe-139","0.787037814063233","0.2618909148346899","0.1443425347744883","0","","","","","","","",""
"","html-keyboard-response","104","201128","0.0-66.0-1.0","null","<p></p>","null","","","","","","","","","","","","","","","","","","",""
"","do_bye","105","202632","0.0-67.0-0.0","null","","","","null","","","","","","","","","","","","","","","","",""
"","do_travel","106","208636","0.0-68.0-0.0","null","","","","null","","","","","","","","","","","","","","","","",""
"","do_welcome","107","210144","0.0-68.0-1.0","null","","","","null","","","","","","","","","","","","","","","","",""
"","do_trial","108","215088","0.0-69.0-0.0","410.39999997615814","","","","49","1,0,0","5","coast","10","probe-200","0.6778550065450927","0.11535551672381977","0.17605971853871202","1","","","","","","","",""
"","html-keyboard-response","109","216089","0.0-69.0-1.0","null","<p></p>","null","","","","","","","","","","","","","","","","","","",""
"","do_trial","110","221121","0.0-70.0-0.0","497.10000002384186","","","","49","1,1,0","5","coast","11","probe-100","0.6062903696564079","0.11818003916752613","0.07464278795570273","1","","","","","","","",""
"","html-keyboard-response","111","222124","0.0-70.0-1.0","null","<p></p>","null","","","","","","","","","","","","","","","","","","",""
"","do_bye","112","223628","0.0-71.0-0.0","null","","","","null","","","","","","","","","","","","","","","","",""
"","html-keyboard-response","113","231588","0.0-71.0-1.0","7958.5","<div class='center'>You are all done with the first part of the experiment! Thank you for participating. Tomorrow, you will recieve an invite to participate in the next phase of the experiment which you must complete by the end of the day. <p><b>[Press the space bar to end the experiment]</b></p></div>","32","","","","","","","","","","","","4,3,5,1,2,0","12,163,169,108,7,4,221,62,209,138,199,99,106,205,81,131,47,172,70,48,117,153,121,112,144,65,29,124,79,5,207,220,85,164,53,50,197,30,75,16,14,49,129,135,74,227,87,181,20,127,77,76,61,101,15,120,210,0,198,226,80,8,90,223,31,180,13,213,182,185,43,23,26,27,67,22,168,103,154,40,222,195,116,64,176,18,119,142,193,34,141,92,115,83,63,91,2,89,38,194,42,201,162,148,215,100,190,118,218,137,145,59,9,102,95,46,104,177,143,132,126,51,225,217,173,167,157,69,66,161,1,36,123,133,105,86,158,57,93,24,171,11,136,204,175,155,130,219,187,140,19,39,166,96,147,44,111,56,37,159,156,82,179,170,228,206,149,178,98,216,196,25,52,192,160,183,3,72,41,165,229,150,134,109,151,174,212,17,152,191,35,21,97,84,28,45,33,203,58,189,94,224,128,202,146,32,188,186,73,200,55,107,114,78,60,214,211,125,10,71,184,68,54,122,6,139,110,208,88,113","5,21,12,19,23,9,7,6,3,8,20,10,24,18,15,4,0,2,1,13,17,11,14,16,22","0.6661862778545603,0.7072408753947121,0.7885414607814322,0.7242027034735352,0.7308142404012843,0.577605234503597,0.600568889259621,0.6406221198646762,0.6346193687087367,0.6260959687432774,0.6011345211647786,0.6478545788875769,0.639397369826486,0.7349613650096604,0.7553267688797332,0.6970414542844524,0.6917039455043483,0.5989271326262213,1,1,1,0.9312289947546105,0.8748617398616695,0.7769318626658478,0.5905415386085499,0.5444393017890863,0.679163540194742,0.6655139676169277,0.6995075071859665,0.6399750729014382,0.47365433801648216,0.30292409715052837,0.2705236952498575,0.06458090010521746,0.09758495341882269,0.15958803386623158,0.10085816826601027,0.09883198508198056,0.21209872769403418,0.24074171483771137,0.24349168192628057,0.17030025559500686,0.12067352667146018,0.11216696870407512,0.17024837513255006,0.05977863944452704,0.08584215416777587,0.10722502698435998,0.1858775417097143,0.153364737098538,0.21580244663282458,0.20615940346812472,0.31937275214845784,0.13488492369269758,0.0706814504908519,0.08228003434474325,0.06487581592280288,0.12844141700359823,0.08269238784115147,0.10222724603764073,0.11878405047101862,0.15472229217510558,0.05064402351522435,0.08365840237785623,0.08921864744788255,0.12410824507213691,0.07657369464340118,0.18126470035948708,0.11387893657982844,0.2338596312870644,0.23922848871665164,0.24171154072195639,0.31226525277567996,0.2507971124616765,0.3208701792127083,0.20566756919612758,0.334343635874273,0.32552017571135466,0.40830763423896826,0.40884936074664396,0.5076451140751503,0.4339590002031634,0.32946837637506976,0.24731779727425363,0.26999759061889966,0.19055163548820062,0.15746852343123105,0.11908592676815076,0.19738208626691225,0.2541466354362419,0.3054973839986706,0.2064295005082295,0.26510325022804926,0.1274436686118254,0.22546185727460738,0.24907716868764662,0.2992675692673367,0.34137581250681304,0.28987564905416713,0.1726052247225105,0.2729341694945931,0.31954059003689567,0.4184480388415045,0.4103776123654271,0.25207823882759145,0.3022224046036339,0.16614170640208858,0.24655011157608697,0.2590379305259137,0.14203732429643795,0.25590553639687774,0.4031350948429531,0.39783423649131716,0.39578952988176497,0.3902963268721231,0.3657350096386709,0.41969447011710564,0.4335034850376257,0.4816248157391002,0.49308846752752616,0.6093214517500327,0.660990851528859,0.6599487277053823,0.6298305483515919,0.6723872234817867,0.6021776043514584,0.49413754635202095,0.37383645170399177,0.29784375565753035,0.38422663862085726,0.49690439790588353,0.47462669027918963,0.5152578740623472,0.5580205821648175,0.5793383560656797,0.54587699989821,0.6211330665702695,0.6271074746757644,1,1,0.7811987753620047,0.7614092187385907,0.6222784866159209,0.6013135918079313,0.6078684905662878,0.6538199350736443,0.625270860773274,0.5026718201948083,0.6114658154317636,0.6473228560249583,0.44074302448152486,0.32047695995976666,0.1311191688445183,0.07688560157887497,0.2662043095725576,0.11861929515230601,0.1314376419312208,0.05520345144723822,0.1857683605366105,0.07230010665834875,0.05598682226653026,0.11616452234696066,0.0765740147796561,0.08398706343865894,0.09593509068102453,0.1866601314364759,0.2148155512205883,0.10093240770055661,0.0944140944327425,0.2180206936103546,0.14676927034494694,0.10209255564925647,0.07904065997016252,0.16523712814669173,0.07799299659403085,0.15687378132282018,0.2127331107067193,0.10874003372763223,0.051309576820174965,0.10800152003050359,0.22581263676727723,0.15402680847661038,0.24846879741976374,0.2972418847241514,0.37269937146428733,0.18737020497469878,0.2270377568609187,0.1473238475974647,0.08738593612033761,0.1316736815970445,0.28048632815987457,0.2925688392173264,0.29786506716904015,0.3301240593594661,0.3371958017177704,0.27947754031208577,0.32326966608171726,0.3618479790930854,0.4731862792174378,0.36706203761659995,0.36777628774122517,0.3007639509218408,0.4293530562810575,0.3360961875416325,0.32539161521524096,0.2071074142183526,0.37858054772590644,0.4508768706180779,0.40370306449428844,0.3248207798542542,0.29434219118380844,0.22973583975974599,0.20409249351884698,0.271857269297284,0.21088668166545163,0.19284643414009253,0.094718302798919,0.1619728798033679,0.3825559416049886,0.37320895760470607,0.2888735014629314,0.24112799384820283,0.2877929841902721,0.3230153808392211,0.32047234555291426,0.3988589091880753,0.18363919916977062,0.26093541036158896,0.3359625104871474,0.25731764766042214,0.20203677103031145,0.2692720368038558,0.24791203475959453,0.1930037150583922,0.1960380213720997,0.26744540204468953,0.13196811198049407,0.3465079033126987,0.39166450818410065,0.44671915044568616,0.28087195473807625,0.22938278871103635,0.18105103033747633,0.27444500707002806,0.29384248014265996,0.36772813203993243,0.3750255731607762,0.3931785807880371,0.41808458014706845,0.39370388944401813,0.26133921053953413,0.2652998127903728,0.11153066808942828,0.3284865431338029,0.22346381956586434,0.3022025028798478,0.3871077505308603,0.24359477587178724,0.2205694954677097,0.25006110046530894,0.21479158364941836,0.26085080824287593,0.3788221643918562,0.32584655880668406,0.1912449248748507,0.16027755996172638,0.14759754253805915,0.19227764849773463,0.09080476526873295,0.05191353654814551,0.23354821616251178,0.36894324845339993,0.3432222479963097,0.2296942933868771,0.3161933283860449,0.28274420321256727,0.26086850763443437,0.22736282881903364,0.16095877170996306,0.2302478177214102,0.3701018221604463,0.3896970560896622,0.4558791816997497,0.28303106235068,0.22214473115765618,0.302939637143488,0.28782417927058396,0.24075282062208214,0.39829283492467943,0.37059838029865666,0.35250289810938823,0.348433818790334,0.24267648129747998,0.3707742795616868,0.3082400627595336,0.2591596159660628,0.38882429310757116,0.21569301286076503,0.23670779026304975,0.23505781750658042,0.19541103364917148,0.43045241350210534,0.3718069497953453,0.3327649180035311,0.32046835809625046,0.43065273971048945,0.41116778436366086,0.33935404779781275,0.4998710989232858,0.6560939871503634,0.6302246668454974,0.8091448053542469,0.7701794368902705,0.8148142182651654,0.7619186694251592,0.5937235681402311,0.4750949922679529,0.6539194477009488,0.7337319880893053,0.6773362354402476,0.41548653856496115,0.496098143368474,0.7505503343663454,0.5762233814584167,0.615791398153108,0.5008297798773188,0.4828664413150369,0.41656526259706655,0.416273992703894,0.5703918560256679,0.41748611504027483,0.5634947380542374,0.5756042778328457,0.6346818618875211,0.7595053941056744,0.849257447268015,0.8117023105896007,0.7067222572088032,0.6230084210694389,0.6185828157052956,0.570224801883478,0.46122148600815804,0.5144295187933257,0.6777619091880791,0.6759602036691549,0.6666992197280622,0.5627774652251014,0.6498385803159522,0.7723455085504897,0.6005502382059041,0.3908994527821724,0.49216135810444495,0.3918828866918719,0.40389998433725455,0.3790707030980619,0.32972099268823085,0.3211584980359309,0.17909440101071247,0.20565872844303534,0.3035281518193135,0.16784019922450646,0.25539933874129883,0.23933224690940244,0.16826829382306982,0.29548265182839706,0.20606630093032435,0.20495838884953693,0.2069546376184374,0.21185519023932922,0.2549935125939707,0.12107359518689528,0.16189255601873445,0.2877154845823233,0.41364626447854386,0.39762052090175987,0.40712182470539193,0.24518036070647595,0.27172110060282545,0.1943172382935148,0.19178767817463832,0.31838867100714213,0.4022125469671778,0.43274664342982144,0.4632914200579023,0.48447791035472626,0.3321514339203778,0.3740604839623759,0.4007230075492301,0.39499991115616195,0.4660091363839682,0.3269393839178582,0.30009286105131167,0.22049000339404032,0.2210954895075067,0.2226166924407003,0.26005448326250746,0.2671910368846906,0.2609251404718538,0.2557595459755629,0.19079850182943425,0.288018428863618,0.33616342494376156,0.31302431137150816,0.36051045939279464,0.18325200427236923,0.25366352103117146,0.4523039249763477,0.39628555093878176,0.5314587794224425,0.3828660818948122,0.2809495246478406,0.24557062557031928,0.26646179028841116,0.33039177057083957,0.3129098092350308,0.30442282510974294,0.24307889510371994,0.3323562457232791,0.344403267695022,0.3664288065934884,0.2678249804550068,0.3590916413727793,0.29868965180816526,0.32948317488046436,0.12703964863207026,0.13559499380446202,0.46143688403814453,0.26070834772071466,0.33823512838608577,0.1956891484417698,0.18917326535667658,0.20458929129425918,0.2446377391085606,0.41522400070572035,0.4081607449951535,0.3599085076142227,0.23549745816879594,0.31698405928269685,0.4667200697990096,0.33799625223950813,0.24005047769515706,0.15806207125963448,0.26827730424719337,0.2744544873859063,0.3728435283042533,0.4240971615221795,0.34902897285083007,0.330280203073459,0.309777301508017,0.346615463265658,0.2263375355393466,0.24443043813017412,0.16113256692909667,0.17172259946212648,0.1793277514450464,0.26811597114615665,0.17293108736789378,0.21077476658962646,0.25087216547691016,0.42768214384777464,0.40594505061845737,0.42223079030324073,0.34607054129630205,0.5177111336762076,0.43312280415819127,0.4109373797928098,0.5101835896768953,0.3950851949723559","0.2542273394534113,0.2638058266927446,0.3378966391913555,0.35379839546970177,0.27026984169967544,0.4485407443947025,0.3426183633393231,0.40627699960074404,0.3337540356204882,0.3834332282963953,0.3612658556681512,0.4238885500015232,0.45401543028637903,0.2875919015981885,0.19005809262409368,0.1361195099417445,0.07725634083608324,0.1569252929584809,0.2660775069196507,0.3692616460848543,0.3658241208163123,0.2547511160093692,0.2918088399764949,0.3789388973014944,0.31726311406130825,0.24306022524089468,0.3801574075371167,0.35661522296105175,0.38215704253745214,0.5538466519245597,0.6364699710766135,0.6091381078853713,0.647638455359945,0.6562846098443729,0.7097872851935044,0.6873537554884885,0.8037527759118719,0.7054917358638708,0.564150071210832,0.5415184000651371,0.4538909244364487,0.6627483255814661,0.6013026569006119,0.7318412433561642,0.688542060159761,0.5933481870704856,0.7396766944489019,0.6257967609548217,0.5023555207773723,0.49249599650814085,0.5390532230001587,0.5769001502411791,0.6874077417995667,0.6419140993048663,0.7178111281468063,0.6145319705547193,0.43962244156124314,0.5824007625835474,1,1,0.9153860921960641,0.7324826530133259,0.5822717477557015,0.552289181957088,0.5274473265786692,0.5185277503622723,0.4847900799232867,0.6065117707534458,0.6413237929717447,0.7945856682553302,0.49576112052533183,0.42715617314548676,0.17034080496118,0.1787063864059234,0.058534464649203456,0.08193867946518812,0.2216444798032502,0.22136444435348737,0.22410833398013508,0.2733601460960891,0.11757281239871205,0.20368986419595927,0.15050931976269344,0.2871558272132157,0.35069816251685687,0.4013589867018008,0.3546923878903897,0.2760534731804506,0.25871524723153794,0.34686016429953853,0.2564901889049622,0.26667703962835854,0.143457407404403,0.20485980761621084,0.1532682299477643,0.07979756072523722,0.10623677950819996,0.1532445649732112,0.1404006187882223,0.2819132497095894,0.1807713948803197,0.23665075944412664,0.37375878231806353,0.2572652005075908,0.29006549366502504,0.18854626198957125,0.11273673233100395,0.1414019073201934,0.0636894831003159,0.09356993905067622,0.07419152311153716,0.15061626292514796,0.18351116443518536,0.1653718689532818,0.15606423032117825,0.3234258391502402,0.23460900491432427,0.1325608143897772,0.07216743786944471,0.16900271319224303,0.05126551094088827,0.2572005131962439,0.17291445632369165,0.3269756735159874,0.2676138372500561,0.059128047587542754,0.15210517335760057,0.11233301412083993,0.11108803658093892,0.06921745740353422,0.09512051847380136,0.1337109362809911,0.19467579362127274,0.31049251529742633,0.1429118356645378,0.07607925459993468,0.10187625979396155,0.17199963913237667,0.06610040867778175,0.16681243788881447,0.06553317278189752,0.06927628121634484,0.21627344702257373,0.25114932300846204,0.28928195628958603,0.15213762645501488,0.06982005902974657,0.10380556470909262,0.16560425797205278,0.27084103619014094,0.3244955245535946,0.31195095762574127,0.2498386054724301,0.3677767064838682,0.5251634454775311,0.5366106322316561,0.3892365416154361,0.3575452273067944,0.41662660610313784,0.5010244113050674,0.39442300671887415,0.34778357225400625,0.42850339166458185,0.43294449464002244,0.49328578462485384,0.41652938742211043,0.38072309356925343,0.20823327195611924,0.2739121908645387,0.27524886359362355,0.22384320681278969,0.12587714673712674,0.08217531765337525,0.1607041587322321,0.29942799548364873,0.32919051638740604,0.3048306450593918,0.3761274051551785,0.3042446112267969,0.4137439489607008,0.4499204232804994,0.3264173951883347,0.19895242984850797,0.2881528756872536,0.1881534156099287,0.1863009578017715,0.09221934164975142,0.16162199774644215,0.17208403052987936,0.12135323739926002,0.263283143785172,0.35731901819636563,0.46199714196622743,0.5021199542648458,0.6256736910458683,0.5272415060527855,0.5011873508674223,0.6336419736066538,0.7265288835274598,0.6255256036172648,0.6532969440966058,0.5494468960306518,0.5682191646511658,0.5449958275783694,0.572819059091068,0.5751813957170339,0.570584401858771,0.5198521361858426,0.6910828848722435,0.6185590441576584,0.5895093656724425,0.6946001154171072,0.7988274839701508,0.7530013826728756,0.6637785139212151,0.6039947267444553,0.5571636969839111,0.6012479239860327,0.654097742187318,0.6483810977001174,0.705404263131581,0.7382851475665241,0.7609549161829842,0.47913181015108164,0.5130167611363986,0.4287829960813127,0.40291696105095,0.413896316283305,0.4577129625711075,0.39356075820159947,0.24146534513330042,0.17665825324307918,0.06449571362383955,0.1338350274872721,0.11426396088881242,0.18611522442608927,0.09508814123600605,0.09580020466500307,0.15328597631705948,0.1621647002098284,0.0925491243264694,0.23597542764430757,0.18098098006389524,0.2197317079322196,0.3049327718525006,0.10810916171594098,0.12389636876617674,0.13070448231889475,0.22533829314328274,0.2706143034776738,0.2017893452392829,0.23692903676065713,0.10922725416424162,0.1884218928085153,0.19875796657790024,0.06333809649775157,0.06612455546308685,0.08763329167209513,0.11605020013091602,0.1231934699669308,0.14901805514804825,0.23252323509785072,0.29871611358632405,0.15786147173313317,0.09637452180472679,0.05075455354778852,0.07163960286249771,0.07021360010515941,0.21641951986915323,0.22175682038730604,0.43658980212515575,0.3739333238408561,0.3695539589663946,0.4659331066378229,0.704652056066418,0.7268425056604595,0.7083141096204152,0.6041777623341676,0.6027273308027392,0.6365521715317828,0.5727162399398036,0.5617174999477155,0.555095107874946,0.5194692953845489,0.6009204840019479,0.5963740346095179,0.5794113389520996,0.5564928010921462,0.6123039089541294,0.5535179016725965,0.5073097993767554,0.4725381974956545,0.4789027462178135,0.599033880172373,0.6285873736793106,0.7540979274424906,0.8098016684043389,0.6520456821225448,0.5835847540290667,0.7327355038908595,0.623460904775827,0.5785131885281242,0.5742780929301697,0.7232055633373757,0.6642841576232581,0.6448901340668438,0.5584704410907562,0.6257282355358484,0.6373680979944583,0.4577567510801058,0.2868288790766792,0.17662037440945386,0.1912200263905636,0.36135590955174673,0.2685776946112762,0.31352208762664113,0.42071829218264084,0.3744745416448641,0.36021976315547255,0.4825009433615584,0.5018689435028335,0.523211162782943,0.4122613756388623,0.26697883530314065,0.24301780245038568,0.3116272806016171,0.22029473491398008,0.1404978943096339,0.1633899513598133,0.2928632978638322,0.24775120627611402,0.3317518010680908,0.31345555100283806,0.318394223594865,0.34336859771524336,0.3561557925345705,0.31431034010436976,0.369373700454034,0.42860296494972233,0.3860361015449132,0.34210355953827104,0.2845800315563294,0.23797401068009463,0.39097529198974,0.35323103486654267,0.37577249089540166,0.3955271303830513,0.35525879779957203,0.3315829658195662,0.45763099289300274,0.44290692691499195,0.4817794649908304,0.49757819539568104,0.518135683640715,0.49003366093845513,0.471549606876823,0.5052083110933033,0.5449997733315507,0.5371996000157185,0.5351605780542408,0.5798545497005019,0.6231117215810751,0.6728305333398211,0.5876805953025942,0.4967583382470405,0.5311854051142836,0.4674084918986853,0.4050839451860185,0.43913586954375644,0.4150441031284056,0.49707044080139434,0.5231380221715467,0.5646175679429183,0.5523385354220924,0.5221876059215351,0.7120772622933104,0.6466183821957127,0.5973467916760246,0.5463873317797034,0.5239589279223441,0.5589376027842082,0.5104451721562143,0.5169186197066944,0.5685887668910119,0.562355901643173,0.6212918935752605,0.6861329306210281,0.7554748011783309,0.8010861432501944,0.841899772229576,0.5836962311855978,0.2149241750386363,0.09034587542786918,0.05792791822256931,0.10769929672749624,0.23322590892176265,0.2022659368947948,0.0918902327663454,0.0599396712717413,0.10958367098216636,0.1226826157704864,0.18580700411701254,0.17583833690798467,0.10442234946480629,0.12864961862164112,0.22543409361961453,0.31643667500752626,0.08942841687797895,0.053261117260370104,0.09291996927794913,0.07354989500535834,0.06111268954433128,0.12484932573938821,0.22018718561456316,0.21438082393700308,0.21677232966032073,0.08068056615974845,0.05060176258027936,0.06450849022405686,0.23853555830227463,0.17946154502548636,0.3884190211766541,0.2303550646273793,0.1960196162961708,0.1767893406197481,0.06450466322605382,0.15394448163532803,0.09483822925841214,0.1314021997448166,0.07862269651107746,0.3415751883508893,0.3602924165908678,0.42958775685001505,0.49724216265508925,0.5425014878856709,0.6602941524038244,0.4783907174683911,0.5851093062021424,0.6392955694134931,0.5911012456061923,0.632696541698756,0.5377051051869576,0.57780470452313,0.4715481680983896,0.3489848733769661,0.4468178887821007,0.4925333188320867,0.5761464752411627,0.4550804522059294,0.5274139318605522,0.616578966743668,0.5839515928286811,0.5126155973477483,0.5786384064006133,0.4834109889954337,0.44265267876926145,0.4805981426174622,0.7206108878556583,0.6361319691390087,0.6876134975539389,0.6159517035000815,0.7294562367429276,0.7135043759279819,0.652752512071014,0.6614986482420817,0.7144883696431906,0.7202321932166369,0.7651045560967451","0.07995938558619077,0.09274271207872957,0.1648602036067491,0.2848596885201352,0.21391866867434683,0.18117472976807134,0.08788051443598854,0.1229745261015516,0.06728496202389757,0.07306126571844734,0.1451506759423606,0.1524728042931125,0.2637582521778568,0.1699879784536705,0.2628471161521052,0.22887072457160387,0.12648659289338152,0.1599617623418176,0.08343293960121827,0.09479854850586392,0.10553194564856769,0.07576765244423127,0.1093121281557188,0.17706474846857923,0.23649195664579226,0.267034711907654,0.27018587984896,0.16718527500449817,0.27500201957179266,0.2975132077570188,0.2674454646785619,0.2639435653367413,0.22094154542765537,0.24346429753880178,0.20714978328560008,0.2179087437308296,0.33655375686432526,0.3048582603167385,0.2922158257012067,0.3093816476780598,0.2991452405819182,0.24533295543563466,0.12433517284797196,0.20238603013902137,0.1545831771678578,0.20733063275269561,0.1691804608291875,0.2904466643795134,0.3280197177067782,0.18661329957531878,0.23955896932246026,0.24013799930723811,0.15381880524786928,0.16404397910601615,0.3561380664419804,0.17120210828914917,0.22287773259585716,0.21753920203512367,0.2863993591093751,0.28251844209654275,0.25779455171949234,0.3705688683899851,0.39400424409071505,0.1419801665914551,0.17759093927607844,0.23686072011401757,0.20757324931570303,0.26316140151470513,0.32409539749552563,0.3839612654052669,0.518041666720949,0.551527441622834,0.5628838130104942,0.5612457227252919,0.8125799266360162,0.7481376280008604,0.7373361306855732,0.539158148289228,0.5027998101252275,0.4899987342682926,0.4887631765697615,0.4905022277750166,0.47679270498189885,0.5478179773738782,0.4362049076686745,0.6005961890988879,0.5355725460602139,0.5078347629387656,0.5678643197750703,0.600083960790115,0.7297890609568128,0.758421712398612,0.6574494284184996,0.6299020153301848,0.5265872921359838,0.35141619471270813,0.46039367585260826,0.5267887175389858,1,1,0.8315670569370752,0.8341202237115445,0.6974011503643233,0.8461664579338637,0.7424164594735386,0.6801485998770859,0.6667367190661843,0.5071129915705691,0.4858743537515301,0.3097730402625355,0.33066846754726487,0.24300374641789682,0.1900520735992758,0.1286264621866906,0.24878573962746814,0.24795229915548786,0.24945613531049124,0.24946677144403148,0.37080376329670495,0.4186155799116496,0.2846756952311041,0.37012734273007447,0.3675975771264877,0.10502974866433824,0.2262624749956423,0.48546142701364814,0.3725686268489857,0.2432176509906639,0.3761454967547725,0.14498476923400055,0.17646408389828686,0.21755721751478319,0.2709222759774315,0.26848377299348825,0.18406715029571183,0.3364015485576391,0.43412912012104554,0.36286591175027133,0.5577777310416161,0.5420446631705625,0.5743481696146945,0.3955339332017638,0.2452389181775957,0.36202886186972555,0.37657681770720347,0.22454673689038007,0.27562449627553287,0.28247843817857654,0.24040071053118384,0.16654113353549552,0.33330811482230827,0.425892462704024,0.42113497981691106,0.47337426843138797,0.6150835856986935,0.7809139463834651,0.7644808102071023,0.6695174684292634,0.790008391279354,0.6690581258480254,0.6354654240576175,0.5390171283555324,0.7417126523835331,0.6720574080014872,0.7952451124635939,0.7643552645710796,0.7014438293982392,0.6590253388081401,0.6259256104915173,0.5989958568906741,0.7585786494879275,0.6687742934412532,0.665215653665574,0.6300335153865763,0.5905868099283198,0.5796501945645228,0.6482174003801708,0.788535848835838,1,1,0.8213359283961172,0.6924054377497835,0.6620495696904678,0.7911071440462325,0.7088924085324074,0.7050454464612845,0.653107825089656,0.5533348494547736,0.48168154165552324,0.4620702006943328,0.26986970530773313,0.09095786645000843,0.0520028447596503,0.10115534745724801,0.1566283389966798,0.0887822112968908,0.08507707306878906,0.07989918271506317,0.09123508547538606,0.10154626636100028,0.05485654399969112,0.14270320576138576,0.08549262063055105,0.07063715825071043,0.19510812613124848,0.06786069213588106,0.1623112804830071,0.16989228893705668,0.15808791028346286,0.1781676526435712,0.14696087890767437,0.1554284462910848,0.1781996853864205,0.1419322608227626,0.18907160030537767,0.1892684778137069,0.06505282107605209,0.07880148632348315,0.13699551891819226,0.17439295402993193,0.25060821418551527,0.2517077862886416,0.11930693344462176,0.19727506781597165,0.11398404784046456,0.10637659490348636,0.17104991954401697,0.1335302721182436,0.29480961768646263,0.38775434607839343,0.4549632248569422,0.4960408695703689,0.523599320805804,0.48902858396327,0.4291818670852787,0.44938455487376777,0.4056926834622281,0.4986197566370571,0.7804047164281951,0.7927862643350644,0.7722939840472743,0.6697675440565685,0.5341055494267635,0.5773388806800466,0.5446488862663421,0.5225769670693297,0.4115690002605698,0.42682695186561814,0.4241323448886676,0.3771359623144697,0.3562499958374354,0.5647480847522328,0.6068990261526068,0.5691699511806227,0.44692931263780966,0.5545211010138676,0.6660190086062427,0.6893557663052384,0.5978221515048364,0.5970213014224094,0.5365186053520388,0.5779063692838724,0.6687011708259091,0.7429812871282888,0.6752889952293409,0.7658244786932522,0.8042996849508847,0.7010507605841524,0.6015070608059601,0.703036086941039,0.665342397012139,0.37693845075644006,0.2189289627088365,0.3137172684891546,0.35110620360548167,0.2820538815120894,0.15889400121733896,0.15818796002661217,0.09970850465632486,0.06872207274777724,0.09036883404379982,0.18855108236078091,0.1554529560477148,0.2335989617071045,0.07501858847529834,0.19590402830667636,0.17872107935228634,0.05090917022791986,0.11818240670348285,0.07649375180507406,0.12025668743355755,0.18101876805073658,0.14410698130752103,0.13631881575378102,0.05679641570886414,0.05299894469019122,0.1271010494433918,0.12386179304400037,0.1235706958390812,0.20094000804272205,0.14102940560755703,0.11949825670001221,0.16017516749443547,0.2687740850568949,0.10629141411265719,0.08690766288957028,0.0916212243407553,0.0773208697361523,0.11485078035025406,0.13648067798584942,0.06963552159492642,0.1507974996307955,0.05777410468971812,0.1882092066678112,0.2333872134772603,0.1910457113175021,0.1928909990379511,0.24685723968345472,0.2542780923770158,0.13828343076605099,0.12167787110633432,0.06953728061219805,0.22035941804819445,0.20659300029845684,0.2386016698477326,0.19942047786285322,0.06892950264600325,0.14972066723398314,0.10075997170015519,0.0878540166557761,0.14338388814509204,0.18752066066384396,0.1302202029558904,0.09687788860001603,0.08300200459669525,0.18254360491725144,0.09947225617912686,0.0524525361442553,0.08310163843255908,0.11717426490821342,0.21617503534627688,0.06615376582059923,0.09726861804023827,0.1471796420885993,0.07302227738464401,0.06679070500799615,0.10278814754098001,0.1471290421637917,0.07556560423158112,0.07759405616658849,0.05143324244910907,0.09619174156001656,0.10263689821409595,0.10185645997794734,0.1833576667431189,0.19917348458465298,0.24947979172961252,0.322142830781188,0.08818989023954625,0.12366182204579344,0.19435981724199367,0.0567116371197117,0.051560081103862496,0.0936745300460402,0.12442320129895834,0.16348596813994856,0.08677549267827611,0.06733417089100001,0.0866274374576447,0.07473393866207001,0.06375672631703559,0.13494407138078848,0.0801333014383853,0.13525049099155592,0.0852814621902087,0.18361220607859927,0.16707877585027234,0.09190515637067388,0.08098662036620095,0.1323421776296132,0.1447557671110459,0.20776667041969168,0.13957186069399932,0.15689742935305873,0.17699807446073418,0.13374247189742902,0.14258035896695614,0.15136427090194726,0.15267980655794622,0.20644801062534776,0.2643658673085885,0.4877446524728098,0.5687632834488686,0.6507610714299935,0.709757520894606,0.7911327933328235,0.6540798942482532,0.7230173450596977,0.7009802494228788,0.5315580980319546,0.46228938789342594,0.5037388214538295,0.6071530112807576,0.6967362176838502,0.9214254755992142,0.7974255480751273,0.7452404931358838,0.5714752020421664,0.48050683585503623,0.48938818859537175,0.44741845593797974,0.5606430722400487,0.600426059032218,0.5359080429048726,0.4606112266150818,0.6058271752686905,0.6430411997197756,0.5769917476962511,0.6122946622552923,0.37034024236496604,0.4844456610481607,0.6004350823445465,0.5864774498199503,0.3524754309751689,0.4459171530365002,0.5034595161744715,0.5621247392655593,0.7543586675771586,0.6459382840112113,0.5283163926318041,0.3830042038427633,0.36559531913458737,0.22504909498307626,0.1062575827629503,0.097384185430263,0.08431366909758692,0.17249302346829876,0.27948918034297493,0.08441650170585874,0.22611927202660886,0.10352326536675097,0.10103319045435014,0.05024817588125762,0.13567449409878893,0.2955456820334706,0.06188810222917738,0.05314369437168097,0.12520430719045994,0.2049400775487663,0.20327402188059984,0.10466827676512301,0.12032680809290472,0.10750043526686982,0.18888653239634184,0.10324107087602798,0.06661339278386011,0.09729984712079906,0.06226473817631042,0.23736569855544162,0.10487868987280191,0.10646730010493659,0.08755643865854028,0.0585784827265759,0.05026797896201333,0.13457253328425353,0.1585816434856985,0.12499683944616259,0.18093282200168406","209,42,47,204,85,200,81,80,122,162,46,206,43,201,161,88,44,124,82,125,89,163,203,83,120,123,87,128,160,129,40,165,84,202,164,208,205,45,166,126,86,121,207,167,169,49,168,127,41,48","13,1,3,1,7,1,1,5,7,3,1,7,1,4,5,1,5,3,1,1,1,6,1,1,6,6,2,2,1,1,2,1,1,1,7,4,1,3,2,1,7,2,6,7,4,1,5,3,5,2,3,1,1,1,3,1,3,2,6,6"
