"success","trial_type","trial_index","time_elapsed","internal_node_id","interactions","blur_events","focus_events","fullscreenenter_events","fullscreenexit_events","rt","stimulus","key_press","subject_id","participant_id","age","gender","prompt","response","choice_outcomes","context_n","context_img_id","trial_n","probe_img_id","pR_red","pR_white","pR_black","outcome","contextArray_ind","validImageProbes","invalidImageProbes","pRew_Red","pRew_White","pRew_Black","availableForMemProbe","choice_blocks"
"true","fullscreen","0","5310","0.0-0.0","""event"",""trial"",""time""
""fullscreenenter"",""0"",""4335""
","
","
","""event"",""trial"",""time""
""fullscreenenter"",""0"",""4335""
","
","","","","","","","","","","","","","","","","","","","","","","","","","",""
"","pavlovia","1","5340","0.0-1.0","""event"",""trial"",""time""
""fullscreenenter"",""0"",""4335""
","
","
","""event"",""trial"",""time""
""fullscreenenter"",""0"",""4335""
","
","","","","","","","","","","","","","","","","","","","","","","","","","",""
"","instruc1","2","50508","0.0-2.0","""event"",""trial"",""time""
""fullscreenenter"",""0"",""4335""
","
","
","""event"",""trial"",""time""
""fullscreenenter"",""0"",""4335""
","
","null","run_exp/static/audio/clip_1_welcome.m4a","null","310","71","17","Female","<div class='center'><p>Welcome! This is the first part of the study. It will last ~30 minutes. In part 1 and part 2 of the study, you are the head captain of a pirate ship traveling around the world to different islands. You will play a few different games throughout these two parts. Here is an overview of them:</p><br><p>Part 1 (today)</p><p>1. Instructions, practice game, and quiz</p><p>2. Pick a pirate game on 6 different islands</p><br><p>Part 2 (tomorrow)</p><p>3. Pick a pirate game and memory game</p><p>4. Where did you see this ship? </p></div>","","","","","","","","","","","","","","","","","",""
"","html-keyboard-response","3","50700","0.0-3.0","""event"",""trial"",""time""
""fullscreenenter"",""0"",""4335""
","
","
","""event"",""trial"",""time""
""fullscreenenter"",""0"",""4335""
","
","189.80000000074506","<div class='center'><p>Welcome! This is the first part of the study. It will last ~30 minutes. In part 1 and part 2 of the study, you are the head captain of a pirate ship traveling around the world to different islands. You will play a few different games throughout these two parts. Here is an overview of them:</p><br><p>Part 1 (today)</p><p>1. Instructions, practice game, and quiz</p><p>2. Pick a pirate game on 6 different islands</p><br><p>Part 2 (tomorrow)</p><p>3. Pick a pirate game and memory game</p><p>4. Where did you see this ship? </p><p><b>[Press the space bar to continue]</b></p></div>","32","","","","","","","","","","","","","","","","","","","","","","",""
"","instruc2","4","56266","0.0-4.0","""event"",""trial"",""time""
""fullscreenenter"",""0"",""4335""
","
","
","""event"",""trial"",""time""
""fullscreenenter"",""0"",""4335""
","
","null","run_exp/static/audio/clip_2_different_places.m4a","null","","","","","<div class='center'><p>Today, you’ll visit these 6 islands on your journey. You'll be able to see these islands from your ship.</p><p><img src='run_exp/static/images/contexts/all_contexts.png' height='500'></p></div>","","","","","","","","","","","","","","","","","",""
"","html-keyboard-response","5","57778","0.0-5.0","""event"",""trial"",""time""
""fullscreenenter"",""0"",""4335""
","
","
","""event"",""trial"",""time""
""fullscreenenter"",""0"",""4335""
","
","1510.2999999998137","<div class='center'><p>Today, you’ll visit these 6 islands on your journey. You'll be able to see these islands from your ship.</p><p><img src='run_exp/static/images/contexts/all_contexts.png' height='500'></p><p><b>[Press the space bar to continue]</b></p></div>","32","","","","","","","","","","","","","","","","","","","","","","",""
"","instruc3","6","67690","0.0-6.0","""event"",""trial"",""time""
""fullscreenenter"",""0"",""4335""
","
","
","""event"",""trial"",""time""
""fullscreenenter"",""0"",""4335""
","
","null","run_exp/static/audio/clip_3_goal_of_game_1.m4a","null","","","","","<div class='center'><p> The pirates on your ship will rob other ships as they leave the island.</p> These ships have just sold their goods to the islanders, so they will be filled with lots and lots of gold.</p><p><img src='run_exp/static/images/tutorial/ship_center.png' height='400'></p></div>","","","","","","","","","","","","","","","","","",""
"","html-keyboard-response","7","68515","0.0-7.0","""event"",""trial"",""time""
""fullscreenenter"",""0"",""4335""
","
","
","""event"",""trial"",""time""
""fullscreenenter"",""0"",""4335""
","
","821.1000000005588","<div class='center'><p> The pirates on your ship will rob other ships as they leave the island.</p> These ships have just sold their goods to the islanders, so they will be filled with lots and lots of gold.</p><p><img src='run_exp/static/images/tutorial/ship_center.png' height='400'></p><p><b>[Press the space bar to continue]</b></p></div>","32","","","","","","","","","","","","","","","","","","","","","","",""
"","instruc4","8","96762","0.0-8.0","""event"",""trial"",""time""
""fullscreenenter"",""0"",""4335""
","
","
","""event"",""trial"",""time""
""fullscreenenter"",""0"",""4335""
","
","null","run_exp/static/audio/clip_4_goal_of_game_2.m4a","null","","","","","<div class='center'><p>As the head captain, you do not have to rob any ships yourself. Another pirate will be doing the robbing for you. First, you will choose a pirate to rob the next ship.</p><p><img src='run_exp/static/images/tutorial/pirates_all_crop.png' height='200'></p><p>Then, you'll see if the pirate successfully robbed the ship of their gold. If they were successful, then you'll get a stack of gold coins like this:</p><p><img src='run_exp/static/images/tutorial/reward.png' height='150'></p><p> If they were <b>not</b> successful, then you'll get no gold coins, and you'll see a big red x like this: </p><p><img src='run_exp/static/images/tutorial/reward_no.png' height='150'></p><p> How much bonus money you make is based on how many gold coins you collect.</p><div>","","","","","","","","","","","","","","","","","",""
"","html-keyboard-response","9","98103","0.0-9.0","""event"",""trial"",""time""
""fullscreenenter"",""0"",""4335""
","
","
","""event"",""trial"",""time""
""fullscreenenter"",""0"",""4335""
","
","1338","<div class='center'><p>As the head captain, you do not have to rob any ships yourself. Another pirate will be doing the robbing for you. First, you will choose a pirate to rob the next ship.</p><p><img src='run_exp/static/images/tutorial/pirates_all_crop.png' height='200'></p><p>Then, you'll see if the pirate successfully robbed the ship of their gold. If they were successful, then you'll get a stack of gold coins like this:</p><p><img src='run_exp/static/images/tutorial/reward.png' height='150'></p><p> If they were <b>not</b> successful, then you'll get no gold coins, and you'll see a big red x like this: </p><p><img src='run_exp/static/images/tutorial/reward_no.png' height='150'></p><p> How much bonus money you make is based on how many gold coins you collect.</p<p><b>[Press the space bar to continue]</b></p></div>","32","","","","","","","","","","","","","","","","","","","","","","",""
"","instruc5","10","119147","0.0-10.0","""event"",""trial"",""time""
""fullscreenenter"",""0"",""4335""
","
","
","""event"",""trial"",""time""
""fullscreenenter"",""0"",""4335""
","
","21042.5","run_exp/static/audio/clip_5_probabilistic.m4a","49","","","","","<div class='center'><p>Even the most skilled pirate can not rob EVERY ship.</p><p> Some ships will have very strong protections against pirate attacks.</p><p> Blue beard, here, is very, very good at robbing ships, but he won't be successful every time he tries to rob one.</p><p> You can press the <b>‘1’</b> key on the keyboard to choose him.</p><p> Try choosing him 10 times to see how often he succeeds at robbing a ship. </p><p><img src='run_exp/static/images/tutorial/blue.png' height='500'></p></div>","","","","","","","","","","","","","","","","","",""
"","html-keyboard-response","11","120649","0.0-11.0","""event"",""trial"",""time""
""fullscreenenter"",""0"",""4335""
","
","
","""event"",""trial"",""time""
""fullscreenenter"",""0"",""4335""
","
","null","<div class='center'><p><img src='run_exp/static/images/tutorial/blue_win.png' height='500'></p></div>","null","","","","","","","","","","","","","","","","","","","","","","",""
"","html-keyboard-response","12","121517","0.0-12.0","""event"",""trial"",""time""
""fullscreenenter"",""0"",""4335""
","
","
","""event"",""trial"",""time""
""fullscreenenter"",""0"",""4335""
","
","866.4000000003725","<div class='center'><img src='run_exp/static/images/tutorial/blue.png' height='500'></p></div>","49","","","","","","","","","","","","","","","","","","","","","","",""
"","html-keyboard-response","13","123018","0.0-13.0","""event"",""trial"",""time""
""fullscreenenter"",""0"",""4335""
","
","
","""event"",""trial"",""time""
""fullscreenenter"",""0"",""4335""
","
","null","<div class='center'><p><img src='run_exp/static/images/tutorial/blue_win.png' height='500'></p></div>","null","","","","","","","","","","","","","","","","","","","","","","",""
"","html-keyboard-response","14","123997","0.0-14.0","""event"",""trial"",""time""
""fullscreenenter"",""0"",""4335""
","
","
","""event"",""trial"",""time""
""fullscreenenter"",""0"",""4335""
","
","977.5999999996275","<div class='center'><img src='run_exp/static/images/tutorial/blue.png' height='500'></p></div>","49","","","","","","","","","","","","","","","","","","","","","","",""
"","html-keyboard-response","15","125499","0.0-15.0","""event"",""trial"",""time""
""fullscreenenter"",""0"",""4335""
","
","
","""event"",""trial"",""time""
""fullscreenenter"",""0"",""4335""
","
","null","<div class='center'><p><img src='run_exp/static/images/tutorial/blue_win.png' height='500'></p></div>","null","","","","","","","","","","","","","","","","","","","","","","",""
"","html-keyboard-response","16","127637","0.0-16.0","""event"",""trial"",""time""
""fullscreenenter"",""0"",""4335""
","
","
","""event"",""trial"",""time""
""fullscreenenter"",""0"",""4335""
","
","2137.100000000559","<div class='center'><img src='run_exp/static/images/tutorial/blue.png' height='500'></p></div>","49","","","","","","","","","","","","","","","","","","","","","","",""
"","html-keyboard-response","17","129138","0.0-17.0","""event"",""trial"",""time""
""fullscreenenter"",""0"",""4335""
","
","
","""event"",""trial"",""time""
""fullscreenenter"",""0"",""4335""
","
","null","<div class='center'><p><img src='run_exp/static/images/tutorial/blue_no_win.png' height='500'></p></div>","null","","","","","","","","","","","","","","","","","","","","","","",""
"","html-keyboard-response","18","129872","0.0-18.0","""event"",""trial"",""time""
""fullscreenenter"",""0"",""4335""
","
","
","""event"",""trial"",""time""
""fullscreenenter"",""0"",""4335""
","
","732.5","<div class='center'><img src='run_exp/static/images/tutorial/blue.png' height='500'></p></div>","49","","","","","","","","","","","","","","","","","","","","","","",""
"","html-keyboard-response","19","131374","0.0-19.0","""event"",""trial"",""time""
""fullscreenenter"",""0"",""4335""
","
","
","""event"",""trial"",""time""
""fullscreenenter"",""0"",""4335""
","
","null","<div class='center'><p><img src='run_exp/static/images/tutorial/blue_win.png' height='500'></p></div>","null","","","","","","","","","","","","","","","","","","","","","","",""
"","html-keyboard-response","20","131502","0.0-20.0","""event"",""trial"",""time""
""fullscreenenter"",""0"",""4335""
","
","
","""event"",""trial"",""time""
""fullscreenenter"",""0"",""4335""
","
","126.79999999981374","<div class='center'><img src='run_exp/static/images/tutorial/blue.png' height='500'></p></div>","49","","","","","","","","","","","","","","","","","","","","","","",""
"","html-keyboard-response","21","133004","0.0-21.0","""event"",""trial"",""time""
""fullscreenenter"",""0"",""4335""
","
","
","""event"",""trial"",""time""
""fullscreenenter"",""0"",""4335""
","
","null","<div class='center'><p><img src='run_exp/static/images/tutorial/blue_win.png' height='500'></p></div>","null","","","","","","","","","","","","","","","","","","","","","","",""
"","html-keyboard-response","22","133327","0.0-22.0","""event"",""trial"",""time""
""fullscreenenter"",""0"",""4335""
","
","
","""event"",""trial"",""time""
""fullscreenenter"",""0"",""4335""
","
","322.3999999994412","<div class='center'><img src='run_exp/static/images/tutorial/blue.png' height='500'></p></div>","49","","","","","","","","","","","","","","","","","","","","","","",""
"","html-keyboard-response","23","134829","0.0-23.0","""event"",""trial"",""time""
""fullscreenenter"",""0"",""4335""
","
","
","""event"",""trial"",""time""
""fullscreenenter"",""0"",""4335""
","
","null","<div class='center'><p><img src='run_exp/static/images/tutorial/blue_win.png' height='500'></p></div>","null","","","","","","","","","","","","","","","","","","","","","","",""
"","html-keyboard-response","24","135072","0.0-24.0","""event"",""trial"",""time""
""fullscreenenter"",""0"",""4335""
","
","
","""event"",""trial"",""time""
""fullscreenenter"",""0"",""4335""
","
","241.5","<div class='center'><img src='run_exp/static/images/tutorial/blue.png' height='500'></p></div>","49","","","","","","","","","","","","","","","","","","","","","","",""
"","html-keyboard-response","25","136573","0.0-25.0","""event"",""trial"",""time""
""fullscreenenter"",""0"",""4335""
","
","
","""event"",""trial"",""time""
""fullscreenenter"",""0"",""4335""
","
","null","<div class='center'><p><img src='run_exp/static/images/tutorial/blue_no_win.png' height='500'></p></div>","null","","","","","","","","","","","","","","","","","","","","","","",""
"","html-keyboard-response","26","136794","0.0-26.0","""event"",""trial"",""time""
""fullscreenenter"",""0"",""4335""
","
","
","""event"",""trial"",""time""
""fullscreenenter"",""0"",""4335""
","
","220.40000000037253","<div class='center'><img src='run_exp/static/images/tutorial/blue.png' height='500'></p></div>","49","","","","","","","","","","","","","","","","","","","","","","",""
"","html-keyboard-response","27","138296","0.0-27.0","""event"",""trial"",""time""
""fullscreenenter"",""0"",""4335""
","
","
","""event"",""trial"",""time""
""fullscreenenter"",""0"",""4335""
","
","null","<div class='center'><p><img src='run_exp/static/images/tutorial/blue_win.png' height='500'></p></div>","null","","","","","","","","","","","","","","","","","","","","","","",""
"","html-keyboard-response","28","138534","0.0-28.0","""event"",""trial"",""time""
""fullscreenenter"",""0"",""4335""
","
","
","""event"",""trial"",""time""
""fullscreenenter"",""0"",""4335""
","
","237.19999999925494","<div class='center'><img src='run_exp/static/images/tutorial/blue.png' height='500'></p></div>","49","","","","","","","","","","","","","","","","","","","","","","",""
"","html-keyboard-response","29","140036","0.0-29.0","""event"",""trial"",""time""
""fullscreenenter"",""0"",""4335""
","
","
","""event"",""trial"",""time""
""fullscreenenter"",""0"",""4335""
","
","null","<div class='center'><p><img src='run_exp/static/images/tutorial/blue_win.png' height='500'></p></div>","null","","","","","","","","","","","","","","","","","","","","","","",""
"","instruc6","30","145548","0.0-30.0","""event"",""trial"",""time""
""fullscreenenter"",""0"",""4335""
","
","
","""event"",""trial"",""time""
""fullscreenenter"",""0"",""4335""
","
","null","run_exp/static/audio/clip_6_blue_beard_outcome.m4a","null","","","","","<div class='center'><p> See, he succeeded in robbing the ships most of the time but not every time. </p></div>","","","","","","","","","","","","","","","","","",""
"","html-keyboard-response","31","146460","0.0-31.0","""event"",""trial"",""time""
""fullscreenenter"",""0"",""4335""
","
","
","""event"",""trial"",""time""
""fullscreenenter"",""0"",""4335""
","
","910.8999999994412","<div class='center'><p> See, he succeeded in robbing the ships most of the time but not every time. </p><p><b>[Press the space bar to continue]</b></p></div>","32","","","","","","","","","","","","","","","","","","","","","","",""
"","audio-keyboard-response","32","162287","0.0-32.0","""event"",""trial"",""time""
""fullscreenenter"",""0"",""4335""
","
","
","""event"",""trial"",""time""
""fullscreenenter"",""0"",""4335""
","
","15824.300000000745","run_exp/static/audio/clip_7_pick_pirate.m4a","50","","","","","","","","","","","","","","","","","","","","","","",""
"","audio-keyboard-response","33","166182","0.0-33.0-0.0","""event"",""trial"",""time""
""fullscreenenter"",""0"",""4335""
","
","
","""event"",""trial"",""time""
""fullscreenenter"",""0"",""4335""
","
","3889.7000000001863","run_exp/static/audio/clip_8_chosen_pirate_win.m4a","32","","","","","","","","","","","","","","","","","","","","","","",""
"","audio-keyboard-response","34","167461","0.0-33.0-1.0","""event"",""trial"",""time""
""fullscreenenter"",""0"",""4335""
","
","
","""event"",""trial"",""time""
""fullscreenenter"",""0"",""4335""
","
","1276.5","run_exp/static/audio/clip_9_pick_a_pirate_again.m4a","49","","","","","","","","","","","","","","","","","","","","","","",""
"","audio-keyboard-response","35","168673","0.0-34.0-0.0","""event"",""trial"",""time""
""fullscreenenter"",""0"",""4335""
","
","
","""event"",""trial"",""time""
""fullscreenenter"",""0"",""4335""
","
","1207.4000000003725","run_exp/static/audio/clip_10_chosen_pirate_loss.m4a","32","","","","","","","","","","","","","","","","","","","","","","",""
"","instruc9","36","174434","0.0-35.0-0.0","""event"",""trial"",""time""
""fullscreenenter"",""0"",""4335""
","
","
","""event"",""trial"",""time""
""fullscreenenter"",""0"",""4335""
","
","null","run_exp/static/audio/clip_11_time_out.m4a","null","","","","","<div class='center'><p>If you don’t make your choice fast enough, you’ll have to wait a few seconds before you can make another one. </p><p><img src='run_exp/static/images/miscellaneous/hurry_up.png' height='500'></p></div>","","","","","","","","","","","","","","","","","",""
"","html-keyboard-response","37","175234","0.0-35.0-1.0","""event"",""trial"",""time""
""fullscreenenter"",""0"",""4335""
","
","
","""event"",""trial"",""time""
""fullscreenenter"",""0"",""4335""
","
","796.1999999992549","<div class='center'><p>If you don’t make your choice fast enough, you’ll have to wait a few seconds before you can make another one. </p><p><img src='run_exp/static/images/miscellaneous/hurry_up.png' height='500'></p><p><b>[Press the space bar to continue]</b></p></div>","32","","","","","","","","","","","","","","","","","","","","","","",""
"","instruc10","38","214558","0.0-35.0-2.0","""event"",""trial"",""time""
""fullscreenenter"",""0"",""4335""
","
","
","""event"",""trial"",""time""
""fullscreenenter"",""0"",""4335""
","
","null","run_exp/static/audio/clip_12_probe.m4a","null","","","","","<div class='center'><p>Once you've chosen a pirate, you’ll be shown the ship they are robbing. You will never rob the same ship twice. Ships can be told apart from one another by the image on them. These are the goods that they sell. See, this ship has a travel mug on it. </p><p> You’ll have to remember which island you saw each ship on. You will win more gold coins and hence more bonus money if you remember correctly! To help you remember, you can imagine a story. For example, here, you could imagine a mug full of water in the desert. Or, as another example, if on the forest island, your pirate robbed a ship with an apple on it, you could imagine an apple falling from a tree in the forest. </p><p><img src='run_exp/static/images/tutorial/example_probe.png' height='500'></p></div>","","","","","","","","","","","","","","","","","",""
"","html-keyboard-response","39","216475","0.0-35.0-3.0","""event"",""trial"",""time""
""fullscreenenter"",""0"",""4335""
","
","
","""event"",""trial"",""time""
""fullscreenenter"",""0"",""4335""
","
","1915","<div class='center'><p>Once you've chosen a pirate, you’ll be shown the ship they are robbing. You will never rob the same ship twice. Ships can be told apart from one another by the image on them. These are the goods that they sell. See, this ship has a travel mug on it. </p><p> You’ll have to remember which island you saw each ship on. You will win more gold coins and hence more bonus money if you remember correctly! To help you remember, you can imagine a story. For example, here, you could imagine a mug full of water in the desert. Or, as another example, if on the forest island, your pirate robbed a ship with an apple on it, you could imagine an apple falling from a tree in the forest. </p><p><img src='run_exp/static/images/tutorial/example_probe.png' height='500'></p><p><b>[Press the space bar to continue]</b></p></div>","32","","","","","","","","","","","","","","","","","","","","","","",""
"","instruc11","40","233041","0.0-35.0-4.0","""event"",""trial"",""time""
""fullscreenenter"",""0"",""4335""
","
","
","""event"",""trial"",""time""
""fullscreenenter"",""0"",""4335""
","
","null","run_exp/static/audio/clip_13_changepoint.m4a","null","","","","","<div class='center'><p>How successful a pirate is at robbing ships will depend on the island you’re on.</p><p> A pirate may have visited this island many times before and gained a lot of practice robbing ships there.</p><p>So, they’re more likely to be successful than a pirate who has never visited the island before.</p></div>","","","","","","","","","","","","","","","","","",""
"","html-keyboard-response","41","233426","0.0-35.0-5.0","""event"",""trial"",""time""
""fullscreenenter"",""0"",""4335""
","
","
","""event"",""trial"",""time""
""fullscreenenter"",""0"",""4335""
","
","383.5","<div class='center'><p>How successful a pirate is at robbing ships will depend on the island you’re on.</p><p> A pirate may have visited this island many times before and gained a lot of practice robbing ships there.</p><p>So, they’re more likely to be successful than a pirate who has never visited the island before.</p><p><b>[Press the space bar to continue]</b></p></div>","32","","","","","","","","","","","","","","","","","","","","","","",""
"","instruc12","42","274744","0.0-35.0-6.0","""event"",""trial"",""time""
""fullscreenenter"",""0"",""4335""
","
","
","""event"",""trial"",""time""
""fullscreenenter"",""0"",""4335""
","
","null","run_exp/static/audio/clip_14_drift.m4a","null","","","","","<div class='center'><p>How successful a pirate is at robbing ships can also change over the time spent on the island. </p><p> Ships may hear from islanders about the pirates coming and will improve their protections against the attack. This may make it harder to rob them.</p><p> Ships may also become lazy and weaken the strength of their protections. This may make it easier to rob them.</p><br><p>Things are always changing on the high seas! So, try your best to pay attention!</p><p><img src='run_exp/static/images/tutorial/contingency.png' height='500'></p></div>","","","","","","","","","","","","","","","","","",""
"","html-keyboard-response","43","275321","0.0-35.0-7.0","""event"",""trial"",""time""
""fullscreenenter"",""0"",""4335""
","
","
","""event"",""trial"",""time""
""fullscreenenter"",""0"",""4335""
","
","574.8999999994412","<div class='center'><p>How successful a pirate is at robbing ships can also change over the time spent on the island. </p><p> Ships may hear from islanders about the pirates coming and will improve their protections against the attack. This may make it harder to rob them.</p><p> Ships may also become lazy and weaken the strength of their protections. This may make it easier to rob them.</p><br><p>Things are always changing on the high seas! So, try your best to pay attention!</p><p><img src='run_exp/static/images/tutorial/contingency.png' height='500'></p><p><b>[Press the space bar to continue]</b></p></div>","32","","","","","","","","","","","","","","","","","","","","","","",""
"","instruc13","44","310782","0.0-35.0-8.0","""event"",""trial"",""time""
""fullscreenenter"",""0"",""4335""
","
","
","""event"",""trial"",""time""
""fullscreenenter"",""0"",""4335""
","
","null","run_exp/static/audio/clip_15_summary.m4a","null","","","","","<div class='center'><p>Let's go over the instructions quickly again. You have two important things to do: </p><b><p> 1. Pick the pirate who is the best at robbing ships on the current island. </p></b><b><p> 2. Remember on which island a ship was robbed.</p> </b><p>The amount of bonus money you can win depends on both.</p><p><br><p>Let’s try a practice game. The game will start by showing you the pirates. First, pick a pirate using the <b> 1, 2, 3 </b> keys on your keyboard. When you are shown a ship, try to remember which island you’re on by making up a story.</p><p>This is just a practice game, so you’re not playing for money. </p><p> Good luck! This game will be very difficult but try your best!</p></div>","","","","","","","","","","","","","","","","","",""
"","html-keyboard-response","45","311683","0.0-35.0-9.0","""event"",""trial"",""time""
""fullscreenenter"",""0"",""4335""
","
","
","""event"",""trial"",""time""
""fullscreenenter"",""0"",""4335""
","
","900.5","<div class='center'><p>Let's go over the instructions quickly again. You have two important things to do: </p><b><p> 1. Pick the pirate who is the best at robbing ships on the current island. </p></b><b><p> 2. Remember on which island a ship was robbed.</p> </b><p>The amount of bonus money you can win depends on both.</p><p><br><p>Let’s try a practice game. The game will start by showing you the pirates. First, pick a pirate using the <b> 1, 2, 3 </b> keys on your keyboard. When you are shown a ship, try to remember which island you’re on by making up a story.</p><p>This is just a practice game, so you’re not playing for money. </p><p> Good luck! This game will be very difficult but try your best!</p><p><b>[Press the space bar to continue]</b></p></div>","32","","","","","","","","","","","","","","","","","","","","","","",""
"","do_welcome","46","315691","0.0-35.0-10.0","""event"",""trial"",""time""
""fullscreenenter"",""0"",""4335""
","
","
","""event"",""trial"",""time""
""fullscreenenter"",""0"",""4335""
","
","null","","","","","","","","null","","","","","","","","","","","","","","","","",""
"","do_trial","47","322387","0.0-35.0-11.0","""event"",""trial"",""time""
""fullscreenenter"",""0"",""4335""
","
","
","""event"",""trial"",""time""
""fullscreenenter"",""0"",""4335""
","
","2188.4000000003725","","","","","","","","50","1,0,0","","","","","","","","","","","","","","","",""
"","html-keyboard-response","48","323389","0.0-36.0-0.0","""event"",""trial"",""time""
""fullscreenenter"",""0"",""4335""
","
","
","""event"",""trial"",""time""
""fullscreenenter"",""0"",""4335""
","
","null","<p></p>","null","","","","","","","","","","","","","","","","","","","","","","",""
"","do_trial","49","329395","0.0-36.0-1.0","""event"",""trial"",""time""
""fullscreenenter"",""0"",""4335""
","
","
","""event"",""trial"",""time""
""fullscreenenter"",""0"",""4335""
","
","null","","","","","","","","null","1,1,0","","","","","","","","","","","","","","","",""
"","html-keyboard-response","50","330397","0.0-37.0-0.0","""event"",""trial"",""time""
""fullscreenenter"",""0"",""4335""
","
","
","""event"",""trial"",""time""
""fullscreenenter"",""0"",""4335""
","
","null","<p></p>","null","","","","","","","","","","","","","","","","","","","","","","",""
"","do_trial","51","335356","0.0-37.0-1.0","""event"",""trial"",""time""
""fullscreenenter"",""0"",""4335""
","
","
","""event"",""trial"",""time""
""fullscreenenter"",""0"",""4335""
","
","452.8999999994412","","","","","","","","51","1,1,0","","","","","","","","","","","","","","","",""
"","html-keyboard-response","52","336358","0.0-38.0-0.0","""event"",""trial"",""time""
""fullscreenenter"",""0"",""4335""
","
","
","""event"",""trial"",""time""
""fullscreenenter"",""0"",""4335""
","
","null","<p></p>","null","","","","","","","","","","","","","","","","","","","","","","",""
"","do_trial","53","341911","0.0-38.0-1.0","""event"",""trial"",""time""
""fullscreenenter"",""0"",""4335""
","
","
","""event"",""trial"",""time""
""fullscreenenter"",""0"",""4335""
","
","1046.300000000745","","","","","","","","49","1,0,1","","","","","","","","","","","","","","","",""
"","html-keyboard-response","54","342912","0.0-39.0-0.0","""event"",""trial"",""time""
""fullscreenenter"",""0"",""4335""
","
","
","""event"",""trial"",""time""
""fullscreenenter"",""0"",""4335""
","
","null","<p></p>","null","","","","","","","","","","","","","","","","","","","","","","",""
"","do_trial","55","348410","0.0-39.0-1.0","""event"",""trial"",""time""
""fullscreenenter"",""0"",""4335""
","
","
","""event"",""trial"",""time""
""fullscreenenter"",""0"",""4335""
","
","990.9000000003725","","","","","","","","49","0,1,0","","","","","","","","","","","","","","","",""
"","html-keyboard-response","56","349412","0.0-40.0-0.0","""event"",""trial"",""time""
""fullscreenenter"",""0"",""4335""
","
","
","""event"",""trial"",""time""
""fullscreenenter"",""0"",""4335""
","
","null","<p></p>","null","","","","","","","","","","","","","","","","","","","","","","",""
"","do_trial","57","354904","0.0-40.0-1.0","""event"",""trial"",""time""
""fullscreenenter"",""0"",""4335""
","
","
","""event"",""trial"",""time""
""fullscreenenter"",""0"",""4335""
","
","985.0999999996275","","","","","","","","50","1,0,0","","","","","","","","","","","","","","","",""
"","do_bye","58","356409","0.0-41.0-0.0","""event"",""trial"",""time""
""fullscreenenter"",""0"",""4335""
","
","
","""event"",""trial"",""time""
""fullscreenenter"",""0"",""4335""
","
","null","","","","","","","","null","","","","","","","","","","","","","","","","",""
"","do_travel","59","365412","0.0-41.0-1.0","""event"",""trial"",""time""
""fullscreenenter"",""0"",""4335""
","
","
","""event"",""trial"",""time""
""fullscreenenter"",""0"",""4335""
","
","null","","","","","","","","null","","","","","","","","","","","","","","","","",""
"","do_welcome","60","369418","0.0-41.0-2.0","""event"",""trial"",""time""
""fullscreenenter"",""0"",""4335""
","
","
","""event"",""trial"",""time""
""fullscreenenter"",""0"",""4335""
","
","null","","","","","","","","null","","","","","","","","","","","","","","","","",""
"","do_trial","61","375441","0.0-41.0-3.0","""event"",""trial"",""time""
""fullscreenenter"",""0"",""4335""
","
","
","""event"",""trial"",""time""
""fullscreenenter"",""0"",""4335""
","
","1516.7000000001863","","","","","","","","51","1,0,0","","","","","","","","","","","","","","","",""
"","html-keyboard-response","62","376444","0.0-42.0-0.0","""event"",""trial"",""time""
""fullscreenenter"",""0"",""4335""
","
","
","""event"",""trial"",""time""
""fullscreenenter"",""0"",""4335""
","
","null","<p></p>","null","","","","","","","","","","","","","","","","","","","","","","",""
"","do_trial","63","381637","0.0-42.0-1.0","""event"",""trial"",""time""
""fullscreenenter"",""0"",""4335""
","
","
","""event"",""trial"",""time""
""fullscreenenter"",""0"",""4335""
","
","686.3999999994412","","","","","","","","50","1,0,1","","","","","","","","","","","","","","","",""
"","html-keyboard-response","64","382638","0.0-43.0-0.0","""event"",""trial"",""time""
""fullscreenenter"",""0"",""4335""
","
","
","""event"",""trial"",""time""
""fullscreenenter"",""0"",""4335""
","
","null","<p></p>","null","","","","","","","","","","","","","","","","","","","","","","",""
"","do_trial","65","387440","0.0-43.0-1.0","""event"",""trial"",""time""
""fullscreenenter"",""0"",""4335""
","
","
","""event"",""trial"",""time""
""fullscreenenter"",""0"",""4335""
","
","296","","","","","","","","50","1,1,0","","","","","","","","","","","","","","","",""
"","html-keyboard-response","66","388442","0.0-44.0-0.0","""event"",""trial"",""time""
""fullscreenenter"",""0"",""4335""
","
","
","""event"",""trial"",""time""
""fullscreenenter"",""0"",""4335""
","
","null","<p></p>","null","","","","","","","","","","","","","","","","","","","","","","",""
"","do_trial","67","393260","0.0-44.0-1.0","""event"",""trial"",""time""
""fullscreenenter"",""0"",""4335""
","
","
","""event"",""trial"",""time""
""fullscreenenter"",""0"",""4335""
","
","311.1000000005588","","","","","","","","49","0,0,1","","","","","","","","","","","","","","","",""
"","html-keyboard-response","68","394261","0.0-45.0-0.0","""event"",""trial"",""time""
""fullscreenenter"",""0"",""4335""
","
","
","""event"",""trial"",""time""
""fullscreenenter"",""0"",""4335""
","
","null","<p></p>","null","","","","","","","","","","","","","","","","","","","","","","",""
"","do_trial","69","399070","0.0-45.0-1.0","""event"",""trial"",""time""
""fullscreenenter"",""0"",""4335""
","
","
","""event"",""trial"",""time""
""fullscreenenter"",""0"",""4335""
","
","301.5","","","","","","","","49","1,0,1","","","","","","","","","","","","","","","",""
"","html-keyboard-response","70","405214","0.0-46.0-0.0","""event"",""trial"",""time""
""fullscreenenter"",""0"",""4335""
","
","
","""event"",""trial"",""time""
""fullscreenenter"",""0"",""4335""
","
","6141.5999999996275","<div class='center'><p><img src='run_exp/static/images/tutorial/prac_best_pirate.png'  height='500'></p></div>","49","","","","","","","","","","","","","","","","","","","","","","",""
"","html-keyboard-response","71","406954","0.0-47.0-0.0","""event"",""trial"",""time""
""fullscreenenter"",""0"",""4335""
","
","
","""event"",""trial"",""time""
""fullscreenenter"",""0"",""4335""
","
","1738.4000000003725","<div class='center'><p>That's correct! Red beard was the best.</p><p><b>[Press the space bar to continue]</b></p></div>","32","","","","","","","","","","","","","","","","","","","","","","",""
"","html-keyboard-response","72","409402","0.0-47.0-1.0","""event"",""trial"",""time""
""fullscreenenter"",""0"",""4335""
","
","
","""event"",""trial"",""time""
""fullscreenenter"",""0"",""4335""
","
","2446.5","<div class='center'><p><img src='run_exp/static/images/tutorial/prac_source.png'  height='500'></p></div>","50","","","","","","","","","","","","","","","","","","","","","","",""
"","html-keyboard-response","73","410467","0.0-48.0-0.0","""event"",""trial"",""time""
""fullscreenenter"",""0"",""4335""
","
","
","""event"",""trial"",""time""
""fullscreenenter"",""0"",""4335""
","
","1064.2999999998137","<div class='center'><p>That's correct! You saw this ship on the cavern island.</p><p><b>[Press the space bar to continue]</b></p></div>","32","","","","","","","","","","","","","","","","","","","","","","",""
"","quiz_beginning","74","421811","0.0-48.0-1.0","""event"",""trial"",""time""
""fullscreenenter"",""0"",""4335""
","
","
","""event"",""trial"",""time""
""fullscreenenter"",""0"",""4335""
","
","null","run_exp/static/audio/clip_16_quiz_intro.m4a","null","","","","","<div class='center'><p>Good job on the practice game! Now, you will be asked some true or false questions to make sure you really understand the rules of the game.</p><p> Press <b>'1'</b> on the keyboard for true and press <b>'2'</b> for false.</p></div>","","","","","","","","","","","","","","","","","",""
"","audio-keyboard-response","75","424948","0.0-48.0-2.0","""event"",""trial"",""time""
""fullscreenenter"",""0"",""4335""
","
","
","""event"",""trial"",""time""
""fullscreenenter"",""0"",""4335""
","
","3134.800000000745","run_exp/static/audio/clip_17_q1.m4a","49","","","","","","","","","","","","","","","","","","","","","","",""
"","correct","76","427570","0.0-49.0-0.0","""event"",""trial"",""time""
""fullscreenenter"",""0"",""4335""
","
","
","""event"",""trial"",""time""
""fullscreenenter"",""0"",""4335""
","
","null","run_exp/static/audio/clip_18_correct.m4a","null","","","","","<div class='center'><p>That's correct!</p></div>","","","","","","","","","","","","","","","","","",""
"","html-keyboard-response","77","428934","0.0-49.0-1.0","""event"",""trial"",""time""
""fullscreenenter"",""0"",""4335""
","
","
","""event"",""trial"",""time""
""fullscreenenter"",""0"",""4335""
","
","1363.300000000745","<div class='center'><p>That's correct!</p><p><b>[Press the space bar to continue]</b></p></div>","32","","","","","","","","","","","","","","","","","","","","","","",""
"","audio-keyboard-response","78","433297","0.0-49.0-2.0","""event"",""trial"",""time""
""fullscreenenter"",""0"",""4335""
","
","
","""event"",""trial"",""time""
""fullscreenenter"",""0"",""4335""
","
","4360.5999999996275","run_exp/static/audio/clip_20_q2.m4a","50","","","","","","","","","","","","","","","","","","","","","","",""
"","correct","79","435930","0.0-50.0-0.0","""event"",""trial"",""time""
""fullscreenenter"",""0"",""4335""
","
","
","""event"",""trial"",""time""
""fullscreenenter"",""0"",""4335""
","
","null","run_exp/static/audio/clip_18_correct.m4a","null","","","","","<div class='center'><p>That's correct!</p></div>","","","","","","","","","","","","","","","","","",""
"","html-keyboard-response","80","436560","0.0-50.0-1.0","""event"",""trial"",""time""
""fullscreenenter"",""0"",""4335""
","
","
","""event"",""trial"",""time""
""fullscreenenter"",""0"",""4335""
","
","629.1000000005588","<div class='center'><p>That's correct!</p><p><b>[Press the space bar to continue]</b></p></div>","32","","","","","","","","","","","","","","","","","","","","","","",""
"","audio-keyboard-response","81","438974","0.0-50.0-2.0","""event"",""trial"",""time""
""fullscreenenter"",""0"",""4335""
","
","
","""event"",""trial"",""time""
""fullscreenenter"",""0"",""4335""
","
","2411.4000000003725","run_exp/static/audio/clip_22_q3.m4a","50","","","","","","","","","","","","","","","","","","","","","","",""
"","correct","82","441595","0.0-51.0-0.0","""event"",""trial"",""time""
""fullscreenenter"",""0"",""4335""
","
","
","""event"",""trial"",""time""
""fullscreenenter"",""0"",""4335""
","
","null","run_exp/static/audio/clip_18_correct.m4a","null","","","","","<div class='center'><p>That's correct!</p></div>","","","","","","","","","","","","","","","","","",""
"","html-keyboard-response","83","442145","0.0-51.0-1.0","""event"",""trial"",""time""
""fullscreenenter"",""0"",""4335""
","
","
","""event"",""trial"",""time""
""fullscreenenter"",""0"",""4335""
","
","549.2999999998137","<div class='center'><p>That's correct!</p><p><b>[Press the space bar to continue]</b></p></div>","32","","","","","","","","","","","","","","","","","","","","","","",""
"","audio-keyboard-response","84","445971","0.0-51.0-2.0","""event"",""trial"",""time""
""fullscreenenter"",""0"",""4335""
","
","
","""event"",""trial"",""time""
""fullscreenenter"",""0"",""4335""
","
","3824","run_exp/static/audio/clip_24_q4.m4a","49","","","","","","","","","","","","","","","","","","","","","","",""
"","correct","85","448655","0.0-52.0-0.0","""event"",""trial"",""time""
""fullscreenenter"",""0"",""4335""
","
","
","""event"",""trial"",""time""
""fullscreenenter"",""0"",""4335""
","
","null","run_exp/static/audio/clip_18_correct.m4a","null","","","","","<div class='center'><p>That's correct!</p></div>","","","","","","","","","","","","","","","","","",""
"","html-keyboard-response","86","449147","0.0-52.0-1.0","""event"",""trial"",""time""
""fullscreenenter"",""0"",""4335""
","
","
","""event"",""trial"",""time""
""fullscreenenter"",""0"",""4335""
","
","491.3999999994412","<div class='center'><p>That's correct!</p><p><b>[Press the space bar to continue]</b></p></div>","32","","","","","","","","","","","","","","","","","","","","","","",""
"","q_all_corr","87","457849","0.0-53.0-0.0","""event"",""trial"",""time""
""fullscreenenter"",""0"",""4335""
","
","
","""event"",""trial"",""time""
""fullscreenenter"",""0"",""4335""
","
","null","run_exp/static/audio/clip_27_quiz_all_correct.m4a","null","","","","","<div class='center'><p>Good job! You’re now ready to move on to the real game! Remember this game will be difficult but don't get discouraged and try your best!</p></div>","","","","","","","","","","","","","","","","","",""
"","html-keyboard-response","88","458272","0.0-53.0-1.0","""event"",""trial"",""time""
""fullscreenenter"",""0"",""4335""
","
","
","""event"",""trial"",""time""
""fullscreenenter"",""0"",""4335""
","
","421.90000000037253","<div class='center'><p>Good job! You’re now ready to move on to the real game! Remember this game will be difficult but don't get discouraged and try your best!</p><p><b>[Press the space bar to continue]</b></p></div>","32","","","","","","","","","","","","","","","","","","","","","","",""
"","do_welcome","89","462278","0.0-54.0-0.0","""event"",""trial"",""time""
""fullscreenenter"",""0"",""4335""
","
","
","""event"",""trial"",""time""
""fullscreenenter"",""0"",""4335""
","
","null","","","","","","","","null","","","","","","","","","","","","","","","","",""
"","do_trial","90","467791","0.0-55.0-0.0","""event"",""trial"",""time""
""fullscreenenter"",""0"",""4335""
","
","
","""event"",""trial"",""time""
""fullscreenenter"",""0"",""4335""
","
","953.7000000001863","","","","","","","","49","1,0,0","0","forest","0","probe-212","0.6","0.3","0.1","1","","","","","","","",""
"","html-keyboard-response","91","468793","0.0-55.0-1.0","""event"",""trial"",""time""
""fullscreenenter"",""0"",""4335""
","
","
","""event"",""trial"",""time""
""fullscreenenter"",""0"",""4335""
","
","null","<p></p>","null","","","","","","","","","","","","","","","","","","","","","","",""
"","do_trial","92","473851","0.0-56.0-0.0","""event"",""trial"",""time""
""fullscreenenter"",""0"",""4335""
","
","
","""event"",""trial"",""time""
""fullscreenenter"",""0"",""4335""
","
","501.5","","","","","","","","51","0,0,1","0","forest","1","probe-205","0.5243359032702759","0.32614504232288577","0.20851760929697222","1","","","","","","","",""
"","html-keyboard-response","93","474853","0.0-56.0-1.0","""event"",""trial"",""time""
""fullscreenenter"",""0"",""4335""
","
","
","""event"",""trial"",""time""
""fullscreenenter"",""0"",""4335""
","
","null","<p></p>","null","","","","","","","","","","","","","","","","","","","","","","",""
"","do_trial","94","479705","0.0-57.0-0.0","""event"",""trial"",""time""
""fullscreenenter"",""0"",""4335""
","
","
","""event"",""trial"",""time""
""fullscreenenter"",""0"",""4335""
","
","297.40000000037253","","","","","","","","50","0,0,0","0","forest","2","probe-168","0.461403223692139","0.37310415636276417","0.09965061825632601","0","","","","","","","",""
"","html-keyboard-response","95","480709","0.0-57.0-1.0","""event"",""trial"",""time""
""fullscreenenter"",""0"",""4335""
","
","
","""event"",""trial"",""time""
""fullscreenenter"",""0"",""4335""
","
","null","<p></p>","null","","","","","","","","","","","","","","","","","","","","","","",""
"","do_trial","96","486166","0.0-58.0-0.0","""event"",""trial"",""time""
""fullscreenenter"",""0"",""4335""
","
","
","""event"",""trial"",""time""
""fullscreenenter"",""0"",""4335""
","
","901.8999999994412","","","","","","","","51","0,1,0","0","forest","3","probe-174","0.5442482337985065","0.4055898093881881","0.33723913715291537","0","","","","","","","",""
"","html-keyboard-response","97","487168","0.0-58.0-1.0","""event"",""trial"",""time""
""fullscreenenter"",""0"",""4335""
","
","
","""event"",""trial"",""time""
""fullscreenenter"",""0"",""4335""
","
","null","<p></p>","null","","","","","","","","","","","","","","","","","","","","","","",""
"","do_trial","98","492033","0.0-59.0-0.0","""event"",""trial"",""time""
""fullscreenenter"",""0"",""4335""
","
","
","""event"",""trial"",""time""
""fullscreenenter"",""0"",""4335""
","
","308.69999999925494","","","","","","","","49","1,0,1","0","forest","4","probe-225","0.6106361410263236","0.3709724364645471","0.16190288943054357","1","","","","","","","",""
"","html-keyboard-response","99","493035","0.0-59.0-1.0","""event"",""trial"",""time""
""fullscreenenter"",""0"",""4335""
","
","
","""event"",""trial"",""time""
""fullscreenenter"",""0"",""4335""
","
","null","<p></p>","null","","","","","","","","","","","","","","","","","","","","","","",""
"","do_trial","100","498052","0.0-60.0-0.0","""event"",""trial"",""time""
""fullscreenenter"",""0"",""4335""
","
","
","""event"",""trial"",""time""
""fullscreenenter"",""0"",""4335""
","
","462.29999999981374","","","","","","","","49","0,0,0","0","forest","5","probe-172","0.6610306723736211","0.457394230462948","0.09393957444941277","0","","","","","","","",""
"","html-keyboard-response","101","499054","0.0-60.0-1.0","""event"",""trial"",""time""
""fullscreenenter"",""0"",""4335""
","
","
","""event"",""trial"",""time""
""fullscreenenter"",""0"",""4335""
","
","null","<p></p>","null","","","","","","","","","","","","","","","","","","","","","","",""
"","do_trial","102","503978","0.0-61.0-0.0","""event"",""trial"",""time""
""fullscreenenter"",""0"",""4335""
","
","
","""event"",""trial"",""time""
""fullscreenenter"",""0"",""4335""
","
","370.6000000005588","","","","","","","","51","0,0,0","0","forest","6","probe-65","0.5841377812144073","0.46156158359751914","0.1439313786702239","0","","","","","","","",""
"","html-keyboard-response","103","504980","0.0-61.0-1.0","""event"",""trial"",""time""
""fullscreenenter"",""0"",""4335""
","
","
","""event"",""trial"",""time""
""fullscreenenter"",""0"",""4335""
","
","null","<p></p>","null","","","","","","","","","","","","","","","","","","","","","","",""
"","do_trial","104","510003","0.0-62.0-0.0","""event"",""trial"",""time""
""fullscreenenter"",""0"",""4335""
","
","
","""event"",""trial"",""time""
""fullscreenenter"",""0"",""4335""
","
","468.70000000018626","","","","","","","","50","1,0,1","0","forest","7","probe-85","0.6807673827140666","0.5335528486837186","0.15718150592005292","0","","","","","","","",""
"","html-keyboard-response","105","511005","0.0-62.0-1.0","""event"",""trial"",""time""
""fullscreenenter"",""0"",""4335""
","
","
","""event"",""trial"",""time""
""fullscreenenter"",""0"",""4335""
","
","null","<p></p>","null","","","","","","","","","","","","","","","","","","","","","","",""
"","do_trial","106","515842","0.0-63.0-0.0","""event"",""trial"",""time""
""fullscreenenter"",""0"",""4335""
","
","
","""event"",""trial"",""time""
""fullscreenenter"",""0"",""4335""
","
","281.90000000037253","","","","","","","","49","1,0,1","0","forest","8","probe-133","0.7703749108041936","0.34939050563649093","0.14455012413863838","1","","","","","","","",""
"","html-keyboard-response","107","516844","0.0-63.0-1.0","""event"",""trial"",""time""
""fullscreenenter"",""0"",""4335""
","
","
","""event"",""trial"",""time""
""fullscreenenter"",""0"",""4335""
","
","null","<p></p>","null","","","","","","","","","","","","","","","","","","","","","","",""
"","do_trial","108","521668","0.0-64.0-0.0","""event"",""trial"",""time""
""fullscreenenter"",""0"",""4335""
","
","
","""event"",""trial"",""time""
""fullscreenenter"",""0"",""4335""
","
","268.69999999925494","","","","","","","","49","1,1,0","0","forest","9","probe-140","0.6105800666967274","0.34910108108478627","0.05687395108482367","1","","","","","","","",""
"","html-keyboard-response","109","522671","0.0-64.0-1.0","""event"",""trial"",""time""
""fullscreenenter"",""0"",""4335""
","
","
","""event"",""trial"",""time""
""fullscreenenter"",""0"",""4335""
","
","null","<p></p>","null","","","","","","","","","","","","","","","","","","","","","","",""
"","do_trial","110","527520","0.0-65.0-0.0","""event"",""trial"",""time""
""fullscreenenter"",""0"",""4335""
","
","
","""event"",""trial"",""time""
""fullscreenenter"",""0"",""4335""
","
","294","","","","","","","","49","0,0,0","0","forest","10","probe-152","0.5476380571725564","0.3716551431691925","0.05907565644756213","0","","","","","","","",""
"","html-keyboard-response","111","528522","0.0-65.0-1.0","""event"",""trial"",""time""
""fullscreenenter"",""0"",""4335""
","
","
","""event"",""trial"",""time""
""fullscreenenter"",""0"",""4335""
","
","null","<p></p>","null","","","","","","","","","","","","","","","","","","","","","","",""
"","do_trial","112","533547","0.0-66.0-0.0","""event"",""trial"",""time""
""fullscreenenter"",""0"",""4335""
","
","
","""event"",""trial"",""time""
""fullscreenenter"",""0"",""4335""
","
","470.19999999925494","","","","","","","","50","0,0,0","0","forest","11","probe-182","0.6398887103075326","0.3270717571451438","0.054813457944896574","0","","","","","","","",""
"","html-keyboard-response","113","534549","0.0-66.0-1.0","""event"",""trial"",""time""
""fullscreenenter"",""0"",""4335""
","
","
","""event"",""trial"",""time""
""fullscreenenter"",""0"",""4335""
","
","null","<p></p>","null","","","","","","","","","","","","","","","","","","","","","","",""
"","do_trial","114","539357","0.0-67.0-0.0","""event"",""trial"",""time""
""fullscreenenter"",""0"",""4335""
","
","
","""event"",""trial"",""time""
""fullscreenenter"",""0"",""4335""
","
","252.20000000018626","","","","","","","","51","1,0,0","0","forest","12","probe-158","0.6714133740425482","0.2785138862820077","0.09890879171685323","0","","","","","","","",""
"","html-keyboard-response","115","540358","0.0-67.0-1.0","""event"",""trial"",""time""
""fullscreenenter"",""0"",""4335""
","
","
","""event"",""trial"",""time""
""fullscreenenter"",""0"",""4335""
","
","null","<p></p>","null","","","","","","","","","","","","","","","","","","","","","","",""
"","do_trial","116","545440","0.0-68.0-0.0","""event"",""trial"",""time""
""fullscreenenter"",""0"",""4335""
","
","
","""event"",""trial"",""time""
""fullscreenenter"",""0"",""4335""
","
","528.2999999998137","","","","","","","","49","1,1,0","0","forest","13","probe-08","0.5124682769837307","0.33596745623265983","0.10187758984035193","1","","","","","","","",""
"","html-keyboard-response","117","546442","0.0-68.0-1.0","""event"",""trial"",""time""
""fullscreenenter"",""0"",""4335""
","
","
","""event"",""trial"",""time""
""fullscreenenter"",""0"",""4335""
","
","null","<p></p>","null","","","","","","","","","","","","","","","","","","","","","","",""
"","do_trial","118","551373","0.0-69.0-0.0","""event"",""trial"",""time""
""fullscreenenter"",""0"",""4335""
","
","
","""event"",""trial"",""time""
""fullscreenenter"",""0"",""4335""
","
","376.20000000018626","","","","","","","","49","1,0,0","0","forest","14","probe-156","0.6065116803772814","0.1878711262627951","0.10836275935593044","1","","","","","","","",""
"","html-keyboard-response","119","552375","0.0-69.0-1.0","""event"",""trial"",""time""
""fullscreenenter"",""0"",""4335""
","
","
","""event"",""trial"",""time""
""fullscreenenter"",""0"",""4335""
","
","null","<p></p>","null","","","","","","","","","","","","","","","","","","","","","","",""
"","do_trial","120","557171","0.0-70.0-0.0","""event"",""trial"",""time""
""fullscreenenter"",""0"",""4335""
","
","
","""event"",""trial"",""time""
""fullscreenenter"",""0"",""4335""
","
","240.8999999994412","","","","","","","","49","0,0,0","0","forest","15","probe-103","0.5452111501831365","0.30079002008568895","0.1329216695319097","0","","","","","","","",""
"","html-keyboard-response","121","558173","0.0-70.0-1.0","""event"",""trial"",""time""
""fullscreenenter"",""0"",""4335""
","
","
","""event"",""trial"",""time""
""fullscreenenter"",""0"",""4335""
","
","null","<p></p>","null","","","","","","","","","","","","","","","","","","","","","","",""
"","do_trial","122","563001","0.0-71.0-0.0","""event"",""trial"",""time""
""fullscreenenter"",""0"",""4335""
","
","
","""event"",""trial"",""time""
""fullscreenenter"",""0"",""4335""
","
","273.40000000037253","","","","","","","","51","0,1,0","0","forest","16","probe-71","0.4508523871849415","0.3420728514485712","0.13003575517991758","0","","","","","","","",""
"","html-keyboard-response","123","564003","0.0-71.0-1.0","""event"",""trial"",""time""
""fullscreenenter"",""0"",""4335""
","
","
","""event"",""trial"",""time""
""fullscreenenter"",""0"",""4335""
","
","null","<p></p>","null","","","","","","","","","","","","","","","","","","","","","","",""
"","do_trial","124","569400","0.0-72.0-0.0","""event"",""trial"",""time""
""fullscreenenter"",""0"",""4335""
","
","
","""event"",""trial"",""time""
""fullscreenenter"",""0"",""4335""
","
","841.4000000003725","","","","","","","","50","0,0,0","0","forest","17","probe-102","0.4181522610553786","0.19284416420529515","0.08598001887021259","0","","","","","","","",""
"","html-keyboard-response","125","570402","0.0-72.0-1.0","""event"",""trial"",""time""
""fullscreenenter"",""0"",""4335""
","
","
","""event"",""trial"",""time""
""fullscreenenter"",""0"",""4335""
","
","null","<p></p>","null","","","","","","","","","","","","","","","","","","","","","","",""
"","do_trial","126","575237","0.0-73.0-0.0","""event"",""trial"",""time""
""fullscreenenter"",""0"",""4335""
","
","
","""event"",""trial"",""time""
""fullscreenenter"",""0"",""4335""
","
","278.1000000005588","","","","","","","","50","0,1,0","0","forest","18","probe-72","0.3552028552927235","0.30064733968170776","0.17132673810897417","1","","","","","","","",""
"","html-keyboard-response","127","576239","0.0-73.0-1.0","""event"",""trial"",""time""
""fullscreenenter"",""0"",""4335""
","
","
","""event"",""trial"",""time""
""fullscreenenter"",""0"",""4335""
","
","null","<p></p>","null","","","","","","","","","","","","","","","","","","","","","","",""
"","do_trial","128","581057","0.0-74.0-0.0","""event"",""trial"",""time""
""fullscreenenter"",""0"",""4335""
","
","
","""event"",""trial"",""time""
""fullscreenenter"",""0"",""4335""
","
","263.40000000037253","","","","","","","","50","1,0,0","0","forest","19","probe-64","0.4574800603130035","0.34127241518734397","0.09645154270904921","0","","","","","","","",""
"","html-keyboard-response","129","582059","0.0-74.0-1.0","""event"",""trial"",""time""
""fullscreenenter"",""0"",""4335""
","
","
","""event"",""trial"",""time""
""fullscreenenter"",""0"",""4335""
","
","null","<p></p>","null","","","","","","","","","","","","","","","","","","","","","","",""
"","do_trial","130","587091","0.0-75.0-0.0","""event"",""trial"",""time""
""fullscreenenter"",""0"",""4335""
","
","
","""event"",""trial"",""time""
""fullscreenenter"",""0"",""4335""
","
","475.79999999981374","","","","","","","","49","1,0,0","0","forest","20","probe-198","0.5283551447457709","0.21296954328736498","0.05052451084115703","1","","","","","","","",""
"","html-keyboard-response","131","588092","0.0-75.0-1.0","""event"",""trial"",""time""
""fullscreenenter"",""0"",""4335""
","
","
","""event"",""trial"",""time""
""fullscreenenter"",""0"",""4335""
","
","null","<p></p>","null","","","","","","","","","","","","","","","","","","","","","","",""
"","do_trial","132","593091","0.0-76.0-0.0","""event"",""trial"",""time""
""fullscreenenter"",""0"",""4335""
","
","
","""event"",""trial"",""time""
""fullscreenenter"",""0"",""4335""
","
","444.09999999962747","","","","","","","","49","1,0,0","0","forest","21","probe-154","0.6015380226536511","0.42219104465779167","0.09808911220928718","1","","","","","","","",""
"","html-keyboard-response","133","594093","0.0-76.0-1.0","""event"",""trial"",""time""
""fullscreenenter"",""0"",""4335""
","
","
","""event"",""trial"",""time""
""fullscreenenter"",""0"",""4335""
","
","null","<p></p>","null","","","","","","","","","","","","","","","","","","","","","","",""
"","do_trial","134","600104","0.0-77.0-0.0","""event"",""trial"",""time""
""fullscreenenter"",""0"",""4335""
","
","
","""event"",""trial"",""time""
""fullscreenenter"",""0"",""4335""
","
","1458.5","","","","","","","","49","1,1,0","0","forest","22","probe-90","0.707284511124058","0.25108801817933757","0.18157329786510226","1","","","","","","","",""
"","html-keyboard-response","135","601106","0.0-77.0-1.0","""event"",""trial"",""time""
""fullscreenenter"",""0"",""4335""
","
","
","""event"",""trial"",""time""
""fullscreenenter"",""0"",""4335""
","
","null","<p></p>","null","","","","","","","","","","","","","","","","","","","","","","",""
"","do_trial","136","605943","0.0-78.0-0.0","""event"",""trial"",""time""
""fullscreenenter"",""0"",""4335""
","
","
","""event"",""trial"",""time""
""fullscreenenter"",""0"",""4335""
","
","282.29999999981374","","","","","","","","49","0,1,0","0","forest","23","probe-59","0.6815066237974728","0.21540451746183345","0.22403607218434554","0","","","","","","","",""
"","html-keyboard-response","137","606945","0.0-78.0-1.0","""event"",""trial"",""time""
""fullscreenenter"",""0"",""4335""
","
","
","""event"",""trial"",""time""
""fullscreenenter"",""0"",""4335""
","
","null","<p></p>","null","","","","","","","","","","","","","","","","","","","","","","",""
"","do_trial","138","611746","0.0-79.0-0.0","""event"",""trial"",""time""
""fullscreenenter"",""0"",""4335""
","
","
","""event"",""trial"",""time""
""fullscreenenter"",""0"",""4335""
","
","245.5","","","","","","","","50","0,0,0","0","forest","24","probe-128","0.749709949114222","0.1973644988575498","0.13617931461855642","0","","","","","","","",""
"","html-keyboard-response","139","612747","0.0-79.0-1.0","""event"",""trial"",""time""
""fullscreenenter"",""0"",""4335""
","
","
","""event"",""trial"",""time""
""fullscreenenter"",""0"",""4335""
","
","null","<p></p>","null","","","","","","","","","","","","","","","","","","","","","","",""
"","do_trial","140","617768","0.0-80.0-0.0","""event"",""trial"",""time""
""fullscreenenter"",""0"",""4335""
","
","
","""event"",""trial"",""time""
""fullscreenenter"",""0"",""4335""
","
","464.79999999981374","","","","","","","","51","1,0,0","0","forest","25","probe-150","0.8205778365567713","0.15018261037390768","0.06920049671197444","0","","","","","","","",""
"","html-keyboard-response","141","618770","0.0-80.0-1.0","""event"",""trial"",""time""
""fullscreenenter"",""0"",""4335""
","
","
","""event"",""trial"",""time""
""fullscreenenter"",""0"",""4335""
","
","null","<p></p>","null","","","","","","","","","","","","","","","","","","","","","","",""
"","do_trial","142","623345","0.0-81.0-0.0","""event"",""trial"",""time""
""fullscreenenter"",""0"",""4335""
","
","
","""event"",""trial"",""time""
""fullscreenenter"",""0"",""4335""
","
","20.799999999813735","","","","","","","","50","0,0,1","0","forest","26","probe-161","0.7420089824402224","0.1307938542431214","0.0647861684660114","0","","","","","","","",""
"","html-keyboard-response","143","624347","0.0-81.0-1.0","""event"",""trial"",""time""
""fullscreenenter"",""0"",""4335""
","
","
","""event"",""trial"",""time""
""fullscreenenter"",""0"",""4335""
","
","null","<p></p>","null","","","","","","","","","","","","","","","","","","","","","","",""
"","do_trial","144","629584","0.0-82.0-0.0","""event"",""trial"",""time""
""fullscreenenter"",""0"",""4335""
","
","
","""event"",""trial"",""time""
""fullscreenenter"",""0"",""4335""
","
","682","","","","","","","","49","1,0,0","0","forest","27","probe-186","0.6469527285889568","0.07491216809916777","0.12577280720878736","1","","","","","","","",""
"","html-keyboard-response","145","630586","0.0-82.0-1.0","""event"",""trial"",""time""
""fullscreenenter"",""0"",""4335""
","
","
","""event"",""trial"",""time""
""fullscreenenter"",""0"",""4335""
","
","null","<p></p>","null","","","","","","","","","","","","","","","","","","","","","","",""
"","do_trial","146","635796","0.0-83.0-0.0","""event"",""trial"",""time""
""fullscreenenter"",""0"",""4335""
","
","
","""event"",""trial"",""time""
""fullscreenenter"",""0"",""4335""
","
","655.7999999998137","","","","","","","","49","1,0,0","0","forest","28","probe-194","0.5817933133334491","0.2849318120153778","0.15998327953826338","1","","","","","","","",""
"","html-keyboard-response","147","636798","0.0-83.0-1.0","""event"",""trial"",""time""
""fullscreenenter"",""0"",""4335""
","
","
","""event"",""trial"",""time""
""fullscreenenter"",""0"",""4335""
","
","null","<p></p>","null","","","","","","","","","","","","","","","","","","","","","","",""
"","do_trial","148","641974","0.0-84.0-0.0","""event"",""trial"",""time""
""fullscreenenter"",""0"",""4335""
","
","
","""event"",""trial"",""time""
""fullscreenenter"",""0"",""4335""
","
","619.9000000003725","","","","","","","","49","0,0,1","0","forest","29","probe-159","0.518639296024331","0.1608790288457724","0.23328109263546243","0","","","","","","","",""
"","html-keyboard-response","149","642975","0.0-84.0-1.0","""event"",""trial"",""time""
""fullscreenenter"",""0"",""4335""
","
","
","""event"",""trial"",""time""
""fullscreenenter"",""0"",""4335""
","
","null","<p></p>","null","","","","","","","","","","","","","","","","","","","","","","",""
"","do_bye","150","644480","0.0-85.0-0.0","""event"",""trial"",""time""
""fullscreenenter"",""0"",""4335""
","
","
","""event"",""trial"",""time""
""fullscreenenter"",""0"",""4335""
","
","null","","","","","","","","null","","","","","","","","","","","","","","","","",""
"","break","151","650872","0.0-85.0-1.0","""event"",""trial"",""time""
""fullscreenenter"",""0"",""4335""
","
","
","""event"",""trial"",""time""
""fullscreenenter"",""0"",""4335""
","
","6390.4000000003725","<div class='center'><p>Time to take a quick break! You have 2 minutes to rest, but you can move on sooner if you'd like.</p><p> Press the <b>space bar</b> to continue.</p></div>","32","","","","","","","","","","","","","","","","","","","","","","",""
"","do_travel","152","659875","0.0-86.0-0.0","""event"",""trial"",""time""
""fullscreenenter"",""0"",""4335""
","
","
","""event"",""trial"",""time""
""fullscreenenter"",""0"",""4335""
","
","null","","","","","","","","null","","","","","","","","","","","","","","","","",""
"","do_welcome","153","663883","0.0-86.0-1.0","""event"",""trial"",""time""
""fullscreenenter"",""0"",""4335""
","
","
","""event"",""trial"",""time""
""fullscreenenter"",""0"",""4335""
","
","null","","","","","","","","null","","","","","","","","","","","","","","","","",""
"","do_trial","154","669384","0.0-87.0-0.0","""event"",""trial"",""time""
""fullscreenenter"",""0"",""4335""
","
","
","""event"",""trial"",""time""
""fullscreenenter"",""0"",""4335""
","
","946.7999999998137","","","","","","","","50","1,0,0","1","countryside","30","probe-218","1","0.20666268226853898","0.18614848107309126","0","","","","","","","",""
"","html-keyboard-response","155","670386","0.0-87.0-1.0","""event"",""trial"",""time""
""fullscreenenter"",""0"",""4335""
","
","
","""event"",""trial"",""time""
""fullscreenenter"",""0"",""4335""
","
","null","<p></p>","null","","","","","","","","","","","","","","","","","","","","","","",""
"","do_trial","156","675297","0.0-88.0-0.0","""event"",""trial"",""time""
""fullscreenenter"",""0"",""4335""
","
","
","""event"",""trial"",""time""
""fullscreenenter"",""0"",""4335""
","
","355.59999999962747","","","","","","","","50","1,0,0","1","countryside","31","probe-14","1","0.27942330181708547","0.16372141432321535","0","","","","","","","",""
"","html-keyboard-response","157","676299","0.0-88.0-1.0","""event"",""trial"",""time""
""fullscreenenter"",""0"",""4335""
","
","
","""event"",""trial"",""time""
""fullscreenenter"",""0"",""4335""
","
","null","<p></p>","null","","","","","","","","","","","","","","","","","","","","","","",""
"","do_trial","158","681623","0.0-89.0-0.0","""event"",""trial"",""time""
""fullscreenenter"",""0"",""4335""
","
","
","""event"",""trial"",""time""
""fullscreenenter"",""0"",""4335""
","
","771.7999999998137","","","","","","","","51","1,0,0","1","countryside","32","probe-201","1","0.3098334801578007","0.16553932625528422","0","","","","","","","",""
"","html-keyboard-response","159","682625","0.0-89.0-1.0","""event"",""trial"",""time""
""fullscreenenter"",""0"",""4335""
","
","
","""event"",""trial"",""time""
""fullscreenenter"",""0"",""4335""
","
","null","<p></p>","null","","","","","","","","","","","","","","","","","","","","","","",""
"","do_trial","160","687963","0.0-90.0-0.0","""event"",""trial"",""time""
""fullscreenenter"",""0"",""4335""
","
","
","""event"",""trial"",""time""
""fullscreenenter"",""0"",""4335""
","
","783","","","","","","","","51","1,0,0","1","countryside","33","probe-193","0.8840978741671509","0.3448352196187631","0.05837262104907362","0","","","","","","","",""
"","html-keyboard-response","161","688965","0.0-90.0-1.0","""event"",""trial"",""time""
""fullscreenenter"",""0"",""4335""
","
","
","""event"",""trial"",""time""
""fullscreenenter"",""0"",""4335""
","
","null","<p></p>","null","","","","","","","","","","","","","","","","","","","","","","",""
"","do_trial","162","693809","0.0-91.0-0.0","""event"",""trial"",""time""
""fullscreenenter"",""0"",""4335""
","
","
","""event"",""trial"",""time""
""fullscreenenter"",""0"",""4335""
","
","288.5","","","","","","","","49","1,1,0","1","countryside","34","probe-153","0.7021347164826055","0.35341180825066404","0.15369915892380603","1","","","","","","","",""
"","html-keyboard-response","163","694810","0.0-91.0-1.0","""event"",""trial"",""time""
""fullscreenenter"",""0"",""4335""
","
","
","""event"",""trial"",""time""
""fullscreenenter"",""0"",""4335""
","
","null","<p></p>","null","","","","","","","","","","","","","","","","","","","","","","",""
"","do_trial","164","699626","0.0-92.0-0.0","""event"",""trial"",""time""
""fullscreenenter"",""0"",""4335""
","
","
","""event"",""trial"",""time""
""fullscreenenter"",""0"",""4335""
","
","259.90000000037253","","","","","","","","49","1,1,0","1","countryside","35","probe-183","0.7284836984205398","0.40641269378442135","0.2637609989162974","1","","","","","","","",""
"","html-keyboard-response","165","700628","0.0-92.0-1.0","""event"",""trial"",""time""
""fullscreenenter"",""0"",""4335""
","
","
","""event"",""trial"",""time""
""fullscreenenter"",""0"",""4335""
","
","null","<p></p>","null","","","","","","","","","","","","","","","","","","","","","","",""
"","do_trial","166","705455","0.0-93.0-0.0","""event"",""trial"",""time""
""fullscreenenter"",""0"",""4335""
","
","
","""event"",""trial"",""time""
""fullscreenenter"",""0"",""4335""
","
","272.29999999981374","","","","","","","","49","1,0,0","1","countryside","36","probe-41","0.7125099656824654","0.28516466211741703","0.12003696043106464","1","","","","","","","",""
"","html-keyboard-response","167","706457","0.0-93.0-1.0","""event"",""trial"",""time""
""fullscreenenter"",""0"",""4335""
","
","
","""event"",""trial"",""time""
""fullscreenenter"",""0"",""4335""
","
","null","<p></p>","null","","","","","","","","","","","","","","","","","","","","","","",""
"","do_trial","168","711332","0.0-94.0-0.0","""event"",""trial"",""time""
""fullscreenenter"",""0"",""4335""
","
","
","""event"",""trial"",""time""
""fullscreenenter"",""0"",""4335""
","
","319.70000000018626","","","","","","","","49","1,1,0","1","countryside","37","probe-67","0.612131830691975","0.2982876168470382","0.2007776913586617","1","","","","","","","",""
"","html-keyboard-response","169","712334","0.0-94.0-1.0","""event"",""trial"",""time""
""fullscreenenter"",""0"",""4335""
","
","
","""event"",""trial"",""time""
""fullscreenenter"",""0"",""4335""
","
","null","<p></p>","null","","","","","","","","","","","","","","","","","","","","","","",""
"","do_trial","170","717207","0.0-95.0-0.0","""event"",""trial"",""time""
""fullscreenenter"",""0"",""4335""
","
","
","""event"",""trial"",""time""
""fullscreenenter"",""0"",""4335""
","
","319.5","","","","","","","","49","0,0,0","1","countryside","38","probe-63","0.6865674045892325","0.20404109325901154","0.12397378436009855","0","","","","","","","",""
"","html-keyboard-response","171","718209","0.0-95.0-1.0","""event"",""trial"",""time""
""fullscreenenter"",""0"",""4335""
","
","
","""event"",""trial"",""time""
""fullscreenenter"",""0"",""4335""
","
","null","<p></p>","null","","","","","","","","","","","","","","","","","","","","","","",""
"","do_trial","172","723498","0.0-96.0-0.0","""event"",""trial"",""time""
""fullscreenenter"",""0"",""4335""
","
","
","""event"",""trial"",""time""
""fullscreenenter"",""0"",""4335""
","
","735.6999999992549","","","","","","","","49","1,0,0","1","countryside","39","probe-55","0.7488173082841223","0.2087181409959878","0.17406606153534074","1","","","","","","","",""
"","html-keyboard-response","173","724500","0.0-96.0-1.0","""event"",""trial"",""time""
""fullscreenenter"",""0"",""4335""
","
","
","""event"",""trial"",""time""
""fullscreenenter"",""0"",""4335""
","
","null","<p></p>","null","","","","","","","","","","","","","","","","","","","","","","",""
"","do_trial","174","729625","0.0-97.0-0.0","""event"",""trial"",""time""
""fullscreenenter"",""0"",""4335""
","
","
","""event"",""trial"",""time""
""fullscreenenter"",""0"",""4335""
","
","570.5999999996275","","","","","","","","49","1,0,1","1","countryside","40","probe-87","0.4710141770595743","0.31728364242210755","0.17578883715991991","1","","","","","","","",""
"","html-keyboard-response","175","730627","0.0-97.0-1.0","""event"",""trial"",""time""
""fullscreenenter"",""0"",""4335""
","
","
","""event"",""trial"",""time""
""fullscreenenter"",""0"",""4335""
","
","null","<p></p>","null","","","","","","","","","","","","","","","","","","","","","","",""
"","do_trial","176","735534","0.0-98.0-0.0","""event"",""trial"",""time""
""fullscreenenter"",""0"",""4335""
","
","
","""event"",""trial"",""time""
""fullscreenenter"",""0"",""4335""
","
","352.6000000014901","","","","","","","","51","0,0,0","1","countryside","41","probe-176","0.5511614564607605","0.19908722589445144","0.16363070275040792","0","","","","","","","",""
"","html-keyboard-response","177","736536","0.0-98.0-1.0","""event"",""trial"",""time""
""fullscreenenter"",""0"",""4335""
","
","
","""event"",""trial"",""time""
""fullscreenenter"",""0"",""4335""
","
","null","<p></p>","null","","","","","","","","","","","","","","","","","","","","","","",""
"","do_trial","178","741649","0.0-99.0-0.0","""event"",""trial"",""time""
""fullscreenenter"",""0"",""4335""
","
","
","""event"",""trial"",""time""
""fullscreenenter"",""0"",""4335""
","
","560.4000000003725","","","","","","","","49","1,0,1","1","countryside","42","probe-181","0.4727507879801091","0.1432315870118612","0.31002483470874714","1","","","","","","","",""
"","html-keyboard-response","179","742651","0.0-99.0-1.0","""event"",""trial"",""time""
""fullscreenenter"",""0"",""4335""
","
","
","""event"",""trial"",""time""
""fullscreenenter"",""0"",""4335""
","
","null","<p></p>","null","","","","","","","","","","","","","","","","","","","","","","",""
"","do_trial","180","747825","0.0-100.0-0.0","""event"",""trial"",""time""
""fullscreenenter"",""0"",""4335""
","
","
","""event"",""trial"",""time""
""fullscreenenter"",""0"",""4335""
","
","619.5","","","","","","","","49","0,0,0","1","countryside","43","probe-210","0.38907445006367064","0.21145048144179193","0.3899791613674699","0","","","","","","","",""
"","html-keyboard-response","181","748827","0.0-100.0-1.0","""event"",""trial"",""time""
""fullscreenenter"",""0"",""4335""
","
","
","""event"",""trial"",""time""
""fullscreenenter"",""0"",""4335""
","
","null","<p></p>","null","","","","","","","","","","","","","","","","","","","","","","",""
"","do_trial","182","753675","0.0-101.0-0.0","""event"",""trial"",""time""
""fullscreenenter"",""0"",""4335""
","
","
","""event"",""trial"",""time""
""fullscreenenter"",""0"",""4335""
","
","294.19999999925494","","","","","","","","49","1,0,1","1","countryside","44","probe-101","0.4386520133634055","0.13623883614393859","0.5447134509151864","1","","","","","","","",""
"","html-keyboard-response","183","754677","0.0-101.0-1.0","""event"",""trial"",""time""
""fullscreenenter"",""0"",""4335""
","
","
","""event"",""trial"",""time""
""fullscreenenter"",""0"",""4335""
","
","null","<p></p>","null","","","","","","","","","","","","","","","","","","","","","","",""
"","do_trial","184","759632","0.0-102.0-0.0","""event"",""trial"",""time""
""fullscreenenter"",""0"",""4335""
","
","
","""event"",""trial"",""time""
""fullscreenenter"",""0"",""4335""
","
","400.30000000074506","","","","","","","","49","1,0,1","1","countryside","45","probe-100","0.4552415199118718","0.17616116621863856","0.5920933533247325","1","","","","","","","",""
"","html-keyboard-response","185","760633","0.0-102.0-1.0","""event"",""trial"",""time""
""fullscreenenter"",""0"",""4335""
","
","
","""event"",""trial"",""time""
""fullscreenenter"",""0"",""4335""
","
","null","<p></p>","null","","","","","","","","","","","","","","","","","","","","","","",""
"","do_trial","186","765578","0.0-103.0-0.0","""event"",""trial"",""time""
""fullscreenenter"",""0"",""4335""
","
","
","""event"",""trial"",""time""
""fullscreenenter"",""0"",""4335""
","
","389.90000000037253","","","","","","","","49","1,0,0","1","countryside","46","probe-01","0.4696947848421372","0.12823582275939255","0.6470620810370015","1","","","","","","","",""
"","html-keyboard-response","187","766580","0.0-103.0-1.0","""event"",""trial"",""time""
""fullscreenenter"",""0"",""4335""
","
","
","""event"",""trial"",""time""
""fullscreenenter"",""0"",""4335""
","
","null","<p></p>","null","","","","","","","","","","","","","","","","","","","","","","",""
"","do_trial","188","771521","0.0-104.0-0.0","""event"",""trial"",""time""
""fullscreenenter"",""0"",""4335""
","
","
","""event"",""trial"",""time""
""fullscreenenter"",""0"",""4335""
","
","385.40000000037253","","","","","","","","49","0,0,1","1","countryside","47","probe-167","0.3919957678769753","0.24356059934702978","0.7452596361442282","0","","","","","","","",""
"","html-keyboard-response","189","772523","0.0-104.0-1.0","""event"",""trial"",""time""
""fullscreenenter"",""0"",""4335""
","
","
","""event"",""trial"",""time""
""fullscreenenter"",""0"",""4335""
","
","null","<p></p>","null","","","","","","","","","","","","","","","","","","","","","","",""
"","do_trial","190","777532","0.0-105.0-0.0","""event"",""trial"",""time""
""fullscreenenter"",""0"",""4335""
","
","
","""event"",""trial"",""time""
""fullscreenenter"",""0"",""4335""
","
","454.5","","","","","","","","50","0,1,1","1","countryside","48","probe-200","0.4561520463928461","0.28886830618182724","0.7539580912779467","1","","","","","","","",""
"","html-keyboard-response","191","778534","0.0-105.0-1.0","""event"",""trial"",""time""
""fullscreenenter"",""0"",""4335""
","
","
","""event"",""trial"",""time""
""fullscreenenter"",""0"",""4335""
","
","null","<p></p>","null","","","","","","","","","","","","","","","","","","","","","","",""
"","do_trial","192","783420","0.0-106.0-0.0","""event"",""trial"",""time""
""fullscreenenter"",""0"",""4335""
","
","
","""event"",""trial"",""time""
""fullscreenenter"",""0"",""4335""
","
","331.69999999925494","","","","","","","","50","0,0,0","1","countryside","49","probe-114","0.4175157497069934","0.18949474994653284","0.5666023507265485","0","","","","","","","",""
"","html-keyboard-response","193","784422","0.0-106.0-1.0","""event"",""trial"",""time""
""fullscreenenter"",""0"",""4335""
","
","
","""event"",""trial"",""time""
""fullscreenenter"",""0"",""4335""
","
","null","<p></p>","null","","","","","","","","","","","","","","","","","","","","","","",""
"","do_trial","194","789254","0.0-107.0-0.0","""event"",""trial"",""time""
""fullscreenenter"",""0"",""4335""
","
","
","""event"",""trial"",""time""
""fullscreenenter"",""0"",""4335""
","
","277.5","","","","","","","","51","0,0,1","1","countryside","50","probe-02","0.2930422316242202","0.23492989230963457","0.5843932342206156","1","","","","","","","",""
"","html-keyboard-response","195","790256","0.0-107.0-1.0","""event"",""trial"",""time""
""fullscreenenter"",""0"",""4335""
","
","
","""event"",""trial"",""time""
""fullscreenenter"",""0"",""4335""
","
","null","<p></p>","null","","","","","","","","","","","","","","","","","","","","","","",""
"","do_trial","196","795008","0.0-108.0-0.0","""event"",""trial"",""time""
""fullscreenenter"",""0"",""4335""
","
","
","""event"",""trial"",""time""
""fullscreenenter"",""0"",""4335""
","
","198.30000000074506","","","","","","","","51","0,0,1","1","countryside","51","probe-155","0.10631340995008198","0.2195295556278858","0.6869560596174893","1","","","","","","","",""
"","html-keyboard-response","197","796010","0.0-108.0-1.0","""event"",""trial"",""time""
""fullscreenenter"",""0"",""4335""
","
","
","""event"",""trial"",""time""
""fullscreenenter"",""0"",""4335""
","
","null","<p></p>","null","","","","","","","","","","","","","","","","","","","","","","",""
"","do_trial","198","800786","0.0-109.0-0.0","""event"",""trial"",""time""
""fullscreenenter"",""0"",""4335""
","
","
","""event"",""trial"",""time""
""fullscreenenter"",""0"",""4335""
","
","220.90000000037253","","","","","","","","51","0,0,0","1","countryside","52","probe-19","0.12763424386495079","0.10186847338509765","0.5134393749950508","0","","","","","","","",""
"","html-keyboard-response","199","801788","0.0-109.0-1.0","""event"",""trial"",""time""
""fullscreenenter"",""0"",""4335""
","
","
","""event"",""trial"",""time""
""fullscreenenter"",""0"",""4335""
","
","null","<p></p>","null","","","","","","","","","","","","","","","","","","","","","","",""
"","do_trial","200","806710","0.0-110.0-0.0","""event"",""trial"",""time""
""fullscreenenter"",""0"",""4335""
","
","
","""event"",""trial"",""time""
""fullscreenenter"",""0"",""4335""
","
","367.1000000014901","","","","","","","","49","0,0,0","1","countryside","53","probe-107","0.26683836825100654","0.2207597433787945","0.5428636853152738","0","","","","","","","",""
"","html-keyboard-response","201","807712","0.0-110.0-1.0","""event"",""trial"",""time""
""fullscreenenter"",""0"",""4335""
","
","
","""event"",""trial"",""time""
""fullscreenenter"",""0"",""4335""
","
","null","<p></p>","null","","","","","","","","","","","","","","","","","","","","","","",""
"","do_trial","202","812593","0.0-111.0-0.0","""event"",""trial"",""time""
""fullscreenenter"",""0"",""4335""
","
","
","""event"",""trial"",""time""
""fullscreenenter"",""0"",""4335""
","
","327","","","","","","","","49","0,1,1","1","countryside","54","probe-147","0.27462895547315863","0.2816205207118553","0.37563563747431195","0","","","","","","","",""
"","html-keyboard-response","203","813595","0.0-111.0-1.0","""event"",""trial"",""time""
""fullscreenenter"",""0"",""4335""
","
","
","""event"",""trial"",""time""
""fullscreenenter"",""0"",""4335""
","
","null","<p></p>","null","","","","","","","","","","","","","","","","","","","","","","",""
"","do_trial","204","818761","0.0-112.0-0.0","""event"",""trial"",""time""
""fullscreenenter"",""0"",""4335""
","
","
","""event"",""trial"",""time""
""fullscreenenter"",""0"",""4335""
","
","609.8000000007451","","","","","","","","49","0,0,1","1","countryside","55","probe-209","0.48747259718870395","0.16439822035329943","0.4431634997952653","0","","","","","","","",""
"","html-keyboard-response","205","819763","0.0-112.0-1.0","""event"",""trial"",""time""
""fullscreenenter"",""0"",""4335""
","
","
","""event"",""trial"",""time""
""fullscreenenter"",""0"",""4335""
","
","null","<p></p>","null","","","","","","","","","","","","","","","","","","","","","","",""
"","do_trial","206","824560","0.0-113.0-0.0","""event"",""trial"",""time""
""fullscreenenter"",""0"",""4335""
","
","
","""event"",""trial"",""time""
""fullscreenenter"",""0"",""4335""
","
","244.30000000074506","","","","","","","","51","1,1,1","1","countryside","56","probe-11","0.36793132399594086","0.1268415973956447","0.5272816006812063","1","","","","","","","",""
"","html-keyboard-response","207","825563","0.0-113.0-1.0","""event"",""trial"",""time""
""fullscreenenter"",""0"",""4335""
","
","
","""event"",""trial"",""time""
""fullscreenenter"",""0"",""4335""
","
","null","<p></p>","null","","","","","","","","","","","","","","","","","","","","","","",""
"","do_trial","208","830742","0.0-114.0-0.0","""event"",""trial"",""time""
""fullscreenenter"",""0"",""4335""
","
","
","""event"",""trial"",""time""
""fullscreenenter"",""0"",""4335""
","
","624.1999999992549","","","","","","","","51","0,1,1","1","countryside","57","probe-204","0.4577412495887259","0.06715667025540216","0.46130660263912815","1","","","","","","","",""
"","html-keyboard-response","209","831743","0.0-114.0-1.0","""event"",""trial"",""time""
""fullscreenenter"",""0"",""4335""
","
","
","""event"",""trial"",""time""
""fullscreenenter"",""0"",""4335""
","
","null","<p></p>","null","","","","","","","","","","","","","","","","","","","","","","",""
"","do_trial","210","837265","0.0-115.0-0.0","""event"",""trial"",""time""
""fullscreenenter"",""0"",""4335""
","
","
","""event"",""trial"",""time""
""fullscreenenter"",""0"",""4335""
","
","967.0999999996275","","","","","","","","51","0,0,1","1","countryside","58","probe-75","0.41038941576045157","0.1343554562011937","0.5544309960205588","1","","","","","","","",""
"","html-keyboard-response","211","838267","0.0-115.0-1.0","""event"",""trial"",""time""
""fullscreenenter"",""0"",""4335""
","
","
","""event"",""trial"",""time""
""fullscreenenter"",""0"",""4335""
","
","null","<p></p>","null","","","","","","","","","","","","","","","","","","","","","","",""
"","do_trial","212","843271","0.0-116.0-0.0","""event"",""trial"",""time""
""fullscreenenter"",""0"",""4335""
","
","
","""event"",""trial"",""time""
""fullscreenenter"",""0"",""4335""
","
","449.90000000037253","","","","","","","","49","0,1,1","1","countryside","59","probe-135","0.3623860906147639","0.13572529556567667","0.6135540463204288","0","","","","","","","",""
"","html-keyboard-response","213","844273","0.0-116.0-1.0","""event"",""trial"",""time""
""fullscreenenter"",""0"",""4335""
","
","
","""event"",""trial"",""time""
""fullscreenenter"",""0"",""4335""
","
","null","<p></p>","null","","","","","","","","","","","","","","","","","","","","","","",""
"","do_trial","214","848829","0.0-117.0-0.0","""event"",""trial"",""time""
""fullscreenenter"",""0"",""4335""
","
","
","""event"",""trial"",""time""
""fullscreenenter"",""0"",""4335""
","
","0.2000000011175871","","","","","","","","50","0,0,0","1","countryside","60","probe-28","0.3035028681423439","0.14823856030484991","0.6124891366365978","0","","","","","","","",""
"","html-keyboard-response","215","849830","0.0-117.0-1.0","""event"",""trial"",""time""
""fullscreenenter"",""0"",""4335""
","
","
","""event"",""trial"",""time""
""fullscreenenter"",""0"",""4335""
","
","null","<p></p>","null","","","","","","","","","","","","","","","","","","","","","","",""
"","do_trial","216","854721","0.0-118.0-0.0","""event"",""trial"",""time""
""fullscreenenter"",""0"",""4335""
","
","
","""event"",""trial"",""time""
""fullscreenenter"",""0"",""4335""
","
","335.3999999985099","","","","","","","","51","0,1,1","1","countryside","61","probe-94","0.25571714724302685","0.2592873087972465","0.660568113296971","1","","","","","","","",""
"","html-keyboard-response","217","855723","0.0-118.0-1.0","""event"",""trial"",""time""
""fullscreenenter"",""0"",""4335""
","
","
","""event"",""trial"",""time""
""fullscreenenter"",""0"",""4335""
","
","null","<p></p>","null","","","","","","","","","","","","","","","","","","","","","","",""
"","do_trial","218","860910","0.0-119.0-0.0","""event"",""trial"",""time""
""fullscreenenter"",""0"",""4335""
","
","
","""event"",""trial"",""time""
""fullscreenenter"",""0"",""4335""
","
","627","","","","","","","","51","0,0,1","1","countryside","62","probe-220","0.17227106214826038","0.14246271143372619","0.5979591852414182","1","","","","","","","",""
"","html-keyboard-response","219","861912","0.0-119.0-1.0","""event"",""trial"",""time""
""fullscreenenter"",""0"",""4335""
","
","
","""event"",""trial"",""time""
""fullscreenenter"",""0"",""4335""
","
","null","<p></p>","null","","","","","","","","","","","","","","","","","","","","","","",""
"","do_trial","220","866963","0.0-120.0-0.0","""event"",""trial"",""time""
""fullscreenenter"",""0"",""4335""
","
","
","""event"",""trial"",""time""
""fullscreenenter"",""0"",""4335""
","
","496.8999999985099","","","","","","","","49","1,0,1","1","countryside","63","probe-92","0.2689031887656508","0.15273269458548488","0.5562166786804785","1","","","","","","","",""
"","html-keyboard-response","221","867965","0.0-120.0-1.0","""event"",""trial"",""time""
""fullscreenenter"",""0"",""4335""
","
","
","""event"",""trial"",""time""
""fullscreenenter"",""0"",""4335""
","
","null","<p></p>","null","","","","","","","","","","","","","","","","","","","","","","",""
"","do_trial","222","873123","0.0-121.0-0.0","""event"",""trial"",""time""
""fullscreenenter"",""0"",""4335""
","
","
","""event"",""trial"",""time""
""fullscreenenter"",""0"",""4335""
","
","604.3000000007451","","","","","","","","49","0,0,1","1","countryside","64","probe-149","0.27093178087281616","0.06258639946314645","0.8256111122598846","0","","","","","","","",""
"","html-keyboard-response","223","874125","0.0-121.0-1.0","""event"",""trial"",""time""
""fullscreenenter"",""0"",""4335""
","
","
","""event"",""trial"",""time""
""fullscreenenter"",""0"",""4335""
","
","null","<p></p>","null","","","","","","","","","","","","","","","","","","","","","","",""
"","do_trial","224","878942","0.0-122.0-0.0","""event"",""trial"",""time""
""fullscreenenter"",""0"",""4335""
","
","
","""event"",""trial"",""time""
""fullscreenenter"",""0"",""4335""
","
","263.6000000014901","","","","","","","","50","1,0,1","1","countryside","65","probe-180","0.38508860135138434","0.18005324796342362","0.6194291964522634","0","","","","","","","",""
"","html-keyboard-response","225","879944","0.0-122.0-1.0","""event"",""trial"",""time""
""fullscreenenter"",""0"",""4335""
","
","
","""event"",""trial"",""time""
""fullscreenenter"",""0"",""4335""
","
","null","<p></p>","null","","","","","","","","","","","","","","","","","","","","","","",""
"","do_trial","226","884798","0.0-123.0-0.0","""event"",""trial"",""time""
""fullscreenenter"",""0"",""4335""
","
","
","""event"",""trial"",""time""
""fullscreenenter"",""0"",""4335""
","
","300","","","","","","","","51","1,1,1","1","countryside","66","probe-36","0.4863313474831585","0.18052696986614486","0.594164960532268","1","","","","","","","",""
"","html-keyboard-response","227","885800","0.0-123.0-1.0","""event"",""trial"",""time""
""fullscreenenter"",""0"",""4335""
","
","
","""event"",""trial"",""time""
""fullscreenenter"",""0"",""4335""
","
","null","<p></p>","null","","","","","","","","","","","","","","","","","","","","","","",""
"","do_trial","228","890646","0.0-124.0-0.0","""event"",""trial"",""time""
""fullscreenenter"",""0"",""4335""
","
","
","""event"",""trial"",""time""
""fullscreenenter"",""0"",""4335""
","
","291.40000000037253","","","","","","","","51","1,0,0","1","countryside","67","probe-134","0.26360608503743943","0.12865222819339445","0.6402844294563125","0","","","","","","","",""
"","html-keyboard-response","229","891648","0.0-124.0-1.0","""event"",""trial"",""time""
""fullscreenenter"",""0"",""4335""
","
","
","""event"",""trial"",""time""
""fullscreenenter"",""0"",""4335""
","
","null","<p></p>","null","","","","","","","","","","","","","","","","","","","","","","",""
"","do_trial","230","896478","0.0-125.0-0.0","""event"",""trial"",""time""
""fullscreenenter"",""0"",""4335""
","
","
","""event"",""trial"",""time""
""fullscreenenter"",""0"",""4335""
","
","276.59999999962747","","","","","","","","49","1,0,1","1","countryside","68","probe-175","0.20033085102545703","0.19355630873944932","0.6684326357345934","1","","","","","","","",""
"","html-keyboard-response","231","897480","0.0-125.0-1.0","""event"",""trial"",""time""
""fullscreenenter"",""0"",""4335""
","
","
","""event"",""trial"",""time""
""fullscreenenter"",""0"",""4335""
","
","null","<p></p>","null","","","","","","","","","","","","","","","","","","","","","","",""
"","do_trial","232","902368","0.0-126.0-0.0","""event"",""trial"",""time""
""fullscreenenter"",""0"",""4335""
","
","
","""event"",""trial"",""time""
""fullscreenenter"",""0"",""4335""
","
","333.59999999962747","","","","","","","","49","1,0,0","1","countryside","69","probe-207","0.2763865012691928","0.2620518695529786","0.6269343088588112","1","","","","","","","",""
"","html-keyboard-response","233","903370","0.0-126.0-1.0","""event"",""trial"",""time""
""fullscreenenter"",""0"",""4335""
","
","
","""event"",""trial"",""time""
""fullscreenenter"",""0"",""4335""
","
","null","<p></p>","null","","","","","","","","","","","","","","","","","","","","","","",""
"","do_bye","234","904874","0.0-127.0-0.0","""event"",""trial"",""time""
""fullscreenenter"",""0"",""4335""
","
","
","""event"",""trial"",""time""
""fullscreenenter"",""0"",""4335""
","
","null","","","","","","","","null","","","","","","","","","","","","","","","","",""
"","break","235","917108","0.0-127.0-1.0","""event"",""trial"",""time""
""fullscreenenter"",""0"",""4335""
","
","
","""event"",""trial"",""time""
""fullscreenenter"",""0"",""4335""
","
","12231.700000001118","<div class='center'><p>Time to take a quick break! You have 2 minutes to rest, but you can move on sooner if you'd like.</p><p> Press the <b>space bar</b> to continue.</p></div>","32","","","","","","","","","","","","","","","","","","","","","","",""
"","do_travel","236","926111","0.0-128.0-0.0","""event"",""trial"",""time""
""fullscreenenter"",""0"",""4335""
","
","
","""event"",""trial"",""time""
""fullscreenenter"",""0"",""4335""
","
","null","","","","","","","","null","","","","","","","","","","","","","","","","",""
"","do_welcome","237","930117","0.0-128.0-1.0","""event"",""trial"",""time""
""fullscreenenter"",""0"",""4335""
","
","
","""event"",""trial"",""time""
""fullscreenenter"",""0"",""4335""
","
","null","","","","","","","","null","","","","","","","","","","","","","","","","",""
"","do_trial","238","936383","0.0-129.0-0.0","""event"",""trial"",""time""
""fullscreenenter"",""0"",""4335""
","
","
","""event"",""trial"",""time""
""fullscreenenter"",""0"",""4335""
","
","1704.0999999996275","","","","","","","","49","1,1,1","2","highway","70","probe-35","0.32668577466722354","0.2254741033814371","1","1","","","","","","","",""
"","html-keyboard-response","239","937386","0.0-129.0-1.0","""event"",""trial"",""time""
""fullscreenenter"",""0"",""4335""
","
","
","""event"",""trial"",""time""
""fullscreenenter"",""0"",""4335""
","
","null","<p></p>","null","","","","","","","","","","","","","","","","","","","","","","",""
"","do_trial","240","942234","0.0-130.0-0.0","""event"",""trial"",""time""
""fullscreenenter"",""0"",""4335""
","
","
","""event"",""trial"",""time""
""fullscreenenter"",""0"",""4335""
","
","293","","","","","","","","49","0,0,1","2","highway","71","probe-105","0.39115797357274545","0.19835033755016013","1","0","","","","","","","",""
"","html-keyboard-response","241","943236","0.0-130.0-1.0","""event"",""trial"",""time""
""fullscreenenter"",""0"",""4335""
","
","
","""event"",""trial"",""time""
""fullscreenenter"",""0"",""4335""
","
","null","<p></p>","null","","","","","","","","","","","","","","","","","","","","","","",""
"","do_trial","242","948100","0.0-131.0-0.0","""event"",""trial"",""time""
""fullscreenenter"",""0"",""4335""
","
","
","""event"",""trial"",""time""
""fullscreenenter"",""0"",""4335""
","
","310.19999999925494","","","","","","","","50","0,0,1","2","highway","72","probe-203","0.40507010472609106","0.1052475291120721","0.7379214372369084","0","","","","","","","",""
"","html-keyboard-response","243","949102","0.0-131.0-1.0","""event"",""trial"",""time""
""fullscreenenter"",""0"",""4335""
","
","
","""event"",""trial"",""time""
""fullscreenenter"",""0"",""4335""
","
","null","<p></p>","null","","","","","","","","","","","","","","","","","","","","","","",""
"","do_trial","244","953914","0.0-132.0-0.0","""event"",""trial"",""time""
""fullscreenenter"",""0"",""4335""
","
","
","""event"",""trial"",""time""
""fullscreenenter"",""0"",""4335""
","
","258.5","","","","","","","","51","0,0,0","2","highway","73","probe-146","0.4350995892874695","0.14256224918577168","0.6734914235360645","0","","","","","","","",""
"","html-keyboard-response","245","954916","0.0-132.0-1.0","""event"",""trial"",""time""
""fullscreenenter"",""0"",""4335""
","
","
","""event"",""trial"",""time""
""fullscreenenter"",""0"",""4335""
","
","null","<p></p>","null","","","","","","","","","","","","","","","","","","","","","","",""
"","do_trial","246","959750","0.0-133.0-0.0","""event"",""trial"",""time""
""fullscreenenter"",""0"",""4335""
","
","
","""event"",""trial"",""time""
""fullscreenenter"",""0"",""4335""
","
","279.7999999988824","","","","","","","","49","0,0,1","2","highway","74","probe-196","0.3663589138361452","0.2865357366706832","0.6685306517847446","0","","","","","","","",""
"","html-keyboard-response","247","960752","0.0-133.0-1.0","""event"",""trial"",""time""
""fullscreenenter"",""0"",""4335""
","
","
","""event"",""trial"",""time""
""fullscreenenter"",""0"",""4335""
","
","null","<p></p>","null","","","","","","","","","","","","","","","","","","","","","","",""
"","do_trial","248","965614","0.0-134.0-0.0","""event"",""trial"",""time""
""fullscreenenter"",""0"",""4335""
","
","
","""event"",""trial"",""time""
""fullscreenenter"",""0"",""4335""
","
","307.5","","","","","","","","49","0,1,0","2","highway","75","probe-98","0.23412773494748237","0.22557375600450122","0.7610322940631743","0","","","","","","","",""
"","html-keyboard-response","249","966616","0.0-134.0-1.0","""event"",""trial"",""time""
""fullscreenenter"",""0"",""4335""
","
","
","""event"",""trial"",""time""
""fullscreenenter"",""0"",""4335""
","
","null","<p></p>","null","","","","","","","","","","","","","","","","","","","","","","",""
"","do_trial","250","971588","0.0-135.0-0.0","""event"",""trial"",""time""
""fullscreenenter"",""0"",""4335""
","
","
","""event"",""trial"",""time""
""fullscreenenter"",""0"",""4335""
","
","414.90000000037253","","","","","","","","50","0,0,0","2","highway","76","probe-165","0.2645673459381535","0.2742990135464778","0.6937734711373424","0","","","","","","","",""
"","html-keyboard-response","251","972590","0.0-135.0-1.0","""event"",""trial"",""time""
""fullscreenenter"",""0"",""4335""
","
","
","""event"",""trial"",""time""
""fullscreenenter"",""0"",""4335""
","
","null","<p></p>","null","","","","","","","","","","","","","","","","","","","","","","",""
"","do_trial","252","978487","0.0-136.0-0.0","""event"",""trial"",""time""
""fullscreenenter"",""0"",""4335""
","
","
","""event"",""trial"",""time""
""fullscreenenter"",""0"",""4335""
","
","1341.0999999996275","","","","","","","","51","0,0,1","2","highway","77","probe-34","0.30868504533416635","0.24233092218998356","0.6342901299630552","1","","","","","","","",""
"","html-keyboard-response","253","979489","0.0-136.0-1.0","""event"",""trial"",""time""
""fullscreenenter"",""0"",""4335""
","
","
","""event"",""trial"",""time""
""fullscreenenter"",""0"",""4335""
","
","null","<p></p>","null","","","","","","","","","","","","","","","","","","","","","","",""
"","do_trial","254","984446","0.0-137.0-0.0","""event"",""trial"",""time""
""fullscreenenter"",""0"",""4335""
","
","
","""event"",""trial"",""time""
""fullscreenenter"",""0"",""4335""
","
","401.90000000037253","","","","","","","","51","0,0,0","2","highway","78","probe-227","0.15642733705041736","0.09341143011862023","0.7456060695090576","0","","","","","","","",""
"","html-keyboard-response","255","985447","0.0-137.0-1.0","""event"",""trial"",""time""
""fullscreenenter"",""0"",""4335""
","
","
","""event"",""trial"",""time""
""fullscreenenter"",""0"",""4335""
","
","null","<p></p>","null","","","","","","","","","","","","","","","","","","","","","","",""
"","do_trial","256","990261","0.0-138.0-0.0","""event"",""trial"",""time""
""fullscreenenter"",""0"",""4335""
","
","
","""event"",""trial"",""time""
""fullscreenenter"",""0"",""4335""
","
","257.09999999962747","","","","","","","","49","0,1,1","2","highway","79","probe-38","0.32319070200082706","0.13281168984535913","0.6097333971894807","0","","","","","","","",""
"","html-keyboard-response","257","991263","0.0-138.0-1.0","""event"",""trial"",""time""
""fullscreenenter"",""0"",""4335""
","
","
","""event"",""trial"",""time""
""fullscreenenter"",""0"",""4335""
","
","null","<p></p>","null","","","","","","","","","","","","","","","","","","","","","","",""
"","do_trial","258","996080","0.0-139.0-0.0","""event"",""trial"",""time""
""fullscreenenter"",""0"",""4335""
","
","
","""event"",""trial"",""time""
""fullscreenenter"",""0"",""4335""
","
","262.7000000011176","","","","","","","","50","0,0,1","2","highway","80","probe-108","0.16909245224192596","0.21398485952002483","0.5571076054649674","0","","","","","","","",""
"","html-keyboard-response","259","997082","0.0-139.0-1.0","""event"",""trial"",""time""
""fullscreenenter"",""0"",""4335""
","
","
","""event"",""trial"",""time""
""fullscreenenter"",""0"",""4335""
","
","null","<p></p>","null","","","","","","","","","","","","","","","","","","","","","","",""
"","do_trial","260","1002112","0.0-140.0-0.0","""event"",""trial"",""time""
""fullscreenenter"",""0"",""4335""
","
","
","""event"",""trial"",""time""
""fullscreenenter"",""0"",""4335""
","
","475.30000000074506","","","","","","","","51","0,0,1","2","highway","81","probe-91","0.12862107748806142","0.21543252949159258","0.586114474429458","1","","","","","","","",""
"","html-keyboard-response","261","1003114","0.0-140.0-1.0","""event"",""trial"",""time""
""fullscreenenter"",""0"",""4335""
","
","
