"success","trial_type","trial_index","time_elapsed","internal_node_id","rt","stimulus","key_press","subject_id","participant_id","age","gender","prompt","response","choice_outcomes","context_n","context_img_id","trial_n","probe_img_id","pR_red","pR_white","pR_black","outcome","contextArray_ind","validImageProbes","invalidImageProbes","pRew_Red","pRew_White","pRew_Black","availableForMemProbe","choice_blocks"
"true","fullscreen","0","2582","0.0-0.0","","","","","","","","","","","","","","","","","","","","","","","","","",""
"","pavlovia","1","2586","0.0-1.0","","","","","","","","","","","","","","","","","","","","","","","","","",""
"","instruc1","2","67070","0.0-2.0","null","run_exp/static/audio/clip_1_welcome.m4a","null","36","5","8","Male","<div class='center'><p>Welcome! This is the first part of the experiment. It will last ~30 minutes. In this experiment, you are the head captain of a pirate ship traveling around the world to different islands. You will play a few different games during this experiment. Here is an overview of these games:</p><br><p>Part 1 (today)</p><p>1. Instructions, practice game, and quiz</p><p>2. Pick a pirate game on 6 different islands</p><br><p>Part 2 (1 day later)</p><p>3. Pick a pirate game and memory game</p><p>4. Where did I see this ship? game</p><p>5. Which pirate was the best? game</p><br><p>Part 3 (1 week later)</p><p>6. Alien space mining game</p><p>7. Memory game</p><br><p>If you complete all three parts of the experiment, you will receive $24 and a possible bonus payment.</p></div>","","","","","","","","","","","","","","","","","",""
"","html-keyboard-response","3","76815","0.0-3.0","9743.804999976419","<div class='center'><p>Welcome! This is the first part of the experiment. It will last ~30 minutes. In this experiment, you are the head captain of a pirate ship traveling around the world to different islands. You will play a few different games during this experiment. Here is an overview of these games:</p><br><p>Part 1 (today)</p><p>1. Instructions, practice game, and quiz</p><p>2. Pick a pirate game on 6 different islands</p><br><p>Part 2 (1 day later)</p><p>3. Pick a pirate game and memory game</p><p>4. Where did I see this ship? game</p><p>5. Which pirate was the best? game</p><br><p>Part 3 (1 week later)</p><p>6. Alien space mining game</p><p>7. Memory game</p><br><p>If you complete all three parts of the experiment, you will receive $24 and a possible bonus payment.</p><p><b>[Press the space bar to continue]</b></p></div>","32","","","","","","","","","","","","","","","","","","","","","","",""
"","instruc2","4","84834","0.0-4.0","null","run_exp/static/audio/clip_2_different_places.m4a","null","","","","","<div class='center'><p>Today, you’ll visit these 6 islands on your journey. You'll be able to see these islands from your ship.</p><p><img src='run_exp/static/images/contexts/all_contexts.png' height='500'></p></div>","","","","","","","","","","","","","","","","","",""
"","html-keyboard-response","5","86946","0.0-5.0","2110.6499999877997","<div class='center'><p>Today, you’ll visit these 6 islands on your journey. You'll be able to see these islands from your ship.</p><p><img src='run_exp/static/images/contexts/all_contexts.png' height='500'></p><p><b>[Press the space bar to continue]</b></p></div>","32","","","","","","","","","","","","","","","","","","","","","","",""
"","instruc3","6","99554","0.0-6.0","null","run_exp/static/audio/clip_3_goal_of_game_1.m4a","null","","","","","<div class='center'><p> The pirates on your ship will rob other ships as they leave the island</p> These ships have just sold their things to people on the island, so they will be filled with lots and lots of gold.</p><p><img src='run_exp/static/images/tutorial/ship_center.png' height='400'></p></div>","","","","","","","","","","","","","","","","","",""
"","html-keyboard-response","7","101102","0.0-7.0","1546.779999975115","<div class='center'><p> The pirates on your ship will rob other ships as they leave the island</p> These ships have just sold their things to people on the island, so they will be filled with lots and lots of gold.</p><p><img src='run_exp/static/images/tutorial/ship_center.png' height='400'></p><p><b>[Press the space bar to continue]</b></p></div>","32","","","","","","","","","","","","","","","","","","","","","","",""
"","instruc4","8","134361","0.0-8.0","null","run_exp/static/audio/clip_4_goal_of_game_2.m4a","null","","","","","<div class='center'><p>As the head captain, you do not have to rob any ships yourself.</p><p>Another pirate will be doing the robbing for you. </p><p>First, you will  choose a pirate to rob the next ship.</p><p><img src='run_exp/static/images/tutorial/pirates_all_crop.png' height='200'></p><p>Then, you'll see if the pirate successfully robbed the ship of their gold. If they were successful, then you'll  get a stack of gold coins like this:</p><p><img src='run_exp/static/images/tutorial/reward.png' height='150'></p><p> If they were <b>not</b> successful, then you'll get no gold coins, and you'll see a big red x like this: </p><p><img src='run_exp/static/images/tutorial/reward_no.png' height='150'></p><p> How much bonus money you make is based on how many gold coins you collect.</p><div>","","","","","","","","","","","","","","","","","",""
"","html-keyboard-response","9","147111","0.0-9.0","12749.08000000869","<div class='center'><p>As the head captain, you do not have to rob any ships yourself.</p><p>Another pirate will be doing the robbing for you. </p><p>First, you will  choose a pirate to rob the next ship.</p><p><img src='run_exp/static/images/tutorial/pirates_all_crop.png' height='200'></p><p>Then, you'll see if the pirate successfully robbed the ship of their gold. If they were successful, then you'll  get a stack of gold coins like this:</p><p><img src='run_exp/static/images/tutorial/reward.png' height='150'></p><p> If they were <b>not</b> successful, then you'll get no gold coins, and you'll see a big red x like this: </p><p><img src='run_exp/static/images/tutorial/reward_no.png' height='150'></p><p> How much bonus money you make is based on how many gold coins you collect.</p<p><b>[Press the space bar to continue]</b></p></div>","32","","","","","","","","","","","","","","","","","","","","","","",""
"","instruc5","10","149014","0.0-10.0","1901.8949999881443","run_exp/static/audio/clip_5_probabilistic.m4a","49","","","","","<div class='center'><p>Even the most skilled pirate can not rob EVERY ship.</p><p> Some ships will have very strong protections against pirate attacks.</p><p> Blue beard, here, is very, very good at robbing ships, but he won't be successful every time he tries to rob one.</p><p> You can press the <b>‘1’</b> key on the keyboard to choose him.</p><p> Try choosing him 10 times to see how often he succeeds at robbing a ship. </p><p><img src='run_exp/static/images/tutorial/blue.png' height='500'></p></div>","","","","","","","","","","","","","","","","","",""
"","html-keyboard-response","11","150516","0.0-11.0","null","<div class='center'><p><img src='run_exp/static/images/tutorial/blue_win.png' height='500'></p></div>","null","","","","","","","","","","","","","","","","","","","","","","",""
"","html-keyboard-response","12","150902","0.0-12.0","385.73000000906177","<div class='center'><img src='run_exp/static/images/tutorial/blue.png' height='500'></p></div>","49","","","","","","","","","","","","","","","","","","","","","","",""
"","html-keyboard-response","13","152407","0.0-13.0","null","<div class='center'><p><img src='run_exp/static/images/tutorial/blue_win.png' height='500'></p></div>","null","","","","","","","","","","","","","","","","","","","","","","",""
"","html-keyboard-response","14","152637","0.0-14.0","228.8000000116881","<div class='center'><img src='run_exp/static/images/tutorial/blue.png' height='500'></p></div>","49","","","","","","","","","","","","","","","","","","","","","","",""
"","html-keyboard-response","15","154139","0.0-15.0","null","<div class='center'><p><img src='run_exp/static/images/tutorial/blue_win.png' height='500'></p></div>","null","","","","","","","","","","","","","","","","","","","","","","",""
"","html-keyboard-response","16","154463","0.0-16.0","323.6050000123214","<div class='center'><img src='run_exp/static/images/tutorial/blue.png' height='500'></p></div>","49","","","","","","","","","","","","","","","","","","","","","","",""
"","html-keyboard-response","17","155968","0.0-17.0","null","<div class='center'><p><img src='run_exp/static/images/tutorial/blue_no_win.png' height='500'></p></div>","null","","","","","","","","","","","","","","","","","","","","","","",""
"","html-keyboard-response","18","156280","0.0-18.0","311.45000000833534","<div class='center'><img src='run_exp/static/images/tutorial/blue.png' height='500'></p></div>","49","","","","","","","","","","","","","","","","","","","","","","",""
"","html-keyboard-response","19","157781","0.0-19.0","null","<div class='center'><p><img src='run_exp/static/images/tutorial/blue_win.png' height='500'></p></div>","null","","","","","","","","","","","","","","","","","","","","","","",""
"","html-keyboard-response","20","158129","0.0-20.0","346.85499998158775","<div class='center'><img src='run_exp/static/images/tutorial/blue.png' height='500'></p></div>","49","","","","","","","","","","","","","","","","","","","","","","",""
"","html-keyboard-response","21","159633","0.0-21.0","null","<div class='center'><p><img src='run_exp/static/images/tutorial/blue_win.png' height='500'></p></div>","null","","","","","","","","","","","","","","","","","","","","","","",""
"","html-keyboard-response","22","159959","0.0-22.0","324.54499998129904","<div class='center'><img src='run_exp/static/images/tutorial/blue.png' height='500'></p></div>","49","","","","","","","","","","","","","","","","","","","","","","",""
"","html-keyboard-response","23","161463","0.0-23.0","null","<div class='center'><p><img src='run_exp/static/images/tutorial/blue_win.png' height='500'></p></div>","null","","","","","","","","","","","","","","","","","","","","","","",""
"","html-keyboard-response","24","161835","0.0-24.0","371.29000001004897","<div class='center'><img src='run_exp/static/images/tutorial/blue.png' height='500'></p></div>","49","","","","","","","","","","","","","","","","","","","","","","",""
"","html-keyboard-response","25","163340","0.0-25.0","null","<div class='center'><p><img src='run_exp/static/images/tutorial/blue_no_win.png' height='500'></p></div>","null","","","","","","","","","","","","","","","","","","","","","","",""
"","html-keyboard-response","26","163668","0.0-26.0","327.27999999769963","<div class='center'><img src='run_exp/static/images/tutorial/blue.png' height='500'></p></div>","49","","","","","","","","","","","","","","","","","","","","","","",""
"","html-keyboard-response","27","165172","0.0-27.0","null","<div class='center'><p><img src='run_exp/static/images/tutorial/blue_win.png' height='500'></p></div>","null","","","","","","","","","","","","","","","","","","","","","","",""
"","html-keyboard-response","28","165555","0.0-28.0","382.15499999932945","<div class='center'><img src='run_exp/static/images/tutorial/blue.png' height='500'></p></div>","49","","","","","","","","","","","","","","","","","","","","","","",""
"","html-keyboard-response","29","167056","0.0-29.0","null","<div class='center'><p><img src='run_exp/static/images/tutorial/blue_win.png' height='500'></p></div>","null","","","","","","","","","","","","","","","","","","","","","","",""
"","instruc6","30","173686","0.0-30.0","null","run_exp/static/audio/clip_6_blue_beard_outcome.m4a","null","","","","","<div class='center'><p> See, he succeeded in robbing the ships most of the time but not every time. </p></div>","","","","","","","","","","","","","","","","","",""
"","html-keyboard-response","31","174454","0.0-31.0","767.4300000071526","<div class='center'><p> See, he succeeded in robbing the ships most of the time but not every time. </p><p><b>[Press the space bar to continue]</b></p></div>","32","","","","","","","","","","","","","","","","","","","","","","",""
"","audio-keyboard-response","32","180888","0.0-32.0","6432.455000001937","run_exp/static/audio/clip_7_pick_pirate.m4a","49","","","","","","","","","","","","","","","","","","","","","","",""
"","audio-keyboard-response","33","182484","0.0-33.0-0.0","1594.2949999880511","run_exp/static/audio/clip_8_chosen_pirate_win.m4a","32","","","","","","","","","","","","","","","","","","","","","","",""
"","audio-keyboard-response","34","183517","0.0-33.0-1.0","1032.455000007758","run_exp/static/audio/clip_9_pick_a_pirate_again.m4a","50","","","","","","","","","","","","","","","","","","","","","","",""
"","audio-keyboard-response","35","184501","0.0-34.0-0.0","981.8450000020675","run_exp/static/audio/clip_10_chosen_pirate_loss.m4a","32","","","","","","","","","","","","","","","","","","","","","","",""
"","instruc9","36","191682","0.0-35.0-0.0","null","run_exp/static/audio/clip_11_time_out.m4a","null","","","","","<div class='center'><p>If you don’t make your choice fast enough, you’ll have to wait a few seconds before you can make another one. </p><p><img src='run_exp/static/images/miscellaneous/hurry_up.png' height='500'></p></div>","","","","","","","","","","","","","","","","","",""
"","html-keyboard-response","37","192322","0.0-35.0-1.0","639.629999990575","<div class='center'><p>If you don’t make your choice fast enough, you’ll have to wait a few seconds before you can make another one. </p><p><img src='run_exp/static/images/miscellaneous/hurry_up.png' height='500'></p><p><b>[Press the space bar to continue]</b></p></div>","32","","","","","","","","","","","","","","","","","","","","","","",""
"","instruc10","38","240955","0.0-35.0-2.0","null","run_exp/static/audio/clip_12_probe.m4a","null","","","","","<div class='center'><p>Once you've choose a pirate, you’ll be shown the ship they are robbing.</p><p>You will never rob the same ship twice. After all, ships that have already been robbed won’t have gold on them. </p><p>Ships can be told apart from one another by the image on them. See, this one has a travel mug on it. </p><p> You’ll have to remember which island you saw each ship on.You will win more bonus money if you remember correctly! To help you remember, you can imagine a story. For example, here, you could imagine a mug full of water in the desert. Or, as another example, if on the forest island, your pirate robbed a ship with an apple on it, you could imagine an apple falling from a tree in the forest. </p><p><img src='run_exp/static/images/tutorial/example_probe.png' height='500'></p></div>","","","","","","","","","","","","","","","","","",""
"","html-keyboard-response","39","244648","0.0-35.0-3.0","3690.4499999945983","<div class='center'><p>Once you've choose a pirate, you’ll be shown the ship they are robbing.</p><p>You will never rob the same ship twice. After all, ships that have already been robbed won’t have gold on them. </p><p>Ships can be told apart from one another by the image on them. See, this one has a travel mug on it. </p><p> You’ll have to remember which island you saw each ship on.You will win more bonus money if you remember correctly! To help you remember, you can imagine a story. For example, here, you could imagine a mug full of water in the desert. Or, as another example, if on the forest island, your pirate robbed a ship with an apple on it, you could imagine an apple falling from a tree in the forest. </p><p><img src='run_exp/static/images/tutorial/example_probe.png' height='500'></p><p><b>[Press the space bar to continue]</b></p></div>","32","","","","","","","","","","","","","","","","","","","","","","",""
"","instruc11","40","265567","0.0-35.0-4.0","null","run_exp/static/audio/clip_13_changepoint.m4a","null","","","","","<div class='center'><p>How successful a pirate is at robbing ships will depend on the island you’re on.</p><p> A pirate may have visited this island many times before and gained a lot of practice robbing ships there.</p><p>So, they’re more likely to be successful than a pirate who has never visited the island before.</p></div>","","","","","","","","","","","","","","","","","",""
"","html-keyboard-response","41","285557","0.0-35.0-5.0","19988.805000000866","<div class='center'><p>How successful a pirate is at robbing ships will depend on the island you’re on.</p><p> A pirate may have visited this island many times before and gained a lot of practice robbing ships there.</p><p>So, they’re more likely to be successful than a pirate who has never visited the island before.</p><p><b>[Press the space bar to continue]</b></p></div>","32","","","","","","","","","","","","","","","","","","","","","","",""
"","instruc12","42","313571","0.0-35.0-6.0","null","run_exp/static/audio/clip_14_drift.m4a","null","","","","","<div class='center'><p>How successful a pirate is at robbing ships can also change over the time spent on the island. </p><p> Ships may hear from islanders about the pirates coming and will improve their protections against the attack. This may make it harder to rob them.</p><p> Ships may also become lazy and weaken the strength of their protections. This may make it easier to rob them.</p><br><p>Things are always changing on the high seas! So, try your best to pay attention!</p><p><img src='run_exp/static/images/tutorial/contingency.png' height='500'></p></div>","","","","","","","","","","","","","","","","","",""
"","html-keyboard-response","43","332518","0.0-35.0-7.0","18946.894999971846","<div class='center'><p>How successful a pirate is at robbing ships can also change over the time spent on the island. </p><p> Ships may hear from islanders about the pirates coming and will improve their protections against the attack. This may make it harder to rob them.</p><p> Ships may also become lazy and weaken the strength of their protections. This may make it easier to rob them.</p><br><p>Things are always changing on the high seas! So, try your best to pay attention!</p><p><img src='run_exp/static/images/tutorial/contingency.png' height='500'></p><p><b>[Press the space bar to continue]</b></p></div>","32","","","","","","","","","","","","","","","","","","","","","","",""
"","instruc13","44","377157","0.0-35.0-8.0","null","run_exp/static/audio/clip_15_summary.m4a","null","","","","","<div class='center'><p>Let's go over the instructions quickly again. You have two important things to do: </p><b><p> 1. Pick the pirate who is the best at robbing ships on the current island. This way you'll collect more gold coins!</p></b><b><p> 2. Remember on which island a ship was robbed.</p> </b><p>The amount of bonus money you can win depends on both.</p><p><br><p>Let’s try a practice game. The game will start by showing you the pirates. First, pick a pirate using the <b> 1, 2, 3 </b> keys on your keyboard. When you are shown a ship, try to remember which island you’re on by making up a story.</p><p>This is just a practice game, so you’re not playing for money. </p><p> Good luck!</p></div>","","","","","","","","","","","","","","","","","",""
"","html-keyboard-response","45","388626","0.0-35.0-9.0","11467.689999990398","<div class='center'><p>Let's go over the instructions quickly again. You have two important things to do: </p><b><p> 1. Pick the pirate who is the best at robbing ships on the current island. This way you'll collect more gold coins!</p></b><b><p> 2. Remember on which island a ship was robbed.</p> </b><p>The amount of bonus money you can win depends on both.</p><p><br><p>Let’s try a practice game. The game will start by showing you the pirates. First, pick a pirate using the <b> 1, 2, 3 </b> keys on your keyboard. When you are shown a ship, try to remember which island you’re on by making up a story.</p><p>This is just a practice game, so you’re not playing for money. </p><p> Good luck!</p><p><b>[Press the space bar to continue]</b></p></div>","32","","","","","","","","","","","","","","","","","","","","","","",""
"","do_welcome","46","390133","0.0-35.0-10.0","null","","","","","","","","null","","","","","","","","","","","","","","","","",""
"","do_trial","47","395442","0.0-35.0-11.0","800.4349999828264","","","","","","","","49","1,0,0","","","","","","","","","","","","","","","",""
"","html-keyboard-response","48","396446","0.0-36.0-0.0","null","<p></p>","null","","","","","","","","","","","","","","","","","","","","","","",""
"","do_trial","49","401310","0.0-36.0-1.0","353.99500001221895","","","","","","","","50","1,1,0","","","","","","","","","","","","","","","",""
"","html-keyboard-response","50","402314","0.0-37.0-0.0","null","<p></p>","null","","","","","","","","","","","","","","","","","","","","","","",""
"","do_trial","51","407282","0.0-37.0-1.0","460.0250000075903","","","","","","","","49","1,0,1","","","","","","","","","","","","","","","",""
"","html-keyboard-response","52","408287","0.0-38.0-0.0","null","<p></p>","null","","","","","","","","","","","","","","","","","","","","","","",""
"","do_trial","53","413156","0.0-38.0-1.0","358.58999998890795","","","","","","","","49","0,1,0","","","","","","","","","","","","","","","",""
"","html-keyboard-response","54","414158","0.0-39.0-0.0","null","<p></p>","null","","","","","","","","","","","","","","","","","","","","","","",""
"","do_trial","55","419022","0.0-39.0-1.0","352.71999999531545","","","","","","","","50","1,0,0","","","","","","","","","","","","","","","",""
"","do_bye","56","420531","0.0-40.0-0.0","null","","","","","","","","null","","","","","","","","","","","","","","","","",""
"","do_travel","57","426536","0.0-40.0-1.0","null","","","","","","","","null","","","","","","","","","","","","","","","","",""
"","do_welcome","58","428041","0.0-40.0-2.0","null","","","","","","","","null","","","","","","","","","","","","","","","","",""
"","do_trial","59","433038","0.0-40.0-3.0","487.73999998229556","","","","","","","","50","1,0,0","","","","","","","","","","","","","","","",""
"","html-keyboard-response","60","434040","0.0-41.0-0.0","null","<p></p>","null","","","","","","","","","","","","","","","","","","","","","","",""
"","do_trial","61","440485","0.0-41.0-1.0","1933.179999992717","","","","","","","","50","1,0,1","","","","","","","","","","","","","","","",""
"","html-keyboard-response","62","441491","0.0-42.0-0.0","null","<p></p>","null","","","","","","","","","","","","","","","","","","","","","","",""
"","do_trial","63","447504","0.0-42.0-1.0","null","","","","","","","","null","1,1,0","","","","","","","","","","","","","","","",""
"","html-keyboard-response","64","448508","0.0-43.0-0.0","null","<p></p>","null","","","","","","","","","","","","","","","","","","","","","","",""
"","do_trial","65","453432","0.0-43.0-1.0","415.0800000061281","","","","","","","","51","1,1,0","","","","","","","","","","","","","","","",""
"","html-keyboard-response","66","454433","0.0-44.0-0.0","null","<p></p>","null","","","","","","","","","","","","","","","","","","","","","","",""
"","do_trial","67","459346","0.0-44.0-1.0","403.13000002061017","","","","","","","","49","0,0,1","","","","","","","","","","","","","","","",""
"","html-keyboard-response","68","460350","0.0-45.0-0.0","null","<p></p>","null","","","","","","","","","","","","","","","","","","","","","","",""
"","do_trial","69","465224","0.0-45.0-1.0","365.9850000112783","","","","","","","","49","1,0,1","","","","","","","","","","","","","","","",""
"","html-keyboard-response","70","466387","0.0-46.0-0.0","1161.244999995688","<div class='center'><p><img src='run_exp/static/images/tutorial/prac_best_pirate.png'  height='500'></p></div>","49","","","","","","","","","","","","","","","","","","","","","","",""
"","html-keyboard-response","71","467202","0.0-47.0-0.0","813.8099999923725","<div class='center'><p>That's correct! Red beard was the best.</p><p><b>[Press the space bar to continue]</b></p></div>","32","","","","","","","","","","","","","","","","","","","","","","",""
"","html-keyboard-response","72","468029","0.0-47.0-1.0","826.3549999974202","<div class='center'><p><img src='run_exp/static/images/tutorial/prac_source.png'  height='500'></p></div>","50","","","","","","","","","","","","","","","","","","","","","","",""
"","html-keyboard-response","73","468560","0.0-48.0-0.0","530.0500000012107","<div class='center'><p>That's correct! You saw this ship on the cavern island.</p><p><b>[Press the space bar to continue]</b></p></div>","32","","","","","","","","","","","","","","","","","","","","","","",""
"","quiz_beginning","74","481968","0.0-48.0-1.0","null","run_exp/static/audio/clip_16_quiz_intro.m4a","null","","","","","<div class='center'><p>Good job on the practice game! Now, you will be asked some true or false questions to make sure you really understand the rules of the game.</p><p> Press <b>'1'</b> on the keyboard for true and press <b>'2'</b> for false.</p></div>","","","","","","","","","","","","","","","","","",""
"","audio-keyboard-response","75","483279","0.0-48.0-2.0","1309.8299999837764","run_exp/static/audio/clip_17_q1.m4a","50","","","","","","","","","","","","","","","","","","","","","","",""
"","correct","76","486263","0.0-49.0-0.0","null","run_exp/static/audio/clip_18_correct.m4a","null","","","","","<div class='center'><p>That's correct!</p></div>","","","","","","","","","","","","","","","","","",""
"","html-keyboard-response","77","487084","0.0-49.0-1.0","820.4449999902863","<div class='center'><p>That's correct!</p><p><b>[Press the space bar to continue]</b></p></div>","32","","","","","","","","","","","","","","","","","","","","","","",""
"","audio-keyboard-response","78","487870","0.0-49.0-2.0","784.8700000031386","run_exp/static/audio/clip_20_q2.m4a","50","","","","","","","","","","","","","","","","","","","","","","",""
"","correct","79","490860","0.0-50.0-0.0","null","run_exp/static/audio/clip_18_correct.m4a","null","","","","","<div class='center'><p>That's correct!</p></div>","","","","","","","","","","","","","","","","","",""
"","html-keyboard-response","80","491795","0.0-50.0-1.0","934.4599999894854","<div class='center'><p>That's correct!</p><p><b>[Press the space bar to continue]</b></p></div>","32","","","","","","","","","","","","","","","","","","","","","","",""
"","audio-keyboard-response","81","492920","0.0-50.0-2.0","1124.4149999984074","run_exp/static/audio/clip_22_q3.m4a","50","","","","","","","","","","","","","","","","","","","","","","",""
"","correct","82","495900","0.0-51.0-0.0","null","run_exp/static/audio/clip_18_correct.m4a","null","","","","","<div class='center'><p>That's correct!</p></div>","","","","","","","","","","","","","","","","","",""
"","html-keyboard-response","83","496992","0.0-51.0-1.0","1091.0000000149012","<div class='center'><p>That's correct!</p><p><b>[Press the space bar to continue]</b></p></div>","32","","","","","","","","","","","","","","","","","","","","","","",""
"","audio-keyboard-response","84","497467","0.0-51.0-2.0","473.9500000141561","run_exp/static/audio/clip_24_q4.m4a","49","","","","","","","","","","","","","","","","","","","","","","",""
"","correct","85","500499","0.0-52.0-0.0","null","run_exp/static/audio/clip_18_correct.m4a","null","","","","","<div class='center'><p>That's correct!</p></div>","","","","","","","","","","","","","","","","","",""
"","html-keyboard-response","86","503074","0.0-52.0-1.0","2574.850000004517","<div class='center'><p>That's correct!</p><p><b>[Press the space bar to continue]</b></p></div>","32","","","","","","","","","","","","","","","","","","","","","","",""
"","q_all_corr","87","510087","0.0-53.0-0.0","null","run_exp/static/audio/clip_27_quiz_all_correct.m4a","null","","","","","<div class='center'><p>Good job! You’re now ready to move on to the real game!</p></div>","","","","","","","","","","","","","","","","","",""
"","html-keyboard-response","88","510714","0.0-53.0-1.0","626.2649999989662","<div class='center'><p>Good job! You’re now ready to move on to the real game!</p><p><b>[Press the space bar to continue]</b></p></div>","32","","","","","","","","","","","","","","","","","","","","","","",""
"","do_welcome","89","512220","0.0-54.0-0.0","null","","","","","","","","null","","","","","","","","","","","","","","","","",""
"","do_trial","90","517607","0.0-55.0-0.0","839.9650000210386","","","","","","","","49","1,0,0","0","coast","0","probe-186","0.6","0.3","0.1","1","","","","","","","",""
"","html-keyboard-response","91","518614","0.0-55.0-1.0","null","<p></p>","null","","","","","","","","","","","","","","","","","","","","","","",""
"","do_trial","92","523493","0.0-56.0-0.0","331.63499998045154","","","","","","","","49","1,0,0","0","coast","1","probe-165","0.5672201925477296","0.42159849585959147","0.1555885552766964","1","","","","","","","",""
"","html-keyboard-response","93","524496","0.0-56.0-1.0","null","<p></p>","null","","","","","","","","","","","","","","","","","","","","","","",""
"","do_trial","94","529316","0.0-57.0-0.0","271.8849999946542","","","","","","","","49","1,1,0","0","coast","2","probe-71","0.49589964785490914","0.36251973029915796","0.18112675932322858","1","","","","","","","",""
"","html-keyboard-response","95","530321","0.0-57.0-1.0","null","<p></p>","null","","","","","","","","","","","","","","","","","","","","","","",""
"","do_trial","96","535252","0.0-58.0-0.0","384.19499999145046","","","","","","","","49","0,0,0","0","coast","3","probe-118","0.34076862704989325","0.4091529313976131","0.1501406305576736","0","","","","","","","",""
"","html-keyboard-response","97","536255","0.0-58.0-1.0","null","<p></p>","null","","","","","","","","","","","","","","","","","","","","","","",""
"","do_trial","98","541151","0.0-59.0-0.0","346.70000002370216","","","","","","","","49","1,0,0","0","coast","4","probe-217","0.45313882659661636","0.36318394704461915","0.0794672095638081","1","","","","","","","",""
"","html-keyboard-response","99","542155","0.0-59.0-1.0","null","<p></p>","null","","","","","","","","","","","","","","","","","","","","","","",""
"","do_trial","100","547188","0.0-60.0-0.0","487.2250000189524","","","","","","","","49","0,0,0","0","coast","5","probe-23","0.5604322957776633","0.3929496613990893","0.12280181062934048","0","","","","","","","",""
"","html-keyboard-response","101","548189","0.0-60.0-1.0","null","<p></p>","null","","","","","","","","","","","","","","","","","","","","","","",""
"","do_trial","102","553087","0.0-61.0-0.0","352.22000000067055","","","","","","","","49","0,0,0","0","coast","6","probe-81","0.6211167704592765","0.46136759523057125","0.14949477123228266","0","","","","","","","",""
"","html-keyboard-response","103","554092","0.0-61.0-1.0","null","<p></p>","null","","","","","","","","","","","","","","","","","","","","","","",""
"","do_trial","104","559018","0.0-62.0-0.0","378.1099999905564","","","","","","","","49","1,0,0","0","coast","7","probe-49","0.588515822570215","0.3937916270223715","0.18666169973249117","1","","","","","","","",""
"","html-keyboard-response","105","560021","0.0-62.0-1.0","null","<p></p>","null","","","","","","","","","","","","","","","","","","","","","","",""
"","do_trial","106","564916","0.0-63.0-0.0","343.0600000137929","","","","","","","","49","0,1,0","0","coast","8","probe-16","0.6100090540806246","0.37051013190686277","0.10246294922146282","0","","","","","","","",""
"","html-keyboard-response","107","565919","0.0-63.0-1.0","null","<p></p>","null","","","","","","","","","","","","","","","","","","","","","","",""
"","do_trial","108","570979","0.0-64.0-0.0","509.84499999322","","","","","","","","49","1,1,0","0","coast","9","probe-112","0.5123202215569213","0.3842470997536514","0.16525625352542023","1","","","","","","","",""
"","html-keyboard-response","109","571981","0.0-64.0-1.0","null","<p></p>","null","","","","","","","","","","","","","","","","","","","","","","",""
"","do_trial","110","576927","0.0-65.0-0.0","399.69999997993","","","","","","","","49","1,0,1","0","coast","10","probe-117","0.5189781349075736","0.45611965207997524","0.1481926176236614","1","","","","","","","",""
"","html-keyboard-response","111","577929","0.0-65.0-1.0","null","<p></p>","null","","","","","","","","","","","","","","","","","","","","","","",""
"","do_trial","112","582589","0.0-66.0-0.0","111.13999999361113","","","","","","","","49","0,0,0","0","coast","11","probe-157","0.552401685084294","0.4294401908482001","0.14137717857083085","0","","","","","","","",""
"","html-keyboard-response","113","583591","0.0-66.0-1.0","null","<p></p>","null","","","","","","","","","","","","","","","","","","","","","","",""
"","do_trial","114","588516","0.0-67.0-0.0","374.92000000202097","","","","","","","","49","0,1,0","0","coast","12","probe-205","0.549109145588008","0.3475004269345744","0.11052604813541933","0","","","","","","","",""
"","html-keyboard-response","115","589522","0.0-67.0-1.0","null","<p></p>","null","","","","","","","","","","","","","","","","","","","","","","",""
"","do_trial","116","594482","0.0-68.0-0.0","414.81999997631647","","","","","","","","49","1,1,1","0","coast","13","probe-13","0.5203292939452936","0.38563658567404363","0.060639829791710814","1","","","","","","","",""
"","html-keyboard-response","117","595486","0.0-68.0-1.0","null","<p></p>","null","","","","","","","","","","","","","","","","","","","","","","",""
"","do_trial","118","600443","0.0-69.0-0.0","410.8399999968242","","","","","","","","49","1,0,0","0","coast","14","probe-86","0.5776008115607274","0.37148313603876043","0.13102912476007947","1","","","","","","","",""
"","html-keyboard-response","119","601448","0.0-69.0-1.0","null","<p></p>","null","","","","","","","","","","","","","","","","","","","","","","",""
"","do_trial","120","606650","0.0-70.0-0.0","653.5549999971408","","","","","","","","49","1,1,0","0","coast","15","probe-129","0.6536667809408402","0.3889166706917845","0.08025758498398364","1","","","","","","","",""
"","html-keyboard-response","121","607653","0.0-70.0-1.0","null","<p></p>","null","","","","","","","","","","","","","","","","","","","","","","",""
"","do_trial","122","612570","0.0-71.0-0.0","369.19000002671964","","","","","","","","49","0,0,0","0","coast","16","probe-09","0.6633801211572811","0.3193156074023516","0.05050294260428815","0","","","","","","","",""
"","html-keyboard-response","123","613574","0.0-71.0-1.0","null","<p></p>","null","","","","","","","","","","","","","","","","","","","","","","",""
"","do_trial","124","618441","0.0-72.0-0.0","317.3549999773968","","","","","","","","49","0,0,0","0","coast","17","probe-194","0.5819948372863616","0.1862637330279894","0.11743800671136068","0","","","","","","","",""
"","html-keyboard-response","125","619444","0.0-72.0-1.0","null","<p></p>","null","","","","","","","","","","","","","","","","","","","","","","",""
"","do_trial","126","625257","0.0-73.0-0.0","1264.2200000118464","","","","","","","","49","1,1,0","0","coast","18","probe-111","0.6507288903871734","0.253874728798428","0.14689619469628593","1","","","","","","","",""
"","html-keyboard-response","127","626260","0.0-73.0-1.0","null","<p></p>","null","","","","","","","","","","","","","","","","","","","","","","",""
"","do_trial","128","631854","0.0-74.0-0.0","1048.6399999936111","","","","","","","","49","1,0,0","0","coast","19","probe-191","0.7423941743060268","0.23172711152824818","0.06547622489265723","1","","","","","","","",""
"","html-keyboard-response","129","632858","0.0-74.0-1.0","null","<p></p>","null","","","","","","","","","","","","","","","","","","","","","","",""
"","do_trial","130","638903","0.0-75.0-0.0","1496.4000000036322","","","","","","","","49","1,0,0","0","coast","20","probe-144","0.6903235135431249","0.3784295111300301","0.10970530181403612","1","","","","","","","",""
"","html-keyboard-response","131","639906","0.0-75.0-1.0","null","<p></p>","null","","","","","","","","","","","","","","","","","","","","","","",""
"","do_trial","132","646148","0.0-76.0-0.0","1692.06000000122","","","","","","","","49","0,0,0","0","coast","21","probe-36","0.6498276708903004","0.1614138189621914","0.09793081048475535","0","","","","","","","",""
"","html-keyboard-response","133","647154","0.0-76.0-1.0","null","<p></p>","null","","","","","","","","","","","","","","","","","","","","","","",""
"","do_trial","134","652700","0.0-77.0-0.0","1000.9800000116229","","","","","","","","49","1,0,1","0","coast","22","probe-25","0.5945559623185703","0.2844564612731454","0.08943714978351888","1","","","","","","","",""
"","html-keyboard-response","135","653704","0.0-77.0-1.0","null","<p></p>","null","","","","","","","","","","","","","","","","","","","","","","",""
"","do_trial","136","658849","0.0-78.0-0.0","598.4349999926053","","","","","","","","49","0,0,0","0","coast","23","probe-76","0.5574502665030676","0.3106982329677614","0.09786361597918239","0","","","","","","","",""
"","html-keyboard-response","137","659853","0.0-78.0-1.0","null","<p></p>","null","","","","","","","","","","","","","","","","","","","","","","",""
"","do_trial","138","665085","0.0-79.0-0.0","686.0199999937322","","","","","","","","49","1,0,0","0","coast","24","probe-58","0.6822082279340143","0.3543216668366827","0.17217676530763","1","","","","","","","",""
"","html-keyboard-response","139","666091","0.0-79.0-1.0","null","<p></p>","null","","","","","","","","","","","","","","","","","","","","","","",""
"","do_trial","140","671338","0.0-80.0-0.0","697.7699999988545","","","","","","","","49","1,0,0","0","coast","25","probe-177","0.6021020495459191","0.2747450742709818","0.1252663329237724","1","","","","","","","",""
"","html-keyboard-response","141","672341","0.0-80.0-1.0","null","<p></p>","null","","","","","","","","","","","","","","","","","","","","","","",""
"","do_trial","142","677427","0.0-81.0-0.0","536.2500000046566","","","","","","","","49","1,0,0","0","coast","26","probe-83","0.5322186738543597","0.22509132023955564","0.08116337906548633","1","","","","","","","",""
"","html-keyboard-response","143","678431","0.0-81.0-1.0","null","<p></p>","null","","","","","","","","","","","","","","","","","","","","","","",""
"","do_trial","144","683356","0.0-82.0-0.0","380.76500000897795","","","","","","","","49","0,0,0","0","coast","27","probe-214","0.4225070951073225","0.2067781719934561","0.05496066775558398","0","","","","","","","",""
"","html-keyboard-response","145","684361","0.0-82.0-1.0","null","<p></p>","null","","","","","","","","","","","","","","","","","","","","","","",""
"","do_trial","146","689321","0.0-83.0-0.0","413.90499999397434","","","","","","","","50","0,0,0","0","coast","28","probe-204","0.42242896666338087","0.13641888199300334","0.07407007150552274","0","","","","","","","",""
"","html-keyboard-response","147","690326","0.0-83.0-1.0","null","<p></p>","null","","","","","","","","","","","","","","","","","","","","","","",""
"","do_trial","148","695206","0.0-84.0-0.0","332.72999999462627","","","","","","","","49","0,0,0","0","coast","29","probe-68","0.5207608325504581","0.13949899958259926","0.09530967040474501","0","","","","","","","",""
"","html-keyboard-response","149","696210","0.0-84.0-1.0","null","<p></p>","null","","","","","","","","","","","","","","","","","","","","","","",""
"","do_bye","150","697715","0.0-85.0-0.0","null","","","","","","","","null","","","","","","","","","","","","","","","","",""
"","do_travel","151","703722","0.0-86.0-0.0","null","","","","","","","","null","","","","","","","","","","","","","","","","",""
"","do_welcome","152","705231","0.0-86.0-1.0","null","","","","","","","","null","","","","","","","","","","","","","","","","",""
"","do_trial","153","710606","0.0-87.0-0.0","828.3599999849685","","","","","","","","49","1,0,0","1","mountain","30","probe-82","1","0.19818922833468794","0.08474872402581556","1","","","","","","","",""
"","html-keyboard-response","154","711609","0.0-87.0-1.0","null","<p></p>","null","","","","","","","","","","","","","","","","","","","","","","",""
"","do_trial","155","716509","0.0-88.0-0.0","352.9900000139605","","","","","","","","50","1,0,0","1","mountain","31","probe-35","1","0.19357497725147427","0.050307656901121364","0","","","","","","","",""
"","html-keyboard-response","156","717514","0.0-88.0-1.0","null","<p></p>","null","","","","","","","","","","","","","","","","","","","","","","",""
"","do_trial","157","722362","0.0-89.0-0.0","301.0399999911897","","","","","","","","49","1,0,0","1","mountain","32","probe-141","1","0.30309493006100163","0.12123834659873825","1","","","","","","","",""
"","html-keyboard-response","158","723363","0.0-89.0-1.0","null","<p></p>","null","","","","","","","","","","","","","","","","","","","","","","",""
"","do_trial","159","728209","0.0-90.0-0.0","299.799999978859","","","","","","","","49","0,0,0","1","mountain","33","probe-65","0.8032619735100628","0.2896819120142255","0.19054953813710182","0","","","","","","","",""
"","html-keyboard-response","160","729214","0.0-90.0-1.0","null","<p></p>","null","","","","","","","","","","","","","","","","","","","","","","",""
"","do_trial","161","734006","0.0-91.0-0.0","242.1500000054948","","","","","","","","49","1,0,0","1","mountain","34","probe-158","0.683922279829642","0.2815735326368163","0.13405327394342592","1","","","","","","","",""
"","html-keyboard-response","162","735010","0.0-91.0-1.0","null","<p></p>","null","","","","","","","","","","","","","","","","","","","","","","",""
"","do_trial","163","739898","0.0-92.0-0.0","338.01999999559484","","","","","","","","49","1,0,1","1","mountain","35","probe-218","0.5566323973058457","0.25342352298337095","0.2321594345959857","1","","","","","","","",""
"","html-keyboard-response","164","740901","0.0-92.0-1.0","null","<p></p>","null","","","","","","","","","","","","","","","","","","","","","","",""
"","do_trial","165","745762","0.0-93.0-0.0","311.3299999968149","","","","","","","","49","1,0,0","1","mountain","36","probe-10","0.5818729020787657","0.402616784354059","0.22014643096752898","1","","","","","","","",""
"","html-keyboard-response","166","746764","0.0-93.0-1.0","null","<p></p>","null","","","","","","","","","","","","","","","","","","","","","","",""
"","do_trial","167","751741","0.0-94.0-0.0","429.39500001375563","","","","","","","","49","1,0,0","1","mountain","37","probe-201","0.5450846385493189","0.34041976916152633","0.05352170307167894","1","","","","","","","",""
"","html-keyboard-response","168","752743","0.0-94.0-1.0","null","<p></p>","null","","","","","","","","","","","","","","","","","","","","","","",""
"","do_trial","169","757669","0.0-95.0-0.0","374.69999998575076","","","","","","","","49","1,0,0","1","mountain","38","probe-150","0.6903967838963714","0.3084386083097767","0.06724793542086673","1","","","","","","","",""
"","html-keyboard-response","170","758672","0.0-95.0-1.0","null","<p></p>","null","","","","","","","","","","","","","","","","","","","","","","",""
"","do_trial","171","763556","0.0-96.0-0.0","336.2900000065565","","","","","","","","49","0,1,0","1","mountain","39","probe-220","0.6416178310913737","0.1865810405588971","0.0865627932840575","0","","","","","","","",""
"","html-keyboard-response","172","764560","0.0-96.0-1.0","null","<p></p>","null","","","","","","","","","","","","","","","","","","","","","","",""
"","do_trial","173","769396","0.0-97.0-0.0","289.9299999990035","","","","","","","","49","0,1,0","1","mountain","40","probe-48","0.6016759013517151","0.21847869209078277","0.05646407863483661","0","","","","","","","",""
"","html-keyboard-response","174","770401","0.0-97.0-1.0","null","<p></p>","null","","","","","","","","","","","","","","","","","","","","","","",""
"","do_trial","175","775250","0.0-98.0-0.0","300.10500000207685","","","","","","","","49","1,0,0","1","mountain","41","probe-155","0.716582006911265","0.2191601478190984","0.09919348038091882","1","","","","","","","",""
"","html-keyboard-response","176","776254","0.0-98.0-1.0","null","<p></p>","null","","","","","","","","","","","","","","","","","","","","","","",""
"","do_trial","177","781168","0.0-99.0-0.0","367.88000000524335","","","","","","","","49","0,0,0","1","mountain","42","probe-26","0.38605326923923416","0.13015542018398837","0.34614016950943727","0","","","","","","","",""
"","html-keyboard-response","178","782173","0.0-99.0-1.0","null","<p></p>","null","","","","","","","","","","","","","","","","","","","","","","",""
"","do_trial","179","787034","0.0-100.0-0.0","314.2449999868404","","","","","","","","51","0,0,0","1","mountain","43","probe-213","0.3357737428199271","0.1882263851968407","0.3736834630687315","0","","","","","","","",""
"","html-keyboard-response","180","788036","0.0-100.0-1.0","null","<p></p>","null","","","","","","","","","","","","","","","","","","","","","","",""
"","do_trial","181","792947","0.0-101.0-0.0","363.34999999962747","","","","","","","","51","0,0,0","1","mountain","44","probe-12","0.247086323053188","0.18479484757469863","0.445822101016335","0","","","","","","","",""
"","html-keyboard-response","182","793954","0.0-101.0-1.0","null","<p></p>","null","","","","","","","","","","","","","","","","","","","","","","",""
"","do_trial","183","798932","0.0-102.0-0.0","428.6150000116322","","","","","","","","50","0,0,0","1","mountain","45","probe-180","0.3511284789635984","0.09496734308695408","0.46446916806372246","0","","","","","","","",""
"","html-keyboard-response","184","799934","0.0-102.0-1.0","null","<p></p>","null","","","","","","","","","","","","","","","","","","","","","","",""
"","do_trial","185","804982","0.0-103.0-0.0","499.6099999989383","","","","","","","","50","0,0,0","1","mountain","46","probe-222","0.3229436410802547","0.10348463681194509","0.5724332503997962","0","","","","","","","",""
"","html-keyboard-response","186","805987","0.0-103.0-1.0","null","<p></p>","null","","","","","","","","","","","","","","","","","","","","","","",""
"","do_trial","187","810967","0.0-104.0-0.0","433.4499999822583","","","","","","","","50","0,0,1","1","mountain","47","probe-106","0.2685338181044756","0.059187283212394276","0.6555557468498259","0","","","","","","","",""
"","html-keyboard-response","188","811973","0.0-104.0-1.0","null","<p></p>","null","","","","","","","","","","","","","","","","","","","","","","",""
"","do_trial","189","817067","0.0-105.0-0.0","545.395000022836","","","","","","","","50","0,0,1","1","mountain","48","probe-203","0.18136239425082537","0.058005553898792146","0.5518784965726531","0","","","","","","","",""
"","html-keyboard-response","190","818071","0.0-105.0-1.0","null","<p></p>","null","","","","","","","","","","","","","","","","","","","","","","",""
"","do_trial","191","823229","0.0-106.0-0.0","611.6050000127871","","","","","","","","50","0,0,0","1","mountain","49","probe-171","0.23723108755712216","0.10836264547974217","0.4742439616777308","0","","","","","","","",""
"","html-keyboard-response","192","824231","0.0-106.0-1.0","null","<p></p>","null","","","","","","","","","","","","","","","","","","","","","","",""
"","do_trial","193","828904","0.0-107.0-0.0","127.45499997981824","","","","","","","","50","0,0,0","1","mountain","50","probe-164","0.10912799937552668","0.1558745164258251","0.4231001872741711","0","","","","","","","",""
"","html-keyboard-response","194","829906","0.0-107.0-1.0","null","<p></p>","null","","","","","","","","","","","","","","","","","","","","","","",""
"","do_trial","195","834782","0.0-108.0-0.0","329.8800000047777","","","","","","","","49","0,0,0","1","mountain","51","probe-142","0.10444696808284455","0.05101768290436892","0.5575787291532363","0","","","","","","","",""
"","html-keyboard-response","196","835786","0.0-108.0-1.0","null","<p></p>","null","","","","","","","","","","","","","","","","","","","","","","",""
"","do_trial","197","840703","0.0-109.0-0.0","370.3350000141654","","","","","","","","49","0,0,0","1","mountain","52","probe-185","0.2199557717497037","0.08529667207925755","0.4338787090795856","0","","","","","","","",""
"","html-keyboard-response","198","841706","0.0-109.0-1.0","null","<p></p>","null","","","","","","","","","","","","","","","","","","","","","","",""
"","do_trial","199","846607","0.0-110.0-0.0","351.8999999796506","","","","","","","","51","0,0,1","1","mountain","53","probe-04","0.21585417053572478","0.08165605094325681","0.4804522976449286","1","","","","","","","",""
"","html-keyboard-response","200","847612","0.0-110.0-1.0","null","<p></p>","null","","","","","","","","","","","","","","","","","","","","","","",""
"","do_trial","201","852618","0.0-111.0-0.0","456.30000001983717","","","","","","","","51","0,1,0","1","mountain","54","probe-225","0.18396831522987409","0.1375019150609745","0.41480402140073735","0","","","","","","","",""
"","html-keyboard-response","202","853621","0.0-111.0-1.0","null","<p></p>","null","","","","","","","","","","","","","","","","","","","","","","",""
"","do_trial","203","858623","0.0-112.0-0.0","454.0350000024773","","","","","","","","51","1,0,0","1","mountain","55","probe-01","0.2320263979143299","0.08224286091154528","0.5474246155515601","0","","","","","","","",""
"","html-keyboard-response","204","859628","0.0-112.0-1.0","null","<p></p>","null","","","","","","","","","","","","","","","","","","","","","","",""
"","do_trial","205","864654","0.0-113.0-0.0","476.6799999924842","","","","","","","","50","0,0,0","1","mountain","56","probe-121","0.1800138311779016","0.12781858621523212","0.4837496993654521","0","","","","","","","",""
"","html-keyboard-response","206","865659","0.0-113.0-1.0","null","<p></p>","null","","","","","","","","","","","","","","","","","","","","","","",""
"","do_trial","207","870612","0.0-114.0-0.0","407.2650000161957","","","","","","","","49","1,0,1","1","mountain","57","probe-02","0.22949557127798634","0.06502419504078358","0.5766287432816825","1","","","","","","","",""
"","html-keyboard-response","208","871618","0.0-114.0-1.0","null","<p></p>","null","","","","","","","","","","","","","","","","","","","","","","",""
"","do_trial","209","876519","0.0-115.0-0.0","356.6749999881722","","","","","","","","51","1,0,1","1","mountain","58","probe-122","0.3999147139833019","0.1252947565393478","0.5113459993973843","1","","","","","","","",""
"","html-keyboard-response","210","877526","0.0-115.0-1.0","null","<p></p>","null","","","","","","","","","","","","","","","","","","","","","","",""
"","do_trial","211","882383","0.0-116.0-0.0","307.2600000014063","","","","","","","","51","1,0,1","1","mountain","59","probe-88","0.3542589606344418","0.10944464186698996","0.4172847811660859","1","","","","","","","",""
"","html-keyboard-response","212","883390","0.0-116.0-1.0","null","<p></p>","null","","","","","","","","","","","","","","","","","","","","","","",""
"","do_trial","213","888285","0.0-117.0-0.0","349.4150000042282","","","","","","","","51","0,0,0","1","mountain","60","probe-38","0.34511090423668833","0.22543101549894773","0.40796852734174094","0","","","","","","","",""
"","html-keyboard-response","214","889290","0.0-117.0-1.0","null","<p></p>","null","","","","","","","","","","","","","","","","","","","","","","",""
"","do_trial","215","894250","0.0-118.0-0.0","408.79499999573454","","","","","","","","51","0,0,1","1","mountain","61","probe-189","0.2914509688078824","0.260981851353381","0.43201421493714975","1","","","","","","","",""
"","html-keyboard-response","216","895252","0.0-118.0-1.0","null","<p></p>","null","","","","","","","","","","","","","","","","","","","","","","",""
"","do_trial","217","900077","0.0-119.0-0.0","278.42000001692213","","","","","","","","49","0,0,0","1","mountain","62","probe-123","0.3199047584974734","0.15177983750460558","0.41187399957298676","0","","","","","","","",""
"","html-keyboard-response","218","901080","0.0-119.0-1.0","null","<p></p>","null","","","","","","","","","","","","","","","","","","","","","","",""
"","do_trial","219","905906","0.0-120.0-0.0","276.81499999016523","","","","","","","","51","0,0,1","1","mountain","63","probe-33","0.4082842971593034","0.07484070945510218","0.4865622030631382","1","","","","","","","",""
"","html-keyboard-response","220","906910","0.0-120.0-1.0","null","<p></p>","null","","","","","","","","","","","","","","","","","","","","","","",""
"","do_trial","221","911752","0.0-121.0-0.0","295.910000015283","","","","","","","","51","0,0,1","1","mountain","64","probe-46","0.41581243624922787","0.2658705251016323","0.45009446553512833","1","","","","","","","",""
"","html-keyboard-response","222","912757","0.0-121.0-1.0","null","<p></p>","null","","","","","","","","","","","","","","","","","","","","","","",""
"","do_trial","223","917563","0.0-122.0-0.0","258.9750000042841","","","","","","","","51","0,0,0","1","mountain","65","probe-166","0.41093842360010857","0.05229768569250529","0.4488785869228778","0","","","","","","","",""
"","html-keyboard-response","224","918571","0.0-122.0-1.0","null","<p></p>","null","","","","","","","","","","","","","","","","","","","","","","",""
"","do_trial","225","923476","0.0-123.0-0.0","356.8000000086613","","","","","","","","51","0,0,0","1","mountain","66","probe-93","0.41545536078708956","0.06488470221243668","0.5884533462558164","0","","","","","","","",""
"","html-keyboard-response","226","924482","0.0-123.0-1.0","null","<p></p>","null","","","","","","","","","","","","","","","","","","","","","","",""
"","do_trial","227","929522","0.0-124.0-0.0","486.7650000087451","","","","","","","","51","0,0,0","1","mountain","67","probe-169","0.2630831441929361","0.12212468534885705","0.5912960676683757","0","","","","","","","",""
"","html-keyboard-response","228","930525","0.0-124.0-1.0","null","<p></p>","null","","","","","","","","","","","","","","","","","","","","","","",""
"","do_trial","229","935452","0.0-125.0-0.0","377.1450000058394","","","","","","","","51","0,0,0","1","mountain","68","probe-24","0.37673803584340204","0.18615519926108956","0.6253266538931918","0","","","","","","","",""
"","html-keyboard-response","230","936455","0.0-125.0-1.0","null","<p></p>","null","","","","","","","","","","","","","","","","","","","","","","",""
"","do_trial","231","941293","0.0-126.0-0.0","290.68000000552274","","","","","","","","50","0,0,1","1","mountain","69","probe-127","0.3671274715218046","0.12792980246254548","0.5975766479693153","0","","","","","","","",""
"","html-keyboard-response","232","942297","0.0-126.0-1.0","null","<p></p>","null","","","","","","","","","","","","","","","","","","","","","","",""
"","do_bye","233","943807","0.0-127.0-0.0","null","","","","","","","","null","","","","","","","","","","","","","","","","",""
"","do_travel","234","949811","0.0-128.0-0.0","null","","","","","","","","null","","","","","","","","","","","","","","","","",""
"","do_welcome","235","951320","0.0-128.0-1.0","null","","","","","","","","null","","","","","","","","","","","","","","","","",""
"","do_trial","236","956212","0.0-129.0-0.0","339.0300000028219","","","","","","","","50","0,0,1","2","city","70","probe-147","0.346807233095275","0.15215532703154047","1","0","","","","","","","",""
"","html-keyboard-response","237","957218","0.0-129.0-1.0","null","<p></p>","null","","","","","","","","","","","","","","","","","","","","","","",""
"","do_trial","238","962022","0.0-130.0-0.0","250.97000002278946","","","","","","","","51","0,1,1","2","city","71","probe-154","0.3836132154352566","0.20470820086774835","1","1","","","","","","","",""
"","html-keyboard-response","239","963027","0.0-130.0-1.0","null","<p></p>","null","","","","","","","","","","","","","","","","","","","","","","",""
"","do_trial","240","967891","0.0-131.0-0.0","318.9249999995809","","","","","","","","51","0,0,1","2","city","72","probe-89","0.299155196101778","0.19571972925417228","0.848096495722253","1","","","","","","","",""
"","html-keyboard-response","241","968894","0.0-131.0-1.0","null","<p></p>","null","","","","","","","","","","","","","","","","","","","","","","",""
"","do_trial","242","973828","0.0-132.0-0.0","384.93000000016764","","","","","","","","51","1,0,1","2","city","73","probe-209","0.3468834294561535","0.10082620346603598","0.7605319082414603","1","","","","","","","",""
"","html-keyboard-response","243","974832","0.0-132.0-1.0","null","<p></p>","null","","","","","","","","","","","","","","","","","","","","","","",""
"","do_trial","244","979656","0.0-133.0-0.0","274.24499997869134","","","","","","","","51","0,0,0","2","city","74","probe-226","0.3083852604762737","0.11118907979096672","0.6727709015967408","0","","","","","","","",""
"","html-keyboard-response","245","980659","0.0-133.0-1.0","null","<p></p>","null","","","","","","","","","","","","","","","","","","","","","","",""
"","do_trial","246","985491","0.0-134.0-0.0","285.3049999976065","","","","","","","","51","0,1,0","2","city","75","probe-37","0.34764588600683594","0.1002406808661269","0.6783750288666534","0","","","","","","","",""
"","html-keyboard-response","247","986496","0.0-134.0-1.0","null","<p></p>","null","","","","","","","","","","","","","","","","","","","","","","",""
"","do_trial","248","991302","0.0-135.0-0.0","258.19000002229586","","","","","","","","51","1,0,0","2","city","76","probe-44","0.3102826674713377","0.0965731784012722","0.6015386187685251","0","","","","","","","",""
"","html-keyboard-response","249","992305","0.0-135.0-1.0","null","<p></p>","null","","","","","","","","","","","","","","","","","","","","","","",""
"","do_trial","250","997124","0.0-136.0-0.0","270.3499999770429","","","","","","","","49","0,1,0","2","city","77","probe-41","0.23005239886976536","0.11021588672770102","0.612830214201509","0","","","","","","","",""
"","html-keyboard-response","251","998129","0.0-136.0-1.0","null","<p></p>","null","","","","","","","","","","","","","","","","","","","","","","",""
"","do_trial","252","1003036","0.0-137.0-0.0","295.06999999284744","","","","","","","","50","0,1,1","2","city","78","probe-168","0.18544469565893554","0.0806645240810387","0.6901668749232692","1","","","","","","","",""
"","html-keyboard-response","253","1004041","0.0-137.0-1.0","null","<p></p>","null","","","","","","","","","","","","","","","","","","","","","","",""
"","do_trial","254","1008883","0.0-138.0-0.0","294.0299999900162","","","","","","","","50","1,0,1","2","city","79","probe-69","0.14881946679447344","0.07079060446463672","0.6355412115280888","0","","","","","","","",""
"","html-keyboard-response","255","1009885","0.0-138.0-1.0","null","<p></p>","null","","","","","","","","","","","","","","","","","","","","","","",""
"","do_trial","256","1014845","0.0-139.0-0.0","414.03000001446344","","","","","","","","50","0,0,0","2","city","80","probe-63","0.11882618391158005","0.12298104099327048","0.715189179933793","0","","","","","","","",""
"","html-keyboard-response","257","1015849","0.0-139.0-1.0","null","<p></p>","null","","","","","","","","","","","","","","","","","","","","","","",""
"","do_trial","258","1020833","0.0-140.0-0.0","436.17999998969026","","","","","","","","50","0,1,0","2","city","81","probe-139","0.0798791204914788","0.16066685565581357","0.7861559749834013","1","","","","","","","",""
"","html-keyboard-response","259","1021836","0.0-140.0-1.0","null","<p></p>","null","","","","","","","","","","","","","","","","","","","","","","",""
"","do_trial","260","1026889","0.0-141.0-0.0","505.71499997749925","","","","","","","","50","0,0,0","2","city","82","probe-126","0.15493099366924853","0.25056747250060823","0.3970353208927068","0","","","","","","","",""
"","html-keyboard-response","261","1027892","0.0-141.0-1.0","null","<p></p>","null","","","","","","","","","","","","","","","","","","","","","","",""
"","do_trial","262","1032588","0.0-142.0-0.0","150.25500001502223","","","","","","","","50","0,0,1","2","city","83","probe-11","0.2790412225373409","0.20926993293190202","0.3675725405337299","0","","","","","","","",""
"","html-keyboard-response","263","1033590","0.0-142.0-1.0","null","<p></p>","null","","","","","","","","","","","","","","","","","","","","","","",""
"","do_trial","264","1040999","0.0-143.0-0.0","2861.31999999634","","","","","","","","50","0,0,1","2","city","84","probe-96","0.3997825830699228","0.317865045908885","0.19945738715067549","0","","","","","","","",""
"","html-keyboard-response","265","1042004","0.0-143.0-1.0","null","<p></p>","null","","","","","","","","","","","","","","","","","","","","","","",""
"","do_trial","266","1046937","0.0-144.0-0.0","384.43000000552274","","","","","","","","50","0,1,0","2","city","85","probe-199","0.4995514862964658","0.33462985061753797","0.183238789355268","1","","","","","","","",""
"","html-keyboard-response","267","1047944","0.0-144.0-1.0","null","<p></p>","null","","","","","","","","","","","","","","","","","","","","","","",""
"","do_trial","268","1052940","0.0-145.0-0.0","447.61999999172986","","","","","","","","50","0,0,0","2","city","86","probe-85","0.5807287728892725","0.39608716336492983","0.23748065690058576","0","","","","","","","",""
"","html-keyboard-response","269","1053943","0.0-145.0-1.0","null","<p></p>","null","","","","","","","","","","","","","","","","","","","","","","",""
"","do_trial","270","1058767","0.0-146.0-0.0","278.3800000033807","","","","","","","","50","0,0,1","2","city","87","probe-133","0.5574259753601777","0.425754912073392","0.22219130873222756","0","","","","","","","",""
"","html-keyboard-response","271","1059771","0.0-146.0-1.0","null","<p></p>","null","","","","","","","","","","","","","","","","","","","","","","",""
"","do_trial","272","1064804","0.0-147.0-0.0","482.9450000252109","","","","","","","","50","1,0,0","2","city","88","probe-40","0.6315875633499505","0.4221408729203167","0.21260844066891285","0","","","","","","","",""
"","html-keyboard-response","273","1065809","0.0-147.0-1.0","null","<p></p>","null","","","","","","","","","","","","","","","","","","","","","","",""
"","do_trial","274","1070688","0.0-148.0-0.0","329.09499999368563","","","","","","","","51","1,0,0","2","city","89","probe-219","0.5256279228088337","0.2818237489654177","0.14715901488075203","0","","","","","","","",""
"","html-keyboard-response","275","1071691","0.0-148.0-1.0","null","<p></p>","null","","","","","","","","","","","","","","","","","","","","","","",""
"","do_trial","276","1076547","0.0-149.0-0.0","304.2350000177976","","","","","","","","51","1,1,0","2","city","90","probe-140","0.5943014691907701","0.2162407610158183","0.17544686737131315","0","","","","","","","",""
"","html-keyboard-response","277","1077550","0.0-149.0-1.0","null","<p></p>","null","","","","","","","","","","","","","","","","","","","","","","",""
"","do_trial","278","1082469","0.0-150.0-0.0","369.1899999976158","","","","","","","","51","1,1,0","2","city","91","probe-137","0.6569266541168107","0.21290983286235243","0.21559119393442713","0","","","","","","","",""
"","html-keyboard-response","279","1083474","0.0-150.0-1.0","null","<p></p>","null","","","","","","","","","","","","","","","","","","","","","","",""
"","do_trial","280","1088588","0.0-151.0-0.0","565.3499999898486","","","","","","","","49","1,0,0","2","city","92","probe-120","0.6405551810451517","0.2161517803080269","0.1277536840031426","1","","","","","","","",""
"","html-keyboard-response","281","1089590","0.0-151.0-1.0","null","<p></p>","null","","","","","","","","","","","","","","","","","","","","","","",""
"","do_trial","282","1094633","0.0-152.0-0.0","493.3999999775551","","","","","","","","49","1,0,0","2","city","93","probe-179","0.6505378410377636","0.35364936963121596","0.12922608308498332","1","","","","","","","",""
"","html-keyboard-response","283","1095635","0.0-152.0-1.0","null","<p></p>","null","","","","","","","","","","","","","","","","","","","","","","",""
"","do_trial","284","1100510","0.0-153.0-0.0","326.1449999990873","","","","","","","","49","0,0,0","2","city","94","probe-116","0.6866744878061455","0.2523312139827816","0.12685695995064797","0","","","","","","","",""
"","html-keyboard-response","285","1101512","0.0-153.0-1.0","null","<p></p>","null","","","","","","","","","","","","","","","","","","","","","","",""
"","do_trial","286","1106700","0.0-154.0-0.0","638.3199999982025","","","","","","","","49","1,0,0","2","city","95","probe-79","0.6122818921212074","0.25453113734009347","0.07414178341085585","1","","","","","","","",""
"","html-keyboard-response","287","1107706","0.0-154.0-1.0","null","<p></p>","null","","","","","","","","","","","","","","","","","","","","","","",""
"","do_trial","288","1112522","0.0-155.0-0.0","268.28000001842156","","","","","","","","49","1,0,0","2","city","96","probe-211","0.6133745899354418","0.3971028598689002","0.21923254554580562","1","","","","","","","",""
"","html-keyboard-response","289","1113527","0.0-155.0-1.0","null","<p></p>","null","","","","","","","","","","","","","","","","","","","","","","",""
"","do_trial","290","1118594","0.0-156.0-0.0","520.2850000059698","","","","","","","","49","1,0,0","2","city","97","probe-196","0.7552661240080332","0.12054690790149984","0.15729937894503526","1","","","","","","","",""
"","html-keyboard-response","291","1119599","0.0-156.0-1.0","null","<p></p>","null","","","","","","","","","","","","","","","","","","","","","","",""
"","do_trial","292","1124798","0.0-157.0-0.0","650.3800000064075","","","","","","","","49","0,0,1","2","city","98","probe-98","0.6176001474326638","0.16765874564065794","0.2828890133668062","0","","","","","","","",""
"","html-keyboard-response","293","1125803","0.0-157.0-1.0","null","<p></p>","null","","","","","","","","","","","","","","","","","","","","","","",""
"","do_trial","294","1130972","0.0-158.0-0.0","622.9699999967124","","","","","","","","49","1,0,0","2","city","99","probe-230","0.6594933548969191","0.13101051446294973","0.2346080930254944","1","","","","","","","",""
"","html-keyboard-response","295","1131976","0.0-158.0-1.0","null","<p></p>","null","","","","","","","","","","","","","","","","","","","","","","",""
"","do_trial","296","1136898","0.0-159.0-0.0","372.9999999923166","","","","","","","","49","1,0,0","2","city","100","probe-64","0.5695351481707891","0.2525617999898195","0.18987721245802347","1","","","","","","","",""
"","html-keyboard-response","297","1137900","0.0-159.0-1.0","null","<p></p>","null","","","","","","","","","","","","","","","","","","","","","","",""
"","do_trial","298","1142879","0.0-160.0-0.0","432.1300000010524","","","","","","","","49","1,0,0","2","city","101","probe-19","0.5093975423285899","0.2945576231533516","0.32564496167478724","1","","","","","","","",""
"","html-keyboard-response","299","1143882","0.0-160.0-1.0","null","<p></p>","null","","","","","","","","","","","","","","","","","","","","","","",""
"","do_trial","300","1148755","0.0-161.0-0.0","326.759999996284","","","","","","","","49","1,0,0","2","city","102","probe-75","0.47653023449978277","0.32174130765639974","0.1990859463469574","1","","","","","","","",""
"","html-keyboard-response","301","1149758","0.0-161.0-1.0","null","<p></p>","null","","","","","","","","","","","","","","","","","","","","","","",""
"","do_trial","302","1154362","0.0-162.0-0.0","54.86999999266118","","","","","","","","49","1,0,0","2","city","103","probe-152","0.6576377458671502","0.22940076236132573","0.20524104443644958","1","","","","","","","",""
"","html-keyboard-response","303","1155364","0.0-162.0-1.0","null","<p></p>","null","","","","","","","","","","","","","","","","","","","","","","",""
"","do_trial","304","1160427","0.0-163.0-0.0","515.2850000013132","","","","","","","","49","1,1,0","2","city","104","probe-110","0.594757073059086","0.2262096818047178","0.07983768914224994","1","","","","","","","",""
"","html-keyboard-response","305","1161429","0.0-163.0-1.0","null","<p></p>","null","","","","","","","","","","","","","","","","","","","","","","",""
"","do_trial","306","1166388","0.0-164.0-0.0","410.0099999923259","","","","","","","","49","0,0,0","2","city","105","probe-07","0.6151003929173114","0.14662844772860723","0.06747187014739538","0","","","","","","","",""
"","html-keyboard-response","307","1167390","0.0-164.0-1.0","null","<p></p>","null","","","","","","","","","","","","","","","","","","","","","","",""
"","do_trial","308","1172327","0.0-165.0-0.0","390.9249999851454","","","","","","","","49","1,1,0","2","city","106","probe-70","0.4961741177144061","0.23667019322723634","0.15819418524604778","1","","","","","","","",""
"","html-keyboard-response","309","1173332","0.0-165.0-1.0","null","<p></p>","null","","","","","","","","","","","","","","","","","","","","","","",""
"","do_trial","310","1178253","0.0-166.0-0.0","374.3499999982305","","","","","","","","49","0,0,0","2","city","107","probe-184","0.4187910725169751","0.2500691839536557","0.05969698598799131","0","","","","","","","",""
"","html-keyboard-response","311","1179258","0.0-166.0-1.0","null","<p></p>","null","","","","","","","","","","","","","","","","","","","","","","",""
"","do_trial","312","1184165","0.0-167.0-0.0","360.14499998418614","","","","","","","","49","1,1,0","2","city","108","probe-175","0.5234787136741522","0.27434161052976164","0.073965673647387","1","","","","","","","",""
"","html-keyboard-response","313","1185168","0.0-167.0-1.0","null","<p></p>","null","","","","","","","","","","","","","","","","","","","","","","",""
"","do_trial","314","1190162","0.0-168.0-0.0","445.7750000001397","","","","","","","","49","0,1,0","2","city","109","probe-67","0.49808974538888956","0.2035175257496345","0.21500079667354716","0","","","","","","","",""
"","html-keyboard-response","315","1191165","0.0-168.0-1.0","null","<p></p>","null","","","","","","","","","","","","","","","","","","","","","","",""
"","do_bye","316","1192672","0.0-169.0-0.0","null","","","","","","","","null","","","","","","","","","","","","","","","","",""
"","do_travel","317","1198677","0.0-170.0-0.0","null","","","","","","","","null","","","","","","","","","","","","","","","","",""
"","do_welcome","318","1200186","0.0-170.0-1.0","null","","","","","","","","null","","","","","","","","","","","","","","","","",""
"","do_trial","319","1205225","0.0-171.0-0.0","491.8349999934435","","","","","","","","49","1,1,0","3","countryside","110","probe-06","1","0.2754241518423071","0.1343150610117348","1","","","","","","","",""
"","html-keyboard-response","320","1206227","0.0-171.0-1.0","null","<p></p>","null","","","","","","","","","","","","","","","","","","","","","","",""
"","do_trial","321","1211110","0.0-172.0-0.0","333.680000010645","","","","","","","","50","1,0,0","3","countryside","111","probe-138","1","0.20294502373516124","0.055037601676667575","0","","","","","","","",""
"","html-keyboard-response","322","1212112","0.0-172.0-1.0","null","<p></p>","null","","","","","","","","","","","","","","","","","","","","","","",""
"","do_trial","323","1217208","0.0-173.0-0.0","547.9499999783002","","","","","","","","50","1,0,0","3","countryside","112","probe-227","0.9357775220260356","0.22692254024290762","0.11309712593793057","0","","","","","","","",""
"","html-keyboard-response","324","1218218","0.0-173.0-1.0","null","<p></p>","null","","","","","","","","","","","","","","","","","","","","","","",""
"","do_trial","325","1223266","0.0-174.0-0.0","474.84999999869615","","","","","","","","50","1,0,0","3","countryside","113","probe-210","0.7649902194567839","0.2403941302431678","0.11001136216159237","0","","","","","","","",""
"","html-keyboard-response","326","1224271","0.0-174.0-1.0","null","<p></p>","null","","","","","","","","","","","","","","","","","","","","","","",""
"","do_trial","327","1229249","0.0-175.0-0.0","432.54500001785345","","","","","","","","51","1,0,1","3","countryside","114","probe-135","0.7505827936017818","0.397092658480471","0.23700791965488877","1","","","","","","","",""
"","html-keyboard-response","328","1230254","0.0-175.0-1.0","null","<p></p>","null","","","","","","","","","","","","","","","","","","","","","","",""
"","do_trial","329","1235227","0.0-176.0-0.0","426.56500000157394","","","","","","","","51","1,1,0","3","countryside","115","probe-151","0.5634946105206626","0.2238285118890132","0.211954339460913","0","","","","","","","",""
"","html-keyboard-response","330","1236231","0.0-176.0-1.0","null","<p></p>","null","","","","","","","","","","","","","","","","","","","","","","",""
"","do_trial","331","1241446","0.0-177.0-0.0","665.7349999877624","","","","","","","","51","0,0,1","3","countryside","116","probe-53","0.4819117790858173","0.29742983419158847","0.3331613776498915","1","","","","","","","",""
"","html-keyboard-response","332","1242452","0.0-177.0-1.0","null","<p></p>","null","","","","","","","","","","","","","","","","","","","","","","",""
"","do_trial","333","1248685","0.0-178.0-0.0","1684.704999992391","","","","","","","","51","0,0,0","3","countryside","117","probe-54","0.556089351211146","0.2868828524162134","0.23677056435485028","0","","","","","","","",""
"","html-keyboard-response","334","1249689","0.0-178.0-1.0","null","<p></p>","null","","","","","","","","","","","","","","","","","","","","","","",""
"","do_trial","335","1254718","0.0-179.0-0.0","484.12499998812564","","","","","","","","51","1,1,0","3","countryside","118","probe-30","0.5862943262806006","0.32005757177146243","0.19416337296358874","0","","","","","","","",""
"","html-keyboard-response","336","1255721","0.0-179.0-1.0","null","<p></p>","null","","","","","","","","","","","","","","","","","","","","","","",""
"","do_trial","337","1260842","0.0-180.0-0.0","573.3650000183843","","","","","","","","51","0,0,0","3","countryside","119","probe-208","0.5683462578636622","0.34308612208883577","0.15079277953895623","0","","","","","","","",""
"","html-keyboard-response","338","1261847","0.0-180.0-1.0","null","<p></p>","null","","","","","","","","","","","","","","","","","","","","","","",""
"","do_trial","339","1266824","0.0-181.0-0.0","429.2499999864958","","","","","","","","51","0,1,0","3","countryside","120","probe-74","0.595258170569511","0.4862357105547193","0.20356419027670952","0","","","","","","","",""
"","html-keyboard-response","340","1267830","0.0-181.0-1.0","null","<p></p>","null","","","","","","","","","","","","","","","","","","","","","","",""
"","do_trial","341","1272897","0.0-182.0-0.0","514.7349999751896","","","","","","","","51","0,0,0","3","countryside","121","probe-104","0.5361864844504151","0.37354626116207973","0.2504542392645579","0","","","","","","","",""
"","html-keyboard-response","342","1273903","0.0-182.0-1.0","null","<p></p>","null","","","","","","","","","","","","","","","","","","","","","","",""
"","do_trial","343","1278766","0.0-183.0-0.0","317.090000025928","","","","","","","","51","0,0,0","3","countryside","122","probe-100","0.5665310189008215","0.4632836425886132","0.3033079778633259","0","","","","","","","",""
"","html-keyboard-response","344","1279770","0.0-183.0-1.0","null","<p></p>","null","","","","","","","","","","","","","","","","","","","","","","",""
"","do_trial","345","1284785","0.0-184.0-0.0","469.38500000396743","","","","","","","","51","0,0,0","3","countryside","123","probe-212","0.4855885821763793","0.5873577205995882","0.15016991436251442","0","","","","","","","",""
"","html-keyboard-response","346","1285789","0.0-184.0-1.0","null","<p></p>","null","","","","","","","","","","","","","","","","","","","","","","",""
"","do_trial","347","1290713","0.0-185.0-0.0","374.2249999777414","","","","","","","","51","1,0,1","3","countryside","124","probe-20","0.36937012861957236","0.5706653453923471","0.09643092145594466","1","","","","","","","",""
"","html-keyboard-response","348","1291721","0.0-185.0-1.0","null","<p></p>","null","","","","","","","","","","","","","","","","","","","","","","",""
"","do_trial","349","1296807","0.0-186.0-0.0","519.7449999977835","","","","","","","","51","1,0,0","3","countryside","125","probe-05","0.25069654524213664","0.5288442382816758","0.19370984432896102","0","","","","","","","",""
"","html-keyboard-response","350","1297813","0.0-186.0-1.0","null","<p></p>","null","","","","","","","","","","","","","","","","","","","","","","",""
"","do_trial","351","1302844","0.0-187.0-0.0","480.64999998314306","","","","","","","","51","0,0,0","3","countryside","126","probe-136","0.297804435847723","0.5148377865448699","0.13067748719465128","0","","","","","","","",""
"","html-keyboard-response","352","1303850","0.0-187.0-1.0","null","<p></p>","null","","","","","","","","","","","","","","","","","","","","","","",""
"","do_trial","353","1308454","0.0-188.0-0.0","59.04500000178814","","","","","","","","49","0,0,0","3","countryside","127","probe-55","0.16151242462339332","0.6350071462728694","0.16295123279779625","0","","","","","","","",""
"","html-keyboard-response","354","1309459","0.0-188.0-1.0","null","<p></p>","null","","","","","","","","","","","","","","","","","","","","","","",""
"","do_trial","355","1314736","0.0-189.0-0.0","731.3949999806937","","","","","","","","50","1,1,1","3","countryside","128","probe-45","0.1877510633197563","0.6477710424452825","0.21239635597088366","1","","","","","","","",""
"","html-keyboard-response","356","1315738","0.0-189.0-1.0","null","<p></p>","null","","","","","","","","","","","","","","","","","","","","","","",""
"","do_trial","357","1321548","0.0-190.0-0.0","1263.2100000046194","","","","","","","","49","0,0,0","3","countryside","129","probe-195","0.23043145428952763","0.7586650790396106","0.12990166940278122","0","","","","","","","",""
"","html-keyboard-response","358","1322551","0.0-190.0-1.0","null","<p></p>","null","","","","","","","","","","","","","","","","","","","","","","",""
"","do_trial","359","1327577","0.0-191.0-0.0","480.3350000001956","","","","","","","","50","1,1,0","3","countryside","130","probe-15","0.2584919812342261","0.7038840257674202","0.08762288663671987","1","","","","","","","",""
"","html-keyboard-response","360","1328582","0.0-191.0-1.0","null","<p></p>","null","","","","","","","","","","","","","","","","","","","","","","",""
"","do_trial","361","1333484","0.0-192.0-0.0","356.1000000045169","","","","","","","","50","1,1,0","3","countryside","131","probe-167","0.32412032337872093","0.6641767664467797","0.060215747077494955","1","","","","","","","",""
"","html-keyboard-response","362","1334489","0.0-192.0-1.0","null","<p></p>","null","","","","","","","","","","","","","","","","","","","","","","",""
"","do_trial","363","1339348","0.0-193.0-0.0","312.0749999943655","","","","","","","","50","1,1,0","3","countryside","132","probe-149","0.2870977277837523","0.7773457963918625","0.21712791920677943","1","","","","","","","",""
"","html-keyboard-response","364","1340351","0.0-193.0-1.0","null","<p></p>","null","","","","","","","","","","","","","","","","","","","","","","",""
"","do_trial","365","1345227","0.0-194.0-0.0","326.81500000762753","","","","","","","","50","0,1,0","3","countryside","133","probe-101","0.33243599623834086","0.6185056678162059","0.15668043887980962","1","","","","","","","",""
"","html-keyboard-response","366","1346229","0.0-194.0-1.0","null","<p></p>","null","","","","","","","","","","","","","","","","","","","","","","",""
"","do_trial","367","1351084","0.0-195.0-0.0","306.2999999965541","","","","","","","","50","0,0,0","3","countryside","134","probe-22","0.3108978408064857","0.5303963112247532","0.2257263678027022","0","","","","","","","",""
"","html-keyboard-response","368","1352090","0.0-195.0-1.0","null","<p></p>","null","","","","","","","","","","","","","","","","","","","","","","",""
"","do_trial","369","1357044","0.0-196.0-0.0","406.3849999802187","","","","","","","","50","0,1,1","3","countryside","135","probe-174","0.4319830366642875","0.4940926591117179","0.27326854521471966","1","","","","","","","",""
"","html-keyboard-response","370","1358049","0.0-196.0-1.0","null","<p></p>","null","","","","","","","","","","","","","","","","","","","","","","",""
"","do_trial","371","1362870","0.0-197.0-0.0","275.0850000011269","","","","","","","","50","0,1,0","3","countryside","136","probe-73","0.3785488128545408","0.5781529956382218","0.16714755515306684","1","","","","","","","",""
"","html-keyboard-response","372","1363877","0.0-197.0-1.0","null","<p></p>","null","","","","","","","","","","","","","","","","","","","","","","",""
"","do_trial","373","1368733","0.0-198.0-0.0","308.80999998771586","","","","","","","","50","0,1,1","3","countryside","137","probe-190","0.3474726529979998","0.5058268233418586","0.15793670315824052","1","","","","","","","",""
"","html-keyboard-response","374","1369737","0.0-198.0-1.0","null","<p></p>","null","","","","","","","","","","","","","","","","","","","","","","",""
"","do_trial","375","1374685","0.0-199.0-0.0","398.07999998447485","","","","","","","","50","0,1,0","3","countryside","138","probe-131","0.35330061176894106","0.5507568484478264","0.09772065543322984","1","","","","","","","",""
"","html-keyboard-response","376","1375690","0.0-199.0-1.0","null","<p></p>","null","","","","","","","","","","","","","","","","","","","","","","",""
"","do_trial","377","1380743","0.0-200.0-0.0","505.4550000058953","","","","","","","","50","0,1,0","3","countryside","139","probe-183","0.4901144461573347","0.42838862732613064","0.051409586028621196","1","","","","","","","",""
"","html-keyboard-response","378","1381748","0.0-200.0-1.0","null","<p></p>","null","","","","","","","","","","","","","","","","","","","","","","",""
"","do_trial","379","1386664","0.0-201.0-0.0","370.5949999857694","","","","","","","","50","1,1,0","3","countryside","140","probe-60","0.2652566306591107","0.5389310951275538","0.13241585827052896","1","","","","","","","",""
"","html-keyboard-response","380","1387669","0.0-201.0-1.0","null","<p></p>","null","","","","","","","","","","","","","","","","","","","","","","",""
"","do_trial","381","1392727","0.0-202.0-0.0","508.8699999905657","","","","","","","","50","0,1,0","3","countryside","141","probe-128","0.3675820816633366","0.4317393542726593","0.06781681235981261","1","","","","","","","",""
"","html-keyboard-response","382","1393730","0.0-202.0-1.0","null","<p></p>","null","","","","","","","","","","","","","","","","","","","","","","",""
"","do_trial","383","1398746","0.0-203.0-0.0","467.9400000022724","","","","","","","","50","0,0,0","3","countryside","142","probe-78","0.35994397245173465","0.633303094472789","0.09017840652624746","0","","","","","","","",""
"","html-keyboard-response","384","1399751","0.0-203.0-1.0","null","<p></p>","null","","","","","","","","","","","","","","","","","","","","","","",""
"","do_trial","385","1404650","0.0-204.0-0.0","348.62999999313615","","","","","","","","51","0,0,1","3","countryside","143","probe-221","0.16128702153514737","0.5388440553040625","0.16643159006556751","1","","","","","","","",""
"","html-keyboard-response","386","1405652","0.0-204.0-1.0","null","<p></p>","null","","","","","","","","","","","","","","","","","","","","","","",""
"","do_trial","387","1410704","0.0-205.0-0.0","504.1950000158977","","","","","","","","51","0,0,0","3","countryside","144","probe-91","0.26498913761449994","0.5106513255538032","0.2781176996625063","0","","","","","","","",""
"","html-keyboard-response","388","1411706","0.0-205.0-1.0","null","<p></p>","null","","","","","","","","","","","","","","","","","","","","","","",""
"","do_trial","389","1416543","0.0-206.0-0.0","288.6500000022352","","","","","","","","51","0,0,0","3","countryside","145","probe-27","0.2840830071081771","0.6248796030703343","0.11005679526379669","0","","","","","","","",""
"","html-keyboard-response","390","1417545","0.0-206.0-1.0","null","<p></p>","null","","","","","","","","","","","","","","","","","","","","","","",""
"","do_trial","391","1422432","0.0-207.0-0.0","340.1050000102259","","","","","","","","49","0,1,0","3","countryside","146","probe-52","0.31932675367740104","0.6780080488989729","0.06431315225206917","0","","","","","","","",""
"","html-keyboard-response","392","1423435","0.0-207.0-1.0","null","<p></p>","null","","","","","","","","","","","","","","","","","","","","","","",""
"","do_trial","393","1428486","0.0-208.0-0.0","501.3250000192784","","","","","","","","49","1,1,0","3","countryside","147","probe-51","0.38675160395609864","0.8820834339427908","0.073462132360533","1","","","","","","","",""
"","html-keyboard-response","394","1429489","0.0-208.0-1.0","null","<p></p>","null","","","","","","","","","","","","","","","","","","","","","","",""
"","do_trial","395","1434591","0.0-209.0-0.0","554.680000001099","","","","","","","","49","1,1,0","3","countryside","148","probe-223","0.3897525907589951","0.7400696760082315","0.06903306859211496","1","","","","","","","",""
"","html-keyboard-response","396","1435595","0.0-209.0-1.0","null","<p></p>","null","","","","","","","","","","","","","","","","","","","","","","",""
"","do_trial","397","1440416","0.0-210.0-0.0","273.8649999955669","","","","","","","","49","0,1,0","3","countryside","149","probe-28","0.35617827496663884","0.7168838414895439","0.1846514249614082","0","","","","","","","",""
"","html-keyboard-response","398","1441419","0.0-210.0-1.0","null","<p></p>","null","","","","","","","","","","","","","","","","","","","","","","",""
"","do_bye","399","1442924","0.0-211.0-0.0","null","","","","","","","","null","","","","","","","","","","","","","","","","",""
"","do_travel","400","1448929","0.0-212.0-0.0","null","","","","","","","","null","","","","","","","","","","","","","","","","",""
"","do_welcome","401","1450438","0.0-212.0-1.0","null","","","","","","","","null","","","","","","","","","","","","","","","","",""
"","do_trial","402","1455634","0.0-213.0-0.0","648.8649999955669","","","","","","","","49","0,1,0","4","forest","150","probe-113","0.28947092234865757","1","0.06286432648316856","0","","","","","","","",""
"","html-keyboard-response","403","1456639","0.0-213.0-1.0","null","<p></p>","null","","","","","","","","","","","","","","","","","","","","","","",""
"","do_trial","404","1461505","0.0-214.0-0.0","318.33999999798834","","","","","","","","51","1,1,0","4","forest","151","probe-125","0.3268915518538735","1","0.0888048856278084","0","","","","","","","",""
"","html-keyboard-response","405","1462509","0.0-214.0-1.0","null","<p></p>","null","","","","","","","","","","","","","","","","","","","","","","",""
"","do_trial","406","1467394","0.0-215.0-0.0","336.81999999680556","","","","","","","","50","0,1,1","4","forest","152","probe-39","0.34383352905930936","0.9147604632651654","0.06682583768478229","1","","","","","","","",""
"","html-keyboard-response","407","1468401","0.0-215.0-1.0","null","<p></p>","null","","","","","","","","","","","","","","","","","","","","","","",""
"","do_trial","408","1473242","0.0-216.0-0.0","293.94000000320375","","","","","","","","50","0,1,0","4","forest","153","probe-200","0.3187225421081062","0.822076176326369","0.13292545756778806","1","","","","","","","",""
"","html-keyboard-response","409","1474244","0.0-216.0-1.0","null","<p></p>","null","","","","","","","","","","","","","","","","","","","","","","",""
"","do_trial","410","1479099","0.0-217.0-0.0","307.570000004489","","","","","","","","50","0,0,0","4","forest","154","probe-182","0.3090217411287992","0.683221878494806","0.16375043042488074","0","","","","","","","",""
"","html-keyboard-response","411","1480103","0.0-217.0-1.0","null","<p></p>","null","","","","","","","","","","","","","","","","","","","","","","",""
"","do_trial","412","1485144","0.0-218.0-0.0","491.3499999966007","","","","","","","","50","0,1,0","4","forest","155","probe-77","0.4033845133500146","0.6985911067630255","0.10804009238623496","1","","","","","","","",""
"","html-keyboard-response","413","1486147","0.0-218.0-1.0","null","<p></p>","null","","","","","","","","","","","","","","","","","","","","","","",""
"","do_trial","414","1491267","0.0-219.0-0.0","574.2549999849871","","","","","","","","50","1,0,0","4","forest","156","probe-193","0.383191390167811","0.7033259605874282","0.08601157225025055","0","","","","","","","",""
"","html-keyboard-response","415","1492269","0.0-219.0-1.0","null","<p></p>","null","","","","","","","","","","","","","","","","","","","","","","",""
"","do_trial","416","1497198","0.0-220.0-0.0","382.065000012517","","","","","","","","50","1,1,0","4","forest","157","probe-159","0.45485491227498337","0.6850429019318756","0.05427257638871115","1","","","","","","","",""
"","html-keyboard-response","417","1498202","0.0-220.0-1.0","null","<p></p>","null","","","","","","","","","","","","","","","","","","","","","","",""
"","do_trial","418","1503186","0.0-221.0-0.0","433.19000001065433","","","","","","","","50","1,1,0","4","forest","158","probe-92","0.45882054141216244","0.639477330338472","0.09573143451735047","1","","","","","","","",""
"","html-keyboard-response","419","1504191","0.0-221.0-1.0","null","<p></p>","null","","","","","","","","","","","","","","","","","","","","","","",""
"","do_trial","420","1509074","0.0-222.0-0.0","338.57500000158325","","","","","","","","50","1,1,0","4","forest","159","probe-153","0.4668565647601458","0.6876671114656127","0.18291367641544307","1","","","","","","","",""
"","html-keyboard-response","421","1510078","0.0-222.0-1.0","null","<p></p>","null","","","","","","","","","","","","","","","","","","","","","","",""
"","do_trial","422","1514914","0.0-223.0-0.0","291.60500000580214","","","","","","","","50","1,0,0","4","forest","160","probe-57","0.39904005043013996","0.6933410264290544","0.17227746869012495","0","","","","","","","",""
"","html-keyboard-response","423","1515917","0.0-223.0-1.0","null","<p></p>","null","","","","","","","","","","","","","","","","","","","","","","",""
"","do_trial","424","1520671","0.0-224.0-0.0","206.52500001597218","","","","","","","","51","0,0,0","4","forest","161","probe-160","0.25640237488234013","0.5833940197064239","0.20103656975645737","0","","","","","","","",""
"","html-keyboard-response","425","1521674","0.0-224.0-1.0","null","<p></p>","null","","","","","","","","","","","","","","","","","","","","","","",""
"","do_trial","426","1526486","0.0-225.0-0.0","262.9949999973178","","","","","","","","49","1,1,0","4","forest","162","probe-148","0.450669855494469","0.47782115653565516","0.23465829694109533","1","","","","","","","",""
"","html-keyboard-response","427","1527493","0.0-225.0-1.0","null","<p></p>","null","","","","","","","","","","","","","","","","","","","","","","",""
"","do_trial","428","1532616","0.0-226.0-0.0","574.3800000054762","","","","","","","","49","0,0,0","4","forest","163","probe-17","0.5155527067166567","0.43201154708631834","0.21486532493739213","0","","","","","","","",""
"","html-keyboard-response","429","1533620","0.0-226.0-1.0","null","<p></p>","null","","","","","","","","","","","","","","","","","","","","","","",""
"","do_trial","430","1538457","0.0-227.0-0.0","287.320000003092","","","","","","","","49","1,0,0","4","forest","164","probe-228","0.36062999052499706","0.34849721758485885","0.24441399356198432","1","","","","","","","",""
"","html-keyboard-response","431","1539461","0.0-227.0-1.0","null","<p></p>","null","","","","","","","","","","","","","","","","","","","","","","",""
"","do_trial","432","1544484","0.0-228.0-0.0","476.3800000073388","","","","","","","","49","0,1,0","4","forest","165","probe-202","0.3656657038279035","0.391756178573027","0.2653814824383522","0","","","","","","","",""
"","html-keyboard-response","433","1545490","0.0-228.0-1.0","null","<p></p>","null","","","","","","","","","","","","","","","","","","","","","","",""
"","do_trial","434","1550437","0.0-229.0-0.0","397.54000000539236","","","","","","","","49","1,0,0","4","forest","166","probe-62","0.3495719345719231","0.40262226888054004","0.24473779469016202","1","","","","","","","",""
"","html-keyboard-response","435","1551442","0.0-229.0-1.0","null","<p></p>","null","","","","","","","","","","","","","","","","","","","","","","",""
"","do_trial","436","1556713","0.0-230.0-0.0","720.6650000007357","","","","","","","","49","0,0,0","4","forest","167","probe-08","0.37550636277655647","0.3764354333569831","0.1862746217650206","0","","","","","","","",""
"","html-keyboard-response","437","1557719","0.0-230.0-1.0","null","<p></p>","null","","","","","","","","","","","","","","","","","","","","","","",""
"","do_trial","438","1562756","0.0-231.0-0.0","487.6399999775458","","","","","","","","49","0,0,1","4","forest","168","probe-192","0.4594441789761114","0.332004402196622","0.26368328969359683","0","","","","","","","",""
"","html-keyboard-response","439","1563760","0.0-231.0-1.0","null","<p></p>","null","","","","","","","","","","","","","","","","","","","","","","",""
"","do_trial","440","1568649","0.0-232.0-0.0","344.37499998603016","","","","","","","","49","1,0,0","4","forest","169","probe-188","0.4449555949426258","0.290095055004371","0.21714344643216837","1","","","","","","","",""
"","html-keyboard-response","441","1569656","0.0-232.0-1.0","null","<p></p>","null","","","","","","","","","","","","","","","","","","","","","","",""
"","do_trial","442","1574586","0.0-233.0-0.0","383.36000000708736","","","","","","","","49","1,0,0","4","forest","170","probe-90","0.5931613023539896","0.1947402851284261","0.14137645918655387","1","","","","","","","",""
"","html-keyboard-response","443","1575588","0.0-233.0-1.0","null","<p></p>","null","","","","","","","","","","","","","","","","","","","","","","",""
"","do_trial","444","1580298","0.0-234.0-0.0","163.83499998482876","","","","","","","","49","1,0,1","4","forest","171","probe-109","0.5251171578291133","0.1789644014561584","0.28325083839616577","1","","","","","","","",""
"","html-keyboard-response","445","1581304","0.0-234.0-1.0","null","<p></p>","null","","","","","","","","","","","","","","","","","","","","","","",""
"","do_trial","446","1586277","0.0-235.0-0.0","425.6300000124611","","","","","","","","49","1,0,0","4","forest","172","probe-43","0.5624333758174698","0.30621635936928365","0.21996965645077837","1","","","","","","","",""
"","html-keyboard-response","447","1587281","0.0-235.0-1.0","null","<p></p>","null","","","","","","","","","","","","","","","","","","","","","","",""
"","do_trial","448","1592216","0.0-236.0-0.0","388.87999998405576","","","","","","","","49","0,0,0","4","forest","173","probe-132","0.5895987008502404","0.23684848772010267","0.14140575910068276","0","","","","","","","",""
"","html-keyboard-response","449","1593218","0.0-236.0-1.0","null","<p></p>","null","","","","","","","","","","","","","","","","","","","","","","",""
"","do_trial","450","1598803","0.0-237.0-0.0","1036.389999993844","","","","","","","","49","1,0,0","4","forest","174","probe-102","0.4806526516844585","0.1530778971362167","0.23544178755622436","1","","","","","","","",""
"","html-keyboard-response","451","1599806","0.0-237.0-1.0","null","<p></p>","null","","","","","","","","","","","","","","","","","","","","","","",""
"","do_trial","452","1604979","0.0-238.0-0.0","623.6499999940861","","","","","","","","49","1,0,1","4","forest","175","probe-216","0.5298625761596135","0.18840216270251295","0.37021629584622895","1","","","","","","","",""
"","html-keyboard-response","453","1605983","0.0-238.0-1.0","null","<p></p>","null","","","","","","","","","","","","","","","","","","","","","","",""
"","do_trial","454","1611186","0.0-239.0-0.0","653.9749999938067","","","","","","","","49","0,0,0","4","forest","176","probe-34","0.5541397006205719","0.18464615563073433","0.32112403305706905","0","","","","","","","",""
"","html-keyboard-response","455","1612187","0.0-239.0-1.0","null","<p></p>","null","","","","","","","","","","","","","","","","","","","","","","",""
"","do_trial","456","1617426","0.0-240.0-0.0","696.0350000008475","","","","","","","","49","0,0,0","4","forest","177","probe-32","0.4349929020141633","0.20904172748418398","0.21526581702035205","0","","","","","","","",""
"","html-keyboard-response","457","1618431","0.0-240.0-1.0","null","<p></p>","null","","","","","","","","","","","","","","","","","","","","","","",""
"","do_trial","458","1624313","0.0-241.0-0.0","1337.4100000073668","","","","","","","","49","0,0,1","4","forest","178","probe-197","0.43174809944277215","0.2102029119213874","0.2917400118140424","0","","","","","","","",""
"","html-keyboard-response","459","1625317","0.0-241.0-1.0","null","<p></p>","null","","","","","","","","","","","","","","","","","","","","","","",""
"","do_trial","460","1630552","0.0-242.0-0.0","686.0699999961071","","","","","","","","50","1,0,0","4","forest","179","probe-108","0.6351527740353685","0.11208633944989206","0.29440536364725145","0","","","","","","","",""
"","html-keyboard-response","461","1631553","0.0-242.0-1.0","null","<p></p>","null","","","","","","","","","","","","","","","","","","","","","","",""
"","do_trial","462","1636521","0.0-243.0-0.0","420.68000001017936","","","","","","","","51","0,0,0","4","forest","180","probe-143","0.5829122852744018","0.10681010584061928","0.3511474519691213","0","","","","","","","",""
"","html-keyboard-response","463","1637523","0.0-243.0-1.0","null","<p></p>","null","","","","","","","","","","","","","","","","","","","","","","",""
"","do_trial","464","1642392","0.0-244.0-0.0","320.0850000139326","","","","","","","","49","1,0,0","4","forest","181","probe-47","0.5202008813827513","0.09585271275824908","0.28412510609691927","1","","","","","","","",""
"","html-keyboard-response","465","1643397","0.0-244.0-1.0","null","<p></p>","null","","","","","","","","","","","","","","","","","","","","","","",""
"","do_trial","466","1648312","0.0-245.0-0.0","367.5999999977648","","","","","","","","49","0,0,0","4","forest","182","probe-61","0.4936943510216874","0.06324390405331627","0.23095494946843448","0","","","","","","","",""
"","html-keyboard-response","467","1649316","0.0-245.0-1.0","null","<p></p>","null","","","","","","","","","","","","","","","","","","","","","","",""
"","do_trial","468","1654316","0.0-246.0-0.0","447.78499999665655","","","","","","","","49","1,0,0","4","forest","183","probe-198","0.49177102285128466","0.09289418023166449","0.2593979815288771","1","","","","","","","",""
"","html-keyboard-response","469","1655321","0.0-246.0-1.0","null","<p></p>","null","","","","","","","","","","","","","","","","","","","","","","",""
"","do_trial","470","1660202","0.0-247.0-0.0","333.64999998593703","","","","","","","","49","1,0,0","4","forest","184","probe-80","0.45180038586252813","0.0878595754211877","0.09493226218508945","1","","","","","","","",""
"","html-keyboard-response","471","1661206","0.0-247.0-1.0","null","<p></p>","null","","","","","","","","","","","","","","","","","","","","","","",""
"","do_trial","472","1666004","0.0-248.0-0.0","250.60500000836328","","","","","","","","49","0,0,0","4","forest","185","probe-103","0.42285661387621587","0.15499982840008","0.27099718909651677","0","","","","","","","",""
