"success","trial_type","trial_index","time_elapsed","internal_node_id","rt","stimulus","key_press","subject_id","participant_id","age","gender","prompt","response","choice_outcomes","context_n","context_img_id","trial_n","probe_img_id","pR_red","pR_white","pR_black","outcome","contextArray_ind","validImageProbes","invalidImageProbes","pRew_Red","pRew_White","pRew_Black","availableForMemProbe","choice_blocks"
"true","fullscreen","0","5996","0.0-0.0","","","","","","","","","","","","","","","","","","","","","","","","","",""
"","pavlovia","1","6002","0.0-1.0","","","","","","","","","","","","","","","","","","","","","","","","","",""
"","instruc1","2","57486","0.0-2.0","null","run_exp/static/audio/clip_1_welcome.m4a","null","112","704","11","Male","<div class='center'><p>Welcome! This is the first part of the experiment. It will last ~30 minutes. In this experiment, you are the head captain of a pirate ship traveling around the world to different islands. You will play a few different games during this experiment. Here is an overview of these games:</p><br><p>Part 1 (today)</p><p>1. Instructions, practice game, and quiz</p><p>2. Pick a pirate game on 6 different islands</p><br><p>Part 2 (1 day later)</p><p>3. Pick a pirate game and memory game</p><p>4. Where did I see this ship? game</p><p>5. Which pirate was the best? game</p><br><p>Part 3 (1 week later)</p><p>6. Memory game</p></div>","","","","","","","","","","","","","","","","","",""
"","html-keyboard-response","3","59731","0.0-3.0","2242.7999999523163","<div class='center'><p>Welcome! This is the first part of the experiment. It will last ~30 minutes. In this experiment, you are the head captain of a pirate ship traveling around the world to different islands. You will play a few different games during this experiment. Here is an overview of these games:</p><br><p>Part 1 (today)</p><p>1. Instructions, practice game, and quiz</p><p>2. Pick a pirate game on 6 different islands</p><br><p>Part 2 (1 day later)</p><p>3. Pick a pirate game and memory game</p><p>4. Where did I see this ship? game</p><p>5. Which pirate was the best? game</p><br><p>Part 3 (1 week later)</p><p>6. Memory game</p><p><b>[Press the space bar to continue]</b></p></div>","32","","","","","","","","","","","","","","","","","","","","","","",""
"","instruc2","4","67745","0.0-4.0","null","run_exp/static/audio/clip_2_different_places.m4a","null","","","","","<div class='center'><p>Today, you’ll visit these 6 islands on your journey. You'll be able to see these islands from your ship.</p><p><img src='run_exp/static/images/contexts/all_contexts.png' height='500'></p></div>","","","","","","","","","","","","","","","","","",""
"","html-keyboard-response","5","69030","0.0-5.0","1282.5999999046326","<div class='center'><p>Today, you’ll visit these 6 islands on your journey. You'll be able to see these islands from your ship.</p><p><img src='run_exp/static/images/contexts/all_contexts.png' height='500'></p><p><b>[Press the space bar to continue]</b></p></div>","32","","","","","","","","","","","","","","","","","","","","","","",""
"","instruc3","6","81626","0.0-6.0","null","run_exp/static/audio/clip_3_goal_of_game_1.m4a","null","","","","","<div class='center'><p> The pirates on your ship will rob other ships as they leave the island</p> These ships have just sold their things to people on the island, so they will be filled with lots and lots of gold.</p><p><img src='run_exp/static/images/tutorial/ship_center.png' height='400'></p></div>","","","","","","","","","","","","","","","","","",""
"","html-keyboard-response","7","83635","0.0-7.0","2008","<div class='center'><p> The pirates on your ship will rob other ships as they leave the island</p> These ships have just sold their things to people on the island, so they will be filled with lots and lots of gold.</p><p><img src='run_exp/static/images/tutorial/ship_center.png' height='400'></p><p><b>[Press the space bar to continue]</b></p></div>","32","","","","","","","","","","","","","","","","","","","","","","",""
"","instruc4","8","116865","0.0-8.0","null","run_exp/static/audio/clip_4_goal_of_game_2.m4a","null","","","","","<div class='center'><p>As the head captain, you do not have to rob any ships yourself.</p><p>Another pirate will be doing the robbing for you. </p><p>First, you will  choose a pirate to rob the next ship.</p><p><img src='run_exp/static/images/tutorial/pirates_all_crop.png' height='200'></p><p>Then, you'll see if the pirate successfully robbed the ship of their gold. If they were successful, then you'll  get a stack of gold coins like this:</p><p><img src='run_exp/static/images/tutorial/reward.png' height='150'></p><p> If they were <b>not</b> successful, then you'll get no gold coins, and you'll see a big red x like this: </p><p><img src='run_exp/static/images/tutorial/reward_no.png' height='150'></p><p> How much bonus money you make is based on how many gold coins you collect.</p><div>","","","","","","","","","","","","","","","","","",""
"","html-keyboard-response","9","119752","0.0-9.0","2884","<div class='center'><p>As the head captain, you do not have to rob any ships yourself.</p><p>Another pirate will be doing the robbing for you. </p><p>First, you will  choose a pirate to rob the next ship.</p><p><img src='run_exp/static/images/tutorial/pirates_all_crop.png' height='200'></p><p>Then, you'll see if the pirate successfully robbed the ship of their gold. If they were successful, then you'll  get a stack of gold coins like this:</p><p><img src='run_exp/static/images/tutorial/reward.png' height='150'></p><p> If they were <b>not</b> successful, then you'll get no gold coins, and you'll see a big red x like this: </p><p><img src='run_exp/static/images/tutorial/reward_no.png' height='150'></p><p> How much bonus money you make is based on how many gold coins you collect.</p<p><b>[Press the space bar to continue]</b></p></div>","32","","","","","","","","","","","","","","","","","","","","","","",""
"","instruc5","10","146877","0.0-10.0","27123.699999928474","run_exp/static/audio/clip_5_probabilistic.m4a","49","","","","","<div class='center'><p>Even the most skilled pirate can not rob EVERY ship.</p><p> Some ships will have very strong protections against pirate attacks.</p><p> Blue beard, here, is very, very good at robbing ships, but he won't be successful every time he tries to rob one.</p><p> You can press the <b>‘1’</b> key on the keyboard to choose him.</p><p> Try choosing him 10 times to see how often he succeeds at robbing a ship. </p><p><img src='run_exp/static/images/tutorial/blue.png' height='500'></p></div>","","","","","","","","","","","","","","","","","",""
"","html-keyboard-response","11","148384","0.0-11.0","null","<div class='center'><p><img src='run_exp/static/images/tutorial/blue_win.png' height='500'></p></div>","null","","","","","","","","","","","","","","","","","","","","","","",""
"","html-keyboard-response","12","148855","0.0-12.0","469.89999997615814","<div class='center'><img src='run_exp/static/images/tutorial/blue.png' height='500'></p></div>","49","","","","","","","","","","","","","","","","","","","","","","",""
"","html-keyboard-response","13","150364","0.0-13.0","null","<div class='center'><p><img src='run_exp/static/images/tutorial/blue_win.png' height='500'></p></div>","null","","","","","","","","","","","","","","","","","","","","","","",""
"","html-keyboard-response","14","150656","0.0-14.0","290.39999997615814","<div class='center'><img src='run_exp/static/images/tutorial/blue.png' height='500'></p></div>","49","","","","","","","","","","","","","","","","","","","","","","",""
"","html-keyboard-response","15","152164","0.0-15.0","null","<div class='center'><p><img src='run_exp/static/images/tutorial/blue_win.png' height='500'></p></div>","null","","","","","","","","","","","","","","","","","","","","","","",""
"","html-keyboard-response","16","152256","0.0-16.0","90.5","<div class='center'><img src='run_exp/static/images/tutorial/blue.png' height='500'></p></div>","49","","","","","","","","","","","","","","","","","","","","","","",""
"","html-keyboard-response","17","153764","0.0-17.0","null","<div class='center'><p><img src='run_exp/static/images/tutorial/blue_no_win.png' height='500'></p></div>","null","","","","","","","","","","","","","","","","","","","","","","",""
"","html-keyboard-response","18","154129","0.0-18.0","363.7000000476837","<div class='center'><img src='run_exp/static/images/tutorial/blue.png' height='500'></p></div>","49","","","","","","","","","","","","","","","","","","","","","","",""
"","html-keyboard-response","19","155634","0.0-19.0","null","<div class='center'><p><img src='run_exp/static/images/tutorial/blue_win.png' height='500'></p></div>","null","","","","","","","","","","","","","","","","","","","","","","",""
"","html-keyboard-response","20","156179","0.0-20.0","543.3999999761581","<div class='center'><img src='run_exp/static/images/tutorial/blue.png' height='500'></p></div>","49","","","","","","","","","","","","","","","","","","","","","","",""
"","html-keyboard-response","21","157688","0.0-21.0","null","<div class='center'><p><img src='run_exp/static/images/tutorial/blue_win.png' height='500'></p></div>","null","","","","","","","","","","","","","","","","","","","","","","",""
"","html-keyboard-response","22","158103","0.0-22.0","413.60000002384186","<div class='center'><img src='run_exp/static/images/tutorial/blue.png' height='500'></p></div>","49","","","","","","","","","","","","","","","","","","","","","","",""
"","html-keyboard-response","23","159612","0.0-23.0","null","<div class='center'><p><img src='run_exp/static/images/tutorial/blue_win.png' height='500'></p></div>","null","","","","","","","","","","","","","","","","","","","","","","",""
"","html-keyboard-response","24","159961","0.0-24.0","347.60000002384186","<div class='center'><img src='run_exp/static/images/tutorial/blue.png' height='500'></p></div>","49","","","","","","","","","","","","","","","","","","","","","","",""
"","html-keyboard-response","25","161463","0.0-25.0","null","<div class='center'><p><img src='run_exp/static/images/tutorial/blue_no_win.png' height='500'></p></div>","null","","","","","","","","","","","","","","","","","","","","","","",""
"","html-keyboard-response","26","161809","0.0-26.0","344.8000000715256","<div class='center'><img src='run_exp/static/images/tutorial/blue.png' height='500'></p></div>","49","","","","","","","","","","","","","","","","","","","","","","",""
"","html-keyboard-response","27","163318","0.0-27.0","null","<div class='center'><p><img src='run_exp/static/images/tutorial/blue_win.png' height='500'></p></div>","null","","","","","","","","","","","","","","","","","","","","","","",""
"","html-keyboard-response","28","163677","0.0-28.0","357.90000009536743","<div class='center'><img src='run_exp/static/images/tutorial/blue.png' height='500'></p></div>","49","","","","","","","","","","","","","","","","","","","","","","",""
"","html-keyboard-response","29","165188","0.0-29.0","null","<div class='center'><p><img src='run_exp/static/images/tutorial/blue_win.png' height='500'></p></div>","null","","","","","","","","","","","","","","","","","","","","","","",""
"","instruc6","30","172187","0.0-30.0","null","run_exp/static/audio/clip_6_blue_beard_outcome.m4a","null","","","","","<div class='center'><p> See, he succeeded in robbing the ships most of the time but not every time. </p></div>","","","","","","","","","","","","","","","","","",""
"","html-keyboard-response","31","174238","0.0-31.0","2049.7000000476837","<div class='center'><p> See, he succeeded in robbing the ships most of the time but not every time. </p><p><b>[Press the space bar to continue]</b></p></div>","32","","","","","","","","","","","","","","","","","","","","","","",""
"","audio-keyboard-response","32","183358","0.0-32.0","9117.600000023842","run_exp/static/audio/clip_7_pick_pirate.m4a","51","","","","","","","","","","","","","","","","","","","","","","",""
"","audio-keyboard-response","33","187580","0.0-33.0-0.0","4218.299999952316","run_exp/static/audio/clip_8_chosen_pirate_win.m4a","32","","","","","","","","","","","","","","","","","","","","","","",""
"","audio-keyboard-response","34","190342","0.0-33.0-1.0","2760.899999976158","run_exp/static/audio/clip_9_pick_a_pirate_again.m4a","49","","","","","","","","","","","","","","","","","","","","","","",""
"","audio-keyboard-response","35","192529","0.0-34.0-0.0","2184.6999999284744","run_exp/static/audio/clip_10_chosen_pirate_loss.m4a","32","","","","","","","","","","","","","","","","","","","","","","",""
"","instruc9","36","199709","0.0-35.0-0.0","null","run_exp/static/audio/clip_11_time_out.m4a","null","","","","","<div class='center'><p>If you don’t make your choice fast enough, you’ll have to wait a few seconds before you can make another one. </p><p><img src='run_exp/static/images/miscellaneous/hurry_up.png' height='500'></p></div>","","","","","","","","","","","","","","","","","",""
"","html-keyboard-response","37","200701","0.0-35.0-1.0","990.6000000238419","<div class='center'><p>If you don’t make your choice fast enough, you’ll have to wait a few seconds before you can make another one. </p><p><img src='run_exp/static/images/miscellaneous/hurry_up.png' height='500'></p><p><b>[Press the space bar to continue]</b></p></div>","32","","","","","","","","","","","","","","","","","","","","","","",""
"","instruc10","38","249328","0.0-35.0-2.0","null","run_exp/static/audio/clip_12_probe.m4a","null","","","","","<div class='center'><p>Once you've choose a pirate, you’ll be shown the ship they are robbing.</p><p>You will never rob the same ship twice. After all, ships that have already been robbed won’t have gold on them. </p><p>Ships can be told apart from one another by the image on them. See, this one has a travel mug on it. </p><p> You’ll have to remember which island you saw each ship on.You will win more bonus money if you remember correctly! To help you remember, you can imagine a story. For example, here, you could imagine a mug full of water in the desert. Or, as another example, if on the forest island, your pirate robbed a ship with an apple on it, you could imagine an apple falling from a tree in the forest. </p><p><img src='run_exp/static/images/tutorial/example_probe.png' height='500'></p></div>","","","","","","","","","","","","","","","","","",""
"","html-keyboard-response","39","254452","0.0-35.0-3.0","5122.899999976158","<div class='center'><p>Once you've choose a pirate, you’ll be shown the ship they are robbing.</p><p>You will never rob the same ship twice. After all, ships that have already been robbed won’t have gold on them. </p><p>Ships can be told apart from one another by the image on them. See, this one has a travel mug on it. </p><p> You’ll have to remember which island you saw each ship on.You will win more bonus money if you remember correctly! To help you remember, you can imagine a story. For example, here, you could imagine a mug full of water in the desert. Or, as another example, if on the forest island, your pirate robbed a ship with an apple on it, you could imagine an apple falling from a tree in the forest. </p><p><img src='run_exp/static/images/tutorial/example_probe.png' height='500'></p><p><b>[Press the space bar to continue]</b></p></div>","32","","","","","","","","","","","","","","","","","","","","","","",""
"","instruc11","40","275367","0.0-35.0-4.0","null","run_exp/static/audio/clip_13_changepoint.m4a","null","","","","","<div class='center'><p>How successful a pirate is at robbing ships will depend on the island you’re on.</p><p> A pirate may have visited this island many times before and gained a lot of practice robbing ships there.</p><p>So, they’re more likely to be successful than a pirate who has never visited the island before.</p></div>","","","","","","","","","","","","","","","","","",""
"","html-keyboard-response","41","295517","0.0-35.0-5.0","20149.299999952316","<div class='center'><p>How successful a pirate is at robbing ships will depend on the island you’re on.</p><p> A pirate may have visited this island many times before and gained a lot of practice robbing ships there.</p><p>So, they’re more likely to be successful than a pirate who has never visited the island before.</p><p><b>[Press the space bar to continue]</b></p></div>","32","","","","","","","","","","","","","","","","","","","","","","",""
"","instruc12","42","323798","0.0-35.0-6.0","null","run_exp/static/audio/clip_14_drift.m4a","null","","","","","<div class='center'><p>How successful a pirate is at robbing ships can also change over the time spent on the island. </p><p> Ships may hear from islanders about the pirates coming and will improve their protections against the attack. This may make it harder to rob them.</p><p> Ships may also become lazy and weaken the strength of their protections. This may make it easier to rob them.</p><br><p>Things are always changing on the high seas! So, try your best to pay attention!</p><p><img src='run_exp/static/images/tutorial/contingency.png' height='500'></p></div>","","","","","","","","","","","","","","","","","",""
"","html-keyboard-response","43","325203","0.0-35.0-7.0","1402.8999999761581","<div class='center'><p>How successful a pirate is at robbing ships can also change over the time spent on the island. </p><p> Ships may hear from islanders about the pirates coming and will improve their protections against the attack. This may make it harder to rob them.</p><p> Ships may also become lazy and weaken the strength of their protections. This may make it easier to rob them.</p><br><p>Things are always changing on the high seas! So, try your best to pay attention!</p><p><img src='run_exp/static/images/tutorial/contingency.png' height='500'></p><p><b>[Press the space bar to continue]</b></p></div>","32","","","","","","","","","","","","","","","","","","","","","","",""
"","instruc13","44","370418","0.0-35.0-8.0","null","run_exp/static/audio/clip_15_summary.m4a","null","","","","","<div class='center'><p>Let's go over the instructions quickly again. You have two important things to do: </p><b><p> 1. Pick the pirate who is the best at robbing ships on the current island. This way you'll collect more gold coins!</p></b><b><p> 2. Remember on which island a ship was robbed.</p> </b><p>The amount of bonus money you can win depends on both.</p><p><br><p>Let’s try a practice game. The game will start by showing you the pirates. First, pick a pirate using the <b> 1, 2, 3 </b> keys on your keyboard. When you are shown a ship, try to remember which island you’re on by making up a story.</p><p>This is just a practice game, so you’re not playing for money. </p><p> Good luck! This game will be very difficult but try your best!</p></div>","","","","","","","","","","","","","","","","","",""
"","html-keyboard-response","45","370935","0.0-35.0-9.0","514.8999999761581","<div class='center'><p>Let's go over the instructions quickly again. You have two important things to do: </p><b><p> 1. Pick the pirate who is the best at robbing ships on the current island. This way you'll collect more gold coins!</p></b><b><p> 2. Remember on which island a ship was robbed.</p> </b><p>The amount of bonus money you can win depends on both.</p><p><br><p>Let’s try a practice game. The game will start by showing you the pirates. First, pick a pirate using the <b> 1, 2, 3 </b> keys on your keyboard. When you are shown a ship, try to remember which island you’re on by making up a story.</p><p>This is just a practice game, so you’re not playing for money. </p><p> Good luck! This game will be very difficult but try your best!</p><p><b>[Press the space bar to continue]</b></p></div>","32","","","","","","","","","","","","","","","","","","","","","","",""
"","do_welcome","46","374947","0.0-35.0-10.0","null","","","","","","","","null","","","","","","","","","","","","","","","","",""
"","do_trial","47","380976","0.0-35.0-11.0","null","","","","","","","","null","1,0,0","","","","","","","","","","","","","","","",""
"","html-keyboard-response","48","381996","0.0-36.0-0.0","null","<p></p>","null","","","","","","","","","","","","","","","","","","","","","","",""
"","do_trial","49","387584","0.0-36.0-1.0","1072.6000000238419","","","","","","","","50","1,0,0","","","","","","","","","","","","","","","",""
"","html-keyboard-response","50","388595","0.0-37.0-0.0","null","<p></p>","null","","","","","","","","","","","","","","","","","","","","","","",""
"","do_trial","51","394667","0.0-37.0-1.0","1563.5","","","","","","","","49","1,1,0","","","","","","","","","","","","","","","",""
"","html-keyboard-response","52","395669","0.0-38.0-0.0","null","<p></p>","null","","","","","","","","","","","","","","","","","","","","","","",""
"","do_trial","53","400708","0.0-38.0-1.0","524.3999999761581","","","","","","","","51","1,0,1","","","","","","","","","","","","","","","",""
"","html-keyboard-response","54","401718","0.0-39.0-0.0","null","<p></p>","null","","","","","","","","","","","","","","","","","","","","","","",""
"","do_trial","55","407415","0.0-39.0-1.0","1183","","","","","","","","50","0,1,0","","","","","","","","","","","","","","","",""
"","html-keyboard-response","56","408430","0.0-40.0-0.0","null","<p></p>","null","","","","","","","","","","","","","","","","","","","","","","",""
"","do_trial","57","413359","0.0-40.0-1.0","415.10000002384186","","","","","","","","49","1,0,0","","","","","","","","","","","","","","","",""
"","do_bye","58","414867","0.0-41.0-0.0","null","","","","","","","","null","","","","","","","","","","","","","","","","",""
"","do_travel","59","423872","0.0-41.0-1.0","null","","","","","","","","null","","","","","","","","","","","","","","","","",""
"","do_welcome","60","427897","0.0-41.0-2.0","null","","","","","","","","null","","","","","","","","","","","","","","","","",""
"","do_trial","61","433716","0.0-41.0-3.0","1301.6000000238419","","","","","","","","49","1,0,0","","","","","","","","","","","","","","","",""
"","html-keyboard-response","62","434726","0.0-42.0-0.0","null","<p></p>","null","","","","","","","","","","","","","","","","","","","","","","",""
"","do_trial","63","439335","0.0-42.0-1.0","93.79999995231628","","","","","","","","49","1,0,1","","","","","","","","","","","","","","","",""
"","html-keyboard-response","64","440342","0.0-43.0-0.0","null","<p></p>","null","","","","","","","","","","","","","","","","","","","","","","",""
"","do_trial","65","445097","0.0-43.0-1.0","244.60000002384186","","","","","","","","49","1,1,0","","","","","","","","","","","","","","","",""
"","html-keyboard-response","66","446110","0.0-44.0-0.0","null","<p></p>","null","","","","","","","","","","","","","","","","","","","","","","",""
"","do_trial","67","451004","0.0-44.0-1.0","386.09999990463257","","","","","","","","49","0,0,1","","","","","","","","","","","","","","","",""
"","html-keyboard-response","68","452011","0.0-45.0-0.0","null","<p></p>","null","","","","","","","","","","","","","","","","","","","","","","",""
"","do_trial","69","456808","0.0-45.0-1.0","280.7999999523163","","","","","","","","50","1,0,1","","","","","","","","","","","","","","","",""
"","html-keyboard-response","70","459254","0.0-46.0-0.0","2443.899999976158","<div class='center'><p><img src='run_exp/static/images/tutorial/prac_best_pirate.png'  height='500'></p></div>","49","","","","","","","","","","","","","","","","","","","","","","",""
"","html-keyboard-response","71","461556","0.0-47.0-0.0","2300.399999976158","<div class='center'><p>That's correct! Red beard was the best.</p><p><b>[Press the space bar to continue]</b></p></div>","32","","","","","","","","","","","","","","","","","","","","","","",""
"","html-keyboard-response","72","466550","0.0-47.0-1.0","4993.699999928474","<div class='center'><p><img src='run_exp/static/images/tutorial/prac_source.png'  height='500'></p></div>","50","","","","","","","","","","","","","","","","","","","","","","",""
"","html-keyboard-response","73","468211","0.0-48.0-0.0","1658.8999999761581","<div class='center'><p>That's correct! You saw this ship on the cavern island.</p><p><b>[Press the space bar to continue]</b></p></div>","32","","","","","","","","","","","","","","","","","","","","","","",""
"","quiz_beginning","74","482075","0.0-48.0-1.0","null","run_exp/static/audio/clip_16_quiz_intro.m4a","null","","","","","<div class='center'><p>Good job on the practice game! Now, you will be asked some true or false questions to make sure you really understand the rules of the game.</p><p> Press <b>'1'</b> on the keyboard for true and press <b>'2'</b> for false.</p></div>","","","","","","","","","","","","","","","","","",""
"","audio-keyboard-response","75","493513","0.0-48.0-2.0","11436.800000071526","run_exp/static/audio/clip_17_q1.m4a","49","","","","","","","","","","","","","","","","","","","","","","",""
"","q1_err","76","501155","0.0-49.0-0.0","null","run_exp/static/audio/clip_19_wrong_q1.m4a","null","","","","","<div class='center'><p>That’s incorrect! You win bonus money by collecting as many gold coins as possible!</p></div>","","","","","","","","","","","","","","","","","",""
"","html-keyboard-response","77","502884","0.0-49.0-1.0","1728.5","<div class='center'><p>That’s incorrect! You win bonus money by collecting as many gold coins as possible!</p><p><b>[Press the space bar to continue]</b></p></div>","32","","","","","","","","","","","","","","","","","","","","","","",""
"","audio-keyboard-response","78","508013","0.0-49.0-2.0","5127.800000071526","run_exp/static/audio/clip_20_q2.m4a","50","","","","","","","","","","","","","","","","","","","","","","",""
"","correct","79","510995","0.0-50.0-0.0","null","run_exp/static/audio/clip_18_correct.m4a","null","","","","","<div class='center'><p>That's correct!</p></div>","","","","","","","","","","","","","","","","","",""
"","html-keyboard-response","80","512070","0.0-50.0-1.0","1074","<div class='center'><p>That's correct!</p><p><b>[Press the space bar to continue]</b></p></div>","32","","","","","","","","","","","","","","","","","","","","","","",""
"","audio-keyboard-response","81","517895","0.0-50.0-2.0","5823.899999976158","run_exp/static/audio/clip_22_q3.m4a","50","","","","","","","","","","","","","","","","","","","","","","",""
"","correct","82","520874","0.0-51.0-0.0","null","run_exp/static/audio/clip_18_correct.m4a","null","","","","","<div class='center'><p>That's correct!</p></div>","","","","","","","","","","","","","","","","","",""
"","html-keyboard-response","83","522520","0.0-51.0-1.0","1645.3000000715256","<div class='center'><p>That's correct!</p><p><b>[Press the space bar to continue]</b></p></div>","32","","","","","","","","","","","","","","","","","","","","","","",""
"","audio-keyboard-response","84","526894","0.0-51.0-2.0","4372.300000071526","run_exp/static/audio/clip_24_q4.m4a","50","","","","","","","","","","","","","","","","","","","","","","",""
"","q4_err","85","539055","0.0-52.0-0.0","null","run_exp/static/audio/clip_25_wrong_q4.m4a","null","","","","","<div class='center'><p>That’s incorrect! You should remember the island where a pirate robbed a ship. To help you remember, you can make up a story associating the object on the ship with the island</p></div>","","","","","","","","","","","","","","","","","",""
"","html-keyboard-response","86","540412","0.0-52.0-1.0","1356.2999999523163","<div class='center'><p>That’s incorrect! You should remember the island where a pirate robbed a ship. To help you remember, you can make up a story associating the object on the ship with the island</p><p><b>[Press the space bar to continue]</b></p></div>","32","","","","","","","","","","","","","","","","","","","","","","",""
"","q_all_err","87","547974","0.0-53.0-0.0","null","run_exp/static/audio/clip_26_quiz_redo.m4a","null","","","","","<div class='center'><p>Oops, you missed some questions. Now that you’ve heard the correct answers. Try the quiz again! </p></div>","","","","","","","","","","","","","","","","","",""
"","html-keyboard-response","88","548934","0.0-53.0-1.0","958.6999999284744","<div class='center'><p>Oops, you missed some questions. Now that you’ve heard the correct answers. Try the quiz again! </p><p><b>[Press the space bar to continue]</b></p></div>","32","","","","","","","","","","","","","","","","","","","","","","",""
"","audio-keyboard-response","89","554422","0.0-53.0-2.0","5486.700000047684","run_exp/static/audio/clip_17_q1.m4a","50","","","","","","","","","","","","","","","","","","","","","","",""
"","correct","90","557414","0.0-54.0-0.0","null","run_exp/static/audio/clip_18_correct.m4a","null","","","","","<div class='center'><p>That's correct!</p></div>","","","","","","","","","","","","","","","","","",""
"","html-keyboard-response","91","558274","0.0-54.0-1.0","858.7000000476837","<div class='center'><p>That's correct!</p><p><b>[Press the space bar to continue]</b></p></div>","32","","","","","","","","","","","","","","","","","","","","","","",""
"","audio-keyboard-response","92","560162","0.0-54.0-2.0","1886.3999999761581","run_exp/static/audio/clip_20_q2.m4a","49","","","","","","","","","","","","","","","","","","","","","","",""
"","q2_err","93","565714","0.0-55.0-0.0","null","run_exp/static/audio/clip_21_wrong_q2.m4a","null","","","","","<div class='center'><p>That’s incorrect! You win bonus money by collecting as many gold coins as possible!</p></div>","","","","","","","","","","","","","","","","","",""
"","html-keyboard-response","94","569024","0.0-55.0-1.0","3313","<div class='center'><p>That’s incorrect! You win bonus money by collecting as many gold coins as possible!</p><p><b>[Press the space bar to continue]</b></p></div>","32","","","","","","","","","","","","","","","","","","","","","","",""
"","audio-keyboard-response","95","573359","0.0-55.0-2.0","4333.700000047684","run_exp/static/audio/clip_22_q3.m4a","50","","","","","","","","","","","","","","","","","","","","","","",""
"","correct","96","576330","0.0-56.0-0.0","null","run_exp/static/audio/clip_18_correct.m4a","null","","","","","<div class='center'><p>That's correct!</p></div>","","","","","","","","","","","","","","","","","",""
"","html-keyboard-response","97","577114","0.0-56.0-1.0","782.8999999761581","<div class='center'><p>That's correct!</p><p><b>[Press the space bar to continue]</b></p></div>","32","","","","","","","","","","","","","","","","","","","","","","",""
"","audio-keyboard-response","98","581728","0.0-56.0-2.0","4612.800000071526","run_exp/static/audio/clip_24_q4.m4a","50","","","","","","","","","","","","","","","","","","","","","","",""
"","q4_err","99","593870","0.0-57.0-0.0","null","run_exp/static/audio/clip_25_wrong_q4.m4a","null","","","","","<div class='center'><p>That’s incorrect! You should remember the island where a pirate robbed a ship. To help you remember, you can make up a story associating the object on the ship with the island</p></div>","","","","","","","","","","","","","","","","","",""
"","html-keyboard-response","100","596589","0.0-57.0-1.0","2718.0999999046326","<div class='center'><p>That’s incorrect! You should remember the island where a pirate robbed a ship. To help you remember, you can make up a story associating the object on the ship with the island</p><p><b>[Press the space bar to continue]</b></p></div>","32","","","","","","","","","","","","","","","","","","","","","","",""
"","q_all_err","101","604151","0.0-58.0-0.0","null","run_exp/static/audio/clip_26_quiz_redo.m4a","null","","","","","<div class='center'><p>Oops, you missed some questions. Now that you’ve heard the correct answers. Try the quiz again! </p></div>","","","","","","","","","","","","","","","","","",""
"","html-keyboard-response","102","605442","0.0-58.0-1.0","1290.2999999523163","<div class='center'><p>Oops, you missed some questions. Now that you’ve heard the correct answers. Try the quiz again! </p><p><b>[Press the space bar to continue]</b></p></div>","32","","","","","","","","","","","","","","","","","","","","","","",""
"","audio-keyboard-response","103","608341","0.0-58.0-2.0","2897.2999999523163","run_exp/static/audio/clip_17_q1.m4a","50","","","","","","","","","","","","","","","","","","","","","","",""
"","correct","104","611331","0.0-59.0-0.0","null","run_exp/static/audio/clip_18_correct.m4a","null","","","","","<div class='center'><p>That's correct!</p></div>","","","","","","","","","","","","","","","","","",""
"","html-keyboard-response","105","611901","0.0-59.0-1.0","569.8000000715256","<div class='center'><p>That's correct!</p><p><b>[Press the space bar to continue]</b></p></div>","32","","","","","","","","","","","","","","","","","","","","","","",""
"","audio-keyboard-response","106","615068","0.0-59.0-2.0","3165.6999999284744","run_exp/static/audio/clip_20_q2.m4a","50","","","","","","","","","","","","","","","","","","","","","","",""
"","correct","107","618050","0.0-60.0-0.0","null","run_exp/static/audio/clip_18_correct.m4a","null","","","","","<div class='center'><p>That's correct!</p></div>","","","","","","","","","","","","","","","","","",""
"","html-keyboard-response","108","618448","0.0-60.0-1.0","396.6999999284744","<div class='center'><p>That's correct!</p><p><b>[Press the space bar to continue]</b></p></div>","32","","","","","","","","","","","","","","","","","","","","","","",""
"","audio-keyboard-response","109","626747","0.0-60.0-2.0","8297.400000095367","run_exp/static/audio/clip_22_q3.m4a","50","","","","","","","","","","","","","","","","","","","","","","",""
"","correct","110","629713","0.0-61.0-0.0","null","run_exp/static/audio/clip_18_correct.m4a","null","","","","","<div class='center'><p>That's correct!</p></div>","","","","","","","","","","","","","","","","","",""
"","html-keyboard-response","111","630753","0.0-61.0-1.0","1039","<div class='center'><p>That's correct!</p><p><b>[Press the space bar to continue]</b></p></div>","32","","","","","","","","","","","","","","","","","","","","","","",""
"","audio-keyboard-response","112","635663","0.0-61.0-2.0","4909","run_exp/static/audio/clip_24_q4.m4a","49","","","","","","","","","","","","","","","","","","","","","","",""
"","correct","113","638694","0.0-62.0-0.0","null","run_exp/static/audio/clip_18_correct.m4a","null","","","","","<div class='center'><p>That's correct!</p></div>","","","","","","","","","","","","","","","","","",""
"","html-keyboard-response","114","640442","0.0-62.0-1.0","1747.8999999761581","<div class='center'><p>That's correct!</p><p><b>[Press the space bar to continue]</b></p></div>","32","","","","","","","","","","","","","","","","","","","","","","",""
"","q_all_corr","115","649393","0.0-63.0-0.0","null","run_exp/static/audio/clip_27_quiz_all_correct.m4a","null","","","","","<div class='center'><p>Good job! You’re now ready to move on to the real game! Remember this game will be difficult but don't get discouraged and try your best!</p></div>","","","","","","","","","","","","","","","","","",""
"","html-keyboard-response","116","651014","0.0-63.0-1.0","1619","<div class='center'><p>Good job! You’re now ready to move on to the real game! Remember this game will be difficult but don't get discouraged and try your best!</p><p><b>[Press the space bar to continue]</b></p></div>","32","","","","","","","","","","","","","","","","","","","","","","",""
"","do_welcome","117","655031","0.0-64.0-0.0","null","","","","","","","","null","","","","","","","","","","","","","","","","",""
"","do_trial","118","661681","0.0-65.0-0.0","2118.100000023842","","","","","","","","50","1,0,0","0","city","0","probe-128","0.6","0.3","0.1","0","","","","","","","",""
"","html-keyboard-response","119","662701","0.0-65.0-1.0","null","<p></p>","null","","","","","","","","","","","","","","","","","","","","","","",""
"","do_trial","120","668113","0.0-66.0-0.0","858.1000000238419","","","","","","","","51","0,0,1","0","city","1","probe-32","0.6486005077855986","0.38853638640876853","0.12746183023410745","1","","","","","","","",""
"","html-keyboard-response","121","669130","0.0-66.0-1.0","null","<p></p>","null","","","","","","","","","","","","","","","","","","","","","","",""
"","do_trial","122","674023","0.0-67.0-0.0","334.6999999284744","","","","","","","","51","1,1,0","0","city","2","probe-153","0.6327744196636507","0.45497739406326326","0.0953832008506856","0","","","","","","","",""
"","html-keyboard-response","123","675030","0.0-67.0-1.0","null","<p></p>","null","","","","","","","","","","","","","","","","","","","","","","",""
"","do_trial","124","680127","0.0-68.0-0.0","561.5","","","","","","","","49","1,0,0","0","city","3","probe-158","0.5403383914623883","0.30179753211883326","0.10729145924253322","1","","","","","","","",""
"","html-keyboard-response","125","681134","0.0-68.0-1.0","null","<p></p>","null","","","","","","","","","","","","","","","","","","","","","","",""
"","do_trial","126","686948","0.0-69.0-0.0","1269.5","","","","","","","","50","0,1,0","0","city","4","probe-172","0.5781058036031594","0.2302653680964477","0.13545834252404754","1","","","","","","","",""
"","html-keyboard-response","127","687959","0.0-69.0-1.0","null","<p></p>","null","","","","","","","","","","","","","","","","","","","","","","",""
"","do_trial","128","693518","0.0-70.0-0.0","1013.6999999284744","","","","","","","","49","0,1,0","0","city","5","probe-93","0.6880530415633751","0.26611478573679104","0.21122958236252384","0","","","","","","","",""
"","html-keyboard-response","129","694534","0.0-70.0-1.0","null","<p></p>","null","","","","","","","","","","","","","","","","","","","","","","",""
"","do_trial","130","699380","0.0-71.0-0.0","284","","","","","","","","51","1,0,0","0","city","6","probe-33","0.7577489275567537","0.14733130747737122","0.08593060954609744","0","","","","","","","",""
"","html-keyboard-response","131","700388","0.0-71.0-1.0","null","<p></p>","null","","","","","","","","","","","","","","","","","","","","","","",""
"","do_trial","132","705373","0.0-72.0-0.0","425.3000000715256","","","","","","","","50","1,0,1","0","city","7","probe-78","0.8728320793260878","0.2575465452912778","0.1993613794866287","0","","","","","","","",""
"","html-keyboard-response","133","706388","0.0-72.0-1.0","null","<p></p>","null","","","","","","","","","","","","","","","","","","","","","","",""
"","do_trial","134","711283","0.0-73.0-0.0","349.40000009536743","","","","","","","","49","1,0,0","0","city","8","probe-56","0.7002681504744193","0.13500491355450142","0.2900639868307683","1","","","","","","","",""
"","html-keyboard-response","135","712293","0.0-73.0-1.0","null","<p></p>","null","","","","","","","","","","","","","","","","","","","","","","",""
"","do_trial","136","717240","0.0-74.0-0.0","407.2999999523163","","","","","","","","49","1,0,0","0","city","9","probe-124","0.5942202380209198","0.121214869977358","0.18719295980026485","1","","","","","","","",""
"","html-keyboard-response","137","718253","0.0-74.0-1.0","null","<p></p>","null","","","","","","","","","","","","","","","","","","","","","","",""
"","do_trial","138","723728","0.0-75.0-0.0","922","","","","","","","","49","0,0,0","0","city","10","probe-19","0.48197395427230655","0.35495920964442335","0.11438344005298651","0","","","","","","","",""
"","html-keyboard-response","139","724738","0.0-75.0-1.0","null","<p></p>","null","","","","","","","","","","","","","","","","","","","","","","",""
"","do_trial","140","729855","0.0-76.0-0.0","564.3000000715256","","","","","","","","50","0,0,0","0","city","11","probe-47","0.5307442322862239","0.4036248218903401","0.13906799294751848","0","","","","","","","",""
"","html-keyboard-response","141","730864","0.0-76.0-1.0","null","<p></p>","null","","","","","","","","","","","","","","","","","","","","","","",""
"","do_trial","142","735775","0.0-77.0-0.0","358.7999999523163","","","","","","","","51","0,0,0","0","city","12","probe-127","0.5115626052689585","0.41382077303463116","0.07036857184749852","0","","","","","","","",""
"","html-keyboard-response","143","736791","0.0-77.0-1.0","null","<p></p>","null","","","","","","","","","","","","","","","","","","","","","","",""
"","do_trial","144","742182","0.0-78.0-0.0","832.2999999523163","","","","","","","","49","0,0,0","0","city","13","probe-71","0.5848964493525484","0.35566994624376735","0.05688232809655513","0","","","","","","","",""
"","html-keyboard-response","145","743197","0.0-78.0-1.0","null","<p></p>","null","","","","","","","","","","","","","","","","","","","","","","",""
"","do_trial","146","748466","0.0-79.0-0.0","732.7000000476837","","","","","","","","50","0,1,0","0","city","14","probe-94","0.38303722470656865","0.390465516633489","0.22165812620058162","1","","","","","","","",""
"","html-keyboard-response","147","749482","0.0-79.0-1.0","null","<p></p>","null","","","","","","","","","","","","","","","","","","","","","","",""
"","do_trial","148","754550","0.0-80.0-0.0","507.3000000715256","","","","","","","","50","0,0,1","0","city","15","probe-07","0.4249112174913798","0.38043669849996625","0.2699232569242943","0","","","","","","","",""
"","html-keyboard-response","149","755555","0.0-80.0-1.0","null","<p></p>","null","","","","","","","","","","","","","","","","","","","","","","",""
"","do_trial","150","761599","0.0-81.0-0.0","1493.5","","","","","","","","51","1,0,1","0","city","16","probe-154","0.4816477783957726","0.5109338430047038","0.2457348641205141","1","","","","","","","",""
"","html-keyboard-response","151","762611","0.0-81.0-1.0","null","<p></p>","null","","","","","","","","","","","","","","","","","","","","","","",""
"","do_trial","152","767548","0.0-82.0-0.0","381.6999999284744","","","","","","","","49","1,0,1","0","city","17","probe-170","0.5690127052029137","0.3608437050769478","0.1851707728697287","1","","","","","","","",""
"","html-keyboard-response","153","768559","0.0-82.0-1.0","null","<p></p>","null","","","","","","","","","","","","","","","","","","","","","","",""
"","do_trial","154","773455","0.0-83.0-0.0","361.5","","","","","","","","50","1,0,0","0","city","18","probe-221","0.6668398413834804","0.14162027882848832","0.08547762951257504","0","","","","","","","",""
"","html-keyboard-response","155","774471","0.0-83.0-1.0","null","<p></p>","null","","","","","","","","","","","","","","","","","","","","","","",""
"","do_trial","156","779953","0.0-84.0-0.0","942.1000000238419","","","","","","","","51","0,0,0","0","city","19","probe-200","0.6374470256900276","0.26297492641578607","0.06712292098110537","0","","","","","","","",""
"","html-keyboard-response","157","780954","0.0-84.0-1.0","null","<p></p>","null","","","","","","","","","","","","","","","","","","","","","","",""
"","do_trial","158","786099","0.0-85.0-0.0","610","","","","","","","","49","1,0,1","0","city","20","probe-84","0.6740060299710237","0.2690637882315558","0.16160220625934313","1","","","","","","","",""
"","html-keyboard-response","159","787110","0.0-85.0-1.0","null","<p></p>","null","","","","","","","","","","","","","","","","","","","","","","",""
"","do_trial","160","792530","0.0-86.0-0.0","889.3000000715256","","","","","","","","50","1,0,0","0","city","21","probe-126","0.5555577765258728","0.1561940330990335","0.06405299109714101","0","","","","","","","",""
"","html-keyboard-response","161","793547","0.0-86.0-1.0","null","<p></p>","null","","","","","","","","","","","","","","","","","","","","","","",""
"","do_trial","162","798325","0.0-87.0-0.0","245.10000002384186","","","","","","","","49","1,0,0","0","city","22","probe-196","0.4417261883082519","0.18914575274374693","0.15052261540665193","1","","","","","","","",""
"","html-keyboard-response","163","799339","0.0-87.0-1.0","null","<p></p>","null","","","","","","","","","","","","","","","","","","","","","","",""
"","do_trial","164","804540","0.0-88.0-0.0","658.1000000238419","","","","","","","","51","0,1,0","0","city","23","probe-55","0.5142209765616733","0.22579454622681516","0.16745856769286596","0","","","","","","","",""
"","html-keyboard-response","165","805556","0.0-88.0-1.0","null","<p></p>","null","","","","","","","","","","","","","","","","","","","","","","",""
"","do_trial","166","810424","0.0-89.0-0.0","311.2000000476837","","","","","","","","49","1,1,0","0","city","24","probe-193","0.71609224886698","0.25123344154623617","0.11607981241439638","1","","","","","","","",""
"","html-keyboard-response","167","811438","0.0-89.0-1.0","null","<p></p>","null","","","","","","","","","","","","","","","","","","","","","","",""
"","do_trial","168","816644","0.0-90.0-0.0","644.3999999761581","","","","","","","","49","1,0,0","0","city","25","probe-230","0.7451945651907717","0.30300230313627935","0.09565678419598372","1","","","","","","","",""
"","html-keyboard-response","169","817650","0.0-90.0-1.0","null","<p></p>","null","","","","","","","","","","","","","","","","","","","","","","",""
"","do_trial","170","823650","0.0-91.0-0.0","1442.3999999761581","","","","","","","","49","1,0,0","0","city","26","probe-57","0.7224794814776803","0.3437195817916045","0.130913744422844","1","","","","","","","",""
"","html-keyboard-response","171","824664","0.0-91.0-1.0","null","<p></p>","null","","","","","","","","","","","","","","","","","","","","","","",""
"","do_trial","172","830122","0.0-92.0-0.0","890.7999999523163","","","","","","","","49","0,1,1","0","city","27","probe-166","0.649505746634487","0.3400233907920538","0.2982137231481427","0","","","","","","","",""
"","html-keyboard-response","173","831128","0.0-92.0-1.0","null","<p></p>","null","","","","","","","","","","","","","","","","","","","","","","",""
"","do_trial","174","836017","0.0-93.0-0.0","353.7000000476837","","","","","","","","51","1,1,0","0","city","28","probe-75","0.7685720969095455","0.3297558468250592","0.13409225858623594","0","","","","","","","",""
"","html-keyboard-response","175","837028","0.0-93.0-1.0","null","<p></p>","null","","","","","","","","","","","","","","","","","","","","","","",""
"","do_trial","176","841932","0.0-94.0-0.0","363.60000002384186","","","","","","","","50","1,0,0","0","city","29","probe-173","0.7275283080960226","0.2880303779953017","0.07694607615237135","0","","","","","","","",""
"","html-keyboard-response","177","842947","0.0-94.0-1.0","null","<p></p>","null","","","","","","","","","","","","","","","","","","","","","","",""
"","do_bye","178","844460","0.0-95.0-0.0","null","","","","","","","","null","","","","","","","","","","","","","","","","",""
"","break","179","860663","0.0-95.0-1.0","16202.799999952316","<div class='center'><p>Time to take a quick break! You have 2 minutes to rest, but you can move on sooner if you'd like.</p><p> Press the <b>space bar</b> to continue.</p></div>","32","","","","","","","","","","","","","","","","","","","","","","",""
"","do_travel","180","869671","0.0-96.0-0.0","null","","","","","","","","null","","","","","","","","","","","","","","","","",""
"","do_welcome","181","873691","0.0-96.0-1.0","null","","","","","","","","null","","","","","","","","","","","","","","","","",""
"","do_trial","182","879031","0.0-97.0-0.0","793","","","","","","","","49","1,0,0","1","mountain","30","probe-198","1","0.22263795441050327","0.08869914333828359","1","","","","","","","",""
"","html-keyboard-response","183","880051","0.0-97.0-1.0","null","<p></p>","null","","","","","","","","","","","","","","","","","","","","","","",""
"","do_trial","184","884883","0.0-98.0-0.0","268.60000002384186","","","","","","","","49","1,0,0","1","mountain","31","probe-139","1","0.3793456016357474","0.1039880292171087","1","","","","","","","",""
"","html-keyboard-response","185","885894","0.0-98.0-1.0","null","<p></p>","null","","","","","","","","","","","","","","","","","","","","","","",""
"","do_trial","186","890745","0.0-99.0-0.0","298.8000000715256","","","","","","","","49","1,1,0","1","mountain","32","probe-37","1","0.40337179609695095","0.05084222648726519","1","","","","","","","",""
"","html-keyboard-response","187","891753","0.0-99.0-1.0","null","<p></p>","null","","","","","","","","","","","","","","","","","","","","","","",""
"","do_trial","188","898708","0.0-100.0-0.0","2398.7999999523163","","","","","","","","49","1,0,1","1","mountain","33","probe-168","0.9342321876094642","0.24258124335171785","0.1437207662205286","1","","","","","","","",""
"","html-keyboard-response","189","899718","0.0-100.0-1.0","null","<p></p>","null","","","","","","","","","","","","","","","","","","","","","","",""
"","do_trial","190","904529","0.0-101.0-0.0","278.3000000715256","","","","","","","","49","1,0,0","1","mountain","34","probe-68","0.8670550558426554","0.1405175783329215","0.1416247487499403","1","","","","","","","",""
"","html-keyboard-response","191","905544","0.0-101.0-1.0","null","<p></p>","null","","","","","","","","","","","","","","","","","","","","","","",""
"","do_trial","192","910632","0.0-102.0-0.0","520.5","","","","","","","","49","1,0,1","1","mountain","35","probe-38","0.7131347447678431","0.07592818613438679","0.11351435475521894","1","","","","","","","",""
"","html-keyboard-response","193","911636","0.0-102.0-1.0","null","<p></p>","null","","","","","","","","","","","","","","","","","","","","","","",""
"","do_trial","194","916706","0.0-103.0-0.0","516.3999999761581","","","","","","","","49","1,0,0","1","mountain","36","probe-108","0.5795587955724212","0.20557731800841897","0.08571766787780981","1","","","","","","","",""
"","html-keyboard-response","195","917720","0.0-103.0-1.0","null","<p></p>","null","","","","","","","","","","","","","","","","","","","","","","",""
"","do_trial","196","922853","0.0-104.0-0.0","575.6000000238419","","","","","","","","49","1,0,1","1","mountain","37","probe-96","0.6032979340853031","0.28757428029122134","0.21691118190038908","1","","","","","","","",""
"","html-keyboard-response","197","923860","0.0-104.0-1.0","null","<p></p>","null","","","","","","","","","","","","","","","","","","","","","","",""
"","do_trial","198","928893","0.0-105.0-0.0","471.60000002384186","","","","","","","","49","1,1,0","1","mountain","38","probe-95","0.6955604874381744","0.4818721968920956","0.05490148494494383","1","","","","","","","",""
"","html-keyboard-response","199","929898","0.0-105.0-1.0","null","<p></p>","null","","","","","","","","","","","","","","","","","","","","","","",""
"","do_trial","200","934771","0.0-106.0-0.0","308.7000000476837","","","","","","","","49","1,1,0","1","mountain","39","probe-69","0.6690023812140194","0.4120615221272741","0.0650617163432169","1","","","","","","","",""
"","html-keyboard-response","201","935782","0.0-106.0-1.0","null","<p></p>","null","","","","","","","","","","","","","","","","","","","","","","",""
"","do_trial","202","941162","0.0-107.0-0.0","815.4000000953674","","","","","","","","49","0,0,0","1","mountain","40","probe-09","0.5024408328561113","0.31230043385170336","0.08745532822763318","0","","","","","","","",""
"","html-keyboard-response","203","942177","0.0-107.0-1.0","null","<p></p>","null","","","","","","","","","","","","","","","","","","","","","","",""
"","do_trial","204","947050","0.0-108.0-0.0","332.89999997615814","","","","","","","","49","1,0,0","1","mountain","41","probe-06","0.5142460669397727","0.16569408200313593","0.1721411257257291","1","","","","","","","",""
"","html-keyboard-response","205","948061","0.0-108.0-1.0","null","<p></p>","null","","","","","","","","","","","","","","","","","","","","","","",""
"","do_trial","206","953022","0.0-109.0-0.0","407.89999997615814","","","","","","","","49","0,0,0","1","mountain","42","probe-214","0.3750831649735963","0.2602467797728184","0.13530527364202805","0","","","","","","","",""
"","html-keyboard-response","207","954038","0.0-109.0-1.0","null","<p></p>","null","","","","","","","","","","","","","","","","","","","","","","",""
"","do_trial","208","959216","0.0-110.0-0.0","612.3999999761581","","","","","","","","50","0,0,0","1","mountain","43","probe-26","0.42546258010860205","0.4590642943505698","0.08332865949309003","0","","","","","","","",""
"","html-keyboard-response","209","960221","0.0-110.0-1.0","null","<p></p>","null","","","","","","","","","","","","","","","","","","","","","","",""
"","do_trial","210","965065","0.0-111.0-0.0","302.59999990463257","","","","","","","","49","0,0,0","1","mountain","44","probe-97","0.15584603649370782","0.45566206004381543","0.12385849233530578","0","","","","","","","",""
"","html-keyboard-response","211","966070","0.0-111.0-1.0","null","<p></p>","null","","","","","","","","","","","","","","","","","","","","","","",""
"","do_trial","212","971124","0.0-112.0-0.0","500.39999997615814","","","","","","","","49","0,1,0","1","mountain","45","probe-181","0.3320950433275575","0.43273677218199325","0.0776598630814467","0","","","","","","","",""
"","html-keyboard-response","213","972136","0.0-112.0-1.0","null","<p></p>","null","","","","","","","","","","","","","","","","","","","","","","",""
"","do_trial","214","977314","0.0-113.0-0.0","623.6000000238419","","","","","","","","49","0,1,0","1","mountain","46","probe-73","0.3495861655749404","0.6100443752515485","0.14077915278985528","0","","","","","","","",""
"","html-keyboard-response","215","978327","0.0-113.0-1.0","null","<p></p>","null","","","","","","","","","","","","","","","","","","","","","","",""
"","do_trial","216","983379","0.0-114.0-0.0","514.5","","","","","","","","49","0,1,0","1","mountain","47","probe-137","0.3232261879838687","0.7062126200657537","0.0519563039215277","0","","","","","","","",""
"","html-keyboard-response","217","984395","0.0-114.0-1.0","null","<p></p>","null","","","","","","","","","","","","","","","","","","","","","","",""
"","do_trial","218","989762","0.0-115.0-0.0","799.5","","","","","","","","51","0,0,0","1","mountain","48","probe-191","0.3267128173291406","0.6686018823829916","0.19658199190625936","0","","","","","","","",""
"","html-keyboard-response","219","990779","0.0-115.0-1.0","null","<p></p>","null","","","","","","","","","","","","","","","","","","","","","","",""
"","do_trial","220","995645","0.0-116.0-0.0","309.90000009536743","","","","","","","","49","0,1,1","1","mountain","49","probe-147","0.297219201901062","0.6893479730569624","0.14908412141974184","0","","","","","","","",""
"","html-keyboard-response","221","996652","0.0-116.0-1.0","null","<p></p>","null","","","","","","","","","","","","","","","","","","","","","","",""
"","do_trial","222","1001630","0.0-117.0-0.0","442.7000000476837","","","","","","","","49","0,1,0","1","mountain","50","probe-177","0.47703166977160855","0.6210942950903043","0.2046267729834661","0","","","","","","","",""
"","html-keyboard-response","223","1002645","0.0-117.0-1.0","null","<p></p>","null","","","","","","","","","","","","","","","","","","","","","","",""
"","do_trial","224","1008028","0.0-118.0-0.0","830.7000000476837","","","","","","","","50","0,0,1","1","mountain","51","probe-120","0.42805272194688876","0.5290886786970113","0.23772991960115245","0","","","","","","","",""
"","html-keyboard-response","225","1009041","0.0-118.0-1.0","null","<p></p>","null","","","","","","","","","","","","","","","","","","","","","","",""
"","do_trial","226","1013883","0.0-119.0-0.0","289.8000000715256","","","","","","","","49","1,0,0","1","mountain","52","probe-60","0.4382686884445818","0.5629686549003224","0.312396325938506","1","","","","","","","",""
"","html-keyboard-response","227","1014894","0.0-119.0-1.0","null","<p></p>","null","","","","","","","","","","","","","","","","","","","","","","",""
"","do_trial","228","1019744","0.0-120.0-0.0","312.2000000476837","","","","","","","","49","0,1,1","1","mountain","53","probe-143","0.37836250150675915","0.513232416679277","0.22712270485236574","0","","","","","","","",""
"","html-keyboard-response","229","1020756","0.0-120.0-1.0","null","<p></p>","null","","","","","","","","","","","","","","","","","","","","","","",""
"","do_trial","230","1025962","0.0-121.0-0.0","644.6000000238419","","","","","","","","51","0,1,0","1","mountain","54","probe-86","0.28553678187284304","0.5866983410360836","0.14559455574420366","0","","","","","","","",""
"","html-keyboard-response","231","1026970","0.0-121.0-1.0","null","<p></p>","null","","","","","","","","","","","","","","","","","","","","","","",""
"","do_trial","232","1031833","0.0-122.0-0.0","321.89999997615814","","","","","","","","50","0,1,0","1","mountain","55","probe-79","0.25709853753124895","0.6418050766361385","0.1930771754635355","1","","","","","","","",""
"","html-keyboard-response","233","1032838","0.0-122.0-1.0","null","<p></p>","null","","","","","","","","","","","","","","","","","","","","","","",""
"","do_trial","234","1037855","0.0-123.0-0.0","475.10000002384186","","","","","","","","49","0,1,0","1","mountain","56","probe-36","0.19076568067390745","0.7406026266744022","0.1485108736924835","0","","","","","","","",""
"","html-keyboard-response","235","1038862","0.0-123.0-1.0","null","<p></p>","null","","","","","","","","","","","","","","","","","","","","","","",""
"","do_trial","236","1044193","0.0-124.0-0.0","779.2999999523163","","","","","","","","50","0,0,0","1","mountain","57","probe-106","0.29002861406436864","0.6600935709641462","0.1901790560265083","0","","","","","","","",""
"","html-keyboard-response","237","1045194","0.0-124.0-1.0","null","<p></p>","null","","","","","","","","","","","","","","","","","","","","","","",""
"","do_trial","238","1050405","0.0-125.0-0.0","673","","","","","","","","49","1,0,0","1","mountain","58","probe-204","0.410082533315228","0.6535595712074863","0.20312261946106383","1","","","","","","","",""
"","html-keyboard-response","239","1051418","0.0-125.0-1.0","null","<p></p>","null","","","","","","","","","","","","","","","","","","","","","","",""
"","do_trial","240","1057347","0.0-126.0-0.0","1391.3999999761581","","","","","","","","49","1,1,0","1","mountain","59","probe-162","0.4051366055002137","0.679187390225036","0.25968359168080996","1","","","","","","","",""
"","html-keyboard-response","241","1058354","0.0-126.0-1.0","null","<p></p>","null","","","","","","","","","","","","","","","","","","","","","","",""
"","do_trial","242","1063175","0.0-127.0-0.0","288.60000002384186","","","","","","","","49","0,1,1","1","mountain","60","probe-66","0.24721534360458738","0.5049124510923857","0.2591769591975649","0","","","","","","","",""
"","html-keyboard-response","243","1064186","0.0-127.0-1.0","null","<p></p>","null","","","","","","","","","","","","","","","","","","","","","","",""
"","do_trial","244","1069082","0.0-128.0-0.0","337.09999990463257","","","","","","","","50","0,1,0","1","mountain","61","probe-30","0.2581918382153578","0.5701830943604661","0.23458976820521582","1","","","","","","","",""
"","html-keyboard-response","245","1070096","0.0-128.0-1.0","null","<p></p>","null","","","","","","","","","","","","","","","","","","","","","","",""
"","do_trial","246","1074944","0.0-129.0-0.0","310.8000000715256","","","","","","","","51","0,0,0","1","mountain","62","probe-194","0.13913020086783956","0.6091894775489811","0.18665082674882694","0","","","","","","","",""
"","html-keyboard-response","247","1075958","0.0-129.0-1.0","null","<p></p>","null","","","","","","","","","","","","","","","","","","","","","","",""
"","do_trial","248","1080829","0.0-130.0-0.0","306.60000002384186","","","","","","","","51","1,0,0","1","mountain","63","probe-24","0.06390079054551212","0.6362525788278891","0.18453320461881043","0","","","","","","","",""
"","html-keyboard-response","249","1081844","0.0-130.0-1.0","null","<p></p>","null","","","","","","","","","","","","","","","","","","","","","","",""
"","do_trial","250","1086939","0.0-131.0-0.0","536","","","","","","","","49","0,1,0","1","mountain","64","probe-155","0.16511829023156338","0.6504100979901493","0.13511331380814096","0","","","","","","","",""
"","html-keyboard-response","251","1087956","0.0-131.0-1.0","null","<p></p>","null","","","","","","","","","","","","","","","","","","","","","","",""
"","do_trial","252","1093031","0.0-132.0-0.0","531","","","","","","","","50","0,0,0","1","mountain","65","probe-195","0.258315898918863","0.7739278645118078","0.25639294323285805","0","","","","","","","",""
"","html-keyboard-response","253","1094047","0.0-132.0-1.0","null","<p></p>","null","","","","","","","","","","","","","","","","","","","","","","",""
"","do_trial","254","1098951","0.0-133.0-0.0","367.6999999284744","","","","","","","","49","1,0,0","1","mountain","66","probe-103","0.22713679563527522","0.6777040041793366","0.20840324639716185","1","","","","","","","",""
"","html-keyboard-response","255","1099953","0.0-133.0-1.0","null","<p></p>","null","","","","","","","","","","","","","","","","","","","","","","",""
"","do_trial","256","1105050","0.0-134.0-0.0","528.6999999284744","","","","","","","","49","0,1,0","1","mountain","67","probe-22","0.30063632500649606","0.6982838786507789","0.13321278825735866","0","","","","","","","",""
"","html-keyboard-response","257","1106054","0.0-134.0-1.0","null","<p></p>","null","","","","","","","","","","","","","","","","","","","","","","",""
"","do_trial","258","1111089","0.0-135.0-0.0","494.5","","","","","","","","50","0,1,0","1","mountain","68","probe-80","0.2796164137658279","0.7730661973782009","0.1512429022664932","1","","","","","","","",""
"","html-keyboard-response","259","1112091","0.0-135.0-1.0","null","<p></p>","null","","","","","","","","","","","","","","","","","","","","","","",""
"","do_trial","260","1117046","0.0-136.0-0.0","402.7999999523163","","","","","","","","51","1,1,0","1","mountain","69","probe-164","0.28717192470834685","0.7217340690806293","0.15461359021692198","0","","","","","","","",""
"","html-keyboard-response","261","1118057","0.0-136.0-1.0","null","<p></p>","null","","","","","","","","","","","","","","","","","","","","","","",""
"","do_bye","262","1119566","0.0-137.0-0.0","null","","","","","","","","null","","","","","","","","","","","","","","","","",""
"","break","263","1165435","0.0-137.0-1.0","45867.799999952316","<div class='center'><p>Time to take a quick break! You have 2 minutes to rest, but you can move on sooner if you'd like.</p><p> Press the <b>space bar</b> to continue.</p></div>","32","","","","","","","","","","","","","","","","","","","","","","",""
"","do_travel","264","1174445","0.0-138.0-0.0","null","","","","","","","","null","","","","","","","","","","","","","","","","",""
"","do_welcome","265","1178466","0.0-138.0-1.0","null","","","","","","","","null","","","","","","","","","","","","","","","","",""
"","do_trial","266","1184316","0.0-139.0-0.0","1292.6000000238419","","","","","","","","49","1,1,0","2","forest","70","probe-142","0.4433948289767612","1","0.16247316841658152","1","","","","","","","",""
"","html-keyboard-response","267","1185336","0.0-139.0-1.0","null","<p></p>","null","","","","","","","","","","","","","","","","","","","","","","",""
"","do_trial","268","1190247","0.0-140.0-0.0","372.7000000476837","","","","","","","","49","1,1,0","2","forest","71","probe-184","0.3820627268173381","1","0.26777996904002993","1","","","","","","","",""
"","html-keyboard-response","269","1191254","0.0-140.0-1.0","null","<p></p>","null","","","","","","","","","","","","","","","","","","","","","","",""
"","do_trial","270","1196162","0.0-141.0-0.0","356.60000002384186","","","","","","","","49","0,1,0","2","forest","72","probe-225","0.2446106374135607","0.8469193977363483","0.23560388557166634","0","","","","","","","",""
"","html-keyboard-response","271","1197167","0.0-141.0-1.0","null","<p></p>","null","","","","","","","","","","","","","","","","","","","","","","",""
"","do_trial","272","1202241","0.0-142.0-0.0","540.6000000238419","","","","","","","","50","0,1,1","2","forest","73","probe-114","0.1799580910074829","0.840403288211207","0.17523025658607058","1","","","","","","","",""
"","html-keyboard-response","273","1203252","0.0-142.0-1.0","null","<p></p>","null","","","","","","","","","","","","","","","","","","","","","","",""
"","do_trial","274","1208407","0.0-143.0-0.0","600.3999999761581","","","","","","","","49","0,1,1","2","forest","74","probe-100","0.2007831594822162","0.757639097856979","0.25559719987910356","0","","","","","","","",""
"","html-keyboard-response","275","1209415","0.0-143.0-1.0","null","<p></p>","null","","","","","","","","","","","","","","","","","","","","","","",""
"","do_trial","276","1214467","0.0-144.0-0.0","495.10000002384186","","","","","","","","50","0,1,0","2","forest","75","probe-03","0.21922358441421913","0.588681587314733","0.10477891824129622","1","","","","","","","",""
"","html-keyboard-response","277","1215472","0.0-144.0-1.0","null","<p></p>","null","","","","","","","","","","","","","","","","","","","","","","",""
"","do_trial","278","1220411","0.0-145.0-0.0","395.40000009536743","","","","","","","","51","0,0,0","2","forest","76","probe-208","0.15710848202853708","0.6686319431494896","0.13987052748197512","0","","","","","","","",""
"","html-keyboard-response","279","1221426","0.0-145.0-1.0","null","<p></p>","null","","","","","","","","","","","","","","","","","","","","","","",""
"","do_trial","280","1226832","0.0-146.0-0.0","872.2000000476837","","","","","","","","49","0,0,0","2","forest","77","probe-226","0.2563284789787258","0.7035914839708666","0.08841769728978358","0","","","","","","","",""
"","html-keyboard-response","281","1227844","0.0-146.0-1.0","null","<p></p>","null","","","","","","","","","","","","","","","","","","","","","","",""
"","do_trial","282","1233111","0.0-147.0-0.0","704.3999999761581","","","","","","","","50","0,1,1","2","forest","78","probe-167","0.3042076875439257","0.758602074233041","0.1117302969356183","1","","","","","","","",""
"","html-keyboard-response","283","1234122","0.0-147.0-1.0","null","<p></p>","null","","","","","","","","","","","","","","","","","","","","","","",""
"","do_trial","284","1238996","0.0-148.0-0.0","328.59999990463257","","","","","","","","50","0,1,0","2","forest","79","probe-70","0.31456210712104526","0.6915332612046727","0.13585051364441167","1","","","","","","","",""
"","html-keyboard-response","285","1240010","0.0-148.0-1.0","null","<p></p>","null","","","","","","","","","","","","","","","","","","","","","","",""
"","do_trial","286","1245239","0.0-149.0-0.0","674.4000000953674","","","","","","","","50","0,1,0","2","forest","80","probe-149","0.3652272615683926","0.6403816807376265","0.2754711841923893","1","","","","","","","",""
"","html-keyboard-response","287","1246245","0.0-149.0-1.0","null","<p></p>","null","","","","","","","","","","","","","","","","","","","","","","",""
"","do_trial","288","1251237","0.0-150.0-0.0","458.5","","","","","","","","50","0,1,1","2","forest","81","probe-101","0.4314024366644007","0.826899801084331","0.2953622367678967","1","","","","","","","",""
"","html-keyboard-response","289","1252253","0.0-150.0-1.0","null","<p></p>","null","","","","","","","","","","","","","","","","","","","","","","",""
"","do_trial","290","1257189","0.0-151.0-0.0","375.3000000715256","","","","","","","","50","0,1,0","2","forest","82","probe-213","0.31530545228120566","0.669667204314097","0.28243152652693776","1","","","","","","","",""
"","html-keyboard-response","291","1258204","0.0-151.0-1.0","null","<p></p>","null","","","","","","","","","","","","","","","","","","","","","","",""
"","do_trial","292","1263222","0.0-152.0-0.0","469.10000002384186","","","","","","","","50","0,1,1","2","forest","83","probe-229","0.30168585871193504","0.5967992641968033","0.2581389266457047","1","","","","","","","",""
"","html-keyboard-response","293","1264236","0.0-152.0-1.0","null","<p></p>","null","","","","","","","","","","","","","","","","","","","","","","",""
"","do_trial","294","1269479","0.0-153.0-0.0","691.6000000238419","","","","","","","","50","0,1,0","2","forest","84","probe-35","0.08476177135127339","0.5793362431236768","0.4364579842312007","1","","","","","","","",""
"","html-keyboard-response","295","1270484","0.0-153.0-1.0","null","<p></p>","null","","","","","","","","","","","","","","","","","","","","","","",""
"","do_trial","296","1276343","0.0-154.0-0.0","1319.6000000238419","","","","","","","","50","0,1,0","2","forest","85","probe-138","0.18944389653561033","0.5107112290015414","0.502761385805474","1","","","","","","","",""
"","html-keyboard-response","297","1277345","0.0-154.0-1.0","null","<p></p>","null","","","","","","","","","","","","","","","","","","","","","","",""
"","do_trial","298","1282119","0.0-155.0-0.0","232.69999992847443","","","","","","","","50","1,1,1","2","forest","86","probe-77","0.2724370481596377","0.4981984856366961","0.6310869046604488","1","","","","","","","",""
"","html-keyboard-response","299","1283121","0.0-155.0-1.0","null","<p></p>","null","","","","","","","","","","","","","","","","","","","","","","",""
"","do_trial","300","1289962","0.0-156.0-0.0","2308.5","","","","","","","","50","0,0,1","2","forest","87","probe-217","0.11663675878491368","0.4387723357171122","0.5743238099157493","0","","","","","","","",""
"","html-keyboard-response","301","1290972","0.0-156.0-1.0","null","<p></p>","null","","","","","","","","","","","","","","","","","","","","","","",""
"","do_trial","302","1296015","0.0-157.0-0.0","482.2000000476837","","","","","","","","49","0,0,0","2","forest","88","probe-121","0.14768449377952686","0.3786877608552566","0.6035465371636741","0","","","","","","","",""
"","html-keyboard-response","303","1297029","0.0-157.0-1.0","null","<p></p>","null","","","","","","","","","","","","","","","","","","","","","","",""
"","do_trial","304","1302133","0.0-158.0-0.0","559.6999999284744","","","","","","","","50","0,0,1","2","forest","89","probe-135","0.15658786895760293","0.32014039149303386","0.6203486911128586","0","","","","","","","",""
"","html-keyboard-response","305","1303145","0.0-158.0-1.0","null","<p></p>","null","","","","","","","","","","","","","","","","","","","","","","",""
"","do_trial","306","1308162","0.0-159.0-0.0","451.89999997615814","","","","","","","","50","0,0,1","2","forest","90","probe-113","0.14837205994982539","0.3800374153990954","0.6715659086765693","0","","","","","","","",""
"","html-keyboard-response","307","1309172","0.0-159.0-1.0","null","<p></p>","null","","","","","","","","","","","","","","","","","","","","","","",""
"","do_trial","308","1313921","0.0-160.0-0.0","204.39999997615814","","","","","","","","49","1,0,1","2","forest","91","probe-161","0.1779321792217713","0.2984674034606119","0.5768384491490299","1","","","","","","","",""
"","html-keyboard-response","309","1314935","0.0-160.0-1.0","null","<p></p>","null","","","","","","","","","","","","","","","","","","","","","","",""
"","do_trial","310","1319784","0.0-161.0-0.0","292.10000002384186","","","","","","","","49","0,0,0","2","forest","92","probe-29","0.07820779244675531","0.3323115082069502","0.5553146492659601","0","","","","","","","",""
"","html-keyboard-response","311","1320790","0.0-161.0-1.0","null","<p></p>","null","","","","","","","","","","","","","","","","","","","","","","",""
"","do_trial","312","1325821","0.0-162.0-0.0","488.60000002384186","","","","","","","","50","0,1,1","2","forest","93","probe-72","0.1260789971673684","0.2903599989086704","0.46820019233401405","1","","","","","","","",""
"","html-keyboard-response","313","1326830","0.0-162.0-1.0","null","<p></p>","null","","","","","","","","","","","","","","","","","","","","","","",""
"","do_trial","314","1332446","0.0-163.0-0.0","1068.8999999761581","","","","","","","","51","0,0,1","2","forest","94","probe-98","0.09750407800239126","0.33400644958202286","0.5216752434462236","1","","","","","","","",""
"","html-keyboard-response","315","1333456","0.0-163.0-1.0","null","<p></p>","null","","","","","","","","","","","","","","","","","","","","","","",""
"","do_trial","316","1338554","0.0-164.0-0.0","535.6000000238419","","","","","","","","50","0,0,1","2","forest","95","probe-61","0.07819610218043545","0.2548725615551931","0.5263107309371804","0","","","","","","","",""
"","html-keyboard-response","317","1339556","0.0-164.0-1.0","null","<p></p>","null","","","","","","","","","","","","","","","","","","","","","","",""
"","do_trial","318","1344644","0.0-165.0-0.0","528.6999999284744","","","","","","","","49","0,1,1","2","forest","96","probe-05","0.06250104300780569","0.2912713497691465","0.6306026514853794","0","","","","","","","",""
"","html-keyboard-response","319","1345652","0.0-165.0-1.0","null","<p></p>","null","","","","","","","","","","","","","","","","","","","","","","",""
"","do_trial","320","1351176","0.0-166.0-0.0","962.6000000238419","","","","","","","","50","1,0,1","2","forest","97","probe-118","0.06059716738522537","0.32560200065945877","0.528879526835794","0","","","","","","","",""
"","html-keyboard-response","321","1352177","0.0-166.0-1.0","null","<p></p>","null","","","","","","","","","","","","","","","","","","","","","","",""
"","do_trial","322","1357037","0.0-167.0-0.0","316.2000000476837","","","","","","","","50","0,1,1","2","forest","98","probe-48","0.1175280588728397","0.43351088253688647","0.5885092226178628","1","","","","","","","",""
"","html-keyboard-response","323","1358053","0.0-167.0-1.0","null","<p></p>","null","","","","","","","","","","","","","","","","","","","","","","",""
"","do_trial","324","1363231","0.0-168.0-0.0","641.8000000715256","","","","","","","","50","0,0,1","2","forest","99","probe-144","0.07122817131156842","0.2266374813226756","0.7364494275412623","0","","","","","","","",""
"","html-keyboard-response","325","1364243","0.0-168.0-1.0","null","<p></p>","null","","","","","","","","","","","","","","","","","","","","","","",""
"","do_trial","326","1369385","0.0-169.0-0.0","599.8999999761581","","","","","","","","50","1,0,1","2","forest","100","probe-151","0.18205858170468794","0.36174641821802545","0.6834029107828774","0","","","","","","","",""
"","html-keyboard-response","327","1370390","0.0-169.0-1.0","null","<p></p>","null","","","","","","","","","","","","","","","","","","","","","","",""
"","do_trial","328","1375621","0.0-170.0-0.0","657","","","","","","","","49","0,0,1","2","forest","101","probe-123","0.09522579402702995","0.38654203543096294","0.6860400851913238","0","","","","","","","",""
"","html-keyboard-response","329","1376637","0.0-170.0-1.0","null","<p></p>","null","","","","","","","","","","","","","","","","","","","","","","",""
"","do_trial","330","1381698","0.0-171.0-0.0","501.7000000476837","","","","","","","","51","0,1,1","2","forest","102","probe-159","0.20416901795986653","0.3430463039934459","0.5431801946271158","1","","","","","","","",""
"","html-keyboard-response","331","1382710","0.0-171.0-1.0","null","<p></p>","null","","","","","","","","","","","","","","","","","","","","","","",""
"","do_trial","332","1387947","0.0-172.0-0.0","681.6000000238419","","","","","","","","49","0,0,0","2","forest","103","probe-74","0.22424040626691244","0.3651523402689859","0.5381659286904728","0","","","","","","","",""
"","html-keyboard-response","333","1388952","0.0-172.0-1.0","null","<p></p>","null","","","","","","","","","","","","","","","","","","","","","","",""
"","do_trial","334","1394204","0.0-173.0-0.0","687.7000000476837","","","","","","","","50","0,0,1","2","forest","104","probe-119","0.18685230929093513","0.3170853310643243","0.6632385092274268","0","","","","","","","",""
"","html-keyboard-response","335","1395208","0.0-173.0-1.0","null","<p></p>","null","","","","","","","","","","","","","","","","","","","","","","",""
"","do_trial","336","1401594","0.0-174.0-0.0","1842","","","","","","","","51","0,0,0","2","forest","105","probe-15","0.17632345036013355","0.3492386448946998","0.49511397980303173","0","","","","","","","",""
"","html-keyboard-response","337","1402610","0.0-174.0-1.0","null","<p></p>","null","","","","","","","","","","","","","","","","","","","","","","",""
"","do_trial","338","1408567","0.0-175.0-0.0","1421.1000000238419","","","","","","","","49","0,1,1","2","forest","106","probe-12","0.08504085487551696","0.39350784932172644","0.4908597407162562","0","","","","","","","",""
"","html-keyboard-response","339","1409579","0.0-175.0-1.0","null","<p></p>","null","","","","","","","","","","","","","","","","","","","","","","",""
"","do_trial","340","1414468","0.0-176.0-0.0","330.59999990463257","","","","","","","","50","0,0,1","2","forest","107","probe-176","0.1600300026995615","0.3962966752371752","0.434781552053843","0","","","","","","","",""
"","html-keyboard-response","341","1415474","0.0-176.0-1.0","null","<p></p>","null","","","","","","","","","","","","","","","","","","","","","","",""
"","do_trial","342","1420782","0.0-177.0-0.0","754.6000000238419","","","","","","","","50","0,0,1","2","forest","108","probe-110","0.17318490268290695","0.2731186073414581","0.4565756868314217","0","","","","","","","",""
"","html-keyboard-response","343","1421790","0.0-177.0-1.0","null","<p></p>","null","","","","","","","","","","","","","","","","","","","","","","",""
"","do_trial","344","1426803","0.0-178.0-0.0","480.5","","","","","","","","50","0,0,0","2","forest","109","probe-14","0.1902042450628342","0.3044050549031564","0.5008393298955828","0","","","","","","","",""
"","html-keyboard-response","345","1427813","0.0-178.0-1.0","null","<p></p>","null","","","","","","","","","","","","","","","","","","","","","","",""
"","do_bye","346","1429322","0.0-179.0-0.0","null","","","","","","","","null","","","","","","","","","","","","","","","","",""
"","break","347","1546202","0.0-179.0-1.0","116883.20000004768","<div class='center'><p>Time to take a quick break! You have 2 minutes to rest, but you can move on sooner if you'd like.</p><p> Press the <b>space bar</b> to continue.</p></div>","32","","","","","","","","","","","","","","","","","","","","","","",""
"","do_travel","348","1555210","0.0-180.0-0.0","null","","","","","","","","null","","","","","","","","","","","","","","","","",""
"","do_welcome","349","1559230","0.0-180.0-1.0","null","","","","","","","","null","","","","","","","","","","","","","","","","",""
"","do_trial","350","1564450","0.0-181.0-0.0","668","","","","","","","","49","1,1,1","3","highway","110","probe-189","0.10334538566102916","0.3159044725440413","1","1","","","","","","","",""
"","html-keyboard-response","351","1565460","0.0-181.0-1.0","null","<p></p>","null","","","","","","","","","","","","","","","","","","","","","","",""
"","do_trial","352","1570443","0.0-182.0-0.0","441.10000002384186","","","","","","","","50","0,1,1","3","highway","111","probe-205","0.07594683556029522","0.3712447759661064","1","1","","","","","","","",""
"","html-keyboard-response","353","1571446","0.0-182.0-1.0","null","<p></p>","null","","","","","","","","","","","","","","","","","","","","","","",""
"","do_trial","354","1576438","0.0-183.0-0.0","453.2000000476837","","","","","","","","51","0,0,0","3","highway","112","probe-179","0.11695333139154246","0.4326052752417083","0.9063610034186051","0","","","","","","","",""
"","html-keyboard-response","355","1577453","0.0-183.0-1.0","null","<p></p>","null","","","","","","","","","","","","","","","","","","","","","","",""
"","do_trial","356","1582282","0.0-184.0-0.0","270.89999997615814","","","","","","","","49","0,1,1","3","highway","113","probe-156","0.13751236191037788","0.3658028587219457","0.6885510129173156","0","","","","","","","",""
"","html-keyboard-response","357","1583297","0.0-184.0-1.0","null","<p></p>","null","","","","","","","","","","","","","","","","","","","","","","",""
"","do_trial","358","1588406","0.0-185.0-0.0","556.1999999284744","","","","","","","","50","0,0,1","3","highway","114","probe-187","0.13554988908883223","0.39290381111680006","0.5849275206781385","0","","","","","","","",""
"","html-keyboard-response","359","1589417","0.0-185.0-1.0","null","<p></p>","null","","","","","","","","","","","","","","","","","","","","","","",""
"","do_trial","360","1594331","0.0-186.0-0.0","375.59999990463257","","","","","","","","50","1,0,1","3","highway","115","probe-40","0.16916472984963815","0.13893488927108918","0.45259592126815834","0","","","","","","","",""
"","html-keyboard-response","361","1595333","0.0-186.0-1.0","null","<p></p>","null","","","","","","","","","","","","","","","","","","","","","","",""
"","do_trial","362","1600236","0.0-187.0-0.0","351.90000009536743","","","","","","","","49","0,0,1","3","highway","116","probe-122","0.1283666290408096","0.13206982186902105","0.5618518433607395","0","","","","","","","",""
"","html-keyboard-response","363","1601239","0.0-187.0-1.0","null","<p></p>","null","","","","","","","","","","","","","","","","","","","","","","",""
"","do_trial","364","1606524","0.0-188.0-0.0","711.2999999523163","","","","","","","","50","1,1,1","3","highway","117","probe-140","0.28285842035514014","0.1123345410678714","0.4924876894750851","1","","","","","","","",""
"","html-keyboard-response","365","1607540","0.0-188.0-1.0","null","<p></p>","null","","","","","","","","","","","","","","","","","","","","","","",""
"","do_trial","366","1612460","0.0-189.0-0.0","356.90000009536743","","","","","","","","49","0,0,0","3","highway","118","probe-54","0.2900903308155523","0.21898476960425786","0.5779830811661834","0","","","","","","","",""
"","html-keyboard-response","367","1613469","0.0-189.0-1.0","null","<p></p>","null","","","","","","","","","","","","","","","","","","","","","","",""
"","do_trial","368","1618026","0.0-190.0-0.0","9.899999976158142","","","","","","","","50","0,1,0","3","highway","119","probe-102","0.10801088252727233","0.29631907046776623","0.6969467896197835","1","","","","","","","",""
"","html-keyboard-response","369","1619028","0.0-190.0-1.0","null","<p></p>","null","","","","","","","","","","","","","","","","","","","","","","",""
"","do_trial","370","1624424","0.0-191.0-0.0","851.2000000476837","","","","","","","","49","0,0,1","3","highway","120","probe-13","0.0939328503610252","0.44683541383313397","0.6658994290122273","0","","","","","","","",""
"","html-keyboard-response","371","1625426","0.0-191.0-1.0","null","<p></p>","null","","","","","","","","","","","","","","","","","","","","","","",""
"","do_trial","372","1630357","0.0-192.0-0.0","377.10000002384186","","","","","","","","50","0,1,1","3","highway","121","probe-111","0.18281196097113905","0.5498652116185556","0.7528322093797355","1","","","","","","","",""
"","html-keyboard-response","373","1631359","0.0-192.0-1.0","null","<p></p>","null","","","","","","","","","","","","","","","","","","","","","","",""
"","do_trial","374","1636177","0.0-193.0-0.0","276.7000000476837","","","","","","","","49","0,1,0","3","highway","122","probe-85","0.225272227963003","0.3984200314231712","0.6318962349099541","0","","","","","","","",""
"","html-keyboard-response","375","1637184","0.0-193.0-1.0","null","<p></p>","null","","","","","","","","","","","","","","","","","","","","","","",""
"","do_trial","376","1642264","0.0-194.0-0.0","544.3999999761581","","","","","","","","50","0,0,1","3","highway","123","probe-148","0.40965343267357796","0.2569282941248961","0.5308210945865431","0","","","","","","","",""
"","html-keyboard-response","377","1643276","0.0-194.0-1.0","null","<p></p>","null","","","","","","","","","","","","","","","","","","","","","","",""
"","do_trial","378","1649054","0.0-195.0-0.0","1242.6000000238419","","","","","","","","51","1,0,1","3","highway","124","probe-129","0.687485786659729","0.23074643169491185","0.49511284331380334","1","","","","","","","",""
"","html-keyboard-response","379","1650062","0.0-195.0-1.0","null","<p></p>","null","","","","","","","","","","","","","","","","","","","","","","",""
"","do_trial","380","1655490","0.0-196.0-0.0","875.8999999761581","","","","","","","","49","0,0,0","3","highway","125","probe-133","0.6950278958938328","0.08960867628894477","0.42589338294444345","0","","","","","","","",""
"","html-keyboard-response","381","1656493","0.0-196.0-1.0","null","<p></p>","null","","","","","","","","","","","","","","","","","","","","","","",""
"","do_trial","382","1661399","0.0-197.0-0.0","357.2000000476837","","","","","","","","51","0,0,0","3","highway","126","probe-46","0.6219536131746388","0.1301839876710188","0.3447931377388644","0","","","","","","","",""
"","html-keyboard-response","383","1662413","0.0-197.0-1.0","null","<p></p>","null","","","","","","","","","","","","","","","","","","","","","","",""
"","do_trial","384","1667453","0.0-198.0-0.0","473.1999999284744","","","","","","","","50","1,0,0","3","highway","127","probe-92","0.6007795639071938","0.19423123285286992","0.1967243174912342","0","","","","","","","",""
"","html-keyboard-response","385","1668467","0.0-198.0-1.0","null","<p></p>","null","","","","","","","","","","","","","","","","","","","","","","",""
"","do_trial","386","1673312","0.0-199.0-0.0","303.5","","","","","","","","49","0,0,1","3","highway","128","probe-99","0.5940623003387058","0.17907096604192188","0.29661733013019","0","","","","","","","",""
"","html-keyboard-response","387","1674320","0.0-199.0-1.0","null","<p></p>","null","","","","","","","","","","","","","","","","","","","","","","",""
"","do_trial","388","1679324","0.0-200.0-0.0","437","","","","","","","","50","1,0,0","3","highway","129","probe-25","0.7197610593113883","0.1183599238513887","0.2939453188556288","0","","","","","","","",""
"","html-keyboard-response","389","1680330","0.0-200.0-1.0","null","<p></p>","null","","","","","","","","","","","","","","","","","","","","","","",""
"","do_trial","390","1685589","0.0-201.0-0.0","720.2999999523163","","","","","","","","49","0,0,0","3","highway","130","probe-132","0.7089136931450745","0.20886035704906888","0.30800037553910864","0","","","","","","","",""
"","html-keyboard-response","391","1686592","0.0-201.0-1.0","null","<p></p>","null","","","","","","","","","","","","","","","","","","","","","","",""
"","do_trial","392","1691606","0.0-202.0-0.0","481.10000002384186","","","","","","","","50","0,0,1","3","highway","131","probe-89","0.622352080917587","0.1950267248348537","0.2350860743224176","0","","","","","","","",""
"","html-keyboard-response","393","1692615","0.0-202.0-1.0","null","<p></p>","null","","","","","","","","","","","","","","","","","","","","","","",""
"","do_trial","394","1697880","0.0-203.0-0.0","711.8000000715256","","","","","","","","51","0,0,0","3","highway","132","probe-16","0.6456158152467917","0.2593724005486431","0.27623030254798353","0","","","","","","","",""
"","html-keyboard-response","395","1698895","0.0-203.0-1.0","null","<p></p>","null","","","","","","","","","","","","","","","","","","","","","","",""
"","do_trial","396","1703987","0.0-204.0-0.0","555.6000000238419","","","","","","","","50","1,0,1","3","highway","133","probe-201","0.6547536509234323","0.14473495033570458","0.26114229116119164","0","","","","","","","",""
"","html-keyboard-response","397","1704996","0.0-204.0-1.0","null","<p></p>","null","","","","","","","","","","","","","","","","","","","","","","",""
"","do_trial","398","1709933","0.0-205.0-0.0","401.10000002384186","","","","","","","","49","0,0,0","3","highway","134","probe-190","0.6274944553854743","0.09551043575021069","0.2594844699145147","0","","","","","","","",""
"","html-keyboard-response","399","1710939","0.0-205.0-1.0","null","<p></p>","null","","","","","","","","","","","","","","","","","","","","","","",""
"","do_trial","400","1715898","0.0-206.0-0.0","403.8000000715256","","","","","","","","50","0,0,0","3","highway","135","probe-185","0.6039951606429173","0.23028993028001352","0.22900373649960049","0","","","","","","","",""
"","html-keyboard-response","401","1716912","0.0-206.0-1.0","null","<p></p>","null","","","","","","","","","","","","","","","","","","","","","","",""
"","do_trial","402","1721893","0.0-207.0-0.0","416","","","","","","","","49","0,0,0","3","highway","136","probe-50","0.6677278298204461","0.27513675123210607","0.2568298636711989","0","","","","","","","",""
"","html-keyboard-response","403","1722898","0.0-207.0-1.0","null","<p></p>","null","","","","","","","","","","","","","","","","","","","","","","",""
"","do_trial","404","1728193","0.0-208.0-0.0","760.6000000238419","","","","","","","","50","1,0,1","3","highway","137","probe-174","0.7309209570781718","0.21807576457987524","0.34261278644069515","0","","","","","","","",""
"","html-keyboard-response","405","1729197","0.0-208.0-1.0","null","<p></p>","null","","","","","","","","","","","","","","","","","","","","","","",""
"","do_trial","406","1735242","0.0-209.0-0.0","null","","","","","","","","null","1,0,0","3","highway","138","probe-131","0.6956553876731336","0.10342411670080578","0.4595654004552588","","","","","","","","",""
"","html-keyboard-response","407","1736249","0.0-209.0-1.0","null","<p></p>","null","","","","","","","","","","","","","","","","","","","","","","",""
"","do_trial","408","1741574","0.0-210.0-0.0","774","","","","","","","","49","0,0,0","3","highway","139","probe-44","0.7298400466948175","0.18474558713820868","0.40026539876310047","0","","","","","","","",""
"","html-keyboard-response","409","1742591","0.0-210.0-1.0","null","<p></p>","null","","","","","","","","","","","","","","","","","","","","","","",""
"","do_trial","410","1747442","0.0-211.0-0.0","318.5","","","","","","","","50","0,0,0","3","highway","140","probe-87","0.6237064968499479","0.16939974079269976","0.32544248104948054","0","","","","","","","",""
"","html-keyboard-response","411","1748445","0.0-211.0-1.0","null","<p></p>","null","","","","","","","","","","","","","","","","","","","","","","",""
"","do_trial","412","1753457","0.0-212.0-0.0","470.2000000476837","","","","","","","","50","0,0,0","3","highway","141","probe-141","0.6768088771751465","0.26781901956679827","0.21295007766659305","0","","","","","","","",""
"","html-keyboard-response","413","1754466","0.0-212.0-1.0","null","<p></p>","null","","","","","","","","","","","","","","","","","","","","","","",""
"","do_trial","414","1759032","0.0-213.0-0.0","0.10000002384185791","","","","","","","","51","1,0,1","3","highway","142","probe-62","0.6844366720505421","0.22789720085939155","0.26004830584599814","1","","","","","","","",""
"","html-keyboard-response","415","1760043","0.0-213.0-1.0","null","<p></p>","null","","","","","","","","","","","","","","","","","","","","","","",""
"","do_trial","416","1765856","0.0-214.0-0.0","1261.5","","","","","","","","51","0,0,0","3","highway","143","probe-182","0.6631037588380396","0.08325852889272344","0.16150982050411833","0","","","","","","","",""
"","html-keyboard-response","417","1766858","0.0-214.0-1.0","null","<p></p>","null","","","","","","","","","","","","","","","","","","","","","","",""
"","do_trial","418","1771820","0.0-215.0-0.0","417.09999990463257","","","","","","","","49","0,0,0","3","highway","144","probe-211","0.7611263459446207","0.09791078192457194","0.24070121511788128","0","","","","","","","",""
"","html-keyboard-response","419","1772835","0.0-215.0-1.0","null","<p></p>","null","","","","","","","","","","","","","","","","","","","","","","",""
"","do_trial","420","1778127","0.0-216.0-0.0","734.2000000476837","","","","","","","","49","0,0,1","3","highway","145","probe-163","0.7237280657928308","0.10470308866588514","0.39617133027444645","0","","","","","","","",""
"","html-keyboard-response","421","1779138","0.0-216.0-1.0","null","<p></p>","null","","","","","","","","","","","","","","","","","","","","","","",""
"","do_trial","422","1784123","0.0-217.0-0.0","425.8000000715256","","","","","","","","50","1,0,0","3","highway","146","probe-53","0.49683087301513285","0.0821609503359255","0.30045984091143313","0","","","","","","","",""
"","html-keyboard-response","423","1785136","0.0-217.0-1.0","null","<p></p>","null","","","","","","","","","","","","","","","","","","","","","","",""
"","do_trial","424","1792660","0.0-218.0-0.0","2974.2999999523163","","","","","","","","49","0,0,0","3","highway","147","probe-21","0.5374018789196744","0.1737168872977789","0.32461362809585653","0","","","","","","","",""
"","html-keyboard-response","425","1793673","0.0-218.0-1.0","null","<p></p>","null","","","","","","","","","","","","","","","","","","","","","","",""
"","do_trial","426","1798883","0.0-219.0-0.0","653.9000000953674","","","","","","","","51","1,0,1","3","highway","148","probe-206","0.5841426101271641","0.056394102789453594","0.3751597575748235","1","","","","","","","",""
"","html-keyboard-response","427","1799899","0.0-219.0-1.0","null","<p></p>","null","","","","","","","","","","","","","","","","","","","","","","",""
"","do_trial","428","1805945","0.0-220.0-0.0","1506.8000000715256","","","","","","","","51","1,0,1","3","highway","149","probe-215","0.5817219758833287","0.054963655432198485","0.31062089617138067","1","","","","","","","",""
"","html-keyboard-response","429","1806960","0.0-220.0-1.0","null","<p></p>","null","","","","","","","","","","","","","","","","","","","","","","",""
"","do_bye","430","1808481","0.0-221.0-0.0","null","","","","","","","","null","","","","","","","","","","","","","","","","",""
"","break","431","1928485","0.0-221.0-1.0","null","<div class='center'><p>Time to take a quick break! You have 2 minutes to rest, but you can move on sooner if you'd like.</p><p> Press the <b>space bar</b> to continue.</p></div>","null","","","","","","","","","","","","","","","","","","","","","","",""
"","do_travel","432","1937490","0.0-222.0-0.0","null","","","","","","","","null","","","","","","","","","","","","","","","","",""
"","do_welcome","433","1941511","0.0-222.0-1.0","null","","","","","","","","null","","","","","","","","","","","","","","","","",""
"","do_trial","434","1947561","0.0-223.0-0.0","1492.2000000476837","","","","","","","","49","1,1,0","4","coast","150","probe-169","1","0.32067360272159834","0.2326398334986537","1","","","","","","","",""
"","html-keyboard-response","435","1948571","0.0-223.0-1.0","null","<p></p>","null","","","","","","","","","","","","","","","","","","","","","","",""
"","do_trial","436","1953908","0.0-224.0-0.0","775.6000000238419","","","","","","","","50","1,1,0","4","coast","151","probe-125","1","0.16855571735292066","0.2495688258002773","1","","","","","","","",""
"","html-keyboard-response","437","1954923","0.0-224.0-1.0","null","<p></p>","null","","","","","","","","","","","","","","","","","","","","","","",""
"","do_trial","438","1959760","0.0-225.0-0.0","297.2999999523163","","","","","","","","49","1,0,0","4","coast","152","probe-49","0.8649325675001116","0.12284770210506339","0.3599606978319235","1","","","","","","","",""
"","html-keyboard-response","439","1960762","0.0-225.0-1.0","null","<p></p>","null","","","","","","","","","","","","","","","","","","","","","","",""
"","do_trial","440","1965653","0.0-226.0-0.0","357.8000000715256","","","","","","","","50","1,0,0","4","coast","153","probe-116","0.790234932453917","0.0803549875301681","0.2962925952343725","0","","","","","","","",""
"","html-keyboard-response","441","1966658","0.0-226.0-1.0","null","<p></p>","null","","","","","","","","","","","","","","","","","","","","","","",""
"","do_trial","442","1971565","0.0-227.0-0.0","356.89999997615814","","","","","","","","50","1,0,1","4","coast","154","probe-23","0.908422975280562","0.08141884942634021","0.16731563077047804","0","","","","","","","",""
"","html-keyboard-response","443","1972573","0.0-227.0-1.0","null","<p></p>","null","","","","","","","","","","","","","","","","","","","","","","",""
"","do_trial","444","1978431","0.0-228.0-0.0","1313.3999999761581","","","","","","","","49","1,0,0","4","coast","155","probe-51","0.7829255809319812","0.17171677171653943","0.15579371425092386","1","","","","","","","",""
"","html-keyboard-response","445","1979439","0.0-228.0-1.0","null","<p></p>","null","","","","","","","","","","","","","","","","","","","","","","",""
"","do_trial","446","1985016","0.0-229.0-0.0","1011.1000000238419","","","","","","","","50","1,0,0","4","coast","156","probe-65","0.7444224566278977","0.0777411562455138","0.15564134493037923","0","","","","","","","",""
"","html-keyboard-response","447","1986026","0.0-229.0-1.0","null","<p></p>","null","","","","","","","","","","","","","","","","","","","","","","",""
"","do_trial","448","1992304","0.0-230.0-0.0","1737.2999999523163","","","","","","","","50","1,0,1","4","coast","157","probe-64","0.6950311359720514","0.08219347837126184","0.24968794179670475","0","","","","","","","",""
"","html-keyboard-response","449","1993310","0.0-230.0-1.0","null","<p></p>","null","","","","","","","","","","","","","","","","","","","","","","",""
"","do_trial","450","1998222","0.0-231.0-0.0","370.60000002384186","","","","","","","","49","1,0,0","4","coast","158","probe-67","0.7610644333161244","0.11888081818251828","0.2664456865474923","1","","","","","","","",""
"","html-keyboard-response","451","1999224","0.0-231.0-1.0","null","<p></p>","null","","","","","","","","","","","","","","","","","","","","","","",""
"","do_trial","452","2003958","0.0-232.0-0.0","196","","","","","","","","49","1,0,1","4","coast","159","probe-10","0.6299563171550895","0.16864364360527867","0.26062916885662235","1","","","","","","","",""
"","html-keyboard-response","453","2004961","0.0-232.0-1.0","null","<p></p>","null","","","","","","","","","","","","","","","","","","","","","","",""
"","do_trial","454","2009957","0.0-233.0-0.0","465.5","","","","","","","","49","1,0,0","4","coast","160","probe-02","0.5790948301625128","0.08319896657246904","0.08692887814769425","1","","","","","","","",""
"","html-keyboard-response","455","2010971","0.0-233.0-1.0","null","<p></p>","null","","","","","","","","","","","","","","","","","","","","","","",""
"","do_trial","456","2016749","0.0-234.0-0.0","1241","","","","","","","","49","0,0,0","4","coast","161","probe-152","0.4967988264794376","0.066137135159814","0.09602882070872315","0","","","","","","","",""
"","html-keyboard-response","457","2017752","0.0-234.0-1.0","null","<p></p>","null","","","","","","","","","","","","","","","","","","","","","","",""
"","do_trial","458","2023403","0.0-235.0-0.0","1110.5","","","","","","","","50","0,0,0","4","coast","162","probe-199","0.41816215892036196","0.15647901109687073","0.3048628655380446","0","","","","","","","",""
"","html-keyboard-response","459","2024405","0.0-235.0-1.0","null","<p></p>","null","","","","","","","","","","","","","","","","","","","","","","",""
"","do_trial","460","2030164","0.0-236.0-0.0","1218.7999999523163","","","","","","","","50","1,1,1","4","coast","163","probe-228","0.3738408196376467","0.22019079093716187","0.5246187691400787","1","","","","","","","",""
"","html-keyboard-response","461","2031174","0.0-236.0-1.0","null","<p></p>","null","","","","","","","","","","","","","","","","","","","","","","",""
