"success","trial_type","trial_index","time_elapsed","internal_node_id","rt","stimulus","key_press","subject_id","participant_id","age","gender","prompt","response","choice_outcomes","context_n","context_img_id","trial_n","probe_img_id","pR_red","pR_white","pR_black","outcome","contextArray_ind","validImageProbes","invalidImageProbes","pRew_Red","pRew_White","pRew_Black","availableForMemProbe","choice_blocks"
"true","fullscreen","0","3176","0.0-0.0","","","","","","","","","","","","","","","","","","","","","","","","","",""
"","pavlovia","1","3183","0.0-1.0","","","","","","","","","","","","","","","","","","","","","","","","","",""
"","instruc1","2","54396","0.0-2.0","null","run_exp/static/audio/clip_1_welcome.m4a","null","173","208","8","Male","<div class='center'><p>Welcome! This is the first part of the experiment. It will last ~30 minutes. In this experiment, you are the head captain of a pirate ship traveling around the world to different islands. You will play a few different games during this experiment. Here is an overview of these games:</p><br><p>Part 1 (today)</p><p>1. Instructions, practice game, and quiz</p><p>2. Pick a pirate game on 6 different islands</p><br><p>Part 2 (1 day later)</p><p>3. Pick a pirate game and memory game</p><p>4. Where did I see this ship? game</p><p>5. Which pirate was the best? game</p><br><p>Part 3 (1 week later)</p><p>6. Memory game</p></div>","","","","","","","","","","","","","","","","","",""
"","html-keyboard-response","3","55929","0.0-3.0","1515.7999999523163","<div class='center'><p>Welcome! This is the first part of the experiment. It will last ~30 minutes. In this experiment, you are the head captain of a pirate ship traveling around the world to different islands. You will play a few different games during this experiment. Here is an overview of these games:</p><br><p>Part 1 (today)</p><p>1. Instructions, practice game, and quiz</p><p>2. Pick a pirate game on 6 different islands</p><br><p>Part 2 (1 day later)</p><p>3. Pick a pirate game and memory game</p><p>4. Where did I see this ship? game</p><p>5. Which pirate was the best? game</p><br><p>Part 3 (1 week later)</p><p>6. Memory game</p><p><b>[Press the space bar to continue]</b></p></div>","32","","","","","","","","","","","","","","","","","","","","","","",""
"","instruc2","4","63993","0.0-4.0","null","run_exp/static/audio/clip_2_different_places.m4a","null","","","","","<div class='center'><p>Today, you’ll visit these 6 islands on your journey. You'll be able to see these islands from your ship.</p><p><img src='run_exp/static/images/contexts/all_contexts.png' height='500'></p></div>","","","","","","","","","","","","","","","","","",""
"","html-keyboard-response","5","66121","0.0-5.0","2125.9000000953674","<div class='center'><p>Today, you’ll visit these 6 islands on your journey. You'll be able to see these islands from your ship.</p><p><img src='run_exp/static/images/contexts/all_contexts.png' height='500'></p><p><b>[Press the space bar to continue]</b></p></div>","32","","","","","","","","","","","","","","","","","","","","","","",""
"","instruc3","6","78755","0.0-6.0","null","run_exp/static/audio/clip_3_goal_of_game_1.m4a","null","","","","","<div class='center'><p> The pirates on your ship will rob other ships as they leave the island</p> These ships have just sold their things to people on the island, so they will be filled with lots and lots of gold.</p><p><img src='run_exp/static/images/tutorial/ship_center.png' height='400'></p></div>","","","","","","","","","","","","","","","","","",""
"","html-keyboard-response","7","80311","0.0-7.0","1552.7999999523163","<div class='center'><p> The pirates on your ship will rob other ships as they leave the island</p> These ships have just sold their things to people on the island, so they will be filled with lots and lots of gold.</p><p><img src='run_exp/static/images/tutorial/ship_center.png' height='400'></p><p><b>[Press the space bar to continue]</b></p></div>","32","","","","","","","","","","","","","","","","","","","","","","",""
"","instruc4","8","113612","0.0-8.0","null","run_exp/static/audio/clip_4_goal_of_game_2.m4a","null","","","","","<div class='center'><p>As the head captain, you do not have to rob any ships yourself.</p><p>Another pirate will be doing the robbing for you. </p><p>First, you will  choose a pirate to rob the next ship.</p><p><img src='run_exp/static/images/tutorial/pirates_all_crop.png' height='200'></p><p>Then, you'll see if the pirate successfully robbed the ship of their gold. If they were successful, then you'll  get a stack of gold coins like this:</p><p><img src='run_exp/static/images/tutorial/reward.png' height='150'></p><p> If they were <b>not</b> successful, then you'll get no gold coins, and you'll see a big red x like this: </p><p><img src='run_exp/static/images/tutorial/reward_no.png' height='150'></p><p> How much bonus money you make is based on how many gold coins you collect.</p><div>","","","","","","","","","","","","","","","","","",""
"","html-keyboard-response","9","115552","0.0-9.0","1937.3999999761581","<div class='center'><p>As the head captain, you do not have to rob any ships yourself.</p><p>Another pirate will be doing the robbing for you. </p><p>First, you will  choose a pirate to rob the next ship.</p><p><img src='run_exp/static/images/tutorial/pirates_all_crop.png' height='200'></p><p>Then, you'll see if the pirate successfully robbed the ship of their gold. If they were successful, then you'll  get a stack of gold coins like this:</p><p><img src='run_exp/static/images/tutorial/reward.png' height='150'></p><p> If they were <b>not</b> successful, then you'll get no gold coins, and you'll see a big red x like this: </p><p><img src='run_exp/static/images/tutorial/reward_no.png' height='150'></p><p> How much bonus money you make is based on how many gold coins you collect.</p<p><b>[Press the space bar to continue]</b></p></div>","32","","","","","","","","","","","","","","","","","","","","","","",""
"","instruc5","10","142395","0.0-10.0","26842.799999952316","run_exp/static/audio/clip_5_probabilistic.m4a","49","","","","","<div class='center'><p>Even the most skilled pirate can not rob EVERY ship.</p><p> Some ships will have very strong protections against pirate attacks.</p><p> Blue beard, here, is very, very good at robbing ships, but he won't be successful every time he tries to rob one.</p><p> You can press the <b>‘1’</b> key on the keyboard to choose him.</p><p> Try choosing him 10 times to see how often he succeeds at robbing a ship. </p><p><img src='run_exp/static/images/tutorial/blue.png' height='500'></p></div>","","","","","","","","","","","","","","","","","",""
"","html-keyboard-response","11","143897","0.0-11.0","null","<div class='center'><p><img src='run_exp/static/images/tutorial/blue_win.png' height='500'></p></div>","null","","","","","","","","","","","","","","","","","","","","","","",""
"","html-keyboard-response","12","146031","0.0-12.0","2132","<div class='center'><img src='run_exp/static/images/tutorial/blue.png' height='500'></p></div>","49","","","","","","","","","","","","","","","","","","","","","","",""
"","html-keyboard-response","13","147535","0.0-13.0","null","<div class='center'><p><img src='run_exp/static/images/tutorial/blue_win.png' height='500'></p></div>","null","","","","","","","","","","","","","","","","","","","","","","",""
"","html-keyboard-response","14","149445","0.0-14.0","1908","<div class='center'><img src='run_exp/static/images/tutorial/blue.png' height='500'></p></div>","49","","","","","","","","","","","","","","","","","","","","","","",""
"","html-keyboard-response","15","150948","0.0-15.0","null","<div class='center'><p><img src='run_exp/static/images/tutorial/blue_win.png' height='500'></p></div>","null","","","","","","","","","","","","","","","","","","","","","","",""
"","html-keyboard-response","16","151472","0.0-16.0","522.4000000953674","<div class='center'><img src='run_exp/static/images/tutorial/blue.png' height='500'></p></div>","49","","","","","","","","","","","","","","","","","","","","","","",""
"","html-keyboard-response","17","152981","0.0-17.0","null","<div class='center'><p><img src='run_exp/static/images/tutorial/blue_no_win.png' height='500'></p></div>","null","","","","","","","","","","","","","","","","","","","","","","",""
"","html-keyboard-response","18","154114","0.0-18.0","1131.2000000476837","<div class='center'><img src='run_exp/static/images/tutorial/blue.png' height='500'></p></div>","49","","","","","","","","","","","","","","","","","","","","","","",""
"","html-keyboard-response","19","155616","0.0-19.0","null","<div class='center'><p><img src='run_exp/static/images/tutorial/blue_win.png' height='500'></p></div>","null","","","","","","","","","","","","","","","","","","","","","","",""
"","html-keyboard-response","20","156589","0.0-20.0","970.8999999761581","<div class='center'><img src='run_exp/static/images/tutorial/blue.png' height='500'></p></div>","49","","","","","","","","","","","","","","","","","","","","","","",""
"","html-keyboard-response","21","158093","0.0-21.0","null","<div class='center'><p><img src='run_exp/static/images/tutorial/blue_win.png' height='500'></p></div>","null","","","","","","","","","","","","","","","","","","","","","","",""
"","html-keyboard-response","22","160165","0.0-22.0","2070.3000000715256","<div class='center'><img src='run_exp/static/images/tutorial/blue.png' height='500'></p></div>","49","","","","","","","","","","","","","","","","","","","","","","",""
"","html-keyboard-response","23","161671","0.0-23.0","null","<div class='center'><p><img src='run_exp/static/images/tutorial/blue_win.png' height='500'></p></div>","null","","","","","","","","","","","","","","","","","","","","","","",""
"","html-keyboard-response","24","162720","0.0-24.0","1046.6999999284744","<div class='center'><img src='run_exp/static/images/tutorial/blue.png' height='500'></p></div>","49","","","","","","","","","","","","","","","","","","","","","","",""
"","html-keyboard-response","25","164221","0.0-25.0","null","<div class='center'><p><img src='run_exp/static/images/tutorial/blue_no_win.png' height='500'></p></div>","null","","","","","","","","","","","","","","","","","","","","","","",""
"","html-keyboard-response","26","164826","0.0-26.0","603.3999999761581","<div class='center'><img src='run_exp/static/images/tutorial/blue.png' height='500'></p></div>","49","","","","","","","","","","","","","","","","","","","","","","",""
"","html-keyboard-response","27","166330","0.0-27.0","null","<div class='center'><p><img src='run_exp/static/images/tutorial/blue_win.png' height='500'></p></div>","null","","","","","","","","","","","","","","","","","","","","","","",""
"","html-keyboard-response","28","166819","0.0-28.0","486.6999999284744","<div class='center'><img src='run_exp/static/images/tutorial/blue.png' height='500'></p></div>","49","","","","","","","","","","","","","","","","","","","","","","",""
"","html-keyboard-response","29","168320","0.0-29.0","null","<div class='center'><p><img src='run_exp/static/images/tutorial/blue_win.png' height='500'></p></div>","null","","","","","","","","","","","","","","","","","","","","","","",""
"","instruc6","30","175054","0.0-30.0","null","run_exp/static/audio/clip_6_blue_beard_outcome.m4a","null","","","","","<div class='center'><p> See, he succeeded in robbing the ships most of the time but not every time. </p></div>","","","","","","","","","","","","","","","","","",""
"","html-keyboard-response","31","176820","0.0-31.0","1764.6000000238419","<div class='center'><p> See, he succeeded in robbing the ships most of the time but not every time. </p><p><b>[Press the space bar to continue]</b></p></div>","32","","","","","","","","","","","","","","","","","","","","","","",""
"","audio-keyboard-response","32","197484","0.0-32.0","20663","run_exp/static/audio/clip_7_pick_pirate.m4a","50","","","","","","","","","","","","","","","","","","","","","","",""
"","audio-keyboard-response","33","201573","0.0-33.0-0.0","4085.7999999523163","run_exp/static/audio/clip_8_chosen_pirate_win.m4a","32","","","","","","","","","","","","","","","","","","","","","","",""
"","audio-keyboard-response","34","205630","0.0-33.0-1.0","4056.5","run_exp/static/audio/clip_9_pick_a_pirate_again.m4a","49","","","","","","","","","","","","","","","","","","","","","","",""
"","audio-keyboard-response","35","207822","0.0-34.0-0.0","2188.600000023842","run_exp/static/audio/clip_10_chosen_pirate_loss.m4a","32","","","","","","","","","","","","","","","","","","","","","","",""
"","instruc9","36","214988","0.0-35.0-0.0","null","run_exp/static/audio/clip_11_time_out.m4a","null","","","","","<div class='center'><p>If you don’t make your choice fast enough, you’ll have to wait a few seconds before you can make another one. </p><p><img src='run_exp/static/images/miscellaneous/hurry_up.png' height='500'></p></div>","","","","","","","","","","","","","","","","","",""
"","html-keyboard-response","37","218100","0.0-35.0-1.0","3109.899999976158","<div class='center'><p>If you don’t make your choice fast enough, you’ll have to wait a few seconds before you can make another one. </p><p><img src='run_exp/static/images/miscellaneous/hurry_up.png' height='500'></p><p><b>[Press the space bar to continue]</b></p></div>","32","","","","","","","","","","","","","","","","","","","","","","",""
"","instruc10","38","266783","0.0-35.0-2.0","null","run_exp/static/audio/clip_12_probe.m4a","null","","","","","<div class='center'><p>Once you've choose a pirate, you’ll be shown the ship they are robbing.</p><p>You will never rob the same ship twice. After all, ships that have already been robbed won’t have gold on them. </p><p>Ships can be told apart from one another by the image on them. See, this one has a travel mug on it. </p><p> You’ll have to remember which island you saw each ship on.You will win more bonus money if you remember correctly! To help you remember, you can imagine a story. For example, here, you could imagine a mug full of water in the desert. Or, as another example, if on the forest island, your pirate robbed a ship with an apple on it, you could imagine an apple falling from a tree in the forest. </p><p><img src='run_exp/static/images/tutorial/example_probe.png' height='500'></p></div>","","","","","","","","","","","","","","","","","",""
"","html-keyboard-response","39","268342","0.0-35.0-3.0","1557.1000000238419","<div class='center'><p>Once you've choose a pirate, you’ll be shown the ship they are robbing.</p><p>You will never rob the same ship twice. After all, ships that have already been robbed won’t have gold on them. </p><p>Ships can be told apart from one another by the image on them. See, this one has a travel mug on it. </p><p> You’ll have to remember which island you saw each ship on.You will win more bonus money if you remember correctly! To help you remember, you can imagine a story. For example, here, you could imagine a mug full of water in the desert. Or, as another example, if on the forest island, your pirate robbed a ship with an apple on it, you could imagine an apple falling from a tree in the forest. </p><p><img src='run_exp/static/images/tutorial/example_probe.png' height='500'></p><p><b>[Press the space bar to continue]</b></p></div>","32","","","","","","","","","","","","","","","","","","","","","","",""
"","instruc11","40","289288","0.0-35.0-4.0","null","run_exp/static/audio/clip_13_changepoint.m4a","null","","","","","<div class='center'><p>How successful a pirate is at robbing ships will depend on the island you’re on.</p><p> A pirate may have visited this island many times before and gained a lot of practice robbing ships there.</p><p>So, they’re more likely to be successful than a pirate who has never visited the island before.</p></div>","","","","","","","","","","","","","","","","","",""
"","html-keyboard-response","41","290876","0.0-35.0-5.0","1585.9000000953674","<div class='center'><p>How successful a pirate is at robbing ships will depend on the island you’re on.</p><p> A pirate may have visited this island many times before and gained a lot of practice robbing ships there.</p><p>So, they’re more likely to be successful than a pirate who has never visited the island before.</p><p><b>[Press the space bar to continue]</b></p></div>","32","","","","","","","","","","","","","","","","","","","","","","",""
"","instruc12","42","318940","0.0-35.0-6.0","null","run_exp/static/audio/clip_14_drift.m4a","null","","","","","<div class='center'><p>How successful a pirate is at robbing ships can also change over the time spent on the island. </p><p> Ships may hear from islanders about the pirates coming and will improve their protections against the attack. This may make it harder to rob them.</p><p> Ships may also become lazy and weaken the strength of their protections. This may make it easier to rob them.</p><br><p>Things are always changing on the high seas! So, try your best to pay attention!</p><p><img src='run_exp/static/images/tutorial/contingency.png' height='500'></p></div>","","","","","","","","","","","","","","","","","",""
"","html-keyboard-response","43","320291","0.0-35.0-7.0","1348.6999999284744","<div class='center'><p>How successful a pirate is at robbing ships can also change over the time spent on the island. </p><p> Ships may hear from islanders about the pirates coming and will improve their protections against the attack. This may make it harder to rob them.</p><p> Ships may also become lazy and weaken the strength of their protections. This may make it easier to rob them.</p><br><p>Things are always changing on the high seas! So, try your best to pay attention!</p><p><img src='run_exp/static/images/tutorial/contingency.png' height='500'></p><p><b>[Press the space bar to continue]</b></p></div>","32","","","","","","","","","","","","","","","","","","","","","","",""
"","instruc13","44","365550","0.0-35.0-8.0","null","run_exp/static/audio/clip_15_summary.m4a","null","","","","","<div class='center'><p>Let's go over the instructions quickly again. You have two important things to do: </p><b><p> 1. Pick the pirate who is the best at robbing ships on the current island. This way you'll collect more gold coins!</p></b><b><p> 2. Remember on which island a ship was robbed.</p> </b><p>The amount of bonus money you can win depends on both.</p><p><br><p>Let’s try a practice game. The game will start by showing you the pirates. First, pick a pirate using the <b> 1, 2, 3 </b> keys on your keyboard. When you are shown a ship, try to remember which island you’re on by making up a story.</p><p>This is just a practice game, so you’re not playing for money. </p><p> Good luck! This game will be very difficult but try your best!</p></div>","","","","","","","","","","","","","","","","","",""
"","html-keyboard-response","45","367920","0.0-35.0-9.0","2367.600000023842","<div class='center'><p>Let's go over the instructions quickly again. You have two important things to do: </p><b><p> 1. Pick the pirate who is the best at robbing ships on the current island. This way you'll collect more gold coins!</p></b><b><p> 2. Remember on which island a ship was robbed.</p> </b><p>The amount of bonus money you can win depends on both.</p><p><br><p>Let’s try a practice game. The game will start by showing you the pirates. First, pick a pirate using the <b> 1, 2, 3 </b> keys on your keyboard. When you are shown a ship, try to remember which island you’re on by making up a story.</p><p>This is just a practice game, so you’re not playing for money. </p><p> Good luck! This game will be very difficult but try your best!</p><p><b>[Press the space bar to continue]</b></p></div>","32","","","","","","","","","","","","","","","","","","","","","","",""
"","do_welcome","46","371934","0.0-35.0-10.0","null","","","","","","","","null","","","","","","","","","","","","","","","","",""
"","do_trial","47","377947","0.0-35.0-11.0","null","","","","","","","","null","1,0,0","","","","","","","","","","","","","","","",""
"","html-keyboard-response","48","378949","0.0-36.0-0.0","null","<p></p>","null","","","","","","","","","","","","","","","","","","","","","","",""
"","do_trial","49","385092","0.0-36.0-1.0","1629.3999999761581","","","","","","","","50","1,0,0","","","","","","","","","","","","","","","",""
"","html-keyboard-response","50","386095","0.0-37.0-0.0","null","<p></p>","null","","","","","","","","","","","","","","","","","","","","","","",""
"","do_trial","51","392808","0.0-37.0-1.0","2201.5","","","","","","","","51","1,1,0","","","","","","","","","","","","","","","",""
"","html-keyboard-response","52","393811","0.0-38.0-0.0","null","<p></p>","null","","","","","","","","","","","","","","","","","","","","","","",""
"","do_trial","53","400630","0.0-38.0-1.0","2310.1999999284744","","","","","","","","49","1,0,1","","","","","","","","","","","","","","","",""
"","html-keyboard-response","54","401633","0.0-39.0-0.0","null","<p></p>","null","","","","","","","","","","","","","","","","","","","","","","",""
"","do_trial","55","409094","0.0-39.0-1.0","2950.6999999284744","","","","","","","","51","0,1,0","","","","","","","","","","","","","","","",""
"","html-keyboard-response","56","410097","0.0-40.0-0.0","null","<p></p>","null","","","","","","","","","","","","","","","","","","","","","","",""
"","do_trial","57","416090","0.0-40.0-1.0","1479.7999999523163","","","","","","","","50","1,0,0","","","","","","","","","","","","","","","",""
"","do_bye","58","417599","0.0-41.0-0.0","null","","","","","","","","null","","","","","","","","","","","","","","","","",""
"","do_travel","59","426604","0.0-41.0-1.0","null","","","","","","","","null","","","","","","","","","","","","","","","","",""
"","do_welcome","60","430613","0.0-41.0-2.0","null","","","","","","","","null","","","","","","","","","","","","","","","","",""
"","do_trial","61","437919","0.0-41.0-3.0","2796.2999999523163","","","","","","","","50","1,0,0","","","","","","","","","","","","","","","",""
"","html-keyboard-response","62","438927","0.0-42.0-0.0","null","<p></p>","null","","","","","","","","","","","","","","","","","","","","","","",""
"","do_trial","63","444660","0.0-42.0-1.0","1222.3000000715256","","","","","","","","51","1,0,1","","","","","","","","","","","","","","","",""
"","html-keyboard-response","64","445664","0.0-43.0-0.0","null","<p></p>","null","","","","","","","","","","","","","","","","","","","","","","",""
"","do_trial","65","451676","0.0-43.0-1.0","null","","","","","","","","null","1,1,0","","","","","","","","","","","","","","","",""
"","html-keyboard-response","66","452685","0.0-44.0-0.0","null","<p></p>","null","","","","","","","","","","","","","","","","","","","","","","",""
"","do_trial","67","457571","0.0-44.0-1.0","374","","","","","","","","51","1,1,0","","","","","","","","","","","","","","","",""
"","html-keyboard-response","68","458579","0.0-45.0-0.0","null","<p></p>","null","","","","","","","","","","","","","","","","","","","","","","",""
"","do_trial","69","464595","0.0-45.0-1.0","1505.6999999284744","","","","","","","","51","0,0,1","","","","","","","","","","","","","","","",""
"","html-keyboard-response","70","465598","0.0-46.0-0.0","null","<p></p>","null","","","","","","","","","","","","","","","","","","","","","","",""
"","do_trial","71","471784","0.0-46.0-1.0","1674.5999999046326","","","","","","","","51","1,0,1","","","","","","","","","","","","","","","",""
"","html-keyboard-response","72","476576","0.0-47.0-0.0","4788","<div class='center'><p><img src='run_exp/static/images/tutorial/prac_best_pirate.png'  height='500'></p></div>","49","","","","","","","","","","","","","","","","","","","","","","",""
"","html-keyboard-response","73","478070","0.0-48.0-0.0","1491.8000000715256","<div class='center'><p>That's correct! Red beard was the best.</p><p><b>[Press the space bar to continue]</b></p></div>","32","","","","","","","","","","","","","","","","","","","","","","",""
"","html-keyboard-response","74","485653","0.0-48.0-1.0","7582.700000047684","<div class='center'><p><img src='run_exp/static/images/tutorial/prac_source.png'  height='500'></p></div>","49","","","","","","","","","","","","","","","","","","","","","","",""
"","html-keyboard-response","75","488917","0.0-49.0-0.0","3262.4000000953674","<div class='center'><p>That's incorrect! You saw this ship on the cavern island</p><p><b>[Press the space bar to continue]</b></p></div>","32","","","","","","","","","","","","","","","","","","","","","","",""
"","quiz_beginning","76","502398","0.0-49.0-1.0","null","run_exp/static/audio/clip_16_quiz_intro.m4a","null","","","","","<div class='center'><p>Good job on the practice game! Now, you will be asked some true or false questions to make sure you really understand the rules of the game.</p><p> Press <b>'1'</b> on the keyboard for true and press <b>'2'</b> for false.</p></div>","","","","","","","","","","","","","","","","","",""
"","audio-keyboard-response","77","513494","0.0-49.0-2.0","11094.800000071526","run_exp/static/audio/clip_17_q1.m4a","49","","","","","","","","","","","","","","","","","","","","","","",""
"","q1_err","78","521168","0.0-50.0-0.0","null","run_exp/static/audio/clip_19_wrong_q1.m4a","null","","","","","<div class='center'><p>That’s incorrect! You win bonus money by collecting as many gold coins as possible!</p></div>","","","","","","","","","","","","","","","","","",""
"","html-keyboard-response","79","522796","0.0-50.0-1.0","1626.3999999761581","<div class='center'><p>That’s incorrect! You win bonus money by collecting as many gold coins as possible!</p><p><b>[Press the space bar to continue]</b></p></div>","32","","","","","","","","","","","","","","","","","","","","","","",""
"","audio-keyboard-response","80","526972","0.0-50.0-2.0","4174.299999952316","run_exp/static/audio/clip_20_q2.m4a","50","","","","","","","","","","","","","","","","","","","","","","",""
"","correct","81","530000","0.0-51.0-0.0","null","run_exp/static/audio/clip_18_correct.m4a","null","","","","","<div class='center'><p>That's correct!</p></div>","","","","","","","","","","","","","","","","","",""
"","html-keyboard-response","82","531699","0.0-51.0-1.0","1698.1999999284744","<div class='center'><p>That's correct!</p><p><b>[Press the space bar to continue]</b></p></div>","32","","","","","","","","","","","","","","","","","","","","","","",""
"","audio-keyboard-response","83","536039","0.0-51.0-2.0","4338.200000047684","run_exp/static/audio/clip_22_q3.m4a","50","","","","","","","","","","","","","","","","","","","","","","",""
"","correct","84","539024","0.0-52.0-0.0","null","run_exp/static/audio/clip_18_correct.m4a","null","","","","","<div class='center'><p>That's correct!</p></div>","","","","","","","","","","","","","","","","","",""
"","html-keyboard-response","85","540967","0.0-52.0-1.0","1942.6000000238419","<div class='center'><p>That's correct!</p><p><b>[Press the space bar to continue]</b></p></div>","32","","","","","","","","","","","","","","","","","","","","","","",""
"","audio-keyboard-response","86","543807","0.0-52.0-2.0","2838.0999999046326","run_exp/static/audio/clip_24_q4.m4a","49","","","","","","","","","","","","","","","","","","","","","","",""
"","correct","87","546769","0.0-53.0-0.0","null","run_exp/static/audio/clip_18_correct.m4a","null","","","","","<div class='center'><p>That's correct!</p></div>","","","","","","","","","","","","","","","","","",""
"","html-keyboard-response","88","548399","0.0-53.0-1.0","1628.8000000715256","<div class='center'><p>That's correct!</p><p><b>[Press the space bar to continue]</b></p></div>","32","","","","","","","","","","","","","","","","","","","","","","",""
"","q_all_err","89","555982","0.0-54.0-0.0","null","run_exp/static/audio/clip_26_quiz_redo.m4a","null","","","","","<div class='center'><p>Oops, you missed some questions. Now that you’ve heard the correct answers. Try the quiz again! </p></div>","","","","","","","","","","","","","","","","","",""
"","html-keyboard-response","90","556536","0.0-54.0-1.0","551.7999999523163","<div class='center'><p>Oops, you missed some questions. Now that you’ve heard the correct answers. Try the quiz again! </p><p><b>[Press the space bar to continue]</b></p></div>","32","","","","","","","","","","","","","","","","","","","","","","",""
"","audio-keyboard-response","91","558503","0.0-54.0-2.0","1965.7999999523163","run_exp/static/audio/clip_17_q1.m4a","49","","","","","","","","","","","","","","","","","","","","","","",""
"","q1_err","92","566137","0.0-55.0-0.0","null","run_exp/static/audio/clip_19_wrong_q1.m4a","null","","","","","<div class='center'><p>That’s incorrect! You win bonus money by collecting as many gold coins as possible!</p></div>","","","","","","","","","","","","","","","","","",""
"","html-keyboard-response","93","567668","0.0-55.0-1.0","1530.4000000953674","<div class='center'><p>That’s incorrect! You win bonus money by collecting as many gold coins as possible!</p><p><b>[Press the space bar to continue]</b></p></div>","32","","","","","","","","","","","","","","","","","","","","","","",""
"","audio-keyboard-response","94","569591","0.0-55.0-2.0","1920.7999999523163","run_exp/static/audio/clip_20_q2.m4a","49","","","","","","","","","","","","","","","","","","","","","","",""
"","q2_err","95","575138","0.0-56.0-0.0","null","run_exp/static/audio/clip_21_wrong_q2.m4a","null","","","","","<div class='center'><p>That’s incorrect! You win bonus money by collecting as many gold coins as possible!</p></div>","","","","","","","","","","","","","","","","","",""
"","html-keyboard-response","96","576715","0.0-56.0-1.0","1575.3000000715256","<div class='center'><p>That’s incorrect! You win bonus money by collecting as many gold coins as possible!</p><p><b>[Press the space bar to continue]</b></p></div>","32","","","","","","","","","","","","","","","","","","","","","","",""
"","audio-keyboard-response","97","576956","0.0-56.0-2.0","239.30000007152557","run_exp/static/audio/clip_22_q3.m4a","49","","","","","","","","","","","","","","","","","","","","","","",""
"","q3_err","98","585230","0.0-57.0-0.0","null","run_exp/static/audio/clip_23_wrong_q3.m4a","null","","","","","<div class='center'><p>That’s incorrect! How good a pirate is at robbing ships can change from island to island!</p></div>","","","","","","","","","","","","","","","","","",""
"","html-keyboard-response","99","586507","0.0-57.0-1.0","1275.3999999761581","<div class='center'><p>That’s incorrect! How good a pirate is at robbing ships can change from island to island!</p><p><b>[Press the space bar to continue]</b></p></div>","32","","","","","","","","","","","","","","","","","","","","","","",""
"","audio-keyboard-response","100","587424","0.0-57.0-2.0","915.6000000238419","run_exp/static/audio/clip_24_q4.m4a","49","","","","","","","","","","","","","","","","","","","","","","",""
"","correct","101","590415","0.0-58.0-0.0","null","run_exp/static/audio/clip_18_correct.m4a","null","","","","","<div class='center'><p>That's correct!</p></div>","","","","","","","","","","","","","","","","","",""
"","html-keyboard-response","102","591419","0.0-58.0-1.0","1001.7000000476837","<div class='center'><p>That's correct!</p><p><b>[Press the space bar to continue]</b></p></div>","32","","","","","","","","","","","","","","","","","","","","","","",""
"","q_all_err","103","598988","0.0-59.0-0.0","null","run_exp/static/audio/clip_26_quiz_redo.m4a","null","","","","","<div class='center'><p>Oops, you missed some questions. Now that you’ve heard the correct answers. Try the quiz again! </p></div>","","","","","","","","","","","","","","","","","",""
"","html-keyboard-response","104","599951","0.0-59.0-1.0","961.6999999284744","<div class='center'><p>Oops, you missed some questions. Now that you’ve heard the correct answers. Try the quiz again! </p><p><b>[Press the space bar to continue]</b></p></div>","32","","","","","","","","","","","","","","","","","","","","","","",""
"","audio-keyboard-response","105","602048","0.0-59.0-2.0","2095.5","run_exp/static/audio/clip_17_q1.m4a","50","","","","","","","","","","","","","","","","","","","","","","",""
"","correct","106","605047","0.0-60.0-0.0","null","run_exp/static/audio/clip_18_correct.m4a","null","","","","","<div class='center'><p>That's correct!</p></div>","","","","","","","","","","","","","","","","","",""
"","html-keyboard-response","107","606457","0.0-60.0-1.0","1409.3999999761581","<div class='center'><p>That's correct!</p><p><b>[Press the space bar to continue]</b></p></div>","32","","","","","","","","","","","","","","","","","","","","","","",""
"","audio-keyboard-response","108","608536","0.0-60.0-2.0","2076.899999976158","run_exp/static/audio/clip_20_q2.m4a","49","","","","","","","","","","","","","","","","","","","","","","",""
"","q2_err","109","614091","0.0-61.0-0.0","null","run_exp/static/audio/clip_21_wrong_q2.m4a","null","","","","","<div class='center'><p>That’s incorrect! You win bonus money by collecting as many gold coins as possible!</p></div>","","","","","","","","","","","","","","","","","",""
"","html-keyboard-response","110","617773","0.0-61.0-1.0","3680.5","<div class='center'><p>That’s incorrect! You win bonus money by collecting as many gold coins as possible!</p><p><b>[Press the space bar to continue]</b></p></div>","32","","","","","","","","","","","","","","","","","","","","","","",""
"","audio-keyboard-response","111","622285","0.0-61.0-2.0","4511.099999904633","run_exp/static/audio/clip_22_q3.m4a","49","","","","","","","","","","","","","","","","","","","","","","",""
"","q3_err","112","630581","0.0-62.0-0.0","null","run_exp/static/audio/clip_23_wrong_q3.m4a","null","","","","","<div class='center'><p>That’s incorrect! How good a pirate is at robbing ships can change from island to island!</p></div>","","","","","","","","","","","","","","","","","",""
"","html-keyboard-response","113","632426","0.0-62.0-1.0","1843.3999999761581","<div class='center'><p>That’s incorrect! How good a pirate is at robbing ships can change from island to island!</p><p><b>[Press the space bar to continue]</b></p></div>","32","","","","","","","","","","","","","","","","","","","","","","",""
"","audio-keyboard-response","114","632766","0.0-62.0-2.0","338.3000000715256","run_exp/static/audio/clip_24_q4.m4a","49","","","","","","","","","","","","","","","","","","","","","","",""
"","correct","115","635810","0.0-63.0-0.0","null","run_exp/static/audio/clip_18_correct.m4a","null","","","","","<div class='center'><p>That's correct!</p></div>","","","","","","","","","","","","","","","","","",""
"","html-keyboard-response","116","636096","0.0-63.0-1.0","284.39999997615814","<div class='center'><p>That's correct!</p><p><b>[Press the space bar to continue]</b></p></div>","32","","","","","","","","","","","","","","","","","","","","","","",""
"","q_all_corr","117","645110","0.0-64.0-0.0","null","run_exp/static/audio/clip_27_quiz_all_correct.m4a","null","","","","","<div class='center'><p>Good job! You’re now ready to move on to the real game! Remember this game will be difficult but don't get discouraged and try your best!</p></div>","","","","","","","","","","","","","","","","","",""
"","html-keyboard-response","118","646415","0.0-64.0-1.0","1302.7000000476837","<div class='center'><p>Good job! You’re now ready to move on to the real game! Remember this game will be difficult but don't get discouraged and try your best!</p><p><b>[Press the space bar to continue]</b></p></div>","32","","","","","","","","","","","","","","","","","","","","","","",""
"","do_welcome","119","650424","0.0-65.0-0.0","null","","","","","","","","null","","","","","","","","","","","","","","","","",""
"","do_trial","120","657774","0.0-66.0-0.0","2785.2999999523163","","","","","","","","50","0,1,0","0","coast","0","probe-106","0.6","0.3","0.1","1","","","","","","","",""
"","html-keyboard-response","121","658779","0.0-66.0-1.0","null","<p></p>","null","","","","","","","","","","","","","","","","","","","","","","",""
"","do_trial","122","664155","0.0-67.0-0.0","813","","","","","","","","50","0,1,1","0","coast","1","probe-219","0.7101710457609088","0.22902398518552794","0.1544771915797179","1","","","","","","","",""
"","html-keyboard-response","123","665157","0.0-67.0-1.0","null","<p></p>","null","","","","","","","","","","","","","","","","","","","","","","",""
"","do_trial","124","670114","0.0-68.0-0.0","393.8000000715256","","","","","","","","51","0,0,0","0","coast","2","probe-156","0.6970793441685322","0.26144934607111964","0.1779343939248117","0","","","","","","","",""
"","html-keyboard-response","125","671117","0.0-68.0-1.0","null","<p></p>","null","","","","","","","","","","","","","","","","","","","","","","",""
"","do_trial","126","676037","0.0-69.0-0.0","343.7999999523163","","","","","","","","50","1,1,0","0","coast","3","probe-229","0.6264975465910019","0.29838556786106335","0.06478534328553544","1","","","","","","","",""
"","html-keyboard-response","127","677043","0.0-69.0-1.0","null","<p></p>","null","","","","","","","","","","","","","","","","","","","","","","",""
"","do_trial","128","682734","0.0-70.0-0.0","1129.3999999761581","","","","","","","","50","1,0,1","0","coast","4","probe-02","0.7919113962561564","0.24426483154460502","0.11388185823199608","0","","","","","","","",""
"","html-keyboard-response","129","683736","0.0-70.0-1.0","null","<p></p>","null","","","","","","","","","","","","","","","","","","","","","","",""
"","do_trial","130","688760","0.0-71.0-0.0","454.89999997615814","","","","","","","","50","1,0,0","0","coast","5","probe-73","0.623984259686082","0.32753004833577676","0.14865109091698103","0","","","","","","","",""
"","html-keyboard-response","131","689766","0.0-71.0-1.0","null","<p></p>","null","","","","","","","","","","","","","","","","","","","","","","",""
"","do_trial","132","695521","0.0-72.0-0.0","1189.6999999284744","","","","","","","","50","1,1,0","0","coast","6","probe-197","0.5219150939559234","0.4041063852598058","0.06132431045897251","1","","","","","","","",""
"","html-keyboard-response","133","696527","0.0-72.0-1.0","null","<p></p>","null","","","","","","","","","","","","","","","","","","","","","","",""
"","do_trial","134","702323","0.0-73.0-0.0","1235.1000000238419","","","","","","","","49","1,0,0","0","coast","7","probe-183","0.6911631511342072","0.27897951300406254","0.08618604375721323","1","","","","","","","",""
"","html-keyboard-response","135","703327","0.0-73.0-1.0","null","<p></p>","null","","","","","","","","","","","","","","","","","","","","","","",""
"","do_trial","136","709533","0.0-74.0-0.0","1640.6999999284744","","","","","","","","50","1,0,0","0","coast","8","probe-65","0.6078194925671732","0.44873474563787397","0.13103771940431397","0","","","","","","","",""
"","html-keyboard-response","137","710538","0.0-74.0-1.0","null","<p></p>","null","","","","","","","","","","","","","","","","","","","","","","",""
"","do_trial","138","715958","0.0-75.0-0.0","823.2999999523163","","","","","","","","49","0,1,1","0","coast","9","probe-13","0.6217810496166726","0.41850584357570997","0.10953519266135647","0","","","","","","","",""
"","html-keyboard-response","139","716962","0.0-75.0-1.0","null","<p></p>","null","","","","","","","","","","","","","","","","","","","","","","",""
"","do_trial","140","721902","0.0-76.0-0.0","375.39999997615814","","","","","","","","51","1,1,0","0","coast","10","probe-172","0.5614685661555592","0.35432821134108256","0.14894221557193646","0","","","","","","","",""
"","html-keyboard-response","141","722904","0.0-76.0-1.0","null","<p></p>","null","","","","","","","","","","","","","","","","","","","","","","",""
"","do_trial","142","727914","0.0-77.0-0.0","444.89999997615814","","","","","","","","49","1,1,0","0","coast","11","probe-75","0.7105781299460872","0.3369985684432266","0.09580732403038544","1","","","","","","","",""
"","html-keyboard-response","143","728917","0.0-77.0-1.0","null","<p></p>","null","","","","","","","","","","","","","","","","","","","","","","",""
"","do_trial","144","733984","0.0-78.0-0.0","505.2000000476837","","","","","","","","50","1,1,0","0","coast","12","probe-206","0.8018647656457673","0.308689009788566","0.06454935860364315","1","","","","","","","",""
"","html-keyboard-response","145","734987","0.0-78.0-1.0","null","<p></p>","null","","","","","","","","","","","","","","","","","","","","","","",""
"","do_trial","146","740317","0.0-79.0-0.0","767.9000000953674","","","","","","","","50","0,0,0","0","coast","13","probe-181","0.7728471562203819","0.26575283318795084","0.08057328963346141","0","","","","","","","",""
"","html-keyboard-response","147","741321","0.0-79.0-1.0","null","<p></p>","null","","","","","","","","","","","","","","","","","","","","","","",""
"","do_trial","148","746627","0.0-80.0-0.0","744.1999999284744","","","","","","","","51","1,1,0","0","coast","14","probe-157","0.6457531800751812","0.34085213546301285","0.13050701543925322","0","","","","","","","",""
"","html-keyboard-response","149","747630","0.0-80.0-1.0","null","<p></p>","null","","","","","","","","","","","","","","","","","","","","","","",""
"","do_trial","150","752350","0.0-81.0-0.0","157.79999995231628","","","","","","","","51","0,0,0","0","coast","15","probe-136","0.5502659180548833","0.407075157058564","0.059718506432465165","0","","","","","","","",""
"","html-keyboard-response","151","753354","0.0-81.0-1.0","null","<p></p>","null","","","","","","","","","","","","","","","","","","","","","","",""
"","do_trial","152","758826","0.0-82.0-0.0","910.2000000476837","","","","","","","","51","1,1,0","0","coast","16","probe-217","0.6781751272393092","0.5057403238248862","0.07040142378931241","0","","","","","","","",""
"","html-keyboard-response","153","759828","0.0-82.0-1.0","null","<p></p>","null","","","","","","","","","","","","","","","","","","","","","","",""
"","do_trial","154","765254","0.0-83.0-0.0","864.2999999523163","","","","","","","","51","1,1,0","0","coast","17","probe-09","0.5899908884067836","0.2902306550658159","0.14477978140581177","0","","","","","","","",""
"","html-keyboard-response","155","766257","0.0-83.0-1.0","null","<p></p>","null","","","","","","","","","","","","","","","","","","","","","","",""
"","do_trial","156","771987","0.0-84.0-0.0","1170.2000000476837","","","","","","","","51","0,0,0","0","coast","18","probe-124","0.6883703523154446","0.3226840334627367","0.16996698733883112","0","","","","","","","",""
"","html-keyboard-response","157","772992","0.0-84.0-1.0","null","<p></p>","null","","","","","","","","","","","","","","","","","","","","","","",""
"","do_trial","158","778691","0.0-85.0-0.0","1136.8000000715256","","","","","","","","51","1,0,0","0","coast","19","probe-134","0.6773060277385959","0.3895384100618525","0.07742148775049505","0","","","","","","","",""
"","html-keyboard-response","159","779696","0.0-85.0-1.0","null","<p></p>","null","","","","","","","","","","","","","","","","","","","","","","",""
"","do_trial","160","784639","0.0-86.0-0.0","381.5","","","","","","","","51","1,0,0","0","coast","20","probe-207","0.7163356670904907","0.37464872745906247","0.10015869283610843","0","","","","","","","",""
"","html-keyboard-response","161","785646","0.0-86.0-1.0","null","<p></p>","null","","","","","","","","","","","","","","","","","","","","","","",""
"","do_trial","162","791884","0.0-87.0-0.0","1672.2000000476837","","","","","","","","51","1,0,0","0","coast","21","probe-21","0.819486489950819","0.3496987794563014","0.20211053223786443","0","","","","","","","",""
"","html-keyboard-response","163","792888","0.0-87.0-1.0","null","<p></p>","null","","","","","","","","","","","","","","","","","","","","","","",""
"","do_trial","164","797451","0.0-88.0-0.0","0.3999999761581421","","","","","","","","50","1,0,0","0","coast","22","probe-38","0.7784633338168638","0.37958362888942104","0.22111854615605786","0","","","","","","","",""
"","html-keyboard-response","165","798453","0.0-88.0-1.0","null","<p></p>","null","","","","","","","","","","","","","","","","","","","","","","",""
"","do_trial","166","803092","0.0-89.0-0.0","77.09999990463257","","","","","","","","49","0,0,0","0","coast","23","probe-122","0.7005907619186197","0.2984818719839883","0.13445007391990926","0","","","","","","","",""
"","html-keyboard-response","167","804095","0.0-89.0-1.0","null","<p></p>","null","","","","","","","","","","","","","","","","","","","","","","",""
"","do_trial","168","809017","0.0-90.0-0.0","360.7000000476837","","","","","","","","50","0,0,0","0","coast","24","probe-32","0.557300367001197","0.26692152113435463","0.08783316167608435","0","","","","","","","",""
"","html-keyboard-response","169","810022","0.0-90.0-1.0","null","<p></p>","null","","","","","","","","","","","","","","","","","","","","","","",""
"","do_trial","170","814722","0.0-91.0-0.0","134.20000004768372","","","","","","","","49","0,0,0","0","coast","25","probe-101","0.6145392002938348","0.4531260138478513","0.09543021780333506","0","","","","","","","",""
"","html-keyboard-response","171","815727","0.0-91.0-1.0","null","<p></p>","null","","","","","","","","","","","","","","","","","","","","","","",""
"","do_trial","172","821231","0.0-92.0-0.0","942.2000000476837","","","","","","","","51","0,0,0","0","coast","26","probe-18","0.4159038474865868","0.2981442933500009","0.05570834574047653","0","","","","","","","",""
"","html-keyboard-response","173","822236","0.0-92.0-1.0","null","<p></p>","null","","","","","","","","","","","","","","","","","","","","","","",""
"","do_trial","174","827837","0.0-93.0-0.0","1039.1000000238419","","","","","","","","50","0,0,0","0","coast","27","probe-174","0.39120373087152815","0.20704010491685587","0.12807380874352434","0","","","","","","","",""
"","html-keyboard-response","175","828840","0.0-93.0-1.0","null","<p></p>","null","","","","","","","","","","","","","","","","","","","","","","",""
"","do_trial","176","833532","0.0-94.0-0.0","129","","","","","","","","49","1,0,0","0","coast","28","probe-30","0.36543647185842804","0.1376403310671378","0.05200144373455491","1","","","","","","","",""
"","html-keyboard-response","177","834535","0.0-94.0-1.0","null","<p></p>","null","","","","","","","","","","","","","","","","","","","","","","",""
"","do_trial","178","839638","0.0-95.0-0.0","540.9000000953674","","","","","","","","49","0,0,1","0","coast","29","probe-07","0.478855162402394","0.2443400958230472","0.0552110836840366","0","","","","","","","",""
"","html-keyboard-response","179","840643","0.0-95.0-1.0","null","<p></p>","null","","","","","","","","","","","","","","","","","","","","","","",""
"","do_bye","180","842150","0.0-96.0-0.0","null","","","","","","","","null","","","","","","","","","","","","","","","","",""
"","break","181","843443","0.0-96.0-1.0","1290.8999999761581","<div class='center'><p>Time to take a quick break! You have 2 minutes to rest, but you can move on sooner if you'd like.</p><p> Press the <b>space bar</b> to continue.</p></div>","32","","","","","","","","","","","","","","","","","","","","","","",""
"","do_travel","182","852447","0.0-97.0-0.0","null","","","","","","","","null","","","","","","","","","","","","","","","","",""
"","do_welcome","183","856456","0.0-97.0-1.0","null","","","","","","","","null","","","","","","","","","","","","","","","","",""
"","do_trial","184","862522","0.0-98.0-0.0","null","","","","","","","","null","1,0,0","1","city","30","probe-25","1","0.2311687478902681","0.2175647922630236","","","","","","","","",""
"","html-keyboard-response","185","863525","0.0-98.0-1.0","null","<p></p>","null","","","","","","","","","","","","","","","","","","","","","","",""
"","do_trial","186","868750","0.0-99.0-0.0","653.5","","","","","","","","49","1,0,0","1","city","31","probe-15","1","0.1605768329421406","0.20314613510600374","1","","","","","","","",""
"","html-keyboard-response","187","869759","0.0-99.0-1.0","null","<p></p>","null","","","","","","","","","","","","","","","","","","","","","","",""
"","do_trial","188","874881","0.0-100.0-0.0","556.5","","","","","","","","49","1,1,1","1","city","32","probe-98","1","0.24882798907806983","0.23185148525242377","1","","","","","","","",""
"","html-keyboard-response","189","875885","0.0-100.0-1.0","null","<p></p>","null","","","","","","","","","","","","","","","","","","","","","","",""
"","do_trial","190","881047","0.0-101.0-0.0","601.5","","","","","","","","49","0,0,0","1","city","33","probe-220","0.8652450513313404","0.3208809623657692","0.20581182327591063","0","","","","","","","",""
"","html-keyboard-response","191","882050","0.0-101.0-1.0","null","<p></p>","null","","","","","","","","","","","","","","","","","","","","","","",""
"","do_trial","192","887382","0.0-102.0-0.0","770.5","","","","","","","","49","0,0,0","1","city","34","probe-92","0.6304283650854247","0.24393550543313935","0.12387093094485341","0","","","","","","","",""
"","html-keyboard-response","193","888391","0.0-102.0-1.0","null","<p></p>","null","","","","","","","","","","","","","","","","","","","","","","",""
"","do_trial","194","894501","0.0-103.0-0.0","1548.8999999761581","","","","","","","","51","1,1,0","1","city","35","probe-113","0.6410309901951368","0.27676774326671455","0.21787093453038545","0","","","","","","","",""
"","html-keyboard-response","195","895503","0.0-103.0-1.0","null","<p></p>","null","","","","","","","","","","","","","","","","","","","","","","",""
"","do_trial","196","900217","0.0-104.0-0.0","151.69999992847443","","","","","","","","49","1,0,0","1","city","36","probe-97","0.559812477988525","0.3664084844025025","0.09244456952841153","1","","","","","","","",""
"","html-keyboard-response","197","901218","0.0-104.0-1.0","null","<p></p>","null","","","","","","","","","","","","","","","","","","","","","","",""
"","do_trial","198","906217","0.0-105.0-0.0","429.10000002384186","","","","","","","","51","0,1,0","1","city","37","probe-115","0.5488306218668776","0.4055410087693845","0.08720159631884317","0","","","","","","","",""
"","html-keyboard-response","199","907219","0.0-105.0-1.0","null","<p></p>","null","","","","","","","","","","","","","","","","","","","","","","",""
"","do_trial","200","911986","0.0-106.0-0.0","200.79999995231628","","","","","","","","50","0,0,0","1","city","38","probe-24","0.7565100973025985","0.3734761148834573","0.10811716246614168","0","","","","","","","",""
"","html-keyboard-response","201","912993","0.0-106.0-1.0","null","<p></p>","null","","","","","","","","","","","","","","","","","","","","","","",""
"","do_trial","202","917818","0.0-107.0-0.0","260.6999999284744","","","","","","","","49","1,0,0","1","city","39","probe-146","0.8571773624172634","0.30413062454355155","0.07424405062401564","1","","","","","","","",""
"","html-keyboard-response","203","918822","0.0-107.0-1.0","null","<p></p>","null","","","","","","","","","","","","","","","","","","","","","","",""
"","do_trial","204","923891","0.0-108.0-0.0","506.60000002384186","","","","","","","","49","1,0,1","1","city","40","probe-88","0.7673018470529219","0.287124048385109","0.11277404185151783","1","","","","","","","",""
"","html-keyboard-response","205","924893","0.0-108.0-1.0","null","<p></p>","null","","","","","","","","","","","","","","","","","","","","","","",""
"","do_trial","206","930882","0.0-109.0-0.0","1427.5","","","","","","","","49","1,0,0","1","city","41","probe-173","0.7135007756094865","0.16839894250231224","0.1362749206474157","1","","","","","","","",""
"","html-keyboard-response","207","931886","0.0-109.0-1.0","null","<p></p>","null","","","","","","","","","","","","","","","","","","","","","","",""
"","do_trial","208","937172","0.0-110.0-0.0","720.6000000238419","","","","","","","","49","1,0,0","1","city","42","probe-224","0.4933918901917497","0.22469160212766612","0.25967287476023165","1","","","","","","","",""
"","html-keyboard-response","209","938176","0.0-110.0-1.0","null","<p></p>","null","","","","","","","","","","","","","","","","","","","","","","",""
"","do_trial","210","942824","0.0-111.0-0.0","84.10000002384186","","","","","","","","49","0,0,1","1","city","43","probe-48","0.4897520658122057","0.36753552461901107","0.32700242834709137","0","","","","","","","",""
"","html-keyboard-response","211","943828","0.0-111.0-1.0","null","<p></p>","null","","","","","","","","","","","","","","","","","","","","","","",""
"","do_trial","212","948782","0.0-112.0-0.0","393.39999997615814","","","","","","","","50","0,0,0","1","city","44","probe-144","0.4060157739157986","0.4026626053885052","0.37919862902592405","0","","","","","","","",""
"","html-keyboard-response","213","949792","0.0-112.0-1.0","null","<p></p>","null","","","","","","","","","","","","","","","","","","","","","","",""
"","do_trial","214","954792","0.0-113.0-0.0","436.7999999523163","","","","","","","","49","0,1,0","1","city","45","probe-185","0.3957674629832515","0.518448116190571","0.11089745287858876","0","","","","","","","",""
"","html-keyboard-response","215","955797","0.0-113.0-1.0","null","<p></p>","null","","","","","","","","","","","","","","","","","","","","","","",""
"","do_trial","216","961724","0.0-114.0-0.0","1365.1000000238419","","","","","","","","51","0,1,1","1","city","46","probe-56","0.4490379664237651","0.5697462090189127","0.17740119712510663","1","","","","","","","",""
"","html-keyboard-response","217","962729","0.0-114.0-1.0","null","<p></p>","null","","","","","","","","","","","","","","","","","","","","","","",""
"","do_trial","218","969071","0.0-115.0-0.0","1779.7000000476837","","","","","","","","50","0,1,0","1","city","47","probe-208","0.4554660343792535","0.5581302389563476","0.22104163465114757","1","","","","","","","",""
"","html-keyboard-response","219","970075","0.0-115.0-1.0","null","<p></p>","null","","","","","","","","","","","","","","","","","","","","","","",""
"","do_trial","220","975118","0.0-116.0-0.0","481.2000000476837","","","","","","","","49","0,1,0","1","city","48","probe-91","0.4248679310453445","0.4884377308390605","0.4334444175307522","0","","","","","","","",""
"","html-keyboard-response","221","976125","0.0-116.0-1.0","null","<p></p>","null","","","","","","","","","","","","","","","","","","","","","","",""
"","do_trial","222","980838","0.0-117.0-0.0","152.39999997615814","","","","","","","","49","1,1,1","1","city","49","probe-214","0.39693141900761547","0.5791408378771282","0.20273051334413233","1","","","","","","","",""
"","html-keyboard-response","223","981843","0.0-117.0-1.0","null","<p></p>","null","","","","","","","","","","","","","","","","","","","","","","",""
"","do_trial","224","986598","0.0-118.0-0.0","194.19999992847443","","","","","","","","50","1,0,1","1","city","50","probe-23","0.3327663154880515","0.5926994909477525","0.1793877128213333","0","","","","","","","",""
"","html-keyboard-response","225","987602","0.0-118.0-1.0","null","<p></p>","null","","","","","","","","","","","","","","","","","","","","","","",""
"","do_trial","226","992580","0.0-119.0-0.0","415.10000002384186","","","","","","","","51","0,1,1","1","city","51","probe-108","0.3059488791461204","0.5982187894715131","0.1035832571024893","1","","","","","","","",""
"","html-keyboard-response","227","993583","0.0-119.0-1.0","null","<p></p>","null","","","","","","","","","","","","","","","","","","","","","","",""
"","do_trial","228","998619","0.0-120.0-0.0","473.60000002384186","","","","","","","","49","0,1,0","1","city","52","probe-203","0.17622819816047616","0.5705778429555596","0.10252891564104809","0","","","","","","","",""
"","html-keyboard-response","229","999621","0.0-120.0-1.0","null","<p></p>","null","","","","","","","","","","","","","","","","","","","","","","",""
"","do_trial","230","1004804","0.0-121.0-0.0","625.7000000476837","","","","","","","","49","0,1,0","1","city","53","probe-57","0.1610665483837803","0.7288305012951887","0.1814527001049191","0","","","","","","","",""
"","html-keyboard-response","231","1005810","0.0-121.0-1.0","null","<p></p>","null","","","","","","","","","","","","","","","","","","","","","","",""
"","do_trial","232","1011258","0.0-122.0-0.0","884.7000000476837","","","","","","","","50","1,0,0","1","city","54","probe-145","0.20040826340754145","0.6345326678479895","0.07634210123037331","0","","","","","","","",""
"","html-keyboard-response","233","1012261","0.0-122.0-1.0","null","<p></p>","null","","","","","","","","","","","","","","","","","","","","","","",""
"","do_trial","234","1016871","0.0-123.0-0.0","43.700000047683716","","","","","","","","51","1,0,0","1","city","55","probe-55","0.21782006199148346","0.6540880645416952","0.14623774235586168","0","","","","","","","",""
"","html-keyboard-response","235","1017874","0.0-123.0-1.0","null","<p></p>","null","","","","","","","","","","","","","","","","","","","","","","",""
"","do_trial","236","1022692","0.0-124.0-0.0","245.69999992847443","","","","","","","","50","1,1,0","1","city","56","probe-20","0.28872190258600017","0.7091996888079846","0.06540320282386738","1","","","","","","","",""
"","html-keyboard-response","237","1023697","0.0-124.0-1.0","null","<p></p>","null","","","","","","","","","","","","","","","","","","","","","","",""
"","do_trial","238","1028340","0.0-125.0-0.0","79.10000002384186","","","","","","","","49","1,1,0","1","city","57","probe-210","0.39587731371791807","0.6945447274808503","0.10585702526068498","1","","","","","","","",""
"","html-keyboard-response","239","1029343","0.0-125.0-1.0","null","<p></p>","null","","","","","","","","","","","","","","","","","","","","","","",""
"","do_trial","240","1034133","0.0-126.0-0.0","227.69999992847443","","","","","","","","50","0,1,0","1","city","58","probe-213","0.35981413745040497","0.6873066801696156","0.12142174391060746","1","","","","","","","",""
"","html-keyboard-response","241","1035140","0.0-126.0-1.0","null","<p></p>","null","","","","","","","","","","","","","","","","","","","","","","",""
"","do_trial","242","1039759","0.0-127.0-0.0","81.40000009536743","","","","","","","","50","0,1,0","1","city","59","probe-50","0.2613665567025735","0.7166336345435198","0.17085565138946635","1","","","","","","","",""
"","html-keyboard-response","243","1040765","0.0-127.0-1.0","null","<p></p>","null","","","","","","","","","","","","","","","","","","","","","","",""
"","do_trial","244","1045337","0.0-128.0-0.0","0.10000002384185791","","","","","","","","50","0,1,1","1","city","60","probe-85","0.2778211100430988","0.7009101960294288","0.11675267296691849","1","","","","","","","",""
"","html-keyboard-response","245","1046340","0.0-128.0-1.0","null","<p></p>","null","","","","","","","","","","","","","","","","","","","","","","",""
"","do_trial","246","1051017","0.0-129.0-0.0","117.29999995231628","","","","","","","","49","0,1,0","1","city","61","probe-158","0.27700888701044735","0.5700276683488926","0.17089330490486035","0","","","","","","","",""
"","html-keyboard-response","247","1052023","0.0-129.0-1.0","null","<p></p>","null","","","","","","","","","","","","","","","","","","","","","","",""
"","do_trial","248","1056727","0.0-130.0-0.0","137.5","","","","","","","","49","0,0,0","1","city","62","probe-151","0.20059272157391497","0.5759054239774141","0.21304747445305508","0","","","","","","","",""
"","html-keyboard-response","249","1057729","0.0-130.0-1.0","null","<p></p>","null","","","","","","","","","","","","","","","","","","","","","","",""
"","do_trial","250","1062295","0.0-131.0-0.0","0.30000007152557373","","","","","","","","49","1,1,1","1","city","63","probe-176","0.3447405814013277","0.547946232360103","0.24518545856300578","1","","","","","","","",""
"","html-keyboard-response","251","1063298","0.0-131.0-1.0","null","<p></p>","null","","","","","","","","","","","","","","","","","","","","","","",""
"","do_trial","252","1068279","0.0-132.0-0.0","417.2999999523163","","","","","","","","51","1,0,0","1","city","64","probe-150","0.5470015394513358","0.4676551243357626","0.11453533691242988","0","","","","","","","",""
"","html-keyboard-response","253","1069282","0.0-132.0-1.0","null","<p></p>","null","","","","","","","","","","","","","","","","","","","","","","",""
"","do_trial","254","1073874","0.0-133.0-0.0","30.899999976158142","","","","","","","","50","1,0,0","1","city","65","probe-17","0.5503097247243932","0.5146570589007513","0.0984803684732576","0","","","","","","","",""
"","html-keyboard-response","255","1074877","0.0-133.0-1.0","null","<p></p>","null","","","","","","","","","","","","","","","","","","","","","","",""
"","do_trial","256","1080945","0.0-134.0-0.0","null","","","","","","","","null","0,0,0","1","city","66","probe-60","0.6076852287153848","0.5252275059025303","0.09125882618847803","","","","","","","","",""
"","html-keyboard-response","257","1081951","0.0-134.0-1.0","null","<p></p>","null","","","","","","","","","","","","","","","","","","","","","","",""
"","do_trial","258","1086522","0.0-135.0-0.0","0.10000002384185791","","","","","","","","51","0,0,0","1","city","67","probe-71","0.40871180064397067","0.47217491589954536","0.10716492954088278","0","","","","","","","",""
"","html-keyboard-response","259","1087526","0.0-135.0-1.0","null","<p></p>","null","","","","","","","","","","","","","","","","","","","","","","",""
"","do_trial","260","1092344","0.0-136.0-0.0","251","","","","","","","","51","0,1,0","1","city","68","probe-104","0.3687925332355858","0.6511086045571924","0.08239320684373257","0","","","","","","","",""
"","html-keyboard-response","261","1093347","0.0-136.0-1.0","null","<p></p>","null","","","","","","","","","","","","","","","","","","","","","","",""
"","do_trial","262","1097946","0.0-137.0-0.0","33","","","","","","","","50","0,1,0","1","city","69","probe-89","0.23350654431273868","0.6576626097379463","0.2887419549744079","1","","","","","","","",""
"","html-keyboard-response","263","1098950","0.0-137.0-1.0","null","<p></p>","null","","","","","","","","","","","","","","","","","","","","","","",""
"","do_bye","264","1100458","0.0-138.0-0.0","null","","","","","","","","null","","","","","","","","","","","","","","","","",""
"","break","265","1106825","0.0-138.0-1.0","6364.800000071526","<div class='center'><p>Time to take a quick break! You have 2 minutes to rest, but you can move on sooner if you'd like.</p><p> Press the <b>space bar</b> to continue.</p></div>","32","","","","","","","","","","","","","","","","","","","","","","",""
"","do_travel","266","1115831","0.0-139.0-0.0","null","","","","","","","","null","","","","","","","","","","","","","","","","",""
"","do_welcome","267","1119841","0.0-139.0-1.0","null","","","","","","","","null","","","","","","","","","","","","","","","","",""
"","do_trial","268","1127078","0.0-140.0-0.0","2672.2000000476837","","","","","","","","50","0,1,1","2","highway","70","probe-33","0.25449007149427927","1","0.24923721187809553","1","","","","","","","",""
"","html-keyboard-response","269","1128081","0.0-140.0-1.0","null","<p></p>","null","","","","","","","","","","","","","","","","","","","","","","",""
"","do_trial","270","1133543","0.0-141.0-0.0","899.5","","","","","","","","49","0,1,0","2","highway","71","probe-135","0.3980574253271372","1","0.1894180109624146","0","","","","","","","",""
"","html-keyboard-response","271","1134549","0.0-141.0-1.0","null","<p></p>","null","","","","","","","","","","","","","","","","","","","","","","",""
"","do_trial","272","1140615","0.0-142.0-0.0","null","","","","","","","","null","0,1,0","2","highway","72","probe-118","0.35594552657773754","0.9038330303857336","0.22129753913873934","","","","","","","","",""
"","html-keyboard-response","273","1141619","0.0-142.0-1.0","null","<p></p>","null","","","","","","","","","","","","","","","","","","","","","","",""
"","do_trial","274","1147032","0.0-143.0-0.0","849.7999999523163","","","","","","","","51","0,1,0","2","highway","73","probe-19","0.30567422022300667","0.8436087454559708","0.1793133537877092","0","","","","","","","",""
"","html-keyboard-response","275","1148035","0.0-143.0-1.0","null","<p></p>","null","","","","","","","","","","","","","","","","","","","","","","",""
"","do_trial","276","1153492","0.0-144.0-0.0","896.6999999284744","","","","","","","","50","1,1,0","2","highway","74","probe-180","0.19272010999550473","0.7117993681879944","0.21844483511347065","1","","","","","","","",""
"","html-keyboard-response","277","1154494","0.0-144.0-1.0","null","<p></p>","null","","","","","","","","","","","","","","","","","","","","","","",""
"","do_trial","278","1159244","0.0-145.0-0.0","188.5","","","","","","","","50","0,0,0","2","highway","75","probe-155","0.3012865628680778","0.6440007541256114","0.24208262380706186","0","","","","","","","",""
"","html-keyboard-response","279","1160248","0.0-145.0-1.0","null","<p></p>","null","","","","","","","","","","","","","","","","","","","","","","",""
"","do_trial","280","1165004","0.0-146.0-0.0","192.69999992847443","","","","","","","","49","0,0,0","2","highway","76","probe-80","0.30958224674767415","0.5526469497847968","0.1509786974272952","0","","","","","","","",""
"","html-keyboard-response","281","1166006","0.0-146.0-1.0","null","<p></p>","null","","","","","","","","","","","","","","","","","","","","","","",""
"","do_trial","282","1170776","0.0-147.0-0.0","208.20000004768372","","","","","","","","51","0,1,1","2","highway","77","probe-03","0.39601219459080655","0.5893665211313885","0.16337317013015212","1","","","","","","","",""
"","html-keyboard-response","283","1171780","0.0-147.0-1.0","null","<p></p>","null","","","","","","","","","","","","","","","","","","","","","","",""
"","do_trial","284","1176428","0.0-148.0-0.0","82.59999990463257","","","","","","","","51","0,0,0","2","highway","78","probe-105","0.3783264975821223","0.5934978017846936","0.10245186352579755","0","","","","","","","",""
"","html-keyboard-response","285","1177432","0.0-148.0-1.0","null","<p></p>","null","","","","","","","","","","","","","","","","","","","","","","",""
"","do_trial","286","1181996","0.0-149.0-0.0","0.19999992847442627","","","","","","","","49","1,1,1","2","highway","79","probe-36","0.38553086710798723","0.5631253225015856","0.15465254587163274","1","","","","","","","",""
"","html-keyboard-response","287","1182998","0.0-149.0-1.0","null","<p></p>","null","","","","","","","","","","","","","","","","","","","","","","",""
"","do_trial","288","1188184","0.0-150.0-0.0","622.3999999761581","","","","","","","","49","1,1,0","2","highway","80","probe-103","0.6127510052142526","0.5607284970141635","0.17642054128726958","1","","","","","","","",""
"","html-keyboard-response","289","1189186","0.0-150.0-1.0","null","<p></p>","null","","","","","","","","","","","","","","","","","","","","","","",""
"","do_trial","290","1194110","0.0-151.0-0.0","362","","","","","","","","49","0,1,1","2","highway","81","probe-171","0.5803902771950552","0.47549853045704155","0.24140876071989809","0","","","","","","","",""
"","html-keyboard-response","291","1195117","0.0-151.0-1.0","null","<p></p>","null","","","","","","","","","","","","","","","","","","","","","","",""
"","do_trial","292","1199954","0.0-152.0-0.0","276.60000002384186","","","","","","","","51","0,1,0","2","highway","82","probe-52","0.5184466178881538","0.2456594241086364","0.06386244704235161","0","","","","","","","",""
"","html-keyboard-response","293","1200959","0.0-152.0-1.0","null","<p></p>","null","","","","","","","","","","","","","","","","","","","","","","",""
"","do_trial","294","1205826","0.0-153.0-0.0","305.39999997615814","","","","","","","","50","0,0,0","2","highway","83","probe-77","0.5246469663944526","0.13118336959214344","0.19968731085175137","0","","","","","","","",""
"","html-keyboard-response","295","1206831","0.0-153.0-1.0","null","<p></p>","null","","","","","","","","","","","","","","","","","","","","","","",""
"","do_trial","296","1211398","0.0-154.0-0.0","0.19999992847442627","","","","","","","","49","1,0,0","2","highway","84","probe-228","0.6280277738027994","0.1675919080695217","0.31673638754404027","1","","","","","","","",""
"","html-keyboard-response","297","1212401","0.0-154.0-1.0","null","<p></p>","null","","","","","","","","","","","","","","","","","","","","","","",""
"","do_trial","298","1216963","0.0-155.0-0.0","0.2999999523162842","","","","","","","","49","1,0,0","2","highway","85","probe-99","0.6944746700590797","0.08049286026041977","0.472813787870649","1","","","","","","","",""
"","html-keyboard-response","299","1217968","0.0-155.0-1.0","null","<p></p>","null","","","","","","","","","","","","","","","","","","","","","","",""
"","do_trial","300","1223009","0.0-156.0-0.0","480.6999999284744","","","","","","","","49","0,0,1","2","highway","86","probe-46","0.691105227035297","0.05771838420561781","0.40595512741740125","0","","","","","","","",""
"","html-keyboard-response","301","1224014","0.0-156.0-1.0","null","<p></p>","null","","","","","","","","","","","","","","","","","","","","","","",""
"","do_trial","302","1228699","0.0-157.0-0.0","120.5","","","","","","","","51","1,0,0","2","highway","87","probe-112","0.5711632850913995","0.12423499518890779","0.4236371591344644","0","","","","","","","",""
"","html-keyboard-response","303","1229704","0.0-157.0-1.0","null","<p></p>","null","","","","","","","","","","","","","","","","","","","","","","",""
"","do_trial","304","1234791","0.0-158.0-0.0","523.7999999523163","","","","","","","","51","1,0,0","2","highway","88","probe-41","0.6467170025437491","0.05945192399307734","0.3217575395095138","0","","","","","","","",""
"","html-keyboard-response","305","1235793","0.0-158.0-1.0","null","<p></p>","null","","","","","","","","","","","","","","","","","","","","","","",""
"","do_trial","306","1241594","0.0-159.0-0.0","1247.7999999523163","","","","","","","","50","1,1,1","2","highway","89","probe-35","0.5547804087736222","0.138456578713892","0.2104629887657792","1","","","","","","","",""
"","html-keyboard-response","307","1242598","0.0-159.0-1.0","null","<p></p>","null","","","","","","","","","","","","","","","","","","","","","","",""
"","do_trial","308","1248614","0.0-160.0-0.0","1450.5","","","","","","","","50","1,1,1","2","highway","90","probe-22","0.6997780861348697","0.09783978174091998","0.2646757430255838","1","","","","","","","",""
"","html-keyboard-response","309","1249617","0.0-160.0-1.0","null","<p></p>","null","","","","","","","","","","","","","","","","","","","","","","",""
"","do_trial","310","1254272","0.0-161.0-0.0","89.10000002384186","","","","","","","","50","1,0,0","2","highway","91","probe-132","0.6284502759393361","0.16486449961117408","0.3309678887522111","0","","","","","","","",""
"","html-keyboard-response","311","1255279","0.0-161.0-1.0","null","<p></p>","null","","","","","","","","","","","","","","","","","","","","","","",""
"","do_trial","312","1260197","0.0-162.0-0.0","357.09999990463257","","","","","","","","49","1,0,0","2","highway","92","probe-51","0.6786563281193365","0.12169749849193047","0.3693066875117327","1","","","","","","","",""
"","html-keyboard-response","313","1261200","0.0-162.0-1.0","null","<p></p>","null","","","","","","","","","","","","","","","","","","","","","","",""
"","do_trial","314","1266126","0.0-163.0-0.0","365.5","","","","","","","","49","0,0,0","2","highway","93","probe-201","0.4993119149837167","0.11594715478188201","0.23972533684722458","0","","","","","","","",""
"","html-keyboard-response","315","1267128","0.0-163.0-1.0","null","<p></p>","null","","","","","","","","","","","","","","","","","","","","","","",""
"","do_trial","316","1272311","0.0-164.0-0.0","618.5","","","","","","","","51","1,0,1","2","highway","94","probe-167","0.6561287314167966","0.14328724426407238","0.383049431895452","1","","","","","","","",""
"","html-keyboard-response","317","1273321","0.0-164.0-1.0","null","<p></p>","null","","","","","","","","","","","","","","","","","","","","","","",""
"","do_trial","318","1278113","0.0-165.0-0.0","231.29999995231628","","","","","","","","51","0,1,1","2","highway","95","probe-211","0.6759444225278936","0.22911348859368758","0.29714699954581386","1","","","","","","","",""
"","html-keyboard-response","319","1279116","0.0-165.0-1.0","null","<p></p>","null","","","","","","","","","","","","","","","","","","","","","","",""
"","do_trial","320","1284806","0.0-166.0-0.0","1133.3000000715256","","","","","","","","51","0,0,0","2","highway","96","probe-129","0.5857633844730826","0.24704159851157284","0.2507218169654369","0","","","","","","","",""
"","html-keyboard-response","321","1285810","0.0-166.0-1.0","null","<p></p>","null","","","","","","","","","","","","","","","","","","","","","","",""
"","do_trial","322","1292540","0.0-167.0-0.0","2166.399999976158","","","","","","","","51","0,0,0","2","highway","97","probe-182","0.6256279799500292","0.19484507049935768","0.3345917733079078","0","","","","","","","",""
"","html-keyboard-response","323","1293544","0.0-167.0-1.0","null","<p></p>","null","","","","","","","","","","","","","","","","","","","","","","",""
"","do_trial","324","1300220","0.0-168.0-0.0","2116.399999976158","","","","","","","","49","1,1,0","2","highway","98","probe-54","0.6062359328882877","0.20270712830918045","0.3578585519985033","1","","","","","","","",""
"","html-keyboard-response","325","1301225","0.0-168.0-1.0","null","<p></p>","null","","","","","","","","","","","","","","","","","","","","","","",""
"","do_trial","326","1307237","0.0-169.0-0.0","1447.1999999284744","","","","","","","","49","1,0,1","2","highway","99","probe-209","0.6423552086271183","0.10008984523287369","0.36553638622714973","1","","","","","","","",""
"","html-keyboard-response","327","1308240","0.0-169.0-1.0","null","<p></p>","null","","","","","","","","","","","","","","","","","","","","","","",""
"","do_trial","328","1314225","0.0-170.0-0.0","1420.3000000715256","","","","","","","","51","1,1,1","2","highway","100","probe-61","0.6396341980618664","0.1747855477981991","0.3257441334001098","1","","","","","","","",""
"","html-keyboard-response","329","1315227","0.0-170.0-1.0","null","<p></p>","null","","","","","","","","","","","","","","","","","","","","","","",""
"","do_trial","330","1321396","0.0-171.0-0.0","1608.7999999523163","","","","","","","","50","0,0,0","2","highway","101","probe-66","0.5424476480870412","0.09945280868924909","0.3347914845190698","0","","","","","","","",""
"","html-keyboard-response","331","1322400","0.0-171.0-1.0","null","<p></p>","null","","","","","","","","","","","","","","","","","","","","","","",""
"","do_trial","332","1328257","0.0-172.0-0.0","1295.1000000238419","","","","","","","","50","0,0,0","2","highway","102","probe-49","0.5591579775486668","0.19547890175537938","0.36887907874928283","0","","","","","","","",""
"","html-keyboard-response","333","1329264","0.0-172.0-1.0","null","<p></p>","null","","","","","","","","","","","","","","","","","","","","","","",""
"","do_trial","334","1333990","0.0-173.0-0.0","192.60000002384186","","","","","","","","51","1,0,0","2","highway","103","probe-14","0.597140602389093","0.11684918834886716","0.2209015889438969","0","","","","","","","",""
"","html-keyboard-response","335","1334995","0.0-173.0-1.0","null","<p></p>","null","","","","","","","","","","","","","","","","","","","","","","",""
"","do_trial","336","1339712","0.0-174.0-0.0","153.10000002384186","","","","","","","","49","0,0,0","2","highway","104","probe-107","0.5238698525653499","0.10384714310703767","0.1597732298384632","0","","","","","","","",""
"","html-keyboard-response","337","1340714","0.0-174.0-1.0","null","<p></p>","null","","","","","","","","","","","","","","","","","","","","","","",""
"","do_trial","338","1347583","0.0-175.0-0.0","2309.899999976158","","","","","","","","51","1,0,0","2","highway","105","probe-72","0.693352567838173","0.07329624624075848","0.22037150428262275","0","","","","","","","",""
"","html-keyboard-response","339","1348588","0.0-175.0-1.0","null","<p></p>","null","","","","","","","","","","","","","","","","","","","","","","",""
"","do_trial","340","1353742","0.0-176.0-0.0","592.8000000715256","","","","","","","","49","1,0,1","2","highway","106","probe-170","0.4498615437766378","0.11603391402180119","0.3822073881515954","1","","","","","","","",""
"","html-keyboard-response","341","1354746","0.0-176.0-1.0","null","<p></p>","null","","","","","","","","","","","","","","","","","","","","","","",""
"","do_trial","342","1360807","0.0-177.0-0.0","null","","","","","","","","null","1,0,1","2","highway","107","probe-102","0.42800141578345274","0.10951165014518059","0.2538787295942615","","","","","","","","",""
"","html-keyboard-response","343","1361809","0.0-177.0-1.0","null","<p></p>","null","","","","","","","","","","","","","","","","","","","","","","",""
"","do_trial","344","1366370","0.0-178.0-0.0","0.19999992847442627","","","","","","","","49","0,0,0","2","highway","108","probe-178","0.5835566487539079","0.11348025148826936","0.38366699930576276","0","","","","","","","",""
"","html-keyboard-response","345","1367373","0.0-178.0-1.0","null","<p></p>","null","","","","","","","","","","","","","","","","","","","","","","",""
"","do_trial","346","1372100","0.0-179.0-0.0","165.20000004768372","","","","","","","","50","1,0,0","2","highway","109","probe-125","0.6720813014805951","0.18448205327989628","0.20851308741384628","0","","","","","","","",""
"","html-keyboard-response","347","1373106","0.0-179.0-1.0","null","<p></p>","null","","","","","","","","","","","","","","","","","","","","","","",""
"","do_bye","348","1374616","0.0-180.0-0.0","null","","","","","","","","null","","","","","","","","","","","","","","","","",""
"","break","349","1376595","0.0-180.0-1.0","1976.5","<div class='center'><p>Time to take a quick break! You have 2 minutes to rest, but you can move on sooner if you'd like.</p><p> Press the <b>space bar</b> to continue.</p></div>","32","","","","","","","","","","","","","","","","","","","","","","",""
"","do_travel","350","1385602","0.0-181.0-0.0","null","","","","","","","","null","","","","","","","","","","","","","","","","",""
"","do_welcome","351","1389614","0.0-181.0-1.0","null","","","","","","","","null","","","","","","","","","","","","","","","","",""
"","do_trial","352","1396138","0.0-182.0-0.0","1960.1000000238419","","","","","","","","50","1,1,1","3","mountain","110","probe-86","1","0.06634854341474238","0.27036920343904947","1","","","","","","","",""
"","html-keyboard-response","353","1397142","0.0-182.0-1.0","null","<p></p>","null","","","","","","","","","","","","","","","","","","","","","","",""
"","do_trial","354","1401967","0.0-183.0-0.0","261","","","","","","","","49","1,1,1","3","mountain","111","probe-87","1","0.08214340164948325","0.3199192574649675","1","","","","","","","",""
"","html-keyboard-response","355","1402970","0.0-183.0-1.0","null","<p></p>","null","","","","","","","","","","","","","","","","","","","","","","",""
"","do_trial","356","1408605","0.0-184.0-0.0","1070","","","","","","","","51","1,0,0","3","mountain","112","probe-143","0.9342880184597969","0.1512801901796046","0.3182342260803371","0","","","","","","","",""
"","html-keyboard-response","357","1409609","0.0-184.0-1.0","null","<p></p>","null","","","","","","","","","","","","","","","","","","","","","","",""
"","do_trial","358","1414636","0.0-185.0-0.0","466.60000002384186","","","","","","","","50","1,0,1","3","mountain","113","probe-154","0.7929691462722396","0.10287562344491427","0.3710332576327414","0","","","","","","","",""
"","html-keyboard-response","359","1415640","0.0-185.0-1.0","null","<p></p>","null","","","","","","","","","","","","","","","","","","","","","","",""
"","do_trial","360","1420722","0.0-186.0-0.0","521.7000000476837","","","","","","","","49","1,0,0","3","mountain","114","probe-01","0.7324261378604747","0.05643930416551781","0.3338480209485629","1","","","","","","","",""
"","html-keyboard-response","361","1421727","0.0-186.0-1.0","null","<p></p>","null","","","","","","","","","","","","","","","","","","","","","","",""
"","do_trial","362","1427478","0.0-187.0-0.0","1190.5","","","","","","","","49","1,0,0","3","mountain","115","probe-218","0.5950158321543699","0.14038732145724983","0.26527450757920734","1","","","","","","","",""
"","html-keyboard-response","363","1428482","0.0-187.0-1.0","null","<p></p>","null","","","","","","","","","","","","","","","","","","","","","","",""
"","do_trial","364","1433694","0.0-188.0-0.0","649.8000000715256","","","","","","","","49","0,0,0","3","mountain","116","probe-195","0.7039202626494182","0.14609262465595207","0.22569718303497918","0","","","","","","","",""
"","html-keyboard-response","365","1434696","0.0-188.0-1.0","null","<p></p>","null","","","","","","","","","","","","","","","","","","","","","","",""
"","do_trial","366","1439363","0.0-189.0-0.0","100.10000002384186","","","","","","","","51","1,0,0","3","mountain","117","probe-188","0.6191303855505642","0.1501073076640218","0.33688571660527245","0","","","","","","","",""
"","html-keyboard-response","367","1440366","0.0-189.0-1.0","null","<p></p>","null","","","","","","","","","","","","","","","","","","","","","","",""
"","do_trial","368","1445343","0.0-190.0-0.0","418.89999997615814","","","","","","","","50","1,0,0","3","mountain","118","probe-63","0.6649232307563017","0.24174216338115917","0.2964491170614211","0","","","","","","","",""
"","html-keyboard-response","369","1446345","0.0-190.0-1.0","null","<p></p>","null","","","","","","","","","","","","","","","","","","","","","","",""
"","do_trial","370","1450911","0.0-191.0-0.0","0.19999992847442627","","","","","","","","49","0,0,1","3","mountain","119","probe-114","0.5888459188879249","0.1654686435916118","0.4045256344683276","0","","","","","","","",""
"","html-keyboard-response","371","1451916","0.0-191.0-1.0","null","<p></p>","null","","","","","","","","","","","","","","","","","","","","","","",""
"","do_trial","372","1456598","0.0-192.0-0.0","120","","","","","","","","51","1,0,0","3","mountain","120","probe-94","0.5895635942665279","0.08027210452317497","0.4437414169307131","0","","","","","","","",""
"","html-keyboard-response","373","1457603","0.0-192.0-1.0","null","<p></p>","null","","","","","","","","","","","","","","","","","","","","","","",""
"","do_trial","374","1464389","0.0-193.0-0.0","2223.6999999284744","","","","","","","","50","0,0,1","3","mountain","121","probe-159","0.5839053217871418","0.06647409740152192","0.4160658403345138","0","","","","","","","",""
"","html-keyboard-response","375","1465392","0.0-193.0-1.0","null","<p></p>","null","","","","","","","","","","","","","","","","","","","","","","",""
"","do_trial","376","1471046","0.0-194.0-0.0","1093.6999999284744","","","","","","","","49","0,0,1","3","mountain","122","probe-175","0.34508254432367785","0.1386046799420301","0.5781829199653007","0","","","","","","","",""
"","html-keyboard-response","377","1472049","0.0-194.0-1.0","null","<p></p>","null","","","","","","","","","","","","","","","","","","","","","","",""
"","do_trial","378","1478113","0.0-195.0-0.0","null","","","","","","","","null","1,0,1","3","mountain","123","probe-192","0.4889784252880594","0.18156041618823104","0.578262529346265","","","","","","","","",""
"","html-keyboard-response","379","1479115","0.0-195.0-1.0","null","<p></p>","null","","","","","","","","","","","","","","","","","","","","","","",""
"","do_trial","380","1484137","0.0-196.0-0.0","451.5","","","","","","","","50","0,0,1","3","mountain","124","probe-190","0.3682559604776592","0.15396282299921457","0.6989839950976725","0","","","","","","","",""
"","html-keyboard-response","381","1485144","0.0-196.0-1.0","null","<p></p>","null","","","","","","","","","","","","","","","","","","","","","","",""
"","do_trial","382","1490003","0.0-197.0-0.0","297.90000009536743","","","","","","","","49","0,0,0","3","mountain","125","probe-42","0.19563976700813077","0.27273247406171974","0.7205403076712449","0","","","","","","","",""
"","html-keyboard-response","383","1491007","0.0-197.0-1.0","null","<p></p>","null","","","","","","","","","","","","","","","","","","","","","","",""
"","do_trial","384","1495973","0.0-198.0-0.0","403.7999999523163","","","","","","","","50","0,0,0","3","mountain","126","probe-165","0.21355395473846733","0.1869561781492797","0.5317910537744902","0","","","","","","","",""
"","html-keyboard-response","385","1496979","0.0-198.0-1.0","null","<p></p>","null","","","","","","","","","","","","","","","","","","","","","","",""
"","do_trial","386","1501547","0.0-199.0-0.0","0.20000004768371582","","","","","","","","50","0,0,0","3","mountain","127","probe-202","0.21969726365748912","0.06988240509824462","0.6820647534218973","0","","","","","","","",""
"","html-keyboard-response","387","1502551","0.0-199.0-1.0","null","<p></p>","null","","","","","","","","","","","","","","","","","","","","","","",""
"","do_trial","388","1507181","0.0-200.0-0.0","66.79999995231628","","","","","","","","50","0,0,1","3","mountain","128","probe-200","0.2600003591512914","0.09750492217959834","0.750697891812464","0","","","","","","","",""
"","html-keyboard-response","389","1508184","0.0-200.0-1.0","null","<p></p>","null","","","","","","","","","","","","","","","","","","","","","","",""
"","do_trial","390","1512839","0.0-201.0-0.0","93.40000009536743","","","","","","","","51","0,0,1","3","mountain","129","probe-11","0.2815070550608929","0.2316866429635499","0.6937551468285632","1","","","","","","","",""
"","html-keyboard-response","391","1513847","0.0-201.0-1.0","null","<p></p>","null","","","","","","","","","","","","","","","","","","","","","","",""
"","do_trial","392","1518449","0.0-202.0-0.0","38.10000002384186","","","","","","","","51","0,0,1","3","mountain","130","probe-139","0.3047882775163068","0.2031100070238332","0.683083213954177","1","","","","","","","",""
"","html-keyboard-response","393","1519452","0.0-202.0-1.0","null","<p></p>","null","","","","","","","","","","","","","","","","","","","","","","",""
"","do_trial","394","1524031","0.0-203.0-0.0","13.899999976158142","","","","","","","","51","0,0,1","3","mountain","131","probe-149","0.20924873691265372","0.16147686206581244","0.6005022567596418","1","","","","","","","",""
"","html-keyboard-response","395","1525034","0.0-203.0-1.0","null","<p></p>","null","","","","","","","","","","","","","","","","","","","","","","",""
"","do_trial","396","1529848","0.0-204.0-0.0","254","","","","","","","","51","1,0,0","3","mountain","132","probe-137","0.21145240145642422","0.055474901608709895","0.4423360451080729","0","","","","","","","",""
"","html-keyboard-response","397","1530851","0.0-204.0-1.0","null","<p></p>","null","","","","","","","","","","","","","","","","","","","","","","",""
"","do_trial","398","1535488","0.0-205.0-0.0","75.90000009536743","","","","","","","","50","0,0,0","3","mountain","133","probe-10","0.26698081991796263","0.05705346212887996","0.4996792418446843","0","","","","","","","",""
"","html-keyboard-response","399","1536493","0.0-205.0-1.0","null","<p></p>","null","","","","","","","","","","","","","","","","","","","","","","",""
"","do_trial","400","1541143","0.0-206.0-0.0","93.89999997615814","","","","","","","","50","0,0,0","3","mountain","134","probe-44","0.33438766996906133","0.056509354440377114","0.461680016387493","0","","","","","","","",""
"","html-keyboard-response","401","1542147","0.0-206.0-1.0","null","<p></p>","null","","","","","","","","","","","","","","","","","","","","","","",""
"","do_trial","402","1547421","0.0-207.0-0.0","712.5","","","","","","","","49","0,0,0","3","mountain","135","probe-140","0.25420329437727823","0.05364418526173723","0.3868587932876513","0","","","","","","","",""
"","html-keyboard-response","403","1548425","0.0-207.0-1.0","null","<p></p>","null","","","","","","","","","","","","","","","","","","","","","","",""
"","do_trial","404","1554355","0.0-208.0-0.0","1366","","","","","","","","51","1,0,1","3","mountain","136","probe-78","0.28792497711591003","0.08600868533300467","0.5691584117153988","1","","","","","","","",""
"","html-keyboard-response","405","1555360","0.0-208.0-1.0","null","<p></p>","null","","","","","","","","","","","","","","","","","","","","","","",""
"","do_trial","406","1560018","0.0-209.0-0.0","92.29999995231628","","","","","","","","51","0,0,1","3","mountain","137","probe-28","0.19917010412449443","0.13533796339378235","0.4977166233664885","1","","","","","","","",""
"","html-keyboard-response","407","1561022","0.0-209.0-1.0","null","<p></p>","null","","","","","","","","","","","","","","","","","","","","","","",""
"","do_trial","408","1565608","0.0-210.0-0.0","18.5","","","","","","","","50","0,0,0","3","mountain","138","probe-153","0.1501952404592997","0.0915587195151551","0.506611006700061","0","","","","","","","",""
"","html-keyboard-response","409","1566613","0.0-210.0-1.0","null","<p></p>","null","","","","","","","","","","","","","","","","","","","","","","",""
"","do_trial","410","1571460","0.0-211.0-0.0","287.39999997615814","","","","","","","","50","0,1,1","3","mountain","139","probe-59","0.24325874159678879","0.1857920669225524","0.4826644535996319","1","","","","","","","",""
"","html-keyboard-response","411","1572465","0.0-211.0-1.0","null","<p></p>","null","","","","","","","","","","","","","","","","","","","","","","",""
"","do_trial","412","1577028","0.0-212.0-0.0","0.19999992847442627","","","","","","","","51","0,1,1","3","mountain","140","probe-109","0.1575672369597323","0.20077534813484096","0.4850929852506284","1","","","","","","","",""
"","html-keyboard-response","413","1578031","0.0-212.0-1.0","null","<p></p>","null","","","","","","","","","","","","","","","","","","","","","","",""
"","do_trial","414","1582604","0.0-213.0-0.0","0.10000002384185791","","","","","","","","49","0,1,0","3","mountain","141","probe-82","0.1732895659551469","0.11623353351206582","0.5694528603228781","0","","","","","","","",""
"","html-keyboard-response","415","1583608","0.0-213.0-1.0","null","<p></p>","null","","","","","","","","","","","","","","","","","","","","","","",""
"","do_trial","416","1588358","0.0-214.0-0.0","178.89999997615814","","","","","","","","49","1,0,0","3","mountain","142","probe-67","0.37998068279215214","0.13060330435627132","0.5468340204778331","1","","","","","","","",""
"","html-keyboard-response","417","1589366","0.0-214.0-1.0","null","<p></p>","null","","","","","","","","","","","","","","","","","","","","","","",""
"","do_trial","418","1593978","0.0-215.0-0.0","47.5","","","","","","","","50","1,0,0","3","mountain","143","probe-110","0.2797002116193196","0.18958659745605544","0.5189345025750873","0","","","","","","","",""
"","html-keyboard-response","419","1594983","0.0-215.0-1.0","null","<p></p>","null","","","","","","","","","","","","","","","","","","","","","","",""
"","do_trial","420","1599948","0.0-216.0-0.0","400.7000000476837","","","","","","","","50","0,0,1","3","mountain","144","probe-189","0.3719042220465039","0.21864075844759104","0.4887991898507812","0","","","","","","","",""
"","html-keyboard-response","421","1600952","0.0-216.0-1.0","null","<p></p>","null","","","","","","","","","","","","","","","","","","","","","","",""
"","do_trial","422","1606420","0.0-217.0-0.0","902.5","","","","","","","","51","1,0,0","3","mountain","145","probe-83","0.4264417853267864","0.17256747164113986","0.5099560908218661","0","","","","","","","",""
"","html-keyboard-response","423","1607427","0.0-217.0-1.0","null","<p></p>","null","","","","","","","","","","","","","","","","","","","","","","",""
"","do_trial","424","1612064","0.0-218.0-0.0","73.40000009536743","","","","","","","","50","0,0,1","3","mountain","146","probe-128","0.41235153430262445","0.19249921341438103","0.49376930460696444","0","","","","","","","",""
"","html-keyboard-response","425","1613069","0.0-218.0-1.0","null","<p></p>","null","","","","","","","","","","","","","","","","","","","","","","",""
"","do_trial","426","1617975","0.0-219.0-0.0","339.2999999523163","","","","","","","","50","0,1,0","3","mountain","147","probe-204","0.34082231516723077","0.16767904480115875","0.47004238271994","1","","","","","","","",""
"","html-keyboard-response","427","1618980","0.0-219.0-1.0","null","<p></p>","null","","","","","","","","","","","","","","","","","","","","","","",""
"","do_trial","428","1623551","0.0-220.0-0.0","35.39999997615814","","","","","","","","49","0,1,0","3","mountain","148","probe-199","0.3027687619028961","0.15023180067241193","0.4591675372297967","0","","","","","","","",""
"","html-keyboard-response","429","1624556","0.0-220.0-1.0","null","<p></p>","null","","","","","","","","","","","","","","","","","","","","","","",""
"","do_trial","430","1629119","0.0-221.0-0.0","0.19999992847442627","","","","","","","","50","1,0,1","3","mountain","149","probe-58","0.32446346695026024","0.2665363907423727","0.5567955395430159","0","","","","","","","",""
"","html-keyboard-response","431","1630121","0.0-221.0-1.0","null","<p></p>","null","","","","","","","","","","","","","","","","","","","","","","",""
"","do_bye","432","1631630","0.0-222.0-0.0","null","","","","","","","","null","","","","","","","","","","","","","","","","",""
"","break","433","1632207","0.0-222.0-1.0","575.5","<div class='center'><p>Time to take a quick break! You have 2 minutes to rest, but you can move on sooner if you'd like.</p><p> Press the <b>space bar</b> to continue.</p></div>","32","","","","","","","","","","","","","","","","","","","","","","",""
"","do_travel","434","1641213","0.0-223.0-0.0","null","","","","","","","","null","","","","","","","","","","","","","","","","",""
"","do_welcome","435","1645225","0.0-223.0-1.0","null","","","","","","","","null","","","","","","","","","","","","","","","","",""
"","do_trial","436","1650658","0.0-224.0-0.0","869.8999999761581","","","","","","","","49","0,0,1","4","countryside","150","probe-141","0.3086450652353887","0.305351556980961","1","0","","","","","","","",""
"","html-keyboard-response","437","1651666","0.0-224.0-1.0","null","<p></p>","null","","","","","","","","","","","","","","","","","","","","","","",""
"","do_trial","438","1656695","0.0-225.0-0.0","463.89999997615814","","","","","","","","50","0,1,1","4","countryside","151","probe-226","0.43834695834307896","0.32509042630507234","1","1","","","","","","","",""
"","html-keyboard-response","439","1657697","0.0-225.0-1.0","null","<p></p>","null","","","","","","","","","","","","","","","","","","","","","","",""
"","do_trial","440","1662684","0.0-226.0-0.0","426.7999999523163","","","","","","","","50","0,1,1","4","countryside","152","probe-119","0.20784029666032972","0.29911073202324906","0.8878456273821651","1","","","","","","","",""
"","html-keyboard-response","441","1663691","0.0-226.0-1.0","null","<p></p>","null","","","","","","","","","","","","","","","","","","","","","","",""
"","do_trial","442","1668720","0.0-227.0-0.0","465.7999999523163","","","","","","","","50","0,0,1","4","countryside","153","probe-196","0.3810573289484674","0.22175976917274465","0.7770248084435241","0","","","","","","","",""
"","html-keyboard-response","443","1669725","0.0-227.0-1.0","null","<p></p>","null","","","","","","","","","","","","","","","","","","","","","","",""
"","do_trial","444","1674289","0.0-228.0-0.0","0.20000004768371582","","","","","","","","49","0,0,0","4","countryside","154","probe-162","0.35284614280106263","0.25260618962402515","0.656486198048849","0","","","","","","","",""
"","html-keyboard-response","445","1675292","0.0-228.0-1.0","null","<p></p>","null","","","","","","","","","","","","","","","","","","","","","","",""
"","do_trial","446","1680228","0.0-229.0-0.0","375.39999997615814","","","","","","","","51","0,0,0","4","countryside","155","probe-43","0.18667024428324572","0.24067883018053743","0.5556375981428829","0","","","","","","","",""
"","html-keyboard-response","447","1681232","0.0-229.0-1.0","null","<p></p>","null","","","","","","","","","","","","","","","","","","","","","","",""
"","do_trial","448","1686091","0.0-230.0-0.0","294.89999997615814","","","","","","","","51","0,1,1","4","countryside","156","probe-31","0.24839400196789463","0.16856924621778047","0.5991431486524909","1","","","","","","","",""
"","html-keyboard-response","449","1687094","0.0-230.0-1.0","null","<p></p>","null","","","","","","","","","","","","","","","","","","","","","","",""
"","do_trial","450","1691666","0.0-231.0-0.0","0.2999999523162842","","","","","","","","50","0,0,1","4","countryside","157","probe-191","0.2806560223437073","0.2593650183165934","0.5420097261503911","0","","","","","","","",""
"","html-keyboard-response","451","1692670","0.0-231.0-1.0","null","<p></p>","null","","","","","","","","","","","","","","","","","","","","","","",""
"","do_trial","452","1697270","0.0-232.0-0.0","38.199999928474426","","","","","","","","51","0,0,1","4","countryside","158","probe-40","0.08136473026200026","0.08398869843829081","0.6590429382862749","1","","","","","","","",""
"","html-keyboard-response","453","1698274","0.0-232.0-1.0","null","<p></p>","null","","","","","","","","","","","","","","","","","","","","","","",""
"","do_trial","454","1702837","0.0-233.0-0.0","0.19999992847442627","","","","","","","","49","0,0,1","4","countryside","159","probe-177","0.07952072381341482","0.21194029784898397","0.6215100297780423","0","","","","","","","",""
"","html-keyboard-response","455","1703840","0.0-233.0-1.0","null","<p></p>","null","","","","","","","","","","","","","","","","","","","","","","",""
"","do_trial","456","1709016","0.0-234.0-0.0","606.6999999284744","","","","","","","","50","1,0,1","4","countryside","160","probe-164","0.20620370109762778","0.32499769620533386","0.6840096338241977","0","","","","","","","",""
"","html-keyboard-response","457","1710021","0.0-234.0-1.0","null","<p></p>","null","","","","","","","","","","","","","","","","","","","","","","",""
"","do_trial","458","1714595","0.0-235.0-0.0","12.5","","","","","","","","51","0,0,1","4","countryside","161","probe-111","0.27952329052909936","0.39959205972504946","0.5842477519878466","1","","","","","","","",""
"","html-keyboard-response","459","1715598","0.0-235.0-1.0","null","<p></p>","null","","","","","","","","","","","","","","","","","","","","","","",""
"","do_trial","460","1720684","0.0-236.0-0.0","523.6999999284744","","","","","","","","51","1,1,1","4","countryside","162","probe-130","0.4277227604438947","0.3763447365310837","0.4102705809383484","1","","","","","","","",""
"","html-keyboard-response","461","1721688","0.0-236.0-1.0","null","<p></p>","null","","","","","","","","","","","","","","","","","","","","","","",""
"","do_trial","462","1726367","0.0-237.0-0.0","114.70000004768372","","","","","","","","51","1,0,0","4","countryside","163","probe-221","0.47436858051125397","0.43177674958259477","0.13860381346130693","0","","","","","","","",""
