"success","trial_type","trial_index","time_elapsed","internal_node_id","interactions","blur_events","focus_events","fullscreenenter_events","fullscreenexit_events","rt","stimulus","key_press","subject_id","participant_id","age","gender","prompt","response","choice_outcomes","context_n","context_img_id","trial_n","probe_img_id","pR_red","pR_white","pR_black","outcome","contextArray_ind","validImageProbes","invalidImageProbes","pRew_Red","pRew_White","pRew_Black","availableForMemProbe","choice_blocks"
"true","fullscreen","0","20235","0.0-0.0","""event"",""trial"",""time""
""blur"",""0"",""0""
""focus"",""0"",""7892""
""fullscreenenter"",""0"",""19238""
","""event"",""trial"",""time""
""blur"",""0"",""0""
","""event"",""trial"",""time""
""focus"",""0"",""7892""
","""event"",""trial"",""time""
""fullscreenenter"",""0"",""19238""
","
","","","","","","","","","","","","","","","","","","","","","","","","","",""
"","pavlovia","1","20237","0.0-1.0","""event"",""trial"",""time""
""blur"",""0"",""0""
""focus"",""0"",""7892""
""fullscreenenter"",""0"",""19238""
","""event"",""trial"",""time""
""blur"",""0"",""0""
","""event"",""trial"",""time""
""focus"",""0"",""7892""
","""event"",""trial"",""time""
""fullscreenenter"",""0"",""19238""
","
","","","","","","","","","","","","","","","","","","","","","","","","","",""
"","instruc1","2","65515","0.0-2.0","""event"",""trial"",""time""
""blur"",""0"",""0""
""focus"",""0"",""7892""
""fullscreenenter"",""0"",""19238""
","""event"",""trial"",""time""
""blur"",""0"",""0""
","""event"",""trial"",""time""
""focus"",""0"",""7892""
","""event"",""trial"",""time""
""fullscreenenter"",""0"",""19238""
","
","null","run_exp/static/audio/clip_1_welcome.m4a","null","1558","1685","18","Male","<div class='center'><p>Welcome! This is the first part of the study. It will last ~30 minutes. In part 1 and part 2 of the study, you are the head captain of a pirate ship traveling around the world to different islands. You will play a few different games throughout these two parts. Here is an overview of them:</p><br><p>Part 1 (today)</p><p>1. Instructions, practice game, and quiz</p><p>2. Pick a pirate game on 6 different islands</p><br><p>Part 2 (tomorrow)</p><p>3. Pick a pirate game and memory game</p><p>4. Where did you see this ship? </p></div>","","","","","","","","","","","","","","","","","",""
"","html-keyboard-response","3","71468","0.0-3.0","""event"",""trial"",""time""
""blur"",""0"",""0""
""focus"",""0"",""7892""
""fullscreenenter"",""0"",""19238""
","""event"",""trial"",""time""
""blur"",""0"",""0""
","""event"",""trial"",""time""
""focus"",""0"",""7892""
","""event"",""trial"",""time""
""fullscreenenter"",""0"",""19238""
","
","5951.899999991059","<div class='center'><p>Welcome! This is the first part of the study. It will last ~30 minutes. In part 1 and part 2 of the study, you are the head captain of a pirate ship traveling around the world to different islands. You will play a few different games throughout these two parts. Here is an overview of them:</p><br><p>Part 1 (today)</p><p>1. Instructions, practice game, and quiz</p><p>2. Pick a pirate game on 6 different islands</p><br><p>Part 2 (tomorrow)</p><p>3. Pick a pirate game and memory game</p><p>4. Where did you see this ship? </p><p><b>[Press the space bar to continue]</b></p></div>","32","","","","","","","","","","","","","","","","","","","","","","",""
"","instruc2","4","76775","0.0-4.0","""event"",""trial"",""time""
""blur"",""0"",""0""
""focus"",""0"",""7892""
""fullscreenenter"",""0"",""19238""
","""event"",""trial"",""time""
""blur"",""0"",""0""
","""event"",""trial"",""time""
""focus"",""0"",""7892""
","""event"",""trial"",""time""
""fullscreenenter"",""0"",""19238""
","
","null","run_exp/static/audio/clip_2_different_places.m4a","null","","","","","<div class='center'><p>Today, you’ll visit these 6 islands on your journey. You'll be able to see these islands from your ship.</p><p><img src='run_exp/static/images/contexts/all_contexts.png' height='500'></p></div>","","","","","","","","","","","","","","","","","",""
"","html-keyboard-response","5","88482","0.0-5.0","""event"",""trial"",""time""
""blur"",""0"",""0""
""focus"",""0"",""7892""
""fullscreenenter"",""0"",""19238""
","""event"",""trial"",""time""
""blur"",""0"",""0""
","""event"",""trial"",""time""
""focus"",""0"",""7892""
","""event"",""trial"",""time""
""fullscreenenter"",""0"",""19238""
","
","11705.70000000298","<div class='center'><p>Today, you’ll visit these 6 islands on your journey. You'll be able to see these islands from your ship.</p><p><img src='run_exp/static/images/contexts/all_contexts.png' height='500'></p><p><b>[Press the space bar to continue]</b></p></div>","32","","","","","","","","","","","","","","","","","","","","","","",""
"","instruc3","6","98133","0.0-6.0","""event"",""trial"",""time""
""blur"",""0"",""0""
""focus"",""0"",""7892""
""fullscreenenter"",""0"",""19238""
","""event"",""trial"",""time""
""blur"",""0"",""0""
","""event"",""trial"",""time""
""focus"",""0"",""7892""
","""event"",""trial"",""time""
""fullscreenenter"",""0"",""19238""
","
","null","run_exp/static/audio/clip_3_goal_of_game_1.m4a","null","","","","","<div class='center'><p> The pirates on your ship will rob other ships as they leave the island.</p> These ships have just sold their goods to the islanders, so they will be filled with lots and lots of gold.</p><p><img src='run_exp/static/images/tutorial/ship_center.png' height='400'></p></div>","","","","","","","","","","","","","","","","","",""
"","html-keyboard-response","7","104500","0.0-7.0","""event"",""trial"",""time""
""blur"",""0"",""0""
""focus"",""0"",""7892""
""fullscreenenter"",""0"",""19238""
","""event"",""trial"",""time""
""blur"",""0"",""0""
","""event"",""trial"",""time""
""focus"",""0"",""7892""
","""event"",""trial"",""time""
""fullscreenenter"",""0"",""19238""
","
","6366.399999991059","<div class='center'><p> The pirates on your ship will rob other ships as they leave the island.</p> These ships have just sold their goods to the islanders, so they will be filled with lots and lots of gold.</p><p><img src='run_exp/static/images/tutorial/ship_center.png' height='400'></p><p><b>[Press the space bar to continue]</b></p></div>","32","","","","","","","","","","","","","","","","","","","","","","",""
"","instruc4","8","132473","0.0-8.0","""event"",""trial"",""time""
""blur"",""0"",""0""
""focus"",""0"",""7892""
""fullscreenenter"",""0"",""19238""
","""event"",""trial"",""time""
""blur"",""0"",""0""
","""event"",""trial"",""time""
""focus"",""0"",""7892""
","""event"",""trial"",""time""
""fullscreenenter"",""0"",""19238""
","
","null","run_exp/static/audio/clip_4_goal_of_game_2.m4a","null","","","","","<div class='center'><p>As the head captain, you do not have to rob any ships yourself. Another pirate will be doing the robbing for you. First, you will choose a pirate to rob the next ship.</p><p><img src='run_exp/static/images/tutorial/pirates_all_crop.png' height='200'></p><p>Then, you'll see if the pirate successfully robbed the ship of their gold. If they were successful, then you'll get a stack of gold coins like this:</p><p><img src='run_exp/static/images/tutorial/reward.png' height='150'></p><p> If they were <b>not</b> successful, then you'll get no gold coins, and you'll see a big red x like this: </p><p><img src='run_exp/static/images/tutorial/reward_no.png' height='150'></p><p> How much bonus money you make is based on how many gold coins you collect.</p><div>","","","","","","","","","","","","","","","","","",""
"","html-keyboard-response","9","135400","0.0-9.0","""event"",""trial"",""time""
""blur"",""0"",""0""
""focus"",""0"",""7892""
""fullscreenenter"",""0"",""19238""
","""event"",""trial"",""time""
""blur"",""0"",""0""
","""event"",""trial"",""time""
""focus"",""0"",""7892""
","""event"",""trial"",""time""
""fullscreenenter"",""0"",""19238""
","
","2925.8999999910593","<div class='center'><p>As the head captain, you do not have to rob any ships yourself. Another pirate will be doing the robbing for you. First, you will choose a pirate to rob the next ship.</p><p><img src='run_exp/static/images/tutorial/pirates_all_crop.png' height='200'></p><p>Then, you'll see if the pirate successfully robbed the ship of their gold. If they were successful, then you'll get a stack of gold coins like this:</p><p><img src='run_exp/static/images/tutorial/reward.png' height='150'></p><p> If they were <b>not</b> successful, then you'll get no gold coins, and you'll see a big red x like this: </p><p><img src='run_exp/static/images/tutorial/reward_no.png' height='150'></p><p> How much bonus money you make is based on how many gold coins you collect.</p<p><b>[Press the space bar to continue]</b></p></div>","32","","","","","","","","","","","","","","","","","","","","","","",""
"","instruc5","10","156275","0.0-10.0","""event"",""trial"",""time""
""blur"",""0"",""0""
""focus"",""0"",""7892""
""fullscreenenter"",""0"",""19238""
","""event"",""trial"",""time""
""blur"",""0"",""0""
","""event"",""trial"",""time""
""focus"",""0"",""7892""
","""event"",""trial"",""time""
""fullscreenenter"",""0"",""19238""
","
","20874.90000000596","run_exp/static/audio/clip_5_probabilistic.m4a","49","","","","","<div class='center'><p>Even the most skilled pirate can not rob EVERY ship.</p><p> Some ships will have very strong protections against pirate attacks.</p><p> Blue beard, here, is very, very good at robbing ships, but he won't be successful every time he tries to rob one.</p><p> You can press the <b>‘1’</b> key on the keyboard to choose him.</p><p> Try choosing him 10 times to see how often he succeeds at robbing a ship. </p><p><img src='run_exp/static/images/tutorial/blue.png' height='500'></p></div>","","","","","","","","","","","","","","","","","",""
"","html-keyboard-response","11","157781","0.0-11.0","""event"",""trial"",""time""
""blur"",""0"",""0""
""focus"",""0"",""7892""
""fullscreenenter"",""0"",""19238""
","""event"",""trial"",""time""
""blur"",""0"",""0""
","""event"",""trial"",""time""
""focus"",""0"",""7892""
","""event"",""trial"",""time""
""fullscreenenter"",""0"",""19238""
","
","null","<div class='center'><p><img src='run_exp/static/images/tutorial/blue_win.png' height='500'></p></div>","null","","","","","","","","","","","","","","","","","","","","","","",""
"","html-keyboard-response","12","158241","0.0-12.0","""event"",""trial"",""time""
""blur"",""0"",""0""
""focus"",""0"",""7892""
""fullscreenenter"",""0"",""19238""
","""event"",""trial"",""time""
""blur"",""0"",""0""
","""event"",""trial"",""time""
""focus"",""0"",""7892""
","""event"",""trial"",""time""
""fullscreenenter"",""0"",""19238""
","
","458.79999999701977","<div class='center'><img src='run_exp/static/images/tutorial/blue.png' height='500'></p></div>","49","","","","","","","","","","","","","","","","","","","","","","",""
"","html-keyboard-response","13","159761","0.0-13.0","""event"",""trial"",""time""
""blur"",""0"",""0""
""focus"",""0"",""7892""
""fullscreenenter"",""0"",""19238""
","""event"",""trial"",""time""
""blur"",""0"",""0""
","""event"",""trial"",""time""
""focus"",""0"",""7892""
","""event"",""trial"",""time""
""fullscreenenter"",""0"",""19238""
","
","null","<div class='center'><p><img src='run_exp/static/images/tutorial/blue_win.png' height='500'></p></div>","null","","","","","","","","","","","","","","","","","","","","","","",""
"","html-keyboard-response","14","160055","0.0-14.0","""event"",""trial"",""time""
""blur"",""0"",""0""
""focus"",""0"",""7892""
""fullscreenenter"",""0"",""19238""
","""event"",""trial"",""time""
""blur"",""0"",""0""
","""event"",""trial"",""time""
""focus"",""0"",""7892""
","""event"",""trial"",""time""
""fullscreenenter"",""0"",""19238""
","
","293.09999999403954","<div class='center'><img src='run_exp/static/images/tutorial/blue.png' height='500'></p></div>","49","","","","","","","","","","","","","","","","","","","","","","",""
"","html-keyboard-response","15","161571","0.0-15.0","""event"",""trial"",""time""
""blur"",""0"",""0""
""focus"",""0"",""7892""
""fullscreenenter"",""0"",""19238""
","""event"",""trial"",""time""
""blur"",""0"",""0""
","""event"",""trial"",""time""
""focus"",""0"",""7892""
","""event"",""trial"",""time""
""fullscreenenter"",""0"",""19238""
","
","null","<div class='center'><p><img src='run_exp/static/images/tutorial/blue_win.png' height='500'></p></div>","null","","","","","","","","","","","","","","","","","","","","","","",""
"","html-keyboard-response","16","161844","0.0-16.0","""event"",""trial"",""time""
""blur"",""0"",""0""
""focus"",""0"",""7892""
""fullscreenenter"",""0"",""19238""
","""event"",""trial"",""time""
""blur"",""0"",""0""
","""event"",""trial"",""time""
""focus"",""0"",""7892""
","""event"",""trial"",""time""
""fullscreenenter"",""0"",""19238""
","
","271.8999999910593","<div class='center'><img src='run_exp/static/images/tutorial/blue.png' height='500'></p></div>","49","","","","","","","","","","","","","","","","","","","","","","",""
"","html-keyboard-response","17","163351","0.0-17.0","""event"",""trial"",""time""
""blur"",""0"",""0""
""focus"",""0"",""7892""
""fullscreenenter"",""0"",""19238""
","""event"",""trial"",""time""
""blur"",""0"",""0""
","""event"",""trial"",""time""
""focus"",""0"",""7892""
","""event"",""trial"",""time""
""fullscreenenter"",""0"",""19238""
","
","null","<div class='center'><p><img src='run_exp/static/images/tutorial/blue_no_win.png' height='500'></p></div>","null","","","","","","","","","","","","","","","","","","","","","","",""
"","html-keyboard-response","18","164066","0.0-18.0","""event"",""trial"",""time""
""blur"",""0"",""0""
""focus"",""0"",""7892""
""fullscreenenter"",""0"",""19238""
","""event"",""trial"",""time""
""blur"",""0"",""0""
","""event"",""trial"",""time""
""focus"",""0"",""7892""
","""event"",""trial"",""time""
""fullscreenenter"",""0"",""19238""
","
","713.7000000029802","<div class='center'><img src='run_exp/static/images/tutorial/blue.png' height='500'></p></div>","49","","","","","","","","","","","","","","","","","","","","","","",""
"","html-keyboard-response","19","165581","0.0-19.0","""event"",""trial"",""time""
""blur"",""0"",""0""
""focus"",""0"",""7892""
""fullscreenenter"",""0"",""19238""
","""event"",""trial"",""time""
""blur"",""0"",""0""
","""event"",""trial"",""time""
""focus"",""0"",""7892""
","""event"",""trial"",""time""
""fullscreenenter"",""0"",""19238""
","
","null","<div class='center'><p><img src='run_exp/static/images/tutorial/blue_win.png' height='500'></p></div>","null","","","","","","","","","","","","","","","","","","","","","","",""
"","html-keyboard-response","20","165834","0.0-20.0","""event"",""trial"",""time""
""blur"",""0"",""0""
""focus"",""0"",""7892""
""fullscreenenter"",""0"",""19238""
","""event"",""trial"",""time""
""blur"",""0"",""0""
","""event"",""trial"",""time""
""focus"",""0"",""7892""
","""event"",""trial"",""time""
""fullscreenenter"",""0"",""19238""
","
","252.3999999910593","<div class='center'><img src='run_exp/static/images/tutorial/blue.png' height='500'></p></div>","49","","","","","","","","","","","","","","","","","","","","","","",""
"","html-keyboard-response","21","167339","0.0-21.0","""event"",""trial"",""time""
""blur"",""0"",""0""
""focus"",""0"",""7892""
""fullscreenenter"",""0"",""19238""
","""event"",""trial"",""time""
""blur"",""0"",""0""
","""event"",""trial"",""time""
""focus"",""0"",""7892""
","""event"",""trial"",""time""
""fullscreenenter"",""0"",""19238""
","
","null","<div class='center'><p><img src='run_exp/static/images/tutorial/blue_win.png' height='500'></p></div>","null","","","","","","","","","","","","","","","","","","","","","","",""
"","html-keyboard-response","22","167624","0.0-22.0","""event"",""trial"",""time""
""blur"",""0"",""0""
""focus"",""0"",""7892""
""fullscreenenter"",""0"",""19238""
","""event"",""trial"",""time""
""blur"",""0"",""0""
","""event"",""trial"",""time""
""focus"",""0"",""7892""
","""event"",""trial"",""time""
""fullscreenenter"",""0"",""19238""
","
","284","<div class='center'><img src='run_exp/static/images/tutorial/blue.png' height='500'></p></div>","49","","","","","","","","","","","","","","","","","","","","","","",""
"","html-keyboard-response","23","169127","0.0-23.0","""event"",""trial"",""time""
""blur"",""0"",""0""
""focus"",""0"",""7892""
""fullscreenenter"",""0"",""19238""
","""event"",""trial"",""time""
""blur"",""0"",""0""
","""event"",""trial"",""time""
""focus"",""0"",""7892""
","""event"",""trial"",""time""
""fullscreenenter"",""0"",""19238""
","
","null","<div class='center'><p><img src='run_exp/static/images/tutorial/blue_win.png' height='500'></p></div>","null","","","","","","","","","","","","","","","","","","","","","","",""
"","html-keyboard-response","24","169407","0.0-24.0","""event"",""trial"",""time""
""blur"",""0"",""0""
""focus"",""0"",""7892""
""fullscreenenter"",""0"",""19238""
","""event"",""trial"",""time""
""blur"",""0"",""0""
","""event"",""trial"",""time""
""focus"",""0"",""7892""
","""event"",""trial"",""time""
""fullscreenenter"",""0"",""19238""
","
","280","<div class='center'><img src='run_exp/static/images/tutorial/blue.png' height='500'></p></div>","49","","","","","","","","","","","","","","","","","","","","","","",""
"","html-keyboard-response","25","170918","0.0-25.0","""event"",""trial"",""time""
""blur"",""0"",""0""
""focus"",""0"",""7892""
""fullscreenenter"",""0"",""19238""
","""event"",""trial"",""time""
""blur"",""0"",""0""
","""event"",""trial"",""time""
""focus"",""0"",""7892""
","""event"",""trial"",""time""
""fullscreenenter"",""0"",""19238""
","
","null","<div class='center'><p><img src='run_exp/static/images/tutorial/blue_no_win.png' height='500'></p></div>","null","","","","","","","","","","","","","","","","","","","","","","",""
"","html-keyboard-response","26","171419","0.0-26.0","""event"",""trial"",""time""
""blur"",""0"",""0""
""focus"",""0"",""7892""
""fullscreenenter"",""0"",""19238""
","""event"",""trial"",""time""
""blur"",""0"",""0""
","""event"",""trial"",""time""
""focus"",""0"",""7892""
","""event"",""trial"",""time""
""fullscreenenter"",""0"",""19238""
","
","500.5","<div class='center'><img src='run_exp/static/images/tutorial/blue.png' height='500'></p></div>","49","","","","","","","","","","","","","","","","","","","","","","",""
"","html-keyboard-response","27","172925","0.0-27.0","""event"",""trial"",""time""
""blur"",""0"",""0""
""focus"",""0"",""7892""
""fullscreenenter"",""0"",""19238""
","""event"",""trial"",""time""
""blur"",""0"",""0""
","""event"",""trial"",""time""
""focus"",""0"",""7892""
","""event"",""trial"",""time""
""fullscreenenter"",""0"",""19238""
","
","null","<div class='center'><p><img src='run_exp/static/images/tutorial/blue_win.png' height='500'></p></div>","null","","","","","","","","","","","","","","","","","","","","","","",""
"","html-keyboard-response","28","173549","0.0-28.0","""event"",""trial"",""time""
""blur"",""0"",""0""
""focus"",""0"",""7892""
""fullscreenenter"",""0"",""19238""
","""event"",""trial"",""time""
""blur"",""0"",""0""
","""event"",""trial"",""time""
""focus"",""0"",""7892""
","""event"",""trial"",""time""
""fullscreenenter"",""0"",""19238""
","
","624","<div class='center'><img src='run_exp/static/images/tutorial/blue.png' height='500'></p></div>","49","","","","","","","","","","","","","","","","","","","","","","",""
"","html-keyboard-response","29","175062","0.0-29.0","""event"",""trial"",""time""
""blur"",""0"",""0""
""focus"",""0"",""7892""
""fullscreenenter"",""0"",""19238""
","""event"",""trial"",""time""
""blur"",""0"",""0""
","""event"",""trial"",""time""
""focus"",""0"",""7892""
","""event"",""trial"",""time""
""fullscreenenter"",""0"",""19238""
","
","null","<div class='center'><p><img src='run_exp/static/images/tutorial/blue_win.png' height='500'></p></div>","null","","","","","","","","","","","","","","","","","","","","","","",""
"","instruc6","30","180504","0.0-30.0","""event"",""trial"",""time""
""blur"",""0"",""0""
""focus"",""0"",""7892""
""fullscreenenter"",""0"",""19238""
","""event"",""trial"",""time""
""blur"",""0"",""0""
","""event"",""trial"",""time""
""focus"",""0"",""7892""
","""event"",""trial"",""time""
""fullscreenenter"",""0"",""19238""
","
","null","run_exp/static/audio/clip_6_blue_beard_outcome.m4a","null","","","","","<div class='center'><p> See, he succeeded in robbing the ships most of the time but not every time. </p></div>","","","","","","","","","","","","","","","","","",""
"","html-keyboard-response","31","181794","0.0-31.0","""event"",""trial"",""time""
""blur"",""0"",""0""
""focus"",""0"",""7892""
""fullscreenenter"",""0"",""19238""
","""event"",""trial"",""time""
""blur"",""0"",""0""
","""event"",""trial"",""time""
""focus"",""0"",""7892""
","""event"",""trial"",""time""
""fullscreenenter"",""0"",""19238""
","
","1288.8999999910593","<div class='center'><p> See, he succeeded in robbing the ships most of the time but not every time. </p><p><b>[Press the space bar to continue]</b></p></div>","32","","","","","","","","","","","","","","","","","","","","","","",""
"","audio-keyboard-response","32","198615","0.0-32.0","""event"",""trial"",""time""
""blur"",""0"",""0""
""focus"",""0"",""7892""
""fullscreenenter"",""0"",""19238""
","""event"",""trial"",""time""
""blur"",""0"",""0""
","""event"",""trial"",""time""
""focus"",""0"",""7892""
","""event"",""trial"",""time""
""fullscreenenter"",""0"",""19238""
","
","16826.70000000298","run_exp/static/audio/clip_7_pick_pirate.m4a","51","","","","","","","","","","","","","","","","","","","","","","",""
"","audio-keyboard-response","33","204379","0.0-33.0-0.0","""event"",""trial"",""time""
""blur"",""0"",""0""
""focus"",""0"",""7892""
""fullscreenenter"",""0"",""19238""
","""event"",""trial"",""time""
""blur"",""0"",""0""
","""event"",""trial"",""time""
""focus"",""0"",""7892""
","""event"",""trial"",""time""
""fullscreenenter"",""0"",""19238""
","
","5763.29999999702","run_exp/static/audio/clip_8_chosen_pirate_win.m4a","32","","","","","","","","","","","","","","","","","","","","","","",""
"","audio-keyboard-response","34","206904","0.0-33.0-1.0","""event"",""trial"",""time""
""blur"",""0"",""0""
""focus"",""0"",""7892""
""fullscreenenter"",""0"",""19238""
","""event"",""trial"",""time""
""blur"",""0"",""0""
","""event"",""trial"",""time""
""focus"",""0"",""7892""
","""event"",""trial"",""time""
""fullscreenenter"",""0"",""19238""
","
","2524.2999999970198","run_exp/static/audio/clip_9_pick_a_pirate_again.m4a","50","","","","","","","","","","","","","","","","","","","","","","",""
"","audio-keyboard-response","35","211556","0.0-34.0-0.0","""event"",""trial"",""time""
""blur"",""0"",""0""
""focus"",""0"",""7892""
""fullscreenenter"",""0"",""19238""
","""event"",""trial"",""time""
""blur"",""0"",""0""
","""event"",""trial"",""time""
""focus"",""0"",""7892""
","""event"",""trial"",""time""
""fullscreenenter"",""0"",""19238""
","
","4650.5","run_exp/static/audio/clip_10_chosen_pirate_loss.m4a","32","","","","","","","","","","","","","","","","","","","","","","",""
"","instruc9","36","217038","0.0-35.0-0.0","""event"",""trial"",""time""
""blur"",""0"",""0""
""focus"",""0"",""7892""
""fullscreenenter"",""0"",""19238""
","""event"",""trial"",""time""
""blur"",""0"",""0""
","""event"",""trial"",""time""
""focus"",""0"",""7892""
","""event"",""trial"",""time""
""fullscreenenter"",""0"",""19238""
","
","null","run_exp/static/audio/clip_11_time_out.m4a","null","","","","","<div class='center'><p>If you don’t make your choice fast enough, you’ll have to wait a few seconds before you can make another one. </p><p><img src='run_exp/static/images/miscellaneous/hurry_up.png' height='500'></p></div>","","","","","","","","","","","","","","","","","",""
"","html-keyboard-response","37","219704","0.0-35.0-1.0","""event"",""trial"",""time""
""blur"",""0"",""0""
""focus"",""0"",""7892""
""fullscreenenter"",""0"",""19238""
","""event"",""trial"",""time""
""blur"",""0"",""0""
","""event"",""trial"",""time""
""focus"",""0"",""7892""
","""event"",""trial"",""time""
""fullscreenenter"",""0"",""19238""
","
","2664.9000000059605","<div class='center'><p>If you don’t make your choice fast enough, you’ll have to wait a few seconds before you can make another one. </p><p><img src='run_exp/static/images/miscellaneous/hurry_up.png' height='500'></p><p><b>[Press the space bar to continue]</b></p></div>","32","","","","","","","","","","","","","","","","","","","","","","",""
"","instruc10","38","258785","0.0-35.0-2.0","""event"",""trial"",""time""
""blur"",""0"",""0""
""focus"",""0"",""7892""
""fullscreenenter"",""0"",""19238""
","""event"",""trial"",""time""
""blur"",""0"",""0""
","""event"",""trial"",""time""
""focus"",""0"",""7892""
","""event"",""trial"",""time""
""fullscreenenter"",""0"",""19238""
","
","null","run_exp/static/audio/clip_12_probe.m4a","null","","","","","<div class='center'><p>Once you've chosen a pirate, you’ll be shown the ship they are robbing. You will never rob the same ship twice. Ships can be told apart from one another by the image on them. These are the goods that they sell. See, this ship has a travel mug on it. </p><p> You’ll have to remember which island you saw each ship on. You will win more gold coins and hence more bonus money if you remember correctly! To help you remember, you can imagine a story. For example, here, you could imagine a mug full of water in the desert. Or, as another example, if on the forest island, your pirate robbed a ship with an apple on it, you could imagine an apple falling from a tree in the forest. </p><p><img src='run_exp/static/images/tutorial/example_probe.png' height='500'></p></div>","","","","","","","","","","","","","","","","","",""
"","html-keyboard-response","39","272385","0.0-35.0-3.0","""event"",""trial"",""time""
""blur"",""0"",""0""
""focus"",""0"",""7892""
""fullscreenenter"",""0"",""19238""
","""event"",""trial"",""time""
""blur"",""0"",""0""
","""event"",""trial"",""time""
""focus"",""0"",""7892""
","""event"",""trial"",""time""
""fullscreenenter"",""0"",""19238""
","
","13599.800000011921","<div class='center'><p>Once you've chosen a pirate, you’ll be shown the ship they are robbing. You will never rob the same ship twice. Ships can be told apart from one another by the image on them. These are the goods that they sell. See, this ship has a travel mug on it. </p><p> You’ll have to remember which island you saw each ship on. You will win more gold coins and hence more bonus money if you remember correctly! To help you remember, you can imagine a story. For example, here, you could imagine a mug full of water in the desert. Or, as another example, if on the forest island, your pirate robbed a ship with an apple on it, you could imagine an apple falling from a tree in the forest. </p><p><img src='run_exp/static/images/tutorial/example_probe.png' height='500'></p><p><b>[Press the space bar to continue]</b></p></div>","32","","","","","","","","","","","","","","","","","","","","","","",""
"","instruc11","40","288756","0.0-35.0-4.0","""event"",""trial"",""time""
""blur"",""0"",""0""
""focus"",""0"",""7892""
""fullscreenenter"",""0"",""19238""
","""event"",""trial"",""time""
""blur"",""0"",""0""
","""event"",""trial"",""time""
""focus"",""0"",""7892""
","""event"",""trial"",""time""
""fullscreenenter"",""0"",""19238""
","
","null","run_exp/static/audio/clip_13_changepoint.m4a","null","","","","","<div class='center'><p>How successful a pirate is at robbing ships will depend on the island you’re on.</p><p> A pirate may have visited this island many times before and gained a lot of practice robbing ships there.</p><p>So, they’re more likely to be successful than a pirate who has never visited the island before.</p></div>","","","","","","","","","","","","","","","","","",""
"","html-keyboard-response","41","290333","0.0-35.0-5.0","""event"",""trial"",""time""
""blur"",""0"",""0""
""focus"",""0"",""7892""
""fullscreenenter"",""0"",""19238""
","""event"",""trial"",""time""
""blur"",""0"",""0""
","""event"",""trial"",""time""
""focus"",""0"",""7892""
","""event"",""trial"",""time""
""fullscreenenter"",""0"",""19238""
","
","1576.4000000059605","<div class='center'><p>How successful a pirate is at robbing ships will depend on the island you’re on.</p><p> A pirate may have visited this island many times before and gained a lot of practice robbing ships there.</p><p>So, they’re more likely to be successful than a pirate who has never visited the island before.</p><p><b>[Press the space bar to continue]</b></p></div>","32","","","","","","","","","","","","","","","","","","","","","","",""
"","instruc12","42","331417","0.0-35.0-6.0","""event"",""trial"",""time""
""blur"",""0"",""0""
""focus"",""0"",""7892""
""fullscreenenter"",""0"",""19238""
","""event"",""trial"",""time""
""blur"",""0"",""0""
","""event"",""trial"",""time""
""focus"",""0"",""7892""
","""event"",""trial"",""time""
""fullscreenenter"",""0"",""19238""
","
","null","run_exp/static/audio/clip_14_drift.m4a","null","","","","","<div class='center'><p>How successful a pirate is at robbing ships can also change over the time spent on the island. </p><p> Ships may hear from islanders about the pirates coming and will improve their protections against the attack. This may make it harder to rob them.</p><p> Ships may also become lazy and weaken the strength of their protections. This may make it easier to rob them.</p><br><p>Things are always changing on the high seas! So, try your best to pay attention!</p><p><img src='run_exp/static/images/tutorial/contingency.png' height='500'></p></div>","","","","","","","","","","","","","","","","","",""
"","html-keyboard-response","43","369191","0.0-35.0-7.0","""event"",""trial"",""time""
""blur"",""0"",""0""
""focus"",""0"",""7892""
""fullscreenenter"",""0"",""19238""
","""event"",""trial"",""time""
""blur"",""0"",""0""
","""event"",""trial"",""time""
""focus"",""0"",""7892""
","""event"",""trial"",""time""
""fullscreenenter"",""0"",""19238""
","
","37773.70000000298","<div class='center'><p>How successful a pirate is at robbing ships can also change over the time spent on the island. </p><p> Ships may hear from islanders about the pirates coming and will improve their protections against the attack. This may make it harder to rob them.</p><p> Ships may also become lazy and weaken the strength of their protections. This may make it easier to rob them.</p><br><p>Things are always changing on the high seas! So, try your best to pay attention!</p><p><img src='run_exp/static/images/tutorial/contingency.png' height='500'></p><p><b>[Press the space bar to continue]</b></p></div>","32","","","","","","","","","","","","","","","","","","","","","","",""
"","instruc13","44","404565","0.0-35.0-8.0","""event"",""trial"",""time""
""blur"",""0"",""0""
""focus"",""0"",""7892""
""fullscreenenter"",""0"",""19238""
","""event"",""trial"",""time""
""blur"",""0"",""0""
","""event"",""trial"",""time""
""focus"",""0"",""7892""
","""event"",""trial"",""time""
""fullscreenenter"",""0"",""19238""
","
","null","run_exp/static/audio/clip_15_summary.m4a","null","","","","","<div class='center'><p>Let's go over the instructions quickly again. You have two important things to do: </p><b><p> 1. Pick the pirate who is the best at robbing ships on the current island. </p></b><b><p> 2. Remember on which island a ship was robbed.</p> </b><p>The amount of bonus money you can win depends on both.</p><p><br><p>Let’s try a practice game. The game will start by showing you the pirates. First, pick a pirate using the <b> 1, 2, 3 </b> keys on your keyboard. When you are shown a ship, try to remember which island you’re on by making up a story.</p><p>This is just a practice game, so you’re not playing for money. </p><p> Good luck! This game will be very difficult but try your best!</p></div>","","","","","","","","","","","","","","","","","",""
"","html-keyboard-response","45","406361","0.0-35.0-9.0","""event"",""trial"",""time""
""blur"",""0"",""0""
""focus"",""0"",""7892""
""fullscreenenter"",""0"",""19238""
","""event"",""trial"",""time""
""blur"",""0"",""0""
","""event"",""trial"",""time""
""focus"",""0"",""7892""
","""event"",""trial"",""time""
""fullscreenenter"",""0"",""19238""
","
","1794.8999999910593","<div class='center'><p>Let's go over the instructions quickly again. You have two important things to do: </p><b><p> 1. Pick the pirate who is the best at robbing ships on the current island. </p></b><b><p> 2. Remember on which island a ship was robbed.</p> </b><p>The amount of bonus money you can win depends on both.</p><p><br><p>Let’s try a practice game. The game will start by showing you the pirates. First, pick a pirate using the <b> 1, 2, 3 </b> keys on your keyboard. When you are shown a ship, try to remember which island you’re on by making up a story.</p><p>This is just a practice game, so you’re not playing for money. </p><p> Good luck! This game will be very difficult but try your best!</p><p><b>[Press the space bar to continue]</b></p></div>","32","","","","","","","","","","","","","","","","","","","","","","",""
"","do_welcome","46","410364","0.0-35.0-10.0","""event"",""trial"",""time""
""blur"",""0"",""0""
""focus"",""0"",""7892""
""fullscreenenter"",""0"",""19238""
","""event"",""trial"",""time""
""blur"",""0"",""0""
","""event"",""trial"",""time""
""focus"",""0"",""7892""
","""event"",""trial"",""time""
""fullscreenenter"",""0"",""19238""
","
","null","","","","","","","","null","","","","","","","","","","","","","","","","",""
"","do_trial","47","416394","0.0-35.0-11.0","""event"",""trial"",""time""
""blur"",""0"",""0""
""focus"",""0"",""7892""
""fullscreenenter"",""0"",""19238""
","""event"",""trial"",""time""
""blur"",""0"",""0""
","""event"",""trial"",""time""
""focus"",""0"",""7892""
","""event"",""trial"",""time""
""fullscreenenter"",""0"",""19238""
","
","null","","","","","","","","null","1,0,0","","","","","","","","","","","","","","","",""
"","html-keyboard-response","48","417404","0.0-36.0-0.0","""event"",""trial"",""time""
""blur"",""0"",""0""
""focus"",""0"",""7892""
""fullscreenenter"",""0"",""19238""
","""event"",""trial"",""time""
""blur"",""0"",""0""
","""event"",""trial"",""time""
""focus"",""0"",""7892""
","""event"",""trial"",""time""
""fullscreenenter"",""0"",""19238""
","
","null","<p></p>","null","","","","","","","","","","","","","","","","","","","","","","",""
"","do_trial","49","422480","0.0-36.0-1.0","""event"",""trial"",""time""
""blur"",""0"",""0""
""focus"",""0"",""7892""
""fullscreenenter"",""0"",""19238""
","""event"",""trial"",""time""
""blur"",""0"",""0""
","""event"",""trial"",""time""
""focus"",""0"",""7892""
","""event"",""trial"",""time""
""fullscreenenter"",""0"",""19238""
","
","571.1000000089407","","","","","","","","49","1,0,0","","","","","","","","","","","","","","","",""
"","html-keyboard-response","50","423495","0.0-37.0-0.0","""event"",""trial"",""time""
""blur"",""0"",""0""
""focus"",""0"",""7892""
""fullscreenenter"",""0"",""19238""
","""event"",""trial"",""time""
""blur"",""0"",""0""
","""event"",""trial"",""time""
""focus"",""0"",""7892""
","""event"",""trial"",""time""
""fullscreenenter"",""0"",""19238""
","
","null","<p></p>","null","","","","","","","","","","","","","","","","","","","","","","",""
"","do_trial","51","428946","0.0-37.0-1.0","""event"",""trial"",""time""
""blur"",""0"",""0""
""focus"",""0"",""7892""
""fullscreenenter"",""0"",""19238""
","""event"",""trial"",""time""
""blur"",""0"",""0""
","""event"",""trial"",""time""
""focus"",""0"",""7892""
","""event"",""trial"",""time""
""fullscreenenter"",""0"",""19238""
","
","937.2999999970198","","","","","","","","49","1,1,0","","","","","","","","","","","","","","","",""
"","html-keyboard-response","52","429947","0.0-38.0-0.0","""event"",""trial"",""time""
""blur"",""0"",""0""
""focus"",""0"",""7892""
""fullscreenenter"",""0"",""19238""
","""event"",""trial"",""time""
""blur"",""0"",""0""
","""event"",""trial"",""time""
""focus"",""0"",""7892""
","""event"",""trial"",""time""
""fullscreenenter"",""0"",""19238""
","
","null","<p></p>","null","","","","","","","","","","","","","","","","","","","","","","",""
"","do_trial","53","435591","0.0-38.0-1.0","""event"",""trial"",""time""
""blur"",""0"",""0""
""focus"",""0"",""7892""
""fullscreenenter"",""0"",""19238""
","""event"",""trial"",""time""
""blur"",""0"",""0""
","""event"",""trial"",""time""
""focus"",""0"",""7892""
","""event"",""trial"",""time""
""fullscreenenter"",""0"",""19238""
","
","1127.2999999970198","","","","","","","","49","1,0,1","","","","","","","","","","","","","","","",""
"","html-keyboard-response","54","436606","0.0-39.0-0.0","""event"",""trial"",""time""
""blur"",""0"",""0""
""focus"",""0"",""7892""
""fullscreenenter"",""0"",""19238""
","""event"",""trial"",""time""
""blur"",""0"",""0""
","""event"",""trial"",""time""
""focus"",""0"",""7892""
","""event"",""trial"",""time""
""fullscreenenter"",""0"",""19238""
","
","null","<p></p>","null","","","","","","","","","","","","","","","","","","","","","","",""
"","do_trial","55","442178","0.0-39.0-1.0","""event"",""trial"",""time""
""blur"",""0"",""0""
""focus"",""0"",""7892""
""fullscreenenter"",""0"",""19238""
","""event"",""trial"",""time""
""blur"",""0"",""0""
","""event"",""trial"",""time""
""focus"",""0"",""7892""
","""event"",""trial"",""time""
""fullscreenenter"",""0"",""19238""
","
","1059.9000000059605","","","","","","","","49","0,1,0","","","","","","","","","","","","","","","",""
"","html-keyboard-response","56","443193","0.0-40.0-0.0","""event"",""trial"",""time""
""blur"",""0"",""0""
""focus"",""0"",""7892""
""fullscreenenter"",""0"",""19238""
","""event"",""trial"",""time""
""blur"",""0"",""0""
","""event"",""trial"",""time""
""focus"",""0"",""7892""
","""event"",""trial"",""time""
""fullscreenenter"",""0"",""19238""
","
","null","<p></p>","null","","","","","","","","","","","","","","","","","","","","","","",""
"","do_trial","57","448089","0.0-40.0-1.0","""event"",""trial"",""time""
""blur"",""0"",""0""
""focus"",""0"",""7892""
""fullscreenenter"",""0"",""19238""
","""event"",""trial"",""time""
""blur"",""0"",""0""
","""event"",""trial"",""time""
""focus"",""0"",""7892""
","""event"",""trial"",""time""
""fullscreenenter"",""0"",""19238""
","
","383","","","","","","","","50","1,0,0","","","","","","","","","","","","","","","",""
"","do_bye","58","449592","0.0-41.0-0.0","""event"",""trial"",""time""
""blur"",""0"",""0""
""focus"",""0"",""7892""
""fullscreenenter"",""0"",""19238""
","""event"",""trial"",""time""
""blur"",""0"",""0""
","""event"",""trial"",""time""
""focus"",""0"",""7892""
","""event"",""trial"",""time""
""fullscreenenter"",""0"",""19238""
","
","null","","","","","","","","null","","","","","","","","","","","","","","","","",""
"","do_travel","59","458600","0.0-41.0-1.0","""event"",""trial"",""time""
""blur"",""0"",""0""
""focus"",""0"",""7892""
""fullscreenenter"",""0"",""19238""
","""event"",""trial"",""time""
""blur"",""0"",""0""
","""event"",""trial"",""time""
""focus"",""0"",""7892""
","""event"",""trial"",""time""
""fullscreenenter"",""0"",""19238""
","
","null","","","","","","","","null","","","","","","","","","","","","","","","","",""
"","do_welcome","60","462620","0.0-41.0-2.0","""event"",""trial"",""time""
""blur"",""0"",""0""
""focus"",""0"",""7892""
""fullscreenenter"",""0"",""19238""
","""event"",""trial"",""time""
""blur"",""0"",""0""
","""event"",""trial"",""time""
""focus"",""0"",""7892""
","""event"",""trial"",""time""
""fullscreenenter"",""0"",""19238""
","
","null","","","","","","","","null","","","","","","","","","","","","","","","","",""
"","do_trial","61","467951","0.0-41.0-3.0","""event"",""trial"",""time""
""blur"",""0"",""0""
""focus"",""0"",""7892""
""fullscreenenter"",""0"",""19238""
","""event"",""trial"",""time""
""blur"",""0"",""0""
","""event"",""trial"",""time""
""focus"",""0"",""7892""
","""event"",""trial"",""time""
""fullscreenenter"",""0"",""19238""
","
","807.9000000059605","","","","","","","","51","1,0,0","","","","","","","","","","","","","","","",""
"","html-keyboard-response","62","468971","0.0-42.0-0.0","""event"",""trial"",""time""
""blur"",""0"",""0""
""focus"",""0"",""7892""
""fullscreenenter"",""0"",""19238""
","""event"",""trial"",""time""
""blur"",""0"",""0""
","""event"",""trial"",""time""
""focus"",""0"",""7892""
","""event"",""trial"",""time""
""fullscreenenter"",""0"",""19238""
","
","null","<p></p>","null","","","","","","","","","","","","","","","","","","","","","","",""
"","do_trial","63","474392","0.0-42.0-1.0","""event"",""trial"",""time""
""blur"",""0"",""0""
""focus"",""0"",""7892""
""fullscreenenter"",""0"",""19238""
","""event"",""trial"",""time""
""blur"",""0"",""0""
","""event"",""trial"",""time""
""focus"",""0"",""7892""
","""event"",""trial"",""time""
""fullscreenenter"",""0"",""19238""
","
","902.2999999970198","","","","","","","","51","1,0,1","","","","","","","","","","","","","","","",""
"","html-keyboard-response","64","475403","0.0-43.0-0.0","""event"",""trial"",""time""
""blur"",""0"",""0""
""focus"",""0"",""7892""
""fullscreenenter"",""0"",""19238""
","""event"",""trial"",""time""
""blur"",""0"",""0""
","""event"",""trial"",""time""
""focus"",""0"",""7892""
","""event"",""trial"",""time""
""fullscreenenter"",""0"",""19238""
","
","null","<p></p>","null","","","","","","","","","","","","","","","","","","","","","","",""
"","do_trial","65","480948","0.0-43.0-1.0","""event"",""trial"",""time""
""blur"",""0"",""0""
""focus"",""0"",""7892""
""fullscreenenter"",""0"",""19238""
","""event"",""trial"",""time""
""blur"",""0"",""0""
","""event"",""trial"",""time""
""focus"",""0"",""7892""
","""event"",""trial"",""time""
""fullscreenenter"",""0"",""19238""
","
","1026.7000000029802","","","","","","","","51","1,1,0","","","","","","","","","","","","","","","",""
"","html-keyboard-response","66","481963","0.0-44.0-0.0","""event"",""trial"",""time""
""blur"",""0"",""0""
""focus"",""0"",""7892""
""fullscreenenter"",""0"",""19238""
","""event"",""trial"",""time""
""blur"",""0"",""0""
","""event"",""trial"",""time""
""focus"",""0"",""7892""
","""event"",""trial"",""time""
""fullscreenenter"",""0"",""19238""
","
","null","<p></p>","null","","","","","","","","","","","","","","","","","","","","","","",""
"","do_trial","67","487000","0.0-44.0-1.0","""event"",""trial"",""time""
""blur"",""0"",""0""
""focus"",""0"",""7892""
""fullscreenenter"",""0"",""19238""
","""event"",""trial"",""time""
""blur"",""0"",""0""
","""event"",""trial"",""time""
""focus"",""0"",""7892""
","""event"",""trial"",""time""
""fullscreenenter"",""0"",""19238""
","
","533.2000000029802","","","","","","","","50","0,0,1","","","","","","","","","","","","","","","",""
"","html-keyboard-response","68","488011","0.0-45.0-0.0","""event"",""trial"",""time""
""blur"",""0"",""0""
""focus"",""0"",""7892""
""fullscreenenter"",""0"",""19238""
","""event"",""trial"",""time""
""blur"",""0"",""0""
","""event"",""trial"",""time""
""focus"",""0"",""7892""
","""event"",""trial"",""time""
""fullscreenenter"",""0"",""19238""
","
","null","<p></p>","null","","","","","","","","","","","","","","","","","","","","","","",""
"","do_trial","69","493491","0.0-45.0-1.0","""event"",""trial"",""time""
""blur"",""0"",""0""
""focus"",""0"",""7892""
""fullscreenenter"",""0"",""19238""
","""event"",""trial"",""time""
""blur"",""0"",""0""
","""event"",""trial"",""time""
""focus"",""0"",""7892""
","""event"",""trial"",""time""
""fullscreenenter"",""0"",""19238""
","
","975.3999999910593","","","","","","","","49","1,0,1","","","","","","","","","","","","","","","",""
"","html-keyboard-response","70","498149","0.0-46.0-0.0","""event"",""trial"",""time""
""blur"",""0"",""0""
""focus"",""0"",""7892""
""fullscreenenter"",""0"",""19238""
","""event"",""trial"",""time""
""blur"",""0"",""0""
","""event"",""trial"",""time""
""focus"",""0"",""7892""
","""event"",""trial"",""time""
""fullscreenenter"",""0"",""19238""
","
","4656.899999991059","<div class='center'><p><img src='run_exp/static/images/tutorial/prac_best_pirate.png'  height='500'></p></div>","51","","","","","","","","","","","","","","","","","","","","","","",""
"","html-keyboard-response","71","502297","0.0-47.0-0.0","""event"",""trial"",""time""
""blur"",""0"",""0""
""focus"",""0"",""7892""
""fullscreenenter"",""0"",""19238""
","""event"",""trial"",""time""
""blur"",""0"",""0""
","""event"",""trial"",""time""
""focus"",""0"",""7892""
","""event"",""trial"",""time""
""fullscreenenter"",""0"",""19238""
","
","4146.699999988079","<div class='center'><p>That's incorrect! Red beard was the best.</p><p><b>[Press the space bar to continue]</b></p></div>","32","","","","","","","","","","","","","","","","","","","","","","",""
"","html-keyboard-response","72","506842","0.0-47.0-1.0","""event"",""trial"",""time""
""blur"",""0"",""0""
""focus"",""0"",""7892""
""fullscreenenter"",""0"",""19238""
","""event"",""trial"",""time""
""blur"",""0"",""0""
","""event"",""trial"",""time""
""focus"",""0"",""7892""
","""event"",""trial"",""time""
""fullscreenenter"",""0"",""19238""
","
","4544.4000000059605","<div class='center'><p><img src='run_exp/static/images/tutorial/prac_source.png'  height='500'></p></div>","50","","","","","","","","","","","","","","","","","","","","","","",""
"","html-keyboard-response","73","509699","0.0-48.0-0.0","""event"",""trial"",""time""
""blur"",""0"",""0""
""focus"",""0"",""7892""
""fullscreenenter"",""0"",""19238""
","""event"",""trial"",""time""
""blur"",""0"",""0""
","""event"",""trial"",""time""
""focus"",""0"",""7892""
","""event"",""trial"",""time""
""fullscreenenter"",""0"",""19238""
","
","2855.8999999910593","<div class='center'><p>That's correct! You saw this ship on the cavern island.</p><p><b>[Press the space bar to continue]</b></p></div>","32","","","","","","","","","","","","","","","","","","","","","","",""
"","quiz_beginning","74","521101","0.0-48.0-1.0","""event"",""trial"",""time""
""blur"",""0"",""0""
""focus"",""0"",""7892""
""fullscreenenter"",""0"",""19238""
","""event"",""trial"",""time""
""blur"",""0"",""0""
","""event"",""trial"",""time""
""focus"",""0"",""7892""
","""event"",""trial"",""time""
""fullscreenenter"",""0"",""19238""
","
","null","run_exp/static/audio/clip_16_quiz_intro.m4a","null","","","","","<div class='center'><p>Good job on the practice game! Now, you will be asked some true or false questions to make sure you really understand the rules of the game.</p><p> Press <b>'1'</b> on the keyboard for true and press <b>'2'</b> for false.</p></div>","","","","","","","","","","","","","","","","","",""
"","audio-keyboard-response","75","526520","0.0-48.0-2.0","""event"",""trial"",""time""
""blur"",""0"",""0""
""focus"",""0"",""7892""
""fullscreenenter"",""0"",""19238""
","""event"",""trial"",""time""
""blur"",""0"",""0""
","""event"",""trial"",""time""
""focus"",""0"",""7892""
","""event"",""trial"",""time""
""fullscreenenter"",""0"",""19238""
","
","5417.9000000059605","run_exp/static/audio/clip_17_q1.m4a","49","","","","","","","","","","","","","","","","","","","","","","",""
"","correct","76","528921","0.0-49.0-0.0","""event"",""trial"",""time""
""blur"",""0"",""0""
""focus"",""0"",""7892""
""fullscreenenter"",""0"",""19238""
","""event"",""trial"",""time""
""blur"",""0"",""0""
","""event"",""trial"",""time""
""focus"",""0"",""7892""
","""event"",""trial"",""time""
""fullscreenenter"",""0"",""19238""
","
","null","run_exp/static/audio/clip_18_correct.m4a","null","","","","","<div class='center'><p>That's correct!</p></div>","","","","","","","","","","","","","","","","","",""
"","html-keyboard-response","77","529775","0.0-49.0-1.0","""event"",""trial"",""time""
""blur"",""0"",""0""
""focus"",""0"",""7892""
""fullscreenenter"",""0"",""19238""
","""event"",""trial"",""time""
""blur"",""0"",""0""
","""event"",""trial"",""time""
""focus"",""0"",""7892""
","""event"",""trial"",""time""
""fullscreenenter"",""0"",""19238""
","
","853.2000000029802","<div class='center'><p>That's correct!</p><p><b>[Press the space bar to continue]</b></p></div>","32","","","","","","","","","","","","","","","","","","","","","","",""
"","audio-keyboard-response","78","537958","0.0-49.0-2.0","""event"",""trial"",""time""
""blur"",""0"",""0""
""focus"",""0"",""7892""
""fullscreenenter"",""0"",""19238""
","""event"",""trial"",""time""
""blur"",""0"",""0""
","""event"",""trial"",""time""
""focus"",""0"",""7892""
","""event"",""trial"",""time""
""fullscreenenter"",""0"",""19238""
","
","8182.699999988079","run_exp/static/audio/clip_20_q2.m4a","50","","","","","","","","","","","","","","","","","","","","","","",""
"","correct","79","540341","0.0-50.0-0.0","""event"",""trial"",""time""
""blur"",""0"",""0""
""focus"",""0"",""7892""
""fullscreenenter"",""0"",""19238""
","""event"",""trial"",""time""
""blur"",""0"",""0""
","""event"",""trial"",""time""
""focus"",""0"",""7892""
","""event"",""trial"",""time""
""fullscreenenter"",""0"",""19238""
","
","null","run_exp/static/audio/clip_18_correct.m4a","null","","","","","<div class='center'><p>That's correct!</p></div>","","","","","","","","","","","","","","","","","",""
"","html-keyboard-response","80","541480","0.0-50.0-1.0","""event"",""trial"",""time""
""blur"",""0"",""0""
""focus"",""0"",""7892""
""fullscreenenter"",""0"",""19238""
","""event"",""trial"",""time""
""blur"",""0"",""0""
","""event"",""trial"",""time""
""focus"",""0"",""7892""
","""event"",""trial"",""time""
""fullscreenenter"",""0"",""19238""
","
","1138.5999999940395","<div class='center'><p>That's correct!</p><p><b>[Press the space bar to continue]</b></p></div>","32","","","","","","","","","","","","","","","","","","","","","","",""
"","audio-keyboard-response","81","547789","0.0-50.0-2.0","""event"",""trial"",""time""
""blur"",""0"",""0""
""focus"",""0"",""7892""
""fullscreenenter"",""0"",""19238""
","""event"",""trial"",""time""
""blur"",""0"",""0""
","""event"",""trial"",""time""
""focus"",""0"",""7892""
","""event"",""trial"",""time""
""fullscreenenter"",""0"",""19238""
","
","6308.70000000298","run_exp/static/audio/clip_22_q3.m4a","50","","","","","","","","","","","","","","","","","","","","","","",""
"","correct","82","550182","0.0-51.0-0.0","""event"",""trial"",""time""
""blur"",""0"",""0""
""focus"",""0"",""7892""
""fullscreenenter"",""0"",""19238""
","""event"",""trial"",""time""
""blur"",""0"",""0""
","""event"",""trial"",""time""
""focus"",""0"",""7892""
","""event"",""trial"",""time""
""fullscreenenter"",""0"",""19238""
","
","null","run_exp/static/audio/clip_18_correct.m4a","null","","","","","<div class='center'><p>That's correct!</p></div>","","","","","","","","","","","","","","","","","",""
"","html-keyboard-response","83","550918","0.0-51.0-1.0","""event"",""trial"",""time""
""blur"",""0"",""0""
""focus"",""0"",""7892""
""fullscreenenter"",""0"",""19238""
","""event"",""trial"",""time""
""blur"",""0"",""0""
","""event"",""trial"",""time""
""focus"",""0"",""7892""
","""event"",""trial"",""time""
""fullscreenenter"",""0"",""19238""
","
","736.2999999970198","<div class='center'><p>That's correct!</p><p><b>[Press the space bar to continue]</b></p></div>","32","","","","","","","","","","","","","","","","","","","","","","",""
"","audio-keyboard-response","84","558740","0.0-51.0-2.0","""event"",""trial"",""time""
""blur"",""0"",""0""
""focus"",""0"",""7892""
""fullscreenenter"",""0"",""19238""
","""event"",""trial"",""time""
""blur"",""0"",""0""
","""event"",""trial"",""time""
""focus"",""0"",""7892""
","""event"",""trial"",""time""
""fullscreenenter"",""0"",""19238""
","
","7820.5999999940395","run_exp/static/audio/clip_24_q4.m4a","50","","","","","","","","","","","","","","","","","","","","","","",""
"","q4_err","85","568821","0.0-52.0-0.0","""event"",""trial"",""time""
""blur"",""0"",""0""
""focus"",""0"",""7892""
""fullscreenenter"",""0"",""19238""
","""event"",""trial"",""time""
""blur"",""0"",""0""
","""event"",""trial"",""time""
""focus"",""0"",""7892""
","""event"",""trial"",""time""
""fullscreenenter"",""0"",""19238""
","
","null","run_exp/static/audio/clip_25_wrong_q4.m4a","null","","","","","<div class='center'><p>That’s incorrect. You should remember the island where a pirate robbed a ship. To help you remember, you can make up a story associating the object on the ship with the island.</p></div>","","","","","","","","","","","","","","","","","",""
"","html-keyboard-response","86","570375","0.0-52.0-1.0","""event"",""trial"",""time""
""blur"",""0"",""0""
""focus"",""0"",""7892""
""fullscreenenter"",""0"",""19238""
","""event"",""trial"",""time""
""blur"",""0"",""0""
","""event"",""trial"",""time""
""focus"",""0"",""7892""
","""event"",""trial"",""time""
""fullscreenenter"",""0"",""19238""
","
","1553.4000000059605","<div class='center'><p>That’s incorrect. You should remember the island where a pirate robbed a ship. To help you remember, you can make up a story associating the object on the ship with the island.</p><p><b>[Press the space bar to continue]</b></p></div>","32","","","","","","","","","","","","","","","","","","","","","","",""
"","q_all_err","87","576561","0.0-53.0-0.0","""event"",""trial"",""time""
""blur"",""0"",""0""
""focus"",""0"",""7892""
""fullscreenenter"",""0"",""19238""
","""event"",""trial"",""time""
""blur"",""0"",""0""
","""event"",""trial"",""time""
""focus"",""0"",""7892""
","""event"",""trial"",""time""
""fullscreenenter"",""0"",""19238""
","
","null","run_exp/static/audio/clip_26_quiz_redo.m4a","null","","","","","<div class='center'><p>Oops, you missed some questions. Now that you’ve heard the correct answers. Try the quiz again! </p></div>","","","","","","","","","","","","","","","","","",""
"","html-keyboard-response","88","577198","0.0-53.0-1.0","""event"",""trial"",""time""
""blur"",""0"",""0""
""focus"",""0"",""7892""
""fullscreenenter"",""0"",""19238""
","""event"",""trial"",""time""
""blur"",""0"",""0""
","""event"",""trial"",""time""
""focus"",""0"",""7892""
","""event"",""trial"",""time""
""fullscreenenter"",""0"",""19238""
","
","636.1999999880791","<div class='center'><p>Oops, you missed some questions. Now that you’ve heard the correct answers. Try the quiz again! </p><p><b>[Press the space bar to continue]</b></p></div>","32","","","","","","","","","","","","","","","","","","","","","","",""
"","audio-keyboard-response","89","579662","0.0-53.0-2.0","""event"",""trial"",""time""
""blur"",""0"",""0""
""focus"",""0"",""7892""
""fullscreenenter"",""0"",""19238""
","""event"",""trial"",""time""
""blur"",""0"",""0""
","""event"",""trial"",""time""
""focus"",""0"",""7892""
","""event"",""trial"",""time""
""fullscreenenter"",""0"",""19238""
","
","2462.8999999910593","run_exp/static/audio/clip_17_q1.m4a","49","","","","","","","","","","","","","","","","","","","","","","",""
"","correct","90","582062","0.0-54.0-0.0","""event"",""trial"",""time""
""blur"",""0"",""0""
""focus"",""0"",""7892""
""fullscreenenter"",""0"",""19238""
","""event"",""trial"",""time""
""blur"",""0"",""0""
","""event"",""trial"",""time""
""focus"",""0"",""7892""
","""event"",""trial"",""time""
""fullscreenenter"",""0"",""19238""
","
","null","run_exp/static/audio/clip_18_correct.m4a","null","","","","","<div class='center'><p>That's correct!</p></div>","","","","","","","","","","","","","","","","","",""
"","html-keyboard-response","91","582816","0.0-54.0-1.0","""event"",""trial"",""time""
""blur"",""0"",""0""
""focus"",""0"",""7892""
""fullscreenenter"",""0"",""19238""
","""event"",""trial"",""time""
""blur"",""0"",""0""
","""event"",""trial"",""time""
""focus"",""0"",""7892""
","""event"",""trial"",""time""
""fullscreenenter"",""0"",""19238""
","
","753.7000000029802","<div class='center'><p>That's correct!</p><p><b>[Press the space bar to continue]</b></p></div>","32","","","","","","","","","","","","","","","","","","","","","","",""
"","audio-keyboard-response","92","586880","0.0-54.0-2.0","""event"",""trial"",""time""
""blur"",""0"",""0""
""focus"",""0"",""7892""
""fullscreenenter"",""0"",""19238""
","""event"",""trial"",""time""
""blur"",""0"",""0""
","""event"",""trial"",""time""
""focus"",""0"",""7892""
","""event"",""trial"",""time""
""fullscreenenter"",""0"",""19238""
","
","4066.2999999970198","run_exp/static/audio/clip_20_q2.m4a","50","","","","","","","","","","","","","","","","","","","","","","",""
"","correct","93","589278","0.0-55.0-0.0","""event"",""trial"",""time""
""blur"",""0"",""0""
""focus"",""0"",""7892""
""fullscreenenter"",""0"",""19238""
","""event"",""trial"",""time""
""blur"",""0"",""0""
","""event"",""trial"",""time""
""focus"",""0"",""7892""
","""event"",""trial"",""time""
""fullscreenenter"",""0"",""19238""
","
","null","run_exp/static/audio/clip_18_correct.m4a","null","","","","","<div class='center'><p>That's correct!</p></div>","","","","","","","","","","","","","","","","","",""
"","html-keyboard-response","94","589843","0.0-55.0-1.0","""event"",""trial"",""time""
""blur"",""0"",""0""
""focus"",""0"",""7892""
""fullscreenenter"",""0"",""19238""
","""event"",""trial"",""time""
""blur"",""0"",""0""
","""event"",""trial"",""time""
""focus"",""0"",""7892""
","""event"",""trial"",""time""
""fullscreenenter"",""0"",""19238""
","
","564.3999999910593","<div class='center'><p>That's correct!</p><p><b>[Press the space bar to continue]</b></p></div>","32","","","","","","","","","","","","","","","","","","","","","","",""
"","audio-keyboard-response","95","592867","0.0-55.0-2.0","""event"",""trial"",""time""
""blur"",""0"",""0""
""focus"",""0"",""7892""
""fullscreenenter"",""0"",""19238""
","""event"",""trial"",""time""
""blur"",""0"",""0""
","""event"",""trial"",""time""
""focus"",""0"",""7892""
","""event"",""trial"",""time""
""fullscreenenter"",""0"",""19238""
","
","3023.2000000029802","run_exp/static/audio/clip_22_q3.m4a","50","","","","","","","","","","","","","","","","","","","","","","",""
"","correct","96","595258","0.0-56.0-0.0","""event"",""trial"",""time""
""blur"",""0"",""0""
""focus"",""0"",""7892""
""fullscreenenter"",""0"",""19238""
","""event"",""trial"",""time""
""blur"",""0"",""0""
","""event"",""trial"",""time""
""focus"",""0"",""7892""
","""event"",""trial"",""time""
""fullscreenenter"",""0"",""19238""
","
","null","run_exp/static/audio/clip_18_correct.m4a","null","","","","","<div class='center'><p>That's correct!</p></div>","","","","","","","","","","","","","","","","","",""
"","html-keyboard-response","97","595765","0.0-56.0-1.0","""event"",""trial"",""time""
""blur"",""0"",""0""
""focus"",""0"",""7892""
""fullscreenenter"",""0"",""19238""
","""event"",""trial"",""time""
""blur"",""0"",""0""
","""event"",""trial"",""time""
""focus"",""0"",""7892""
","""event"",""trial"",""time""
""fullscreenenter"",""0"",""19238""
","
","506.20000000298023","<div class='center'><p>That's correct!</p><p><b>[Press the space bar to continue]</b></p></div>","32","","","","","","","","","","","","","","","","","","","","","","",""
"","audio-keyboard-response","98","597730","0.0-56.0-2.0","""event"",""trial"",""time""
""blur"",""0"",""0""
""focus"",""0"",""7892""
""fullscreenenter"",""0"",""19238""
","""event"",""trial"",""time""
""blur"",""0"",""0""
","""event"",""trial"",""time""
""focus"",""0"",""7892""
","""event"",""trial"",""time""
""fullscreenenter"",""0"",""19238""
","
","1964","run_exp/static/audio/clip_24_q4.m4a","49","","","","","","","","","","","","","","","","","","","","","","",""
"","correct","99","600139","0.0-57.0-0.0","""event"",""trial"",""time""
""blur"",""0"",""0""
""focus"",""0"",""7892""
""fullscreenenter"",""0"",""19238""
","""event"",""trial"",""time""
""blur"",""0"",""0""
","""event"",""trial"",""time""
""focus"",""0"",""7892""
","""event"",""trial"",""time""
""fullscreenenter"",""0"",""19238""
","
","null","run_exp/static/audio/clip_18_correct.m4a","null","","","","","<div class='center'><p>That's correct!</p></div>","","","","","","","","","","","","","","","","","",""
"","html-keyboard-response","100","600607","0.0-57.0-1.0","""event"",""trial"",""time""
""blur"",""0"",""0""
""focus"",""0"",""7892""
""fullscreenenter"",""0"",""19238""
","""event"",""trial"",""time""
""blur"",""0"",""0""
","""event"",""trial"",""time""
""focus"",""0"",""7892""
","""event"",""trial"",""time""
""fullscreenenter"",""0"",""19238""
","
","468.20000000298023","<div class='center'><p>That's correct!</p><p><b>[Press the space bar to continue]</b></p></div>","32","","","","","","","","","","","","","","","","","","","","","","",""
"","q_all_corr","101","609079","0.0-58.0-0.0","""event"",""trial"",""time""
""blur"",""0"",""0""
""focus"",""0"",""7892""
""fullscreenenter"",""0"",""19238""
","""event"",""trial"",""time""
""blur"",""0"",""0""
","""event"",""trial"",""time""
""focus"",""0"",""7892""
","""event"",""trial"",""time""
""fullscreenenter"",""0"",""19238""
","
","null","run_exp/static/audio/clip_27_quiz_all_correct.m4a","null","","","","","<div class='center'><p>Good job! You’re now ready to move on to the real game! Remember this game will be difficult but don't get discouraged and try your best!</p></div>","","","","","","","","","","","","","","","","","",""
"","html-keyboard-response","102","609922","0.0-58.0-1.0","""event"",""trial"",""time""
""blur"",""0"",""0""
""focus"",""0"",""7892""
""fullscreenenter"",""0"",""19238""
","""event"",""trial"",""time""
""blur"",""0"",""0""
","""event"",""trial"",""time""
""focus"",""0"",""7892""
","""event"",""trial"",""time""
""fullscreenenter"",""0"",""19238""
","
","842","<div class='center'><p>Good job! You’re now ready to move on to the real game! Remember this game will be difficult but don't get discouraged and try your best!</p><p><b>[Press the space bar to continue]</b></p></div>","32","","","","","","","","","","","","","","","","","","","","","","",""
"","do_welcome","103","613938","0.0-59.0-0.0","""event"",""trial"",""time""
""blur"",""0"",""0""
""focus"",""0"",""7892""
""fullscreenenter"",""0"",""19238""
","""event"",""trial"",""time""
""blur"",""0"",""0""
","""event"",""trial"",""time""
""focus"",""0"",""7892""
","""event"",""trial"",""time""
""fullscreenenter"",""0"",""19238""
","
","null","","","","","","","","null","","","","","","","","","","","","","","","","",""
"","do_trial","104","619508","0.0-60.0-0.0","""event"",""trial"",""time""
""blur"",""0"",""0""
""focus"",""0"",""7892""
""fullscreenenter"",""0"",""19238""
","""event"",""trial"",""time""
""blur"",""0"",""0""
","""event"",""trial"",""time""
""focus"",""0"",""7892""
","""event"",""trial"",""time""
""fullscreenenter"",""0"",""19238""
","
","1034.3999999910593","","","","","","","","51","1,0,0","0","mountain","0","probe-48","0.6","0.3","0.1","0","","","","","","","",""
"","html-keyboard-response","105","620528","0.0-60.0-1.0","""event"",""trial"",""time""
""blur"",""0"",""0""
""focus"",""0"",""7892""
""fullscreenenter"",""0"",""19238""
","""event"",""trial"",""time""
""blur"",""0"",""0""
","""event"",""trial"",""time""
""focus"",""0"",""7892""
","""event"",""trial"",""time""
""fullscreenenter"",""0"",""19238""
","
","null","<p></p>","null","","","","","","","","","","","","","","","","","","","","","","",""
"","do_trial","106","626052","0.0-61.0-0.0","""event"",""trial"",""time""
""blur"",""0"",""0""
""focus"",""0"",""7892""
""fullscreenenter"",""0"",""19238""
","""event"",""trial"",""time""
""blur"",""0"",""0""
","""event"",""trial"",""time""
""focus"",""0"",""7892""
","""event"",""trial"",""time""
""fullscreenenter"",""0"",""19238""
","
","988.2000000029802","","","","","","","","50","1,0,0","0","mountain","1","probe-75","0.5705346089258592","0.29055755156753277","0.17602688612814796","0","","","","","","","",""
"","html-keyboard-response","107","627061","0.0-61.0-1.0","""event"",""trial"",""time""
""blur"",""0"",""0""
""focus"",""0"",""7892""
""fullscreenenter"",""0"",""19238""
","""event"",""trial"",""time""
""blur"",""0"",""0""
","""event"",""trial"",""time""
""focus"",""0"",""7892""
","""event"",""trial"",""time""
""fullscreenenter"",""0"",""19238""
","
","null","<p></p>","null","","","","","","","","","","","","","","","","","","","","","","",""
"","do_trial","108","632196","0.0-62.0-0.0","""event"",""trial"",""time""
""blur"",""0"",""0""
""focus"",""0"",""7892""
""fullscreenenter"",""0"",""19238""
","""event"",""trial"",""time""
""blur"",""0"",""0""
","""event"",""trial"",""time""
""focus"",""0"",""7892""
","""event"",""trial"",""time""
""fullscreenenter"",""0"",""19238""
","
","602.7000000029802","","","","","","","","49","0,0,0","0","mountain","2","probe-24","0.6046251996353218","0.2802248278887652","0.1838205776687731","0","","","","","","","",""
"","html-keyboard-response","109","633207","0.0-62.0-1.0","""event"",""trial"",""time""
""blur"",""0"",""0""
""focus"",""0"",""7892""
""fullscreenenter"",""0"",""19238""
","""event"",""trial"",""time""
""blur"",""0"",""0""
","""event"",""trial"",""time""
""focus"",""0"",""7892""
","""event"",""trial"",""time""
""fullscreenenter"",""0"",""19238""
","
","null","<p></p>","null","","","","","","","","","","","","","","","","","","","","","","",""
"","do_trial","110","638545","0.0-63.0-0.0","""event"",""trial"",""time""
""blur"",""0"",""0""
""focus"",""0"",""7892""
""fullscreenenter"",""0"",""19238""
","""event"",""trial"",""time""
""blur"",""0"",""0""
","""event"",""trial"",""time""
""focus"",""0"",""7892""
","""event"",""trial"",""time""
""fullscreenenter"",""0"",""19238""
","
","811.8000000119209","","","","","","","","51","1,0,0","0","mountain","3","probe-33","0.7402390572649629","0.26208296601954484","0.12885876610132563","0","","","","","","","",""
"","html-keyboard-response","111","639559","0.0-63.0-1.0","""event"",""trial"",""time""
""blur"",""0"",""0""
""focus"",""0"",""7892""
""fullscreenenter"",""0"",""19238""
","""event"",""trial"",""time""
""blur"",""0"",""0""
","""event"",""trial"",""time""
""focus"",""0"",""7892""
","""event"",""trial"",""time""
""fullscreenenter"",""0"",""19238""
","
","null","<p></p>","null","","","","","","","","","","","","","","","","","","","","","","",""
"","do_trial","112","644489","0.0-64.0-0.0","""event"",""trial"",""time""
""blur"",""0"",""0""
""focus"",""0"",""7892""
""fullscreenenter"",""0"",""19238""
","""event"",""trial"",""time""
""blur"",""0"",""0""
","""event"",""trial"",""time""
""focus"",""0"",""7892""
","""event"",""trial"",""time""
""fullscreenenter"",""0"",""19238""
","
","398.79999999701977","","","","","","","","50","1,0,1","0","mountain","4","probe-93","0.7287880896543188","0.10048570577346543","0.09204341740092009","0","","","","","","","",""
"","html-keyboard-response","113","645494","0.0-64.0-1.0","""event"",""trial"",""time""
""blur"",""0"",""0""
""focus"",""0"",""7892""
""fullscreenenter"",""0"",""19238""
","""event"",""trial"",""time""
""blur"",""0"",""0""
","""event"",""trial"",""time""
""focus"",""0"",""7892""
","""event"",""trial"",""time""
""fullscreenenter"",""0"",""19238""
","
","null","<p></p>","null","","","","","","","","","","","","","","","","","","","","","","",""
"","do_trial","114","650726","0.0-65.0-0.0","""event"",""trial"",""time""
""blur"",""0"",""0""
""focus"",""0"",""7892""
""fullscreenenter"",""0"",""19238""
","""event"",""trial"",""time""
""blur"",""0"",""0""
","""event"",""trial"",""time""
""focus"",""0"",""7892""
","""event"",""trial"",""time""
""fullscreenenter"",""0"",""19238""
","
","698.4000000059605","","","","","","","","49","1,0,0","0","mountain","5","probe-211","0.8890780994173051","0.22518888886608945","0.09204395289794622","1","","","","","","","",""
"","html-keyboard-response","115","651736","0.0-65.0-1.0","""event"",""trial"",""time""
""blur"",""0"",""0""
""focus"",""0"",""7892""
""fullscreenenter"",""0"",""19238""
","""event"",""trial"",""time""
""blur"",""0"",""0""
","""event"",""trial"",""time""
""focus"",""0"",""7892""
","""event"",""trial"",""time""
""fullscreenenter"",""0"",""19238""
","
","null","<p></p>","null","","","","","","","","","","","","","","","","","","","","","","",""
"","do_trial","116","656757","0.0-66.0-0.0","""event"",""trial"",""time""
""blur"",""0"",""0""
""focus"",""0"",""7892""
""fullscreenenter"",""0"",""19238""
","""event"",""trial"",""time""
""blur"",""0"",""0""
","""event"",""trial"",""time""
""focus"",""0"",""7892""
","""event"",""trial"",""time""
""fullscreenenter"",""0"",""19238""
","
","495.1000000089407","","","","","","","","49","0,0,0","0","mountain","6","probe-183","0.7285013375502892","0.2739875646857487","0.1462258191837719","0","","","","","","","",""
"","html-keyboard-response","117","657770","0.0-66.0-1.0","""event"",""trial"",""time""
""blur"",""0"",""0""
""focus"",""0"",""7892""
""fullscreenenter"",""0"",""19238""
","""event"",""trial"",""time""
""blur"",""0"",""0""
","""event"",""trial"",""time""
""focus"",""0"",""7892""
","""event"",""trial"",""time""
""fullscreenenter"",""0"",""19238""
","
","null","<p></p>","null","","","","","","","","","","","","","","","","","","","","","","",""
"","do_trial","118","663252","0.0-67.0-0.0","""event"",""trial"",""time""
""blur"",""0"",""0""
""focus"",""0"",""7892""
""fullscreenenter"",""0"",""19238""
","""event"",""trial"",""time""
""blur"",""0"",""0""
","""event"",""trial"",""time""
""focus"",""0"",""7892""
","""event"",""trial"",""time""
""fullscreenenter"",""0"",""19238""
","
","953.3000000119209","","","","","","","","49","0,1,1","0","mountain","7","probe-143","0.7040156248499494","0.43885424607586915","0.09885558133079371","0","","","","","","","",""
"","html-keyboard-response","119","664260","0.0-67.0-1.0","""event"",""trial"",""time""
""blur"",""0"",""0""
""focus"",""0"",""7892""
""fullscreenenter"",""0"",""19238""
","""event"",""trial"",""time""
""blur"",""0"",""0""
","""event"",""trial"",""time""
""focus"",""0"",""7892""
","""event"",""trial"",""time""
""fullscreenenter"",""0"",""19238""
","
","null","<p></p>","null","","","","","","","","","","","","","","","","","","","","","","",""
"","do_trial","120","669352","0.0-68.0-0.0","""event"",""trial"",""time""
""blur"",""0"",""0""
""focus"",""0"",""7892""
""fullscreenenter"",""0"",""19238""
","""event"",""trial"",""time""
""blur"",""0"",""0""
","""event"",""trial"",""time""
""focus"",""0"",""7892""
","""event"",""trial"",""time""
""fullscreenenter"",""0"",""19238""
","
","559.0999999940395","","","","","","","","50","1,0,0","0","mountain","8","probe-97","0.5312717712059419","0.2620243745773513","0.16085341716479143","0","","","","","","","",""
"","html-keyboard-response","121","670367","0.0-68.0-1.0","""event"",""trial"",""time""
""blur"",""0"",""0""
""focus"",""0"",""7892""
""fullscreenenter"",""0"",""19238""
","""event"",""trial"",""time""
""blur"",""0"",""0""
","""event"",""trial"",""time""
""focus"",""0"",""7892""
","""event"",""trial"",""time""
""fullscreenenter"",""0"",""19238""
","
","null","<p></p>","null","","","","","","","","","","","","","","","","","","","","","","",""
"","do_trial","122","675786","0.0-69.0-0.0","""event"",""trial"",""time""
""blur"",""0"",""0""
""focus"",""0"",""7892""
""fullscreenenter"",""0"",""19238""
","""event"",""trial"",""time""
""blur"",""0"",""0""
","""event"",""trial"",""time""
""focus"",""0"",""7892""
","""event"",""trial"",""time""
""fullscreenenter"",""0"",""19238""
","
","892.6000000089407","","","","","","","","51","0,1,0","0","mountain","9","probe-02","0.48125716252955547","0.2760025059249654","0.17337675989856774","0","","","","","","","",""
"","html-keyboard-response","123","676801","0.0-69.0-1.0","""event"",""trial"",""time""
""blur"",""0"",""0""
""focus"",""0"",""7892""
""fullscreenenter"",""0"",""19238""
","""event"",""trial"",""time""
""blur"",""0"",""0""
","""event"",""trial"",""time""
""focus"",""0"",""7892""
","""event"",""trial"",""time""
""fullscreenenter"",""0"",""19238""
","
","null","<p></p>","null","","","","","","","","","","","","","","","","","","","","","","",""
"","do_trial","124","681808","0.0-70.0-0.0","""event"",""trial"",""time""
""blur"",""0"",""0""
""focus"",""0"",""7892""
""fullscreenenter"",""0"",""19238""
","""event"",""trial"",""time""
""blur"",""0"",""0""
","""event"",""trial"",""time""
""focus"",""0"",""7892""
","""event"",""trial"",""time""
""fullscreenenter"",""0"",""19238""
","
","471.40000000596046","","","","","","","","49","0,0,0","0","mountain","10","probe-74","0.6862624016861196","0.23638857925039344","0.13127388825251388","0","","","","","","","",""
"","html-keyboard-response","125","682815","0.0-70.0-1.0","""event"",""trial"",""time""
""blur"",""0"",""0""
""focus"",""0"",""7892""
""fullscreenenter"",""0"",""19238""
","""event"",""trial"",""time""
""blur"",""0"",""0""
","""event"",""trial"",""time""
""focus"",""0"",""7892""
","""event"",""trial"",""time""
""fullscreenenter"",""0"",""19238""
","
","null","<p></p>","null","","","","","","","","","","","","","","","","","","","","","","",""
"","do_trial","126","687943","0.0-71.0-0.0","""event"",""trial"",""time""
""blur"",""0"",""0""
""focus"",""0"",""7892""
""fullscreenenter"",""0"",""19238""
","""event"",""trial"",""time""
""blur"",""0"",""0""
","""event"",""trial"",""time""
""focus"",""0"",""7892""
","""event"",""trial"",""time""
""fullscreenenter"",""0"",""19238""
","
","599.3999999910593","","","","","","","","50","1,0,0","0","mountain","11","probe-122","0.647922407118524","0.20148257155564564","0.07639200012052644","0","","","","","","","",""
"","html-keyboard-response","127","688946","0.0-71.0-1.0","""event"",""trial"",""time""
""blur"",""0"",""0""
""focus"",""0"",""7892""
""fullscreenenter"",""0"",""19238""
","""event"",""trial"",""time""
""blur"",""0"",""0""
","""event"",""trial"",""time""
""focus"",""0"",""7892""
","""event"",""trial"",""time""
""fullscreenenter"",""0"",""19238""
","
","null","<p></p>","null","","","","","","","","","","","","","","","","","","","","","","",""
"","do_trial","128","693999","0.0-72.0-0.0","""event"",""trial"",""time""
""blur"",""0"",""0""
""focus"",""0"",""7892""
""fullscreenenter"",""0"",""19238""
","""event"",""trial"",""time""
""blur"",""0"",""0""
","""event"",""trial"",""time""
""focus"",""0"",""7892""
","""event"",""trial"",""time""
""fullscreenenter"",""0"",""19238""
","
","516.7999999970198","","","","","","","","51","0,0,1","0","mountain","12","probe-111","0.5000449630861303","0.15924333297142554","0.15457968458825247","1","","","","","","","",""
"","html-keyboard-response","129","695002","0.0-72.0-1.0","""event"",""trial"",""time""
""blur"",""0"",""0""
""focus"",""0"",""7892""
""fullscreenenter"",""0"",""19238""
","""event"",""trial"",""time""
""blur"",""0"",""0""
","""event"",""trial"",""time""
""focus"",""0"",""7892""
","""event"",""trial"",""time""
""fullscreenenter"",""0"",""19238""
","
","null","<p></p>","null","","","","","","","","","","","","","","","","","","","","","","",""
"","do_trial","130","700055","0.0-73.0-0.0","""event"",""trial"",""time""
""blur"",""0"",""0""
""focus"",""0"",""7892""
""fullscreenenter"",""0"",""19238""
","""event"",""trial"",""time""
""blur"",""0"",""0""
","""event"",""trial"",""time""
""focus"",""0"",""7892""
","""event"",""trial"",""time""
""fullscreenenter"",""0"",""19238""
","
","516.6000000089407","","","","","","","","51","0,0,1","0","mountain","13","probe-129","0.43664015327535965","0.2198020143259462","0.0798435526207668","1","","","","","","","",""
"","html-keyboard-response","131","701066","0.0-73.0-1.0","""event"",""trial"",""time""
""blur"",""0"",""0""
""focus"",""0"",""7892""
""fullscreenenter"",""0"",""19238""
","""event"",""trial"",""time""
""blur"",""0"",""0""
","""event"",""trial"",""time""
""focus"",""0"",""7892""
","""event"",""trial"",""time""
""fullscreenenter"",""0"",""19238""
","
","null","<p></p>","null","","","","","","","","","","","","","","","","","","","","","","",""
"","do_trial","132","707222","0.0-74.0-0.0","""event"",""trial"",""time""
""blur"",""0"",""0""
""focus"",""0"",""7892""
""fullscreenenter"",""0"",""19238""
","""event"",""trial"",""time""
""blur"",""0"",""0""
","""event"",""trial"",""time""
""focus"",""0"",""7892""
","""event"",""trial"",""time""
""fullscreenenter"",""0"",""19238""
","
","1621.2999999970198","","","","","","","","51","0,0,1","0","mountain","14","probe-96","0.6313565205446849","0.06324741777794177","0.11390660283568034","1","","","","","","","",""
"","html-keyboard-response","133","708231","0.0-74.0-1.0","""event"",""trial"",""time""
""blur"",""0"",""0""
""focus"",""0"",""7892""
""fullscreenenter"",""0"",""19238""
","""event"",""trial"",""time""
""blur"",""0"",""0""
","""event"",""trial"",""time""
""focus"",""0"",""7892""
","""event"",""trial"",""time""
""fullscreenenter"",""0"",""19238""
","
","null","<p></p>","null","","","","","","","","","","","","","","","","","","","","","","",""
"","do_trial","134","713594","0.0-75.0-0.0","""event"",""trial"",""time""
""blur"",""0"",""0""
""focus"",""0"",""7892""
""fullscreenenter"",""0"",""19238""
","""event"",""trial"",""time""
""blur"",""0"",""0""
","""event"",""trial"",""time""
""focus"",""0"",""7892""
","""event"",""trial"",""time""
""fullscreenenter"",""0"",""19238""
","
","841","","","","","","","","51","1,0,0","0","mountain","15","probe-210","0.6765144740899675","0.2804617342434751","0.1711107822965238","0","","","","","","","",""
"","html-keyboard-response","135","714609","0.0-75.0-1.0","""event"",""trial"",""time""
""blur"",""0"",""0""
""focus"",""0"",""7892""
""fullscreenenter"",""0"",""19238""
","""event"",""trial"",""time""
""blur"",""0"",""0""
","""event"",""trial"",""time""
""focus"",""0"",""7892""
","""event"",""trial"",""time""
""fullscreenenter"",""0"",""19238""
","
","null","<p></p>","null","","","","","","","","","","","","","","","","","","","","","","",""
"","do_trial","136","719804","0.0-76.0-0.0","""event"",""trial"",""time""
""blur"",""0"",""0""
""focus"",""0"",""7892""
""fullscreenenter"",""0"",""19238""
","""event"",""trial"",""time""
""blur"",""0"",""0""
","""event"",""trial"",""time""
""focus"",""0"",""7892""
","""event"",""trial"",""time""
""fullscreenenter"",""0"",""19238""
","
","661.5","","","","","","","","49","0,0,0","0","mountain","16","probe-194","0.5153785825828596","0.438040038834774","0.1265909702576802","0","","","","","","","",""
"","html-keyboard-response","137","720806","0.0-76.0-1.0","""event"",""trial"",""time""
""blur"",""0"",""0""
""focus"",""0"",""7892""
""fullscreenenter"",""0"",""19238""
","""event"",""trial"",""time""
""blur"",""0"",""0""
","""event"",""trial"",""time""
""focus"",""0"",""7892""
","""event"",""trial"",""time""
""fullscreenenter"",""0"",""19238""
","
","null","<p></p>","null","","","","","","","","","","","","","","","","","","","","","","",""
"","do_trial","138","726119","0.0-77.0-0.0","""event"",""trial"",""time""
""blur"",""0"",""0""
""focus"",""0"",""7892""
""fullscreenenter"",""0"",""19238""
","""event"",""trial"",""time""
""blur"",""0"",""0""
","""event"",""trial"",""time""
""focus"",""0"",""7892""
","""event"",""trial"",""time""
""fullscreenenter"",""0"",""19238""
","
","778","","","","","","","","51","0,1,0","0","mountain","17","probe-115","0.656751303616011","0.4246714192696092","0.152967158827991","0","","","","","","","",""
"","html-keyboard-response","139","727126","0.0-77.0-1.0","""event"",""trial"",""time""
""blur"",""0"",""0""
""focus"",""0"",""7892""
""fullscreenenter"",""0"",""19238""
","""event"",""trial"",""time""
""blur"",""0"",""0""
","""event"",""trial"",""time""
""focus"",""0"",""7892""
","""event"",""trial"",""time""
""fullscreenenter"",""0"",""19238""
","
","null","<p></p>","null","","","","","","","","","","","","","","","","","","","","","","",""
"","do_trial","140","732225","0.0-78.0-0.0","""event"",""trial"",""time""
""blur"",""0"",""0""
""focus"",""0"",""7892""
""fullscreenenter"",""0"",""19238""
","""event"",""trial"",""time""
""blur"",""0"",""0""
","""event"",""trial"",""time""
""focus"",""0"",""7892""
","""event"",""trial"",""time""
""fullscreenenter"",""0"",""19238""
","
","563.6999999880791","","","","","","","","50","0,0,0","0","mountain","18","probe-51","0.7260952261914065","0.33087693865389733","0.13520421071761518","0","","","","","","","",""
"","html-keyboard-response","141","733231","0.0-78.0-1.0","""event"",""trial"",""time""
""blur"",""0"",""0""
""focus"",""0"",""7892""
""fullscreenenter"",""0"",""19238""
","""event"",""trial"",""time""
""blur"",""0"",""0""
","""event"",""trial"",""time""
""focus"",""0"",""7892""
","""event"",""trial"",""time""
""fullscreenenter"",""0"",""19238""
","
","null","<p></p>","null","","","","","","","","","","","","","","","","","","","","","","",""
"","do_trial","142","738859","0.0-79.0-0.0","""event"",""trial"",""time""
""blur"",""0"",""0""
""focus"",""0"",""7892""
""fullscreenenter"",""0"",""19238""
","""event"",""trial"",""time""
""blur"",""0"",""0""
","""event"",""trial"",""time""
""focus"",""0"",""7892""
","""event"",""trial"",""time""
""fullscreenenter"",""0"",""19238""
","
","1105.8999999910593","","","","","","","","51","1,1,0","0","mountain","19","probe-193","0.5683988250543327","0.22455075125849056","0.10010732226507355","0","","","","","","","",""
"","html-keyboard-response","143","739866","0.0-79.0-1.0","""event"",""trial"",""time""
""blur"",""0"",""0""
""focus"",""0"",""7892""
""fullscreenenter"",""0"",""19238""
","""event"",""trial"",""time""
""blur"",""0"",""0""
","""event"",""trial"",""time""
""focus"",""0"",""7892""
","""event"",""trial"",""time""
""fullscreenenter"",""0"",""19238""
","
","null","<p></p>","null","","","","","","","","","","","","","","","","","","","","","","",""
"","do_trial","144","744878","0.0-80.0-0.0","""event"",""trial"",""time""
""blur"",""0"",""0""
""focus"",""0"",""7892""
""fullscreenenter"",""0"",""19238""
","""event"",""trial"",""time""
""blur"",""0"",""0""
","""event"",""trial"",""time""
""focus"",""0"",""7892""
","""event"",""trial"",""time""
""fullscreenenter"",""0"",""19238""
","
","490.29999999701977","","","","","","","","49","0,0,0","0","mountain","20","probe-50","0.6367007128376769","0.24660275470486487","0.1554822318698804","0","","","","","","","",""
"","html-keyboard-response","145","745880","0.0-80.0-1.0","""event"",""trial"",""time""
""blur"",""0"",""0""
""focus"",""0"",""7892""
""fullscreenenter"",""0"",""19238""
","""event"",""trial"",""time""
""blur"",""0"",""0""
","""event"",""trial"",""time""
""focus"",""0"",""7892""
","""event"",""trial"",""time""
""fullscreenenter"",""0"",""19238""
","
","null","<p></p>","null","","","","","","","","","","","","","","","","","","","","","","",""
"","do_trial","146","750946","0.0-81.0-0.0","""event"",""trial"",""time""
""blur"",""0"",""0""
""focus"",""0"",""7892""
""fullscreenenter"",""0"",""19238""
","""event"",""trial"",""time""
""blur"",""0"",""0""
","""event"",""trial"",""time""
""focus"",""0"",""7892""
","""event"",""trial"",""time""
""fullscreenenter"",""0"",""19238""
","
","544","","","","","","","","50","1,1,0","0","mountain","21","probe-209","0.6529046211956749","0.1723740926853423","0.11643809854410518","1","","","","","","","",""
"","html-keyboard-response","147","751963","0.0-81.0-1.0","""event"",""trial"",""time""
""blur"",""0"",""0""
""focus"",""0"",""7892""
""fullscreenenter"",""0"",""19238""
","""event"",""trial"",""time""
""blur"",""0"",""0""
","""event"",""trial"",""time""
""focus"",""0"",""7892""
","""event"",""trial"",""time""
""fullscreenenter"",""0"",""19238""
","
","null","<p></p>","null","","","","","","","","","","","","","","","","","","","","","","",""
"","do_trial","148","759234","0.0-82.0-0.0","""event"",""trial"",""time""
""blur"",""0"",""0""
""focus"",""0"",""7892""
""fullscreenenter"",""0"",""19238""
","""event"",""trial"",""time""
""blur"",""0"",""0""
","""event"",""trial"",""time""
""focus"",""0"",""7892""
","""event"",""trial"",""time""
""fullscreenenter"",""0"",""19238""
","
","2744.6000000089407","","","","","","","","50","1,0,0","0","mountain","22","probe-84","0.6387587090085084","0.13799535839870122","0.09584637237819157","0","","","","","","","",""
"","html-keyboard-response","149","760241","0.0-82.0-1.0","""event"",""trial"",""time""
""blur"",""0"",""0""
""focus"",""0"",""7892""
""fullscreenenter"",""0"",""19238""
","""event"",""trial"",""time""
""blur"",""0"",""0""
","""event"",""trial"",""time""
""focus"",""0"",""7892""
","""event"",""trial"",""time""
""fullscreenenter"",""0"",""19238""
","
","null","<p></p>","null","","","","","","","","","","","","","","","","","","","","","","",""
"","do_trial","150","766108","0.0-83.0-0.0","""event"",""trial"",""time""
""blur"",""0"",""0""
""focus"",""0"",""7892""
""fullscreenenter"",""0"",""19238""
","""event"",""trial"",""time""
""blur"",""0"",""0""
","""event"",""trial"",""time""
""focus"",""0"",""7892""
","""event"",""trial"",""time""
""fullscreenenter"",""0"",""19238""
","
","1343.8999999910593","","","","","","","","51","1,1,0","0","mountain","23","probe-160","0.5418027398256904","0.26102203793274337","0.15082406160161202","0","","","","","","","",""
"","html-keyboard-response","151","767113","0.0-83.0-1.0","""event"",""trial"",""time""
""blur"",""0"",""0""
""focus"",""0"",""7892""
""fullscreenenter"",""0"",""19238""
","""event"",""trial"",""time""
""blur"",""0"",""0""
","""event"",""trial"",""time""
""focus"",""0"",""7892""
","""event"",""trial"",""time""
""fullscreenenter"",""0"",""19238""
","
","null","<p></p>","null","","","","","","","","","","","","","","","","","","","","","","",""
"","do_trial","152","772046","0.0-84.0-0.0","""event"",""trial"",""time""
""blur"",""0"",""0""
""focus"",""0"",""7892""
""fullscreenenter"",""0"",""19238""
","""event"",""trial"",""time""
""blur"",""0"",""0""
","""event"",""trial"",""time""
""focus"",""0"",""7892""
","""event"",""trial"",""time""
""fullscreenenter"",""0"",""19238""
","
","402","","","","","","","","50","1,0,0","0","mountain","24","probe-09","0.5298318946025337","0.4017986103324509","0.19164405111249505","0","","","","","","","",""
"","html-keyboard-response","153","773056","0.0-84.0-1.0","""event"",""trial"",""time""
""blur"",""0"",""0""
""focus"",""0"",""7892""
""fullscreenenter"",""0"",""19238""
","""event"",""trial"",""time""
""blur"",""0"",""0""
","""event"",""trial"",""time""
""focus"",""0"",""7892""
","""event"",""trial"",""time""
""fullscreenenter"",""0"",""19238""
","
","null","<p></p>","null","","","","","","","","","","","","","","","","","","","","","","",""
"","do_trial","154","777977","0.0-85.0-0.0","""event"",""trial"",""time""
""blur"",""0"",""0""
""focus"",""0"",""7892""
""fullscreenenter"",""0"",""19238""
","""event"",""trial"",""time""
""blur"",""0"",""0""
","""event"",""trial"",""time""
""focus"",""0"",""7892""
","""event"",""trial"",""time""
""fullscreenenter"",""0"",""19238""
","
","382.90000000596046","","","","","","","","49","1,0,0","0","mountain","25","probe-181","0.6252879229824576","0.4571123399429138","0.15554422748019586","1","","","","","","","",""
"","html-keyboard-response","155","778992","0.0-85.0-1.0","""event"",""trial"",""time""
""blur"",""0"",""0""
""focus"",""0"",""7892""
""fullscreenenter"",""0"",""19238""
","""event"",""trial"",""time""
""blur"",""0"",""0""
","""event"",""trial"",""time""
""focus"",""0"",""7892""
","""event"",""trial"",""time""
""fullscreenenter"",""0"",""19238""
","
","null","<p></p>","null","","","","","","","","","","","","","","","","","","","","","","",""
"","do_trial","156","783960","0.0-86.0-0.0","""event"",""trial"",""time""
""blur"",""0"",""0""
""focus"",""0"",""7892""
""fullscreenenter"",""0"",""19238""
","""event"",""trial"",""time""
""blur"",""0"",""0""
","""event"",""trial"",""time""
""focus"",""0"",""7892""
","""event"",""trial"",""time""
""fullscreenenter"",""0"",""19238""
","
","446","","","","","","","","49","1,1,0","0","mountain","26","probe-92","0.55075381720777","0.44443744865642343","0.09855140717363103","1","","","","","","","",""
"","html-keyboard-response","157","784968","0.0-86.0-1.0","""event"",""trial"",""time""
""blur"",""0"",""0""
""focus"",""0"",""7892""
""fullscreenenter"",""0"",""19238""
","""event"",""trial"",""time""
""blur"",""0"",""0""
","""event"",""trial"",""time""
""focus"",""0"",""7892""
","""event"",""trial"",""time""
""fullscreenenter"",""0"",""19238""
","
","null","<p></p>","null","","","","","","","","","","","","","","","","","","","","","","",""
"","do_trial","158","792250","0.0-87.0-0.0","""event"",""trial"",""time""
""blur"",""0"",""0""
""focus"",""0"",""7892""
""fullscreenenter"",""0"",""19238""
","""event"",""trial"",""time""
""blur"",""0"",""0""
","""event"",""trial"",""time""
""focus"",""0"",""7892""
","""event"",""trial"",""time""
""fullscreenenter"",""0"",""19238""
","
","2758","","","","","","","","49","1,1,0","0","mountain","27","probe-13","0.5200073935970738","0.3760471526814186","0.07096443030498792","1","","","","","","","",""
"","html-keyboard-response","159","793257","0.0-87.0-1.0","""event"",""trial"",""time""
""blur"",""0"",""0""
""focus"",""0"",""7892""
""fullscreenenter"",""0"",""19238""
","""event"",""trial"",""time""
""blur"",""0"",""0""
","""event"",""trial"",""time""
""focus"",""0"",""7892""
","""event"",""trial"",""time""
""fullscreenenter"",""0"",""19238""
","
","null","<p></p>","null","","","","","","","","","","","","","","","","","","","","","","",""
"","do_trial","160","799055","0.0-88.0-0.0","""event"",""trial"",""time""
""blur"",""0"",""0""
""focus"",""0"",""7892""
""fullscreenenter"",""0"",""19238""
","""event"",""trial"",""time""
""blur"",""0"",""0""
","""event"",""trial"",""time""
""focus"",""0"",""7892""
","""event"",""trial"",""time""
""fullscreenenter"",""0"",""19238""
","
","1265","","","","","","","","49","1,0,0","0","mountain","28","probe-120","0.6036102272443465","0.38953773867683666","0.13307705775435766","1","","","","","","","",""
"","html-keyboard-response","161","800065","0.0-88.0-1.0","""event"",""trial"",""time""
""blur"",""0"",""0""
""focus"",""0"",""7892""
""fullscreenenter"",""0"",""19238""
","""event"",""trial"",""time""
""blur"",""0"",""0""
","""event"",""trial"",""time""
""focus"",""0"",""7892""
","""event"",""trial"",""time""
""fullscreenenter"",""0"",""19238""
","
","null","<p></p>","null","","","","","","","","","","","","","","","","","","","","","","",""
"","do_trial","162","805546","0.0-89.0-0.0","""event"",""trial"",""time""
""blur"",""0"",""0""
""focus"",""0"",""7892""
""fullscreenenter"",""0"",""19238""
","""event"",""trial"",""time""
""blur"",""0"",""0""
","""event"",""trial"",""time""
""focus"",""0"",""7892""
","""event"",""trial"",""time""
""fullscreenenter"",""0"",""19238""
","
","952.5","","","","","","","","49","1,1,0","0","mountain","29","probe-64","0.6014339202144383","0.24106061132248363","0.1672364463096233","1","","","","","","","",""
"","html-keyboard-response","163","806563","0.0-89.0-1.0","""event"",""trial"",""time""
""blur"",""0"",""0""
""focus"",""0"",""7892""
""fullscreenenter"",""0"",""19238""
","""event"",""trial"",""time""
""blur"",""0"",""0""
","""event"",""trial"",""time""
""focus"",""0"",""7892""
","""event"",""trial"",""time""
""fullscreenenter"",""0"",""19238""
","
","null","<p></p>","null","","","","","","","","","","","","","","","","","","","","","","",""
"","do_bye","164","808066","0.0-90.0-0.0","""event"",""trial"",""time""
""blur"",""0"",""0""
""focus"",""0"",""7892""
""fullscreenenter"",""0"",""19238""
","""event"",""trial"",""time""
""blur"",""0"",""0""
","""event"",""trial"",""time""
""focus"",""0"",""7892""
","""event"",""trial"",""time""
""fullscreenenter"",""0"",""19238""
","
","null","","","","","","","","null","","","","","","","","","","","","","","","","",""
"","break","165","829826","0.0-90.0-1.0","""event"",""trial"",""time""
""blur"",""0"",""0""
""focus"",""0"",""7892""
""fullscreenenter"",""0"",""19238""
","""event"",""trial"",""time""
""blur"",""0"",""0""
","""event"",""trial"",""time""
""focus"",""0"",""7892""
","""event"",""trial"",""time""
""fullscreenenter"",""0"",""19238""
","
","21765.20000000298","<div class='center'><p>Time to take a quick break! You have 2 minutes to rest, but you can move on sooner if you'd like.</p><p> Press the <b>space bar</b> to continue.</p></div>","32","","","","","","","","","","","","","","","","","","","","","","",""
"","do_travel","166","838830","0.0-91.0-0.0","""event"",""trial"",""time""
""blur"",""0"",""0""
""focus"",""0"",""7892""
""fullscreenenter"",""0"",""19238""
","""event"",""trial"",""time""
""blur"",""0"",""0""
","""event"",""trial"",""time""
""focus"",""0"",""7892""
","""event"",""trial"",""time""
""fullscreenenter"",""0"",""19238""
","
","null","","","","","","","","null","","","","","","","","","","","","","","","","",""
"","do_welcome","167","842840","0.0-91.0-1.0","""event"",""trial"",""time""
""blur"",""0"",""0""
""focus"",""0"",""7892""
""fullscreenenter"",""0"",""19238""
","""event"",""trial"",""time""
""blur"",""0"",""0""
","""event"",""trial"",""time""
""focus"",""0"",""7892""
","""event"",""trial"",""time""
""fullscreenenter"",""0"",""19238""
","
","null","","","","","","","","null","","","","","","","","","","","","","","","","",""
"","do_trial","168","848770","0.0-92.0-0.0","""event"",""trial"",""time""
""blur"",""0"",""0""
""focus"",""0"",""7892""
""fullscreenenter"",""0"",""19238""
","""event"",""trial"",""time""
""blur"",""0"",""0""
","""event"",""trial"",""time""
""focus"",""0"",""7892""
","""event"",""trial"",""time""
""fullscreenenter"",""0"",""19238""
","
","1405.7000000029802","","","","","","","","49","1,1,0","1","highway","30","probe-202","1","0.3744139009737281","0.21222126089351395","1","","","","","","","",""
"","html-keyboard-response","169","849789","0.0-92.0-1.0","""event"",""trial"",""time""
""blur"",""0"",""0""
""focus"",""0"",""7892""
""fullscreenenter"",""0"",""19238""
","""event"",""trial"",""time""
""blur"",""0"",""0""
","""event"",""trial"",""time""
""focus"",""0"",""7892""
","""event"",""trial"",""time""
""fullscreenenter"",""0"",""19238""
","
","null","<p></p>","null","","","","","","","","","","","","","","","","","","","","","","",""
"","do_trial","170","855455","0.0-93.0-0.0","""event"",""trial"",""time""
""blur"",""0"",""0""
""focus"",""0"",""7892""
""fullscreenenter"",""0"",""19238""
","""event"",""trial"",""time""
""blur"",""0"",""0""
","""event"",""trial"",""time""
""focus"",""0"",""7892""
","""event"",""trial"",""time""
""fullscreenenter"",""0"",""19238""
","
","1130.199999988079","","","","","","","","49","1,0,0","1","highway","31","probe-70","1","0.3875185124326259","0.15801981596705764","1","","","","","","","",""
"","html-keyboard-response","171","856464","0.0-93.0-1.0","""event"",""trial"",""time""
""blur"",""0"",""0""
""focus"",""0"",""7892""
""fullscreenenter"",""0"",""19238""
","""event"",""trial"",""time""
""blur"",""0"",""0""
","""event"",""trial"",""time""
""focus"",""0"",""7892""
","""event"",""trial"",""time""
""fullscreenenter"",""0"",""19238""
","
","null","<p></p>","null","","","","","","","","","","","","","","","","","","","","","","",""
"","do_trial","172","862211","0.0-94.0-0.0","""event"",""trial"",""time""
""blur"",""0"",""0""
""focus"",""0"",""7892""
""fullscreenenter"",""0"",""19238""
","""event"",""trial"",""time""
""blur"",""0"",""0""
","""event"",""trial"",""time""
""focus"",""0"",""7892""
","""event"",""trial"",""time""
""fullscreenenter"",""0"",""19238""
","
","1218.1000000089407","","","","","","","","49","1,1,0","1","highway","32","probe-164","1","0.3048835389542274","0.09079685347716655","1","","","","","","","",""
"","html-keyboard-response","173","863219","0.0-94.0-1.0","""event"",""trial"",""time""
""blur"",""0"",""0""
""focus"",""0"",""7892""
""fullscreenenter"",""0"",""19238""
","""event"",""trial"",""time""
""blur"",""0"",""0""
","""event"",""trial"",""time""
""focus"",""0"",""7892""
","""event"",""trial"",""time""
""fullscreenenter"",""0"",""19238""
","
","null","<p></p>","null","","","","","","","","","","","","","","","","","","","","","","",""
"","do_trial","174","868074","0.0-95.0-0.0","""event"",""trial"",""time""
""blur"",""0"",""0""
""focus"",""0"",""7892""
""fullscreenenter"",""0"",""19238""
","""event"",""trial"",""time""
""blur"",""0"",""0""
","""event"",""trial"",""time""
""focus"",""0"",""7892""
","""event"",""trial"",""time""
""fullscreenenter"",""0"",""19238""
","
","323.30000001192093","","","","","","","","49","1,0,0","1","highway","33","probe-10","0.8788627704144362","0.12386978678925864","0.053700487141379497","1","","","","","","","",""
"","html-keyboard-response","175","869087","0.0-95.0-1.0","""event"",""trial"",""time""
""blur"",""0"",""0""
""focus"",""0"",""7892""
""fullscreenenter"",""0"",""19238""
","""event"",""trial"",""time""
""blur"",""0"",""0""
","""event"",""trial"",""time""
""focus"",""0"",""7892""
","""event"",""trial"",""time""
""fullscreenenter"",""0"",""19238""
","
","null","<p></p>","null","","","","","","","","","","","","","","","","","","","","","","",""
"","do_trial","176","874279","0.0-96.0-0.0","""event"",""trial"",""time""
""blur"",""0"",""0""
""focus"",""0"",""7892""
""fullscreenenter"",""0"",""19238""
","""event"",""trial"",""time""
""blur"",""0"",""0""
","""event"",""trial"",""time""
""focus"",""0"",""7892""
","""event"",""trial"",""time""
""fullscreenenter"",""0"",""19238""
","
","666.5","","","","","","","","49","1,0,0","1","highway","34","probe-46","0.7211344099372831","0.20248592732979723","0.11511114139351022","1","","","","","","","",""
"","html-keyboard-response","177","875280","0.0-96.0-1.0","""event"",""trial"",""time""
""blur"",""0"",""0""
""focus"",""0"",""7892""
""fullscreenenter"",""0"",""19238""
","""event"",""trial"",""time""
""blur"",""0"",""0""
","""event"",""trial"",""time""
""focus"",""0"",""7892""
","""event"",""trial"",""time""
""fullscreenenter"",""0"",""19238""
","
","null","<p></p>","null","","","","","","","","","","","","","","","","","","","","","","",""
