"success","trial_type","trial_index","time_elapsed","internal_node_id","interactions","blur_events","focus_events","fullscreenenter_events","fullscreenexit_events","rt","stimulus","key_press","subject_id","participant_id","age","gender","prompt","response","choice_outcomes","context_n","context_img_id","trial_n","probe_img_id","pR_red","pR_white","pR_black","outcome","contextArray_ind","validImageProbes","invalidImageProbes","pRew_Red","pRew_White","pRew_Black","availableForMemProbe","choice_blocks"
"true","fullscreen","0","4956","0.0-0.0","""event"",""trial"",""time""
""fullscreenenter"",""0"",""4017""
","
","
","""event"",""trial"",""time""
""fullscreenenter"",""0"",""4017""
","
","","","","","","","","","","","","","","","","","","","","","","","","","",""
"","pavlovia","1","4969","0.0-1.0","""event"",""trial"",""time""
""fullscreenenter"",""0"",""4017""
","
","
","""event"",""trial"",""time""
""fullscreenenter"",""0"",""4017""
","
","","","","","","","","","","","","","","","","","","","","","","","","","",""
"","instruc1","2","50056","0.0-2.0","""event"",""trial"",""time""
""fullscreenenter"",""0"",""4017""
","
","
","""event"",""trial"",""time""
""fullscreenenter"",""0"",""4017""
","
","null","run_exp/static/audio/clip_1_welcome.m4a","null","277","946","14","Female","<div class='center'><p>Welcome! This is the first part of the study. It will last ~30 minutes. In part 1 and part 2 of the study, you are the head captain of a pirate ship traveling around the world to different islands. You will play a few different games throughout these two parts. Here is an overview of them:</p><br><p>Part 1 (today)</p><p>1. Instructions, practice game, and quiz</p><p>2. Pick a pirate game on 6 different islands</p><br><p>Part 2 (tomorrow)</p><p>3. Pick a pirate game and memory game</p><p>4. Where did you see this ship? </p></div>","","","","","","","","","","","","","","","","","",""
"","html-keyboard-response","3","50615","0.0-3.0","""event"",""trial"",""time""
""fullscreenenter"",""0"",""4017""
","
","
","""event"",""trial"",""time""
""fullscreenenter"",""0"",""4017""
","
","553.0399999988731","<div class='center'><p>Welcome! This is the first part of the study. It will last ~30 minutes. In part 1 and part 2 of the study, you are the head captain of a pirate ship traveling around the world to different islands. You will play a few different games throughout these two parts. Here is an overview of them:</p><br><p>Part 1 (today)</p><p>1. Instructions, practice game, and quiz</p><p>2. Pick a pirate game on 6 different islands</p><br><p>Part 2 (tomorrow)</p><p>3. Pick a pirate game and memory game</p><p>4. Where did you see this ship? </p><p><b>[Press the space bar to continue]</b></p></div>","32","","","","","","","","","","","","","","","","","","","","","","",""
"","instruc2","4","55929","0.0-4.0","""event"",""trial"",""time""
""fullscreenenter"",""0"",""4017""
","
","
","""event"",""trial"",""time""
""fullscreenenter"",""0"",""4017""
","
","null","run_exp/static/audio/clip_2_different_places.m4a","null","","","","","<div class='center'><p>Today, you’ll visit these 6 islands on your journey. You'll be able to see these islands from your ship.</p><p><img src='run_exp/static/images/contexts/all_contexts.png' height='500'></p></div>","","","","","","","","","","","","","","","","","",""
"","html-keyboard-response","5","57403","0.0-5.0","""event"",""trial"",""time""
""fullscreenenter"",""0"",""4017""
","
","
","""event"",""trial"",""time""
""fullscreenenter"",""0"",""4017""
","
","1471.5949999990698","<div class='center'><p>Today, you’ll visit these 6 islands on your journey. You'll be able to see these islands from your ship.</p><p><img src='run_exp/static/images/contexts/all_contexts.png' height='500'></p><p><b>[Press the space bar to continue]</b></p></div>","32","","","","","","","","","","","","","","","","","","","","","","",""
"","instruc3","6","67098","0.0-6.0","""event"",""trial"",""time""
""fullscreenenter"",""0"",""4017""
","
","
","""event"",""trial"",""time""
""fullscreenenter"",""0"",""4017""
","
","null","run_exp/static/audio/clip_3_goal_of_game_1.m4a","null","","","","","<div class='center'><p> The pirates on your ship will rob other ships as they leave the island.</p> These ships have just sold their goods to the islanders, so they will be filled with lots and lots of gold.</p><p><img src='run_exp/static/images/tutorial/ship_center.png' height='400'></p></div>","","","","","","","","","","","","","","","","","",""
"","html-keyboard-response","7","68551","0.0-7.0","""event"",""trial"",""time""
""fullscreenenter"",""0"",""4017""
","
","
","""event"",""trial"",""time""
""fullscreenenter"",""0"",""4017""
","
","1450.3500000027998","<div class='center'><p> The pirates on your ship will rob other ships as they leave the island.</p> These ships have just sold their goods to the islanders, so they will be filled with lots and lots of gold.</p><p><img src='run_exp/static/images/tutorial/ship_center.png' height='400'></p><p><b>[Press the space bar to continue]</b></p></div>","32","","","","","","","","","","","","","","","","","","","","","","",""
"","instruc4","8","96565","0.0-8.0","""event"",""trial"",""time""
""fullscreenenter"",""0"",""4017""
","
","
","""event"",""trial"",""time""
""fullscreenenter"",""0"",""4017""
","
","null","run_exp/static/audio/clip_4_goal_of_game_2.m4a","null","","","","","<div class='center'><p>As the head captain, you do not have to rob any ships yourself. Another pirate will be doing the robbing for you. First, you will choose a pirate to rob the next ship.</p><p><img src='run_exp/static/images/tutorial/pirates_all_crop.png' height='200'></p><p>Then, you'll see if the pirate successfully robbed the ship of their gold. If they were successful, then you'll get a stack of gold coins like this:</p><p><img src='run_exp/static/images/tutorial/reward.png' height='150'></p><p> If they were <b>not</b> successful, then you'll get no gold coins, and you'll see a big red x like this: </p><p><img src='run_exp/static/images/tutorial/reward_no.png' height='150'></p><p> How much bonus money you make is based on how many gold coins you collect.</p><div>","","","","","","","","","","","","","","","","","",""
"","html-keyboard-response","9","101286","0.0-9.0","""event"",""trial"",""time""
""fullscreenenter"",""0"",""4017""
","
","
","""event"",""trial"",""time""
""fullscreenenter"",""0"",""4017""
","
","4717.195000001084","<div class='center'><p>As the head captain, you do not have to rob any ships yourself. Another pirate will be doing the robbing for you. First, you will choose a pirate to rob the next ship.</p><p><img src='run_exp/static/images/tutorial/pirates_all_crop.png' height='200'></p><p>Then, you'll see if the pirate successfully robbed the ship of their gold. If they were successful, then you'll get a stack of gold coins like this:</p><p><img src='run_exp/static/images/tutorial/reward.png' height='150'></p><p> If they were <b>not</b> successful, then you'll get no gold coins, and you'll see a big red x like this: </p><p><img src='run_exp/static/images/tutorial/reward_no.png' height='150'></p><p> How much bonus money you make is based on how many gold coins you collect.</p<p><b>[Press the space bar to continue]</b></p></div>","32","","","","","","","","","","","","","","","","","","","","","","",""
"","instruc5","10","126616","0.0-10.0","""event"",""trial"",""time""
""fullscreenenter"",""0"",""4017""
","
","
","""event"",""trial"",""time""
""fullscreenenter"",""0"",""4017""
","
","25325.2250000005","run_exp/static/audio/clip_5_probabilistic.m4a","49","","","","","<div class='center'><p>Even the most skilled pirate can not rob EVERY ship.</p><p> Some ships will have very strong protections against pirate attacks.</p><p> Blue beard, here, is very, very good at robbing ships, but he won't be successful every time he tries to rob one.</p><p> You can press the <b>‘1’</b> key on the keyboard to choose him.</p><p> Try choosing him 10 times to see how often he succeeds at robbing a ship. </p><p><img src='run_exp/static/images/tutorial/blue.png' height='500'></p></div>","","","","","","","","","","","","","","","","","",""
"","html-keyboard-response","11","128118","0.0-11.0","""event"",""trial"",""time""
""fullscreenenter"",""0"",""4017""
","
","
","""event"",""trial"",""time""
""fullscreenenter"",""0"",""4017""
","
","null","<div class='center'><p><img src='run_exp/static/images/tutorial/blue_win.png' height='500'></p></div>","null","","","","","","","","","","","","","","","","","","","","","","",""
"","html-keyboard-response","12","129221","0.0-12.0","""event"",""trial"",""time""
""fullscreenenter"",""0"",""4017""
","
","
","""event"",""trial"",""time""
""fullscreenenter"",""0"",""4017""
","
","1100.4099999991013","<div class='center'><img src='run_exp/static/images/tutorial/blue.png' height='500'></p></div>","49","","","","","","","","","","","","","","","","","","","","","","",""
"","html-keyboard-response","13","130723","0.0-13.0","""event"",""trial"",""time""
""fullscreenenter"",""0"",""4017""
","
","
","""event"",""trial"",""time""
""fullscreenenter"",""0"",""4017""
","
","null","<div class='center'><p><img src='run_exp/static/images/tutorial/blue_win.png' height='500'></p></div>","null","","","","","","","","","","","","","","","","","","","","","","",""
"","html-keyboard-response","14","131132","0.0-14.0","""event"",""trial"",""time""
""fullscreenenter"",""0"",""4017""
","
","
","""event"",""trial"",""time""
""fullscreenenter"",""0"",""4017""
","
","407.0949999986624","<div class='center'><img src='run_exp/static/images/tutorial/blue.png' height='500'></p></div>","49","","","","","","","","","","","","","","","","","","","","","","",""
"","html-keyboard-response","15","132635","0.0-15.0","""event"",""trial"",""time""
""fullscreenenter"",""0"",""4017""
","
","
","""event"",""trial"",""time""
""fullscreenenter"",""0"",""4017""
","
","null","<div class='center'><p><img src='run_exp/static/images/tutorial/blue_win.png' height='500'></p></div>","null","","","","","","","","","","","","","","","","","","","","","","",""
"","html-keyboard-response","16","133024","0.0-16.0","""event"",""trial"",""time""
""fullscreenenter"",""0"",""4017""
","
","
","""event"",""trial"",""time""
""fullscreenenter"",""0"",""4017""
","
","386.7850000024191","<div class='center'><img src='run_exp/static/images/tutorial/blue.png' height='500'></p></div>","49","","","","","","","","","","","","","","","","","","","","","","",""
"","html-keyboard-response","17","134526","0.0-17.0","""event"",""trial"",""time""
""fullscreenenter"",""0"",""4017""
","
","
","""event"",""trial"",""time""
""fullscreenenter"",""0"",""4017""
","
","null","<div class='center'><p><img src='run_exp/static/images/tutorial/blue_no_win.png' height='500'></p></div>","null","","","","","","","","","","","","","","","","","","","","","","",""
"","html-keyboard-response","18","134844","0.0-18.0","""event"",""trial"",""time""
""fullscreenenter"",""0"",""4017""
","
","
","""event"",""trial"",""time""
""fullscreenenter"",""0"",""4017""
","
","315.65000000045984","<div class='center'><img src='run_exp/static/images/tutorial/blue.png' height='500'></p></div>","49","","","","","","","","","","","","","","","","","","","","","","",""
"","html-keyboard-response","19","136346","0.0-19.0","""event"",""trial"",""time""
""fullscreenenter"",""0"",""4017""
","
","
","""event"",""trial"",""time""
""fullscreenenter"",""0"",""4017""
","
","null","<div class='center'><p><img src='run_exp/static/images/tutorial/blue_win.png' height='500'></p></div>","null","","","","","","","","","","","","","","","","","","","","","","",""
"","html-keyboard-response","20","136785","0.0-20.0","""event"",""trial"",""time""
""fullscreenenter"",""0"",""4017""
","
","
","""event"",""trial"",""time""
""fullscreenenter"",""0"",""4017""
","
","435.8749999992142","<div class='center'><img src='run_exp/static/images/tutorial/blue.png' height='500'></p></div>","49","","","","","","","","","","","","","","","","","","","","","","",""
"","html-keyboard-response","21","138290","0.0-21.0","""event"",""trial"",""time""
""fullscreenenter"",""0"",""4017""
","
","
","""event"",""trial"",""time""
""fullscreenenter"",""0"",""4017""
","
","null","<div class='center'><p><img src='run_exp/static/images/tutorial/blue_win.png' height='500'></p></div>","null","","","","","","","","","","","","","","","","","","","","","","",""
"","html-keyboard-response","22","138615","0.0-22.0","""event"",""trial"",""time""
""fullscreenenter"",""0"",""4017""
","
","
","""event"",""trial"",""time""
""fullscreenenter"",""0"",""4017""
","
","322.2749999986263","<div class='center'><img src='run_exp/static/images/tutorial/blue.png' height='500'></p></div>","49","","","","","","","","","","","","","","","","","","","","","","",""
"","html-keyboard-response","23","140120","0.0-23.0","""event"",""trial"",""time""
""fullscreenenter"",""0"",""4017""
","
","
","""event"",""trial"",""time""
""fullscreenenter"",""0"",""4017""
","
","null","<div class='center'><p><img src='run_exp/static/images/tutorial/blue_win.png' height='500'></p></div>","null","","","","","","","","","","","","","","","","","","","","","","",""
"","html-keyboard-response","24","140500","0.0-24.0","""event"",""trial"",""time""
""fullscreenenter"",""0"",""4017""
","
","
","""event"",""trial"",""time""
""fullscreenenter"",""0"",""4017""
","
","376.07500000012806","<div class='center'><img src='run_exp/static/images/tutorial/blue.png' height='500'></p></div>","49","","","","","","","","","","","","","","","","","","","","","","",""
"","html-keyboard-response","25","142002","0.0-25.0","""event"",""trial"",""time""
""fullscreenenter"",""0"",""4017""
","
","
","""event"",""trial"",""time""
""fullscreenenter"",""0"",""4017""
","
","null","<div class='center'><p><img src='run_exp/static/images/tutorial/blue_no_win.png' height='500'></p></div>","null","","","","","","","","","","","","","","","","","","","","","","",""
"","html-keyboard-response","26","142352","0.0-26.0","""event"",""trial"",""time""
""fullscreenenter"",""0"",""4017""
","
","
","""event"",""trial"",""time""
""fullscreenenter"",""0"",""4017""
","
","341.4550000015879","<div class='center'><img src='run_exp/static/images/tutorial/blue.png' height='500'></p></div>","49","","","","","","","","","","","","","","","","","","","","","","",""
"","html-keyboard-response","27","143856","0.0-27.0","""event"",""trial"",""time""
""fullscreenenter"",""0"",""4017""
","
","
","""event"",""trial"",""time""
""fullscreenenter"",""0"",""4017""
","
","null","<div class='center'><p><img src='run_exp/static/images/tutorial/blue_win.png' height='500'></p></div>","null","","","","","","","","","","","","","","","","","","","","","","",""
"","html-keyboard-response","28","144228","0.0-28.0","""event"",""trial"",""time""
""fullscreenenter"",""0"",""4017""
","
","
","""event"",""trial"",""time""
""fullscreenenter"",""0"",""4017""
","
","367.3899999994319","<div class='center'><img src='run_exp/static/images/tutorial/blue.png' height='500'></p></div>","49","","","","","","","","","","","","","","","","","","","","","","",""
"","html-keyboard-response","29","145730","0.0-29.0","""event"",""trial"",""time""
""fullscreenenter"",""0"",""4017""
","
","
","""event"",""trial"",""time""
""fullscreenenter"",""0"",""4017""
","
","null","<div class='center'><p><img src='run_exp/static/images/tutorial/blue_win.png' height='500'></p></div>","null","","","","","","","","","","","","","","","","","","","","","","",""
"","instruc6","30","151102","0.0-30.0","""event"",""trial"",""time""
""fullscreenenter"",""0"",""4017""
","
","
","""event"",""trial"",""time""
""fullscreenenter"",""0"",""4017""
","
","null","run_exp/static/audio/clip_6_blue_beard_outcome.m4a","null","","","","","<div class='center'><p> See, he succeeded in robbing the ships most of the time but not every time. </p></div>","","","","","","","","","","","","","","","","","",""
"","html-keyboard-response","31","153005","0.0-31.0","""event"",""trial"",""time""
""fullscreenenter"",""0"",""4017""
","
","
","""event"",""trial"",""time""
""fullscreenenter"",""0"",""4017""
","
","1900.6750000007742","<div class='center'><p> See, he succeeded in robbing the ships most of the time but not every time. </p><p><b>[Press the space bar to continue]</b></p></div>","32","","","","","","","","","","","","","","","","","","","","","","",""
"","audio-keyboard-response","32","170788","0.0-32.0","""event"",""trial"",""time""
""fullscreenenter"",""0"",""4017""
","
","
","""event"",""trial"",""time""
""fullscreenenter"",""0"",""4017""
","
","17778.07500000199","run_exp/static/audio/clip_7_pick_pirate.m4a","49","","","","","","","","","","","","","","","","","","","","","","",""
"","audio-keyboard-response","33","174895","0.0-33.0-0.0","""event"",""trial"",""time""
""fullscreenenter"",""0"",""4017""
","
","
","""event"",""trial"",""time""
""fullscreenenter"",""0"",""4017""
","
","4101.469999997789","run_exp/static/audio/clip_8_chosen_pirate_win.m4a","32","","","","","","","","","","","","","","","","","","","","","","",""
"","audio-keyboard-response","34","178953","0.0-33.0-1.0","""event"",""trial"",""time""
""fullscreenenter"",""0"",""4017""
","
","
","""event"",""trial"",""time""
""fullscreenenter"",""0"",""4017""
","
","4053.814999999304","run_exp/static/audio/clip_9_pick_a_pirate_again.m4a","50","","","","","","","","","","","","","","","","","","","","","","",""
"","audio-keyboard-response","35","183567","0.0-34.0-0.0","""event"",""trial"",""time""
""fullscreenenter"",""0"",""4017""
","
","
","""event"",""trial"",""time""
""fullscreenenter"",""0"",""4017""
","
","4609.489999998914","run_exp/static/audio/clip_10_chosen_pirate_loss.m4a","32","","","","","","","","","","","","","","","","","","","","","","",""
"","instruc9","36","189043","0.0-35.0-0.0","""event"",""trial"",""time""
""fullscreenenter"",""0"",""4017""
","
","
","""event"",""trial"",""time""
""fullscreenenter"",""0"",""4017""
","
","null","run_exp/static/audio/clip_11_time_out.m4a","null","","","","","<div class='center'><p>If you don’t make your choice fast enough, you’ll have to wait a few seconds before you can make another one. </p><p><img src='run_exp/static/images/miscellaneous/hurry_up.png' height='500'></p></div>","","","","","","","","","","","","","","","","","",""
"","html-keyboard-response","37","190216","0.0-35.0-1.0","""event"",""trial"",""time""
""fullscreenenter"",""0"",""4017""
","
","
","""event"",""trial"",""time""
""fullscreenenter"",""0"",""4017""
","
","1170.270000002347","<div class='center'><p>If you don’t make your choice fast enough, you’ll have to wait a few seconds before you can make another one. </p><p><img src='run_exp/static/images/miscellaneous/hurry_up.png' height='500'></p><p><b>[Press the space bar to continue]</b></p></div>","32","","","","","","","","","","","","","","","","","","","","","","",""
"","instruc10","38","229284","0.0-35.0-2.0","""event"",""trial"",""time""
""fullscreenenter"",""0"",""4017""
","
","
","""event"",""trial"",""time""
""fullscreenenter"",""0"",""4017""
","
","null","run_exp/static/audio/clip_12_probe.m4a","null","","","","","<div class='center'><p>Once you've chosen a pirate, you’ll be shown the ship they are robbing. You will never rob the same ship twice. Ships can be told apart from one another by the image on them. These are the goods that they sell. See, this ship has a travel mug on it. </p><p> You’ll have to remember which island you saw each ship on. You will win more gold coins and hence more bonus money if you remember correctly! To help you remember, you can imagine a story. For example, here, you could imagine a mug full of water in the desert. Or, as another example, if on the forest island, your pirate robbed a ship with an apple on it, you could imagine an apple falling from a tree in the forest. </p><p><img src='run_exp/static/images/tutorial/example_probe.png' height='500'></p></div>","","","","","","","","","","","","","","","","","",""
"","html-keyboard-response","39","231340","0.0-35.0-3.0","""event"",""trial"",""time""
""fullscreenenter"",""0"",""4017""
","
","
","""event"",""trial"",""time""
""fullscreenenter"",""0"",""4017""
","
","2052.0350000006147","<div class='center'><p>Once you've chosen a pirate, you’ll be shown the ship they are robbing. You will never rob the same ship twice. Ships can be told apart from one another by the image on them. These are the goods that they sell. See, this ship has a travel mug on it. </p><p> You’ll have to remember which island you saw each ship on. You will win more gold coins and hence more bonus money if you remember correctly! To help you remember, you can imagine a story. For example, here, you could imagine a mug full of water in the desert. Or, as another example, if on the forest island, your pirate robbed a ship with an apple on it, you could imagine an apple falling from a tree in the forest. </p><p><img src='run_exp/static/images/tutorial/example_probe.png' height='500'></p><p><b>[Press the space bar to continue]</b></p></div>","32","","","","","","","","","","","","","","","","","","","","","","",""
"","instruc11","40","247720","0.0-35.0-4.0","""event"",""trial"",""time""
""fullscreenenter"",""0"",""4017""
","
","
","""event"",""trial"",""time""
""fullscreenenter"",""0"",""4017""
","
","null","run_exp/static/audio/clip_13_changepoint.m4a","null","","","","","<div class='center'><p>How successful a pirate is at robbing ships will depend on the island you’re on.</p><p> A pirate may have visited this island many times before and gained a lot of practice robbing ships there.</p><p>So, they’re more likely to be successful than a pirate who has never visited the island before.</p></div>","","","","","","","","","","","","","","","","","",""
"","html-keyboard-response","41","249226","0.0-35.0-5.0","""event"",""trial"",""time""
""fullscreenenter"",""0"",""4017""
","
","
","""event"",""trial"",""time""
""fullscreenenter"",""0"",""4017""
","
","1503.4300000006624","<div class='center'><p>How successful a pirate is at robbing ships will depend on the island you’re on.</p><p> A pirate may have visited this island many times before and gained a lot of practice robbing ships there.</p><p>So, they’re more likely to be successful than a pirate who has never visited the island before.</p><p><b>[Press the space bar to continue]</b></p></div>","32","","","","","","","","","","","","","","","","","","","","","","",""
"","instruc12","42","290306","0.0-35.0-6.0","""event"",""trial"",""time""
""fullscreenenter"",""0"",""4017""
","
","
","""event"",""trial"",""time""
""fullscreenenter"",""0"",""4017""
","
","null","run_exp/static/audio/clip_14_drift.m4a","null","","","","","<div class='center'><p>How successful a pirate is at robbing ships can also change over the time spent on the island. </p><p> Ships may hear from islanders about the pirates coming and will improve their protections against the attack. This may make it harder to rob them.</p><p> Ships may also become lazy and weaken the strength of their protections. This may make it easier to rob them.</p><br><p>Things are always changing on the high seas! So, try your best to pay attention!</p><p><img src='run_exp/static/images/tutorial/contingency.png' height='500'></p></div>","","","","","","","","","","","","","","","","","",""
"","html-keyboard-response","43","291715","0.0-35.0-7.0","""event"",""trial"",""time""
""fullscreenenter"",""0"",""4017""
","
","
","""event"",""trial"",""time""
""fullscreenenter"",""0"",""4017""
","
","1403.7749999988591","<div class='center'><p>How successful a pirate is at robbing ships can also change over the time spent on the island. </p><p> Ships may hear from islanders about the pirates coming and will improve their protections against the attack. This may make it harder to rob them.</p><p> Ships may also become lazy and weaken the strength of their protections. This may make it easier to rob them.</p><br><p>Things are always changing on the high seas! So, try your best to pay attention!</p><p><img src='run_exp/static/images/tutorial/contingency.png' height='500'></p><p><b>[Press the space bar to continue]</b></p></div>","32","","","","","","","","","","","","","","","","","","","","","","",""
"","instruc13","44","326906","0.0-35.0-8.0","""event"",""trial"",""time""
""fullscreenenter"",""0"",""4017""
","
","
","""event"",""trial"",""time""
""fullscreenenter"",""0"",""4017""
","
","null","run_exp/static/audio/clip_15_summary.m4a","null","","","","","<div class='center'><p>Let's go over the instructions quickly again. You have two important things to do: </p><b><p> 1. Pick the pirate who is the best at robbing ships on the current island. </p></b><b><p> 2. Remember on which island a ship was robbed.</p> </b><p>The amount of bonus money you can win depends on both.</p><p><br><p>Let’s try a practice game. The game will start by showing you the pirates. First, pick a pirate using the <b> 1, 2, 3 </b> keys on your keyboard. When you are shown a ship, try to remember which island you’re on by making up a story.</p><p>This is just a practice game, so you’re not playing for money. </p><p> Good luck! This game will be very difficult but try your best!</p></div>","","","","","","","","","","","","","","","","","",""
"","html-keyboard-response","45","326992","0.0-35.0-9.0","""event"",""trial"",""time""
""fullscreenenter"",""0"",""4017""
","
","
","""event"",""trial"",""time""
""fullscreenenter"",""0"",""4017""
","
","82.89000000152737","<div class='center'><p>Let's go over the instructions quickly again. You have two important things to do: </p><b><p> 1. Pick the pirate who is the best at robbing ships on the current island. </p></b><b><p> 2. Remember on which island a ship was robbed.</p> </b><p>The amount of bonus money you can win depends on both.</p><p><br><p>Let’s try a practice game. The game will start by showing you the pirates. First, pick a pirate using the <b> 1, 2, 3 </b> keys on your keyboard. When you are shown a ship, try to remember which island you’re on by making up a story.</p><p>This is just a practice game, so you’re not playing for money. </p><p> Good luck! This game will be very difficult but try your best!</p><p><b>[Press the space bar to continue]</b></p></div>","32","","","","","","","","","","","","","","","","","","","","","","",""
"","do_welcome","46","331023","0.0-35.0-10.0","""event"",""trial"",""time""
""fullscreenenter"",""0"",""4017""
","
","
","""event"",""trial"",""time""
""fullscreenenter"",""0"",""4017""
","
","null","","","","","","","","null","","","","","","","","","","","","","","","","",""
"","do_trial","47","337642","0.0-35.0-11.0","""event"",""trial"",""time""
""fullscreenenter"",""0"",""4017""
","
","
","""event"",""trial"",""time""
""fullscreenenter"",""0"",""4017""
","
","2100.829999999434","","","","","","","","49","1,0,0","","","","","","","","","","","","","","","",""
"","html-keyboard-response","48","338646","0.0-36.0-0.0","""event"",""trial"",""time""
""fullscreenenter"",""0"",""4017""
","
","
","""event"",""trial"",""time""
""fullscreenenter"",""0"",""4017""
","
","null","<p></p>","null","","","","","","","","","","","","","","","","","","","","","","",""
"","do_trial","49","344665","0.0-36.0-1.0","""event"",""trial"",""time""
""fullscreenenter"",""0"",""4017""
","
","
","""event"",""trial"",""time""
""fullscreenenter"",""0"",""4017""
","
","null","","","","","","","","null","1,1,0","","","","","","","","","","","","","","","",""
"","html-keyboard-response","50","345671","0.0-37.0-0.0","""event"",""trial"",""time""
""fullscreenenter"",""0"",""4017""
","
","
","""event"",""trial"",""time""
""fullscreenenter"",""0"",""4017""
","
","null","<p></p>","null","","","","","","","","","","","","","","","","","","","","","","",""
"","do_trial","51","351305","0.0-37.0-1.0","""event"",""trial"",""time""
""fullscreenenter"",""0"",""4017""
","
","
","""event"",""trial"",""time""
""fullscreenenter"",""0"",""4017""
","
","1109.8349999992643","","","","","","","","49","1,1,0","","","","","","","","","","","","","","","",""
"","html-keyboard-response","52","352311","0.0-38.0-0.0","""event"",""trial"",""time""
""fullscreenenter"",""0"",""4017""
","
","
","""event"",""trial"",""time""
""fullscreenenter"",""0"",""4017""
","
","null","<p></p>","null","","","","","","","","","","","","","","","","","","","","","","",""
"","do_trial","53","357942","0.0-38.0-1.0","""event"",""trial"",""time""
""fullscreenenter"",""0"",""4017""
","
","
","""event"",""trial"",""time""
""fullscreenenter"",""0"",""4017""
","
","1112.714999999269","","","","","","","","49","1,0,1","","","","","","","","","","","","","","","",""
"","html-keyboard-response","54","358947","0.0-39.0-0.0","""event"",""trial"",""time""
""fullscreenenter"",""0"",""4017""
","
","
","""event"",""trial"",""time""
""fullscreenenter"",""0"",""4017""
","
","null","<p></p>","null","","","","","","","","","","","","","","","","","","","","","","",""
"","do_trial","55","365087","0.0-39.0-1.0","""event"",""trial"",""time""
""fullscreenenter"",""0"",""4017""
","
","
","""event"",""trial"",""time""
""fullscreenenter"",""0"",""4017""
","
","1614.8099999991246","","","","","","","","49","0,1,0","","","","","","","","","","","","","","","",""
"","html-keyboard-response","56","366095","0.0-40.0-0.0","""event"",""trial"",""time""
""fullscreenenter"",""0"",""4017""
","
","
","""event"",""trial"",""time""
""fullscreenenter"",""0"",""4017""
","
","null","<p></p>","null","","","","","","","","","","","","","","","","","","","","","","",""
"","do_trial","57","371693","0.0-40.0-1.0","""event"",""trial"",""time""
""fullscreenenter"",""0"",""4017""
","
","
","""event"",""trial"",""time""
""fullscreenenter"",""0"",""4017""
","
","1079.4150000001537","","","","","","","","51","1,0,0","","","","","","","","","","","","","","","",""
"","do_bye","58","373213","0.0-41.0-0.0","""event"",""trial"",""time""
""fullscreenenter"",""0"",""4017""
","
","
","""event"",""trial"",""time""
""fullscreenenter"",""0"",""4017""
","
","null","","","","","","","","null","","","","","","","","","","","","","","","","",""
"","do_travel","59","382220","0.0-41.0-1.0","""event"",""trial"",""time""
""fullscreenenter"",""0"",""4017""
","
","
","""event"",""trial"",""time""
""fullscreenenter"",""0"",""4017""
","
","null","","","","","","","","null","","","","","","","","","","","","","","","","",""
"","do_welcome","60","386235","0.0-41.0-2.0","""event"",""trial"",""time""
""fullscreenenter"",""0"",""4017""
","
","
","""event"",""trial"",""time""
""fullscreenenter"",""0"",""4017""
","
","null","","","","","","","","null","","","","","","","","","","","","","","","","",""
"","do_trial","61","392532","0.0-41.0-3.0","""event"",""trial"",""time""
""fullscreenenter"",""0"",""4017""
","
","
","""event"",""trial"",""time""
""fullscreenenter"",""0"",""4017""
","
","1780.369999996794","","","","","","","","50","1,0,0","","","","","","","","","","","","","","","",""
"","html-keyboard-response","62","393539","0.0-42.0-0.0","""event"",""trial"",""time""
""fullscreenenter"",""0"",""4017""
","
","
","""event"",""trial"",""time""
""fullscreenenter"",""0"",""4017""
","
","null","<p></p>","null","","","","","","","","","","","","","","","","","","","","","","",""
"","do_trial","63","398926","0.0-42.0-1.0","""event"",""trial"",""time""
""fullscreenenter"",""0"",""4017""
","
","
","""event"",""trial"",""time""
""fullscreenenter"",""0"",""4017""
","
","867.1600000016624","","","","","","","","50","1,0,1","","","","","","","","","","","","","","","",""
"","html-keyboard-response","64","399930","0.0-43.0-0.0","""event"",""trial"",""time""
""fullscreenenter"",""0"",""4017""
","
","
","""event"",""trial"",""time""
""fullscreenenter"",""0"",""4017""
","
","null","<p></p>","null","","","","","","","","","","","","","","","","","","","","","","",""
"","do_trial","65","405292","0.0-43.0-1.0","""event"",""trial"",""time""
""fullscreenenter"",""0"",""4017""
","
","
","""event"",""trial"",""time""
""fullscreenenter"",""0"",""4017""
","
","845.2099999994971","","","","","","","","51","1,1,0","","","","","","","","","","","","","","","",""
"","html-keyboard-response","66","406297","0.0-44.0-0.0","""event"",""trial"",""time""
""fullscreenenter"",""0"",""4017""
","
","
","""event"",""trial"",""time""
""fullscreenenter"",""0"",""4017""
","
","null","<p></p>","null","","","","","","","","","","","","","","","","","","","","","","",""
"","do_trial","67","412447","0.0-44.0-1.0","""event"",""trial"",""time""
""fullscreenenter"",""0"",""4017""
","
","
","""event"",""trial"",""time""
""fullscreenenter"",""0"",""4017""
","
","1621.3649999990594","","","","","","","","49","0,0,1","","","","","","","","","","","","","","","",""
"","html-keyboard-response","68","413452","0.0-45.0-0.0","""event"",""trial"",""time""
""fullscreenenter"",""0"",""4017""
","
","
","""event"",""trial"",""time""
""fullscreenenter"",""0"",""4017""
","
","null","<p></p>","null","","","","","","","","","","","","","","","","","","","","","","",""
"","do_trial","69","419487","0.0-45.0-1.0","""event"",""trial"",""time""
""fullscreenenter"",""0"",""4017""
","
","
","""event"",""trial"",""time""
""fullscreenenter"",""0"",""4017""
","
","null","","","","","","","","null","1,0,1","","","","","","","","","","","","","","","",""
"","html-keyboard-response","70","420491","0.0-46.0-0.0","""event"",""trial"",""time""
""fullscreenenter"",""0"",""4017""
","
","
","""event"",""trial"",""time""
""fullscreenenter"",""0"",""4017""
","
","null","<p></p>","null","","","","","","","","","","","","","","","","","","","","","","",""
"","do_trial","71","425903","0.0-46.0-1.0","""event"",""trial"",""time""
""fullscreenenter"",""0"",""4017""
","
","
","""event"",""trial"",""time""
""fullscreenenter"",""0"",""4017""
","
","892.4349999979604","","","","","","","","49","1,0,1","","","","","","","","","","","","","","","",""
"","html-keyboard-response","72","428799","0.0-47.0-0.0","""event"",""trial"",""time""
""fullscreenenter"",""0"",""4017""
","
","
","""event"",""trial"",""time""
""fullscreenenter"",""0"",""4017""
","
","2889.279999999446","<div class='center'><p><img src='run_exp/static/images/tutorial/prac_best_pirate.png'  height='500'></p></div>","49","","","","","","","","","","","","","","","","","","","","","","",""
"","html-keyboard-response","73","431981","0.0-48.0-0.0","""event"",""trial"",""time""
""fullscreenenter"",""0"",""4017""
","
","
","""event"",""trial"",""time""
""fullscreenenter"",""0"",""4017""
","
","3171.680000003078","<div class='center'><p>That's correct! Red beard was the best.</p><p><b>[Press the space bar to continue]</b></p></div>","32","","","","","","","","","","","","","","","","","","","","","","",""
"","html-keyboard-response","74","436060","0.0-48.0-1.0","""event"",""trial"",""time""
""fullscreenenter"",""0"",""4017""
","
","
","""event"",""trial"",""time""
""fullscreenenter"",""0"",""4017""
","
","4076.6249999978463","<div class='center'><p><img src='run_exp/static/images/tutorial/prac_source.png'  height='500'></p></div>","50","","","","","","","","","","","","","","","","","","","","","","",""
"","html-keyboard-response","75","439307","0.0-49.0-0.0","""event"",""trial"",""time""
""fullscreenenter"",""0"",""4017""
","
","
","""event"",""trial"",""time""
""fullscreenenter"",""0"",""4017""
","
","3242.9900000024354","<div class='center'><p>That's correct! You saw this ship on the cavern island.</p><p><b>[Press the space bar to continue]</b></p></div>","32","","","","","","","","","","","","","","","","","","","","","","",""
"","quiz_beginning","76","450518","0.0-49.0-1.0","""event"",""trial"",""time""
""fullscreenenter"",""0"",""4017""
","
","
","""event"",""trial"",""time""
""fullscreenenter"",""0"",""4017""
","
","null","run_exp/static/audio/clip_16_quiz_intro.m4a","null","","","","","<div class='center'><p>Good job on the practice game! Now, you will be asked some true or false questions to make sure you really understand the rules of the game.</p><p> Press <b>'1'</b> on the keyboard for true and press <b>'2'</b> for false.</p></div>","","","","","","","","","","","","","","","","","",""
"","audio-keyboard-response","77","454995","0.0-49.0-2.0","""event"",""trial"",""time""
""fullscreenenter"",""0"",""4017""
","
","
","""event"",""trial"",""time""
""fullscreenenter"",""0"",""4017""
","
","4473.64000000013","run_exp/static/audio/clip_17_q1.m4a","49","","","","","","","","","","","","","","","","","","","","","","",""
"","correct","78","457392","0.0-50.0-0.0","""event"",""trial"",""time""
""fullscreenenter"",""0"",""4017""
","
","
","""event"",""trial"",""time""
""fullscreenenter"",""0"",""4017""
","
","null","run_exp/static/audio/clip_18_correct.m4a","null","","","","","<div class='center'><p>That's correct!</p></div>","","","","","","","","","","","","","","","","","",""
"","html-keyboard-response","79","459285","0.0-50.0-1.0","""event"",""trial"",""time""
""fullscreenenter"",""0"",""4017""
","
","
","""event"",""trial"",""time""
""fullscreenenter"",""0"",""4017""
","
","1890.625","<div class='center'><p>That's correct!</p><p><b>[Press the space bar to continue]</b></p></div>","32","","","","","","","","","","","","","","","","","","","","","","",""
"","audio-keyboard-response","80","467102","0.0-50.0-2.0","""event"",""trial"",""time""
""fullscreenenter"",""0"",""4017""
","
","
","""event"",""trial"",""time""
""fullscreenenter"",""0"",""4017""
","
","7814.435000000289","run_exp/static/audio/clip_20_q2.m4a","50","","","","","","","","","","","","","","","","","","","","","","",""
"","correct","81","469494","0.0-51.0-0.0","""event"",""trial"",""time""
""fullscreenenter"",""0"",""4017""
","
","
","""event"",""trial"",""time""
""fullscreenenter"",""0"",""4017""
","
","null","run_exp/static/audio/clip_18_correct.m4a","null","","","","","<div class='center'><p>That's correct!</p></div>","","","","","","","","","","","","","","","","","",""
"","html-keyboard-response","82","472334","0.0-51.0-1.0","""event"",""trial"",""time""
""fullscreenenter"",""0"",""4017""
","
","
","""event"",""trial"",""time""
""fullscreenenter"",""0"",""4017""
","
","2836.4700000020093","<div class='center'><p>That's correct!</p><p><b>[Press the space bar to continue]</b></p></div>","32","","","","","","","","","","","","","","","","","","","","","","",""
"","audio-keyboard-response","83","479160","0.0-51.0-2.0","""event"",""trial"",""time""
""fullscreenenter"",""0"",""4017""
","
","
","""event"",""trial"",""time""
""fullscreenenter"",""0"",""4017""
","
","6823.700000000827","run_exp/static/audio/clip_22_q3.m4a","50","","","","","","","","","","","","","","","","","","","","","","",""
"","correct","84","481541","0.0-52.0-0.0","""event"",""trial"",""time""
""fullscreenenter"",""0"",""4017""
","
","
","""event"",""trial"",""time""
""fullscreenenter"",""0"",""4017""
","
","null","run_exp/static/audio/clip_18_correct.m4a","null","","","","","<div class='center'><p>That's correct!</p></div>","","","","","","","","","","","","","","","","","",""
"","html-keyboard-response","85","482443","0.0-52.0-1.0","""event"",""trial"",""time""
""fullscreenenter"",""0"",""4017""
","
","
","""event"",""trial"",""time""
""fullscreenenter"",""0"",""4017""
","
","900.244999997085","<div class='center'><p>That's correct!</p><p><b>[Press the space bar to continue]</b></p></div>","32","","","","","","","","","","","","","","","","","","","","","","",""
"","audio-keyboard-response","86","486788","0.0-52.0-2.0","""event"",""trial"",""time""
""fullscreenenter"",""0"",""4017""
","
","
","""event"",""trial"",""time""
""fullscreenenter"",""0"",""4017""
","
","4341.599999999744","run_exp/static/audio/clip_24_q4.m4a","49","","","","","","","","","","","","","","","","","","","","","","",""
"","correct","87","490133","0.0-53.0-0.0","""event"",""trial"",""time""
""fullscreenenter"",""0"",""4017""
","
","
","""event"",""trial"",""time""
""fullscreenenter"",""0"",""4017""
","
","null","run_exp/static/audio/clip_18_correct.m4a","null","","","","","<div class='center'><p>That's correct!</p></div>","","","","","","","","","","","","","","","","","",""
"","html-keyboard-response","88","493080","0.0-53.0-1.0","""event"",""trial"",""time""
""fullscreenenter"",""0"",""4017""
","
","
","""event"",""trial"",""time""
""fullscreenenter"",""0"",""4017""
","
","2943.774999999674","<div class='center'><p>That's correct!</p><p><b>[Press the space bar to continue]</b></p></div>","32","","","","","","","","","","","","","","","","","","","","","","",""
"","q_all_corr","89","501556","0.0-54.0-0.0","""event"",""trial"",""time""
""fullscreenenter"",""0"",""4017""
","
","
","""event"",""trial"",""time""
""fullscreenenter"",""0"",""4017""
","
","null","run_exp/static/audio/clip_27_quiz_all_correct.m4a","null","","","","","<div class='center'><p>Good job! You’re now ready to move on to the real game! Remember this game will be difficult but don't get discouraged and try your best!</p></div>","","","","","","","","","","","","","","","","","",""
"","html-keyboard-response","90","503219","0.0-54.0-1.0","""event"",""trial"",""time""
""fullscreenenter"",""0"",""4017""
","
","
","""event"",""trial"",""time""
""fullscreenenter"",""0"",""4017""
","
","1659.879999999248","<div class='center'><p>Good job! You’re now ready to move on to the real game! Remember this game will be difficult but don't get discouraged and try your best!</p><p><b>[Press the space bar to continue]</b></p></div>","32","","","","","","","","","","","","","","","","","","","","","","",""
"","do_welcome","91","507234","0.0-55.0-0.0","""event"",""trial"",""time""
""fullscreenenter"",""0"",""4017""
","
","
","""event"",""trial"",""time""
""fullscreenenter"",""0"",""4017""
","
","null","","","","","","","","null","","","","","","","","","","","","","","","","",""
"","do_trial","92","513373","0.0-56.0-0.0","""event"",""trial"",""time""
""fullscreenenter"",""0"",""4017""
","
","
","""event"",""trial"",""time""
""fullscreenenter"",""0"",""4017""
","
","1460.3750000023865","","","","","","","","49","1,1,0","0","city","0","probe-75","0.6","0.3","0.1","1","","","","","","","",""
"","html-keyboard-response","93","514377","0.0-56.0-1.0","""event"",""trial"",""time""
""fullscreenenter"",""0"",""4017""
","
","
","""event"",""trial"",""time""
""fullscreenenter"",""0"",""4017""
","
","null","<p></p>","null","","","","","","","","","","","","","","","","","","","","","","",""
"","do_trial","94","520162","0.0-57.0-0.0","""event"",""trial"",""time""
""fullscreenenter"",""0"",""4017""
","
","
","""event"",""trial"",""time""
""fullscreenenter"",""0"",""4017""
","
","1113.7700000000186","","","","","","","","50","1,1,0","0","city","1","probe-53","0.6606674949788933","0.3174976923274122","0.15642324852754022","1","","","","","","","",""
"","html-keyboard-response","95","521168","0.0-57.0-1.0","""event"",""trial"",""time""
""fullscreenenter"",""0"",""4017""
","
","
","""event"",""trial"",""time""
""fullscreenenter"",""0"",""4017""
","
","null","<p></p>","null","","","","","","","","","","","","","","","","","","","","","","",""
"","do_trial","96","527785","0.0-58.0-0.0","""event"",""trial"",""time""
""fullscreenenter"",""0"",""4017""
","
","
","""event"",""trial"",""time""
""fullscreenenter"",""0"",""4017""
","
","1947.5950000014855","","","","","","","","49","1,0,0","0","city","2","probe-97","0.643123883577064","0.231362096157418","0.07711655236173848","1","","","","","","","",""
"","html-keyboard-response","97","528788","0.0-58.0-1.0","""event"",""trial"",""time""
""fullscreenenter"",""0"",""4017""
","
","
","""event"",""trial"",""time""
""fullscreenenter"",""0"",""4017""
","
","null","<p></p>","null","","","","","","","","","","","","","","","","","","","","","","",""
"","do_trial","98","535061","0.0-59.0-0.0","""event"",""trial"",""time""
""fullscreenenter"",""0"",""4017""
","
","
","""event"",""trial"",""time""
""fullscreenenter"",""0"",""4017""
","
","1600.6300000008196","","","","","","","","51","1,0,0","0","city","3","probe-95","0.672038647556304","0.13440230068552822","0.058631638478962904","0","","","","","","","",""
"","html-keyboard-response","99","536064","0.0-59.0-1.0","""event"",""trial"",""time""
""fullscreenenter"",""0"",""4017""
","
","
","""event"",""trial"",""time""
""fullscreenenter"",""0"",""4017""
","
","null","<p></p>","null","","","","","","","","","","","","","","","","","","","","","","",""
"","do_trial","100","541851","0.0-60.0-0.0","""event"",""trial"",""time""
""fullscreenenter"",""0"",""4017""
","
","
","""event"",""trial"",""time""
""fullscreenenter"",""0"",""4017""
","
","1115.3149999991292","","","","","","","","51","0,1,0","0","city","4","probe-69","0.7055242155862849","0.3667133968046473","0.08790225219884694","0","","","","","","","",""
"","html-keyboard-response","101","542857","0.0-60.0-1.0","""event"",""trial"",""time""
""fullscreenenter"",""0"",""4017""
","
","
","""event"",""trial"",""time""
""fullscreenenter"",""0"",""4017""
","
","null","<p></p>","null","","","","","","","","","","","","","","","","","","","","","","",""
"","do_trial","102","548191","0.0-61.0-0.0","""event"",""trial"",""time""
""fullscreenenter"",""0"",""4017""
","
","
","""event"",""trial"",""time""
""fullscreenenter"",""0"",""4017""
","
","650.3599999996368","","","","","","","","51","1,0,1","0","city","5","probe-25","0.5654173869094818","0.3264256825609641","0.12295459711349174","1","","","","","","","",""
"","html-keyboard-response","103","549195","0.0-61.0-1.0","""event"",""trial"",""time""
""fullscreenenter"",""0"",""4017""
","
","
","""event"",""trial"",""time""
""fullscreenenter"",""0"",""4017""
","
","null","<p></p>","null","","","","","","","","","","","","","","","","","","","","","","",""
"","do_trial","104","555167","0.0-62.0-0.0","""event"",""trial"",""time""
""fullscreenenter"",""0"",""4017""
","
","
","""event"",""trial"",""time""
""fullscreenenter"",""0"",""4017""
","
","1298.9600000000792","","","","","","","","49","1,0,0","0","city","6","probe-113","0.6715455579638401","0.25008056944801765","0.07941840994682728","1","","","","","","","",""
"","html-keyboard-response","105","556172","0.0-62.0-1.0","""event"",""trial"",""time""
""fullscreenenter"",""0"",""4017""
","
","
","""event"",""trial"",""time""
""fullscreenenter"",""0"",""4017""
","
","null","<p></p>","null","","","","","","","","","","","","","","","","","","","","","","",""
"","do_trial","106","561910","0.0-63.0-0.0","""event"",""trial"",""time""
""fullscreenenter"",""0"",""4017""
","
","
","""event"",""trial"",""time""
""fullscreenenter"",""0"",""4017""
","
","1069.7799999979325","","","","","","","","49","1,0,0","0","city","7","probe-28","0.5661745386466179","0.26843884645079286","0.07931186476650451","1","","","","","","","",""
"","html-keyboard-response","107","562918","0.0-63.0-1.0","""event"",""trial"",""time""
""fullscreenenter"",""0"",""4017""
","
","
","""event"",""trial"",""time""
""fullscreenenter"",""0"",""4017""
","
","null","<p></p>","null","","","","","","","","","","","","","","","","","","","","","","",""
"","do_trial","108","568479","0.0-64.0-0.0","""event"",""trial"",""time""
""fullscreenenter"",""0"",""4017""
","
","
","""event"",""trial"",""time""
""fullscreenenter"",""0"",""4017""
","
","895.0450000010896","","","","","","","","49","1,0,1","0","city","8","probe-218","0.6254403494539318","0.3997486373711747","0.07533714510664004","1","","","","","","","",""
"","html-keyboard-response","109","569485","0.0-64.0-1.0","""event"",""trial"",""time""
""fullscreenenter"",""0"",""4017""
","
","
","""event"",""trial"",""time""
""fullscreenenter"",""0"",""4017""
","
","null","<p></p>","null","","","","","","","","","","","","","","","","","","","","","","",""
"","do_trial","110","575049","0.0-65.0-0.0","""event"",""trial"",""time""
""fullscreenenter"",""0"",""4017""
","
","
","""event"",""trial"",""time""
""fullscreenenter"",""0"",""4017""
","
","883.8050000013318","","","","","","","","49","0,1,0","0","city","9","probe-134","0.40864087571414204","0.48755278943226843","0.10381385941575826","0","","","","","","","",""
"","html-keyboard-response","111","576052","0.0-65.0-1.0","""event"",""trial"",""time""
""fullscreenenter"",""0"",""4017""
","
","
","""event"",""trial"",""time""
""fullscreenenter"",""0"",""4017""
","
","null","<p></p>","null","","","","","","","","","","","","","","","","","","","","","","",""
"","do_trial","112","581307","0.0-66.0-0.0","""event"",""trial"",""time""
""fullscreenenter"",""0"",""4017""
","
","
","""event"",""trial"",""time""
""fullscreenenter"",""0"",""4017""
","
","583.8899999981513","","","","","","","","49","0,0,0","0","city","10","probe-68","0.3742669935479502","0.4153482871214967","0.06713421024322092","0","","","","","","","",""
"","html-keyboard-response","113","582311","0.0-66.0-1.0","""event"",""trial"",""time""
""fullscreenenter"",""0"",""4017""
","
","
","""event"",""trial"",""time""
""fullscreenenter"",""0"",""4017""
","
","null","<p></p>","null","","","","","","","","","","","","","","","","","","","","","","",""
"","do_trial","114","587366","0.0-67.0-0.0","""event"",""trial"",""time""
""fullscreenenter"",""0"",""4017""
","
","
","""event"",""trial"",""time""
""fullscreenenter"",""0"",""4017""
","
","373.84000000020023","","","","","","","","50","0,0,0","0","city","11","probe-138","0.5650114565810255","0.36981150458065043","0.06838156677751175","0","","","","","","","",""
"","html-keyboard-response","115","588370","0.0-67.0-1.0","""event"",""trial"",""time""
""fullscreenenter"",""0"",""4017""
","
","
","""event"",""trial"",""time""
""fullscreenenter"",""0"",""4017""
","
","null","<p></p>","null","","","","","","","","","","","","","","","","","","","","","","",""
"","do_trial","116","593472","0.0-68.0-0.0","""event"",""trial"",""time""
""fullscreenenter"",""0"",""4017""
","
","
","""event"",""trial"",""time""
""fullscreenenter"",""0"",""4017""
","
","427.3250000006519","","","","","","","","49","1,1,0","0","city","12","probe-16","0.553321721925454","0.3019465272010019","0.08893478431223847","1","","","","","","","",""
"","html-keyboard-response","117","594479","0.0-68.0-1.0","""event"",""trial"",""time""
""fullscreenenter"",""0"",""4017""
","
","
","""event"",""trial"",""time""
""fullscreenenter"",""0"",""4017""
","
","null","<p></p>","null","","","","","","","","","","","","","","","","","","","","","","",""
"","do_trial","118","600271","0.0-69.0-0.0","""event"",""trial"",""time""
""fullscreenenter"",""0"",""4017""
","
","
","""event"",""trial"",""time""
""fullscreenenter"",""0"",""4017""
","
","1107.5149999996647","","","","","","","","49","0,1,0","0","city","13","probe-123","0.5927388811872278","0.30120533957056284","0.050598392888133566","0","","","","","","","",""
"","html-keyboard-response","119","601277","0.0-69.0-1.0","""event"",""trial"",""time""
""fullscreenenter"",""0"",""4017""
","
","
","""event"",""trial"",""time""
""fullscreenenter"",""0"",""4017""
","
","null","<p></p>","null","","","","","","","","","","","","","","","","","","","","","","",""
"","do_trial","120","606382","0.0-70.0-0.0","""event"",""trial"",""time""
""fullscreenenter"",""0"",""4017""
","
","
","""event"",""trial"",""time""
""fullscreenenter"",""0"",""4017""
","
","428.6050000010291","","","","","","","","50","0,0,0","0","city","14","probe-133","0.6642214947360756","0.16839526753967057","0.10773030929425494","0","","","","","","","",""
"","html-keyboard-response","121","607385","0.0-70.0-1.0","""event"",""trial"",""time""
""fullscreenenter"",""0"",""4017""
","
","
","""event"",""trial"",""time""
""fullscreenenter"",""0"",""4017""
","
","null","<p></p>","null","","","","","","","","","","","","","","","","","","","","","","",""
"","do_trial","122","613049","0.0-71.0-0.0","""event"",""trial"",""time""
""fullscreenenter"",""0"",""4017""
","
","
","""event"",""trial"",""time""
""fullscreenenter"",""0"",""4017""
","
","1000.6649999995716","","","","","","","","51","1,0,0","0","city","15","probe-108","0.5332082944140862","0.33603797946615266","0.11848331172444238","0","","","","","","","",""
"","html-keyboard-response","123","614055","0.0-71.0-1.0","""event"",""trial"",""time""
""fullscreenenter"",""0"",""4017""
","
","
","""event"",""trial"",""time""
""fullscreenenter"",""0"",""4017""
","
","null","<p></p>","null","","","","","","","","","","","","","","","","","","","","","","",""
"","do_trial","124","619139","0.0-72.0-0.0","""event"",""trial"",""time""
""fullscreenenter"",""0"",""4017""
","
","
","""event"",""trial"",""time""
""fullscreenenter"",""0"",""4017""
","
","410.8400000005495","","","","","","","","49","0,0,0","0","city","16","probe-177","0.6512848581431189","0.4358791092414714","0.0650872899964271","0","","","","","","","",""
"","html-keyboard-response","125","620142","0.0-72.0-1.0","""event"",""trial"",""time""
""fullscreenenter"",""0"",""4017""
","
","
","""event"",""trial"",""time""
""fullscreenenter"",""0"",""4017""
","
","null","<p></p>","null","","","","","","","","","","","","","","","","","","","","","","",""
"","do_trial","126","625296","0.0-73.0-0.0","""event"",""trial"",""time""
""fullscreenenter"",""0"",""4017""
","
","
","""event"",""trial"",""time""
""fullscreenenter"",""0"",""4017""
","
","482.72500000160653","","","","","","","","49","1,0,0","0","city","17","probe-175","0.6718711763941277","0.3858600215443114","0.12098869378328239","1","","","","","","","",""
"","html-keyboard-response","127","626300","0.0-73.0-1.0","""event"",""trial"",""time""
""fullscreenenter"",""0"",""4017""
","
","
","""event"",""trial"",""time""
""fullscreenenter"",""0"",""4017""
","
","null","<p></p>","null","","","","","","","","","","","","","","","","","","","","","","",""
"","do_trial","128","631469","0.0-74.0-0.0","""event"",""trial"",""time""
""fullscreenenter"",""0"",""4017""
","
","
","""event"",""trial"",""time""
""fullscreenenter"",""0"",""4017""
","
","491.92500000214204","","","","","","","","49","1,1,0","0","city","18","probe-102","0.6383975609631105","0.32726765029332194","0.11396648551057888","1","","","","","","","",""
"","html-keyboard-response","129","632471","0.0-74.0-1.0","""event"",""trial"",""time""
""fullscreenenter"",""0"",""4017""
","
","
","""event"",""trial"",""time""
""fullscreenenter"",""0"",""4017""
","
","null","<p></p>","null","","","","","","","","","","","","","","","","","","","","","","",""
"","do_trial","130","637646","0.0-75.0-0.0","""event"",""trial"",""time""
""fullscreenenter"",""0"",""4017""
","
","
","""event"",""trial"",""time""
""fullscreenenter"",""0"",""4017""
","
","507.4400000012247","","","","","","","","49","1,0,0","0","city","19","probe-80","0.6266393960408229","0.2714585357206358","0.18178595248243476","1","","","","","","","",""
"","html-keyboard-response","131","638650","0.0-75.0-1.0","""event"",""trial"",""time""
""fullscreenenter"",""0"",""4017""
","
","
","""event"",""trial"",""time""
""fullscreenenter"",""0"",""4017""
","
","null","<p></p>","null","","","","","","","","","","","","","","","","","","","","","","",""
"","do_trial","132","644394","0.0-76.0-0.0","""event"",""trial"",""time""
""fullscreenenter"",""0"",""4017""
","
","
","""event"",""trial"",""time""
""fullscreenenter"",""0"",""4017""
","
","1066.390000000014","","","","","","","","49","1,0,0","0","city","20","probe-32","0.5983652762399839","0.32920481894044956","0.1862308499079769","1","","","","","","","",""
"","html-keyboard-response","133","645398","0.0-76.0-1.0","""event"",""trial"",""time""
""fullscreenenter"",""0"",""4017""
","
","
","""event"",""trial"",""time""
""fullscreenenter"",""0"",""4017""
","
","null","<p></p>","null","","","","","","","","","","","","","","","","","","","","","","",""
"","do_trial","134","650638","0.0-77.0-0.0","""event"",""trial"",""time""
""fullscreenenter"",""0"",""4017""
","
","
","""event"",""trial"",""time""
""fullscreenenter"",""0"",""4017""
","
","563.6400000003632","","","","","","","","50","1,0,0","0","city","21","probe-26","0.5845913973480765","0.3838494527904149","0.23193163956182514","0","","","","","","","",""
"","html-keyboard-response","135","651642","0.0-77.0-1.0","""event"",""trial"",""time""
""fullscreenenter"",""0"",""4017""
","
","
","""event"",""trial"",""time""
""fullscreenenter"",""0"",""4017""
","
","null","<p></p>","null","","","","","","","","","","","","","","","","","","","","","","",""
"","do_trial","136","657708","0.0-78.0-0.0","""event"",""trial"",""time""
""fullscreenenter"",""0"",""4017""
","
","
","""event"",""trial"",""time""
""fullscreenenter"",""0"",""4017""
","
","1368.3400000007823","","","","","","","","49","1,0,0","0","city","22","probe-225","0.5254816588320907","0.4322904673071632","0.18906118860838844","1","","","","","","","",""
"","html-keyboard-response","137","658712","0.0-78.0-1.0","""event"",""trial"",""time""
""fullscreenenter"",""0"",""4017""
","
","
","""event"",""trial"",""time""
""fullscreenenter"",""0"",""4017""
","
","null","<p></p>","null","","","","","","","","","","","","","","","","","","","","","","",""
"","do_trial","138","664262","0.0-79.0-0.0","""event"",""trial"",""time""
""fullscreenenter"",""0"",""4017""
","
","
","""event"",""trial"",""time""
""fullscreenenter"",""0"",""4017""
","
","873.7550000005867","","","","","","","","49","0,0,0","0","city","23","probe-06","0.5809073659672942","0.30879385648152746","0.11471015261123324","0","","","","","","","",""
"","html-keyboard-response","139","665265","0.0-79.0-1.0","""event"",""trial"",""time""
""fullscreenenter"",""0"",""4017""
","
","
","""event"",""trial"",""time""
""fullscreenenter"",""0"",""4017""
","
","null","<p></p>","null","","","","","","","","","","","","","","","","","","","","","","",""
"","do_trial","140","670895","0.0-80.0-0.0","""event"",""trial"",""time""
""fullscreenenter"",""0"",""4017""
","
","
","""event"",""trial"",""time""
""fullscreenenter"",""0"",""4017""
","
","963.5450000023702","","","","","","","","49","0,0,0","0","city","24","probe-122","0.5069097307847931","0.38388878959100164","0.1744905583248017","0","","","","","","","",""
"","html-keyboard-response","141","671900","0.0-80.0-1.0","""event"",""trial"",""time""
""fullscreenenter"",""0"",""4017""
","
","
","""event"",""trial"",""time""
""fullscreenenter"",""0"",""4017""
","
","null","<p></p>","null","","","","","","","","","","","","","","","","","","","","","","",""
"","do_trial","142","676929","0.0-81.0-0.0","""event"",""trial"",""time""
""fullscreenenter"",""0"",""4017""
","
","
","""event"",""trial"",""time""
""fullscreenenter"",""0"",""4017""
","
","349.80500000168104","","","","","","","","49","1,0,0","0","city","25","probe-119","0.561700711782623","0.30621398519384024","0.15264795740290765","1","","","","","","","",""
"","html-keyboard-response","143","677932","0.0-81.0-1.0","""event"",""trial"",""time""
""fullscreenenter"",""0"",""4017""
","
","
","""event"",""trial"",""time""
""fullscreenenter"",""0"",""4017""
","
","null","<p></p>","null","","","","","","","","","","","","","","","","","","","","","","",""
"","do_trial","144","684095","0.0-82.0-0.0","""event"",""trial"",""time""
""fullscreenenter"",""0"",""4017""
","
","
","""event"",""trial"",""time""
""fullscreenenter"",""0"",""4017""
","
","null","","","","","","","","null","1,1,0","0","city","26","probe-65","0.5760305904846077","0.4614902041636226","0.05799540943293156","","","","","","","","",""
"","html-keyboard-response","145","685099","0.0-82.0-1.0","""event"",""trial"",""time""
""fullscreenenter"",""0"",""4017""
","
","
","""event"",""trial"",""time""
""fullscreenenter"",""0"",""4017""
","
","null","<p></p>","null","","","","","","","","","","","","","","","","","","","","","","",""
"","do_trial","146","690307","0.0-83.0-0.0","""event"",""trial"",""time""
""fullscreenenter"",""0"",""4017""
","
","
","""event"",""trial"",""time""
""fullscreenenter"",""0"",""4017""
","
","540.6350000012899","","","","","","","","50","1,1,0","0","city","27","probe-196","0.6231664575101383","0.5347171280839977","0.1021965042477445","1","","","","","","","",""
"","html-keyboard-response","147","691312","0.0-83.0-1.0","""event"",""trial"",""time""
""fullscreenenter"",""0"",""4017""
","
","
","""event"",""trial"",""time""
""fullscreenenter"",""0"",""4017""
","
","null","<p></p>","null","","","","","","","","","","","","","","","","","","","","","","",""
"","do_trial","148","697849","0.0-84.0-0.0","""event"",""trial"",""time""
""fullscreenenter"",""0"",""4017""
","
","
","""event"",""trial"",""time""
""fullscreenenter"",""0"",""4017""
","
","1857.3700000015087","","","","","","","","49","1,0,0","0","city","28","probe-02","0.6794843954947691","0.3277552307097089","0.20763504900010385","1","","","","","","","",""
"","html-keyboard-response","149","698854","0.0-84.0-1.0","""event"",""trial"",""time""
""fullscreenenter"",""0"",""4017""
","
","
","""event"",""trial"",""time""
""fullscreenenter"",""0"",""4017""
","
","null","<p></p>","null","","","","","","","","","","","","","","","","","","","","","","",""
"","do_trial","150","704852","0.0-85.0-0.0","""event"",""trial"",""time""
""fullscreenenter"",""0"",""4017""
","
","
","""event"",""trial"",""time""
""fullscreenenter"",""0"",""4017""
","
","1318.3749999989523","","","","","","","","49","0,1,0","0","city","29","probe-167","0.5912234719605413","0.3149885857597927","0.18287053129458675","0","","","","","","","",""
"","html-keyboard-response","151","705858","0.0-85.0-1.0","""event"",""trial"",""time""
""fullscreenenter"",""0"",""4017""
","
","
","""event"",""trial"",""time""
""fullscreenenter"",""0"",""4017""
","
","null","<p></p>","null","","","","","","","","","","","","","","","","","","","","","","",""
"","do_bye","152","707383","0.0-86.0-0.0","""event"",""trial"",""time""
""fullscreenenter"",""0"",""4017""
","
","
","""event"",""trial"",""time""
""fullscreenenter"",""0"",""4017""
","
","null","","","","","","","","null","","","","","","","","","","","","","","","","",""
"","break","153","712366","0.0-86.0-1.0","""event"",""trial"",""time""
""fullscreenenter"",""0"",""4017""
","
","
","""event"",""trial"",""time""
""fullscreenenter"",""0"",""4017""
","
","4977.794999998878","<div class='center'><p>Time to take a quick break! You have 2 minutes to rest, but you can move on sooner if you'd like.</p><p> Press the <b>space bar</b> to continue.</p></div>","32","","","","","","","","","","","","","","","","","","","","","","",""
"","do_travel","154","721379","0.0-87.0-0.0","""event"",""trial"",""time""
""fullscreenenter"",""0"",""4017""
","
","
","""event"",""trial"",""time""
""fullscreenenter"",""0"",""4017""
","
","null","","","","","","","","null","","","","","","","","","","","","","","","","",""
"","do_welcome","155","725407","0.0-87.0-1.0","""event"",""trial"",""time""
""fullscreenenter"",""0"",""4017""
","
","
","""event"",""trial"",""time""
""fullscreenenter"",""0"",""4017""
","
","null","","","","","","","","null","","","","","","","","","","","","","","","","",""
"","do_trial","156","731615","0.0-88.0-0.0","""event"",""trial"",""time""
""fullscreenenter"",""0"",""4017""
","
","
","""event"",""trial"",""time""
""fullscreenenter"",""0"",""4017""
","
","null","","","","","","","","null","1,0,0","1","countryside","30","probe-24","1","0.30510625019840326","0.17112577070773102","","","","","","","","",""
"","html-keyboard-response","157","732618","0.0-88.0-1.0","""event"",""trial"",""time""
""fullscreenenter"",""0"",""4017""
","
","
","""event"",""trial"",""time""
""fullscreenenter"",""0"",""4017""
","
","null","<p></p>","null","","","","","","","","","","","","","","","","","","","","","","",""
"","do_trial","158","737726","0.0-89.0-0.0","""event"",""trial"",""time""
""fullscreenenter"",""0"",""4017""
","
","
","""event"",""trial"",""time""
""fullscreenenter"",""0"",""4017""
","
","427.75000000256114","","","","","","","","50","1,0,0","1","countryside","31","probe-101","1","0.3088168799267792","0.1392475708102527","0","","","","","","","",""
"","html-keyboard-response","159","738729","0.0-89.0-1.0","""event"",""trial"",""time""
""fullscreenenter"",""0"",""4017""
","
","
","""event"",""trial"",""time""
""fullscreenenter"",""0"",""4017""
","
","null","<p></p>","null","","","","","","","","","","","","","","","","","","","","","","",""
"","do_trial","160","743936","0.0-90.0-0.0","""event"",""trial"",""time""
""fullscreenenter"",""0"",""4017""
","
","
","""event"",""trial"",""time""
""fullscreenenter"",""0"",""4017""
","
","536.0599999985425","","","","","","","","51","1,0,0","1","countryside","32","probe-35","1","0.27601765146038537","0.05524511545573925","0","","","","","","","",""
"","html-keyboard-response","161","744938","0.0-90.0-1.0","""event"",""trial"",""time""
""fullscreenenter"",""0"",""4017""
","
","
","""event"",""trial"",""time""
""fullscreenenter"",""0"",""4017""
","
","null","<p></p>","null","","","","","","","","","","","","","","","","","","","","","","",""
"","do_trial","162","750016","0.0-91.0-0.0","""event"",""trial"",""time""
""fullscreenenter"",""0"",""4017""
","
","
","""event"",""trial"",""time""
""fullscreenenter"",""0"",""4017""
","
","413.96499999961816","","","","","","","","51","1,0,1","1","countryside","33","probe-38","0.8710547387036285","0.17480557742660263","0.05153609696073109","1","","","","","","","",""
"","html-keyboard-response","163","751019","0.0-91.0-1.0","""event"",""trial"",""time""
""fullscreenenter"",""0"",""4017""
","
","
","""event"",""trial"",""time""
""fullscreenenter"",""0"",""4017""
","
","null","<p></p>","null","","","","","","","","","","","","","","","","","","","","","","",""
"","do_trial","164","756282","0.0-92.0-0.0","""event"",""trial"",""time""
""fullscreenenter"",""0"",""4017""
","
","
","""event"",""trial"",""time""
""fullscreenenter"",""0"",""4017""
","
","592.9250000008615","","","","","","","","50","1,0,0","1","countryside","34","probe-111","0.9015462013410124","0.17033674994845258","0.10024561366763188","0","","","","","","","",""
"","html-keyboard-response","165","757287","0.0-92.0-1.0","""event"",""trial"",""time""
""fullscreenenter"",""0"",""4017""
","
","
","""event"",""trial"",""time""
""fullscreenenter"",""0"",""4017""
","
","null","<p></p>","null","","","","","","","","","","","","","","","","","","","","","","",""
"","do_trial","166","762606","0.0-93.0-0.0","""event"",""trial"",""time""
""fullscreenenter"",""0"",""4017""
","
","
","""event"",""trial"",""time""
""fullscreenenter"",""0"",""4017""
","
","637.6700000000419","","","","","","","","51","1,0,0","1","countryside","35","probe-162","0.8908647226940866","0.28528199845839225","0.16536084467216738","0","","","","","","","",""
"","html-keyboard-response","167","763610","0.0-93.0-1.0","""event"",""trial"",""time""
""fullscreenenter"",""0"",""4017""
","
","
","""event"",""trial"",""time""
""fullscreenenter"",""0"",""4017""
","
","null","<p></p>","null","","","","","","","","","","","","","","","","","","","","","","",""
"","do_trial","168","769284","0.0-94.0-0.0","""event"",""trial"",""time""
""fullscreenenter"",""0"",""4017""
","
","
","""event"",""trial"",""time""
""fullscreenenter"",""0"",""4017""
","
","993.0800000000745","","","","","","","","49","1,0,0","1","countryside","36","probe-92","0.6830651012846387","0.27619006043606","0.12003534904845985","1","","","","","","","",""
"","html-keyboard-response","169","770287","0.0-94.0-1.0","""event"",""trial"",""time""
""fullscreenenter"",""0"",""4017""
","
","
","""event"",""trial"",""time""
""fullscreenenter"",""0"",""4017""
","
","null","<p></p>","null","","","","","","","","","","","","","","","","","","","","","","",""
"","do_trial","170","775764","0.0-95.0-0.0","""event"",""trial"",""time""
""fullscreenenter"",""0"",""4017""
","
","
","""event"",""trial"",""time""
""fullscreenenter"",""0"",""4017""
","
","801.6050000005635","","","","","","","","49","1,0,1","1","countryside","37","probe-227","0.676844059844483","0.14766783119432259","0.1163113607289049","1","","","","","","","",""
"","html-keyboard-response","171","776770","0.0-95.0-1.0","""event"",""trial"",""time""
""fullscreenenter"",""0"",""4017""
","
","
","""event"",""trial"",""time""
""fullscreenenter"",""0"",""4017""
","
","null","<p></p>","null","","","","","","","","","","","","","","","","","","","","","","",""
"","do_trial","172","782023","0.0-96.0-0.0","""event"",""trial"",""time""
""fullscreenenter"",""0"",""4017""
","
","
","""event"",""trial"",""time""
""fullscreenenter"",""0"",""4017""
","
","560.6850000002887","","","","","","","","49","1,0,1","1","countryside","38","probe-66","0.5591943291349722","0.3068303849718095","0.0830537575248325","1","","","","","","","",""
"","html-keyboard-response","173","783026","0.0-96.0-1.0","""event"",""trial"",""time""
""fullscreenenter"",""0"",""4017""
","
","
","""event"",""trial"",""time""
""fullscreenenter"",""0"",""4017""
","
","null","<p></p>","null","","","","","","","","","","","","","","","","","","","","","","",""
"","do_trial","174","788221","0.0-97.0-0.0","""event"",""trial"",""time""
""fullscreenenter"",""0"",""4017""
","
","
","""event"",""trial"",""time""
""fullscreenenter"",""0"",""4017""
","
","522.1049999999814","","","","","","","","49","1,0,1","1","countryside","39","probe-173","0.6035047438400091","0.19404562475244885","0.08496976784884959","1","","","","","","","",""
"","html-keyboard-response","175","789225","0.0-97.0-1.0","""event"",""trial"",""time""
""fullscreenenter"",""0"",""4017""
","
","
","""event"",""trial"",""time""
""fullscreenenter"",""0"",""4017""
","
","null","<p></p>","null","","","","","","","","","","","","","","","","","","","","","","",""
"","do_trial","176","794590","0.0-98.0-0.0","""event"",""trial"",""time""
""fullscreenenter"",""0"",""4017""
","
","
","""event"",""trial"",""time""
""fullscreenenter"",""0"",""4017""
","
","686.5099999995437","","","","","","","","49","0,1,0","1","countryside","40","probe-54","0.4562997291386779","0.11926898888839496","0.0674465402345871","0","","","","","","","",""
"","html-keyboard-response","177","795596","0.0-98.0-1.0","""event"",""trial"",""time""
""fullscreenenter"",""0"",""4017""
","
","
","""event"",""trial"",""time""
""fullscreenenter"",""0"",""4017""
","
","null","<p></p>","null","","","","","","","","","","","","","","","","","","","","","","",""
"","do_trial","178","800846","0.0-99.0-0.0","""event"",""trial"",""time""
""fullscreenenter"",""0"",""4017""
","
","
","""event"",""trial"",""time""
""fullscreenenter"",""0"",""4017""
","
","576.625000001397","","","","","","","","49","1,0,0","1","countryside","41","probe-31","0.39571061790923734","0.16217790255130335","0.10437976930479542","1","","","","","","","",""
"","html-keyboard-response","179","801849","0.0-99.0-1.0","""event"",""trial"",""time""
""fullscreenenter"",""0"",""4017""
","
","
","""event"",""trial"",""time""
""fullscreenenter"",""0"",""4017""
","
","null","<p></p>","null","","","","","","","","","","","","","","","","","","","","","","",""
"","do_trial","180","807371","0.0-100.0-0.0","""event"",""trial"",""time""
""fullscreenenter"",""0"",""4017""
","
","
","""event"",""trial"",""time""
""fullscreenenter"",""0"",""4017""
","
","851.7050000008894","","","","","","","","49","0,1,0","1","countryside","42","probe-197","0.22710926606953308","0.22171116468163385","0.12729656273774398","0","","","","","","","",""
"","html-keyboard-response","181","808375","0.0-100.0-1.0","""event"",""trial"",""time""
""fullscreenenter"",""0"",""4017""
","
","
","""event"",""trial"",""time""
""fullscreenenter"",""0"",""4017""
","
","null","<p></p>","null","","","","","","","","","","","","","","","","","","","","","","",""
"","do_trial","182","813515","0.0-101.0-0.0","""event"",""trial"",""time""
""fullscreenenter"",""0"",""4017""
","
","
","""event"",""trial"",""time""
""fullscreenenter"",""0"",""4017""
","
","463.44999999937136","","","","","","","","51","0,1,0","1","countryside","43","probe-149","0.14485338387982938","0.30826682369588343","0.2303228989502018","0","","","","","","","",""
"","html-keyboard-response","183","814519","0.0-101.0-1.0","""event"",""trial"",""time""
""fullscreenenter"",""0"",""4017""
","
","
","""event"",""trial"",""time""
""fullscreenenter"",""0"",""4017""
","
","null","<p></p>","null","","","","","","","","","","","","","","","","","","","","","","",""
"","do_trial","184","820166","0.0-102.0-0.0","""event"",""trial"",""time""
""fullscreenenter"",""0"",""4017""
","
","
","""event"",""trial"",""time""
""fullscreenenter"",""0"",""4017""
","
","976.2750000008382","","","","","","","","51","0,1,1","1","countryside","44","probe-184","0.10788295858655135","0.46477226297731283","0.08823684680263451","1","","","","","","","",""
"","html-keyboard-response","185","821170","0.0-102.0-1.0","""event"",""trial"",""time""
""fullscreenenter"",""0"",""4017""
","
","
","""event"",""trial"",""time""
""fullscreenenter"",""0"",""4017""
","
","null","<p></p>","null","","","","","","","","","","","","","","","","","","","","","","",""
"","do_trial","186","826686","0.0-103.0-0.0","""event"",""trial"",""time""
""fullscreenenter"",""0"",""4017""
","
","
","""event"",""trial"",""time""
""fullscreenenter"",""0"",""4017""
","
","852.4099999995669","","","","","","","","51","0,1,1","1","countryside","45","probe-161","0.2715486739483023","0.4979104475650319","0.18439531383362287","1","","","","","","","",""
"","html-keyboard-response","187","827690","0.0-103.0-1.0","""event"",""trial"",""time""
""fullscreenenter"",""0"",""4017""
","
","
","""event"",""trial"",""time""
""fullscreenenter"",""0"",""4017""
","
","null","<p></p>","null","","","","","","","","","","","","","","","","","","","","","","",""
"","do_trial","188","833247","0.0-104.0-0.0","""event"",""trial"",""time""
""fullscreenenter"",""0"",""4017""
","
","
","""event"",""trial"",""time""
""fullscreenenter"",""0"",""4017""
","
","872.7350000009174","","","","","","","","49","0,0,0","1","countryside","46","probe-04","0.4167927293386414","0.5099677999456176","0.14473198455822917","0","","","","","","","",""
"","html-keyboard-response","189","834253","0.0-104.0-1.0","""event"",""trial"",""time""
""fullscreenenter"",""0"",""4017""
","
","
","""event"",""trial"",""time""
""fullscreenenter"",""0"",""4017""
","
","null","<p></p>","null","","","","","","","","","","","","","","","","","","","","","","",""
"","do_trial","190","839442","0.0-105.0-0.0","""event"",""trial"",""time""
""fullscreenenter"",""0"",""4017""
","
","
","""event"",""trial"",""time""
""fullscreenenter"",""0"",""4017""
","
","510.949999999837","","","","","","","","49","0,1,0","1","countryside","47","probe-104","0.31858863695987555","0.5719412215745517","0.06407914286655549","0","","","","","","","",""
"","html-keyboard-response","191","840447","0.0-105.0-1.0","""event"",""trial"",""time""
""fullscreenenter"",""0"",""4017""
","
","
","""event"",""trial"",""time""
""fullscreenenter"",""0"",""4017""
","
","null","<p></p>","null","","","","","","","","","","","","","","","","","","","","","","",""
"","do_trial","192","845491","0.0-106.0-0.0","""event"",""trial"",""time""
""fullscreenenter"",""0"",""4017""
","
","
","""event"",""trial"",""time""
""fullscreenenter"",""0"",""4017""
","
","381.18500000203494","","","","","","","","49","0,1,0","1","countryside","48","probe-88","0.2820784543159731","0.5960613734149973","0.06452040256396913","0","","","","","","","",""
"","html-keyboard-response","193","846494","0.0-106.0-1.0","""event"",""trial"",""time""
""fullscreenenter"",""0"",""4017""
","
","
","""event"",""trial"",""time""
""fullscreenenter"",""0"",""4017""
","
","null","<p></p>","null","","","","","","","","","","","","","","","","","","","","","","",""
"","do_trial","194","852397","0.0-107.0-0.0","""event"",""trial"",""time""
""fullscreenenter"",""0"",""4017""
","
","
","""event"",""trial"",""time""
""fullscreenenter"",""0"",""4017""
","
","1222.0600000000559","","","","","","","","49","0,0,0","1","countryside","49","probe-224","0.32552561536682667","0.6886389561923462","0.0997935904247935","0","","","","","","","",""
"","html-keyboard-response","195","853400","0.0-107.0-1.0","""event"",""trial"",""time""
""fullscreenenter"",""0"",""4017""
","
","
","""event"",""trial"",""time""
""fullscreenenter"",""0"",""4017""
","
","null","<p></p>","null","","","","","","","","","","","","","","","","","","","","","","",""
"","do_trial","196","858797","0.0-108.0-0.0","""event"",""trial"",""time""
""fullscreenenter"",""0"",""4017""
","
","
","""event"",""trial"",""time""
""fullscreenenter"",""0"",""4017""
","
","725.2699999990873","","","","","","","","49","1,0,0","1","countryside","50","probe-42","0.275206017219796","0.6020215344029516","0.22713324841000151","1","","","","","","","",""
"","html-keyboard-response","197","859801","0.0-108.0-1.0","""event"",""trial"",""time""
""fullscreenenter"",""0"",""4017""
","
","
","""event"",""trial"",""time""
""fullscreenenter"",""0"",""4017""
","
","null","<p></p>","null","","","","","","","","","","","","","","","","","","","","","","",""
"","do_trial","198","865170","0.0-109.0-0.0","""event"",""trial"",""time""
""fullscreenenter"",""0"",""4017""
","
","
","""event"",""trial"",""time""
""fullscreenenter"",""0"",""4017""
","
","697.635000000475","","","","","","","","49","1,1,0","1","countryside","51","probe-151","0.24654530674509795","0.8046763739894275","0.18892734763388727","1","","","","","","","",""
"","html-keyboard-response","199","866175","0.0-109.0-1.0","""event"",""trial"",""time""
""fullscreenenter"",""0"",""4017""
","
","
","""event"",""trial"",""time""
""fullscreenenter"",""0"",""4017""
","
","null","<p></p>","null","","","","","","","","","","","","","","","","","","","","","","",""
"","do_trial","200","871273","0.0-110.0-0.0","""event"",""trial"",""time""
""fullscreenenter"",""0"",""4017""
","
","
","""event"",""trial"",""time""
""fullscreenenter"",""0"",""4017""
","
","423.6899999995949","","","","","","","","49","0,1,0","1","countryside","52","probe-144","0.19034351024679605","0.7445571119440308","0.12398656449544071","0","","","","","","","",""
"","html-keyboard-response","201","872277","0.0-110.0-1.0","""event"",""trial"",""time""
""fullscreenenter"",""0"",""4017""
","
","
","""event"",""trial"",""time""
""fullscreenenter"",""0"",""4017""
","
","null","<p></p>","null","","","","","","","","","","","","","","","","","","","","","","",""
"","do_trial","202","877363","0.0-111.0-0.0","""event"",""trial"",""time""
""fullscreenenter"",""0"",""4017""
","
","
","""event"",""trial"",""time""
""fullscreenenter"",""0"",""4017""
","
","419.644999998156","","","","","","","","49","0,1,0","1","countryside","53","probe-190","0.2257811274861185","0.6678618074103487","0.08293667800197746","0","","","","","","","",""
"","html-keyboard-response","203","878367","0.0-111.0-1.0","""event"",""trial"",""time""
""fullscreenenter"",""0"",""4017""
","
","
","""event"",""trial"",""time""
""fullscreenenter"",""0"",""4017""
","
","null","<p></p>","null","","","","","","","","","","","","","","","","","","","","","","",""
"","do_trial","204","883488","0.0-112.0-0.0","""event"",""trial"",""time""
""fullscreenenter"",""0"",""4017""
","
","
","""event"",""trial"",""time""
""fullscreenenter"",""0"",""4017""
","
","449.3849999998929","","","","","","","","49","0,1,0","1","countryside","54","probe-220","0.18376084044357302","0.6824665634087136","0.08472186271183961","0","","","","","","","",""
"","html-keyboard-response","205","884491","0.0-112.0-1.0","""event"",""trial"",""time""
""fullscreenenter"",""0"",""4017""
","
","
","""event"",""trial"",""time""
""fullscreenenter"",""0"",""4017""
","
","null","<p></p>","null","","","","","","","","","","","","","","","","","","","","","","",""
"","do_trial","206","889573","0.0-113.0-0.0","""event"",""trial"",""time""
""fullscreenenter"",""0"",""4017""
","
","
","""event"",""trial"",""time""
""fullscreenenter"",""0"",""4017""
","
","413.7600000031525","","","","","","","","49","1,0,0","1","countryside","55","probe-194","0.22176864364103854","0.7085654129269686","0.19764415005962266","1","","","","","","","",""
"","html-keyboard-response","207","890576","0.0-113.0-1.0","""event"",""trial"",""time""
""fullscreenenter"",""0"",""4017""
","
","
","""event"",""trial"",""time""
""fullscreenenter"",""0"",""4017""
","
","null","<p></p>","null","","","","","","","","","","","","","","","","","","","","","","",""
"","do_trial","208","895577","0.0-114.0-0.0","""event"",""trial"",""time""
""fullscreenenter"",""0"",""4017""
","
","
","""event"",""trial"",""time""
""fullscreenenter"",""0"",""4017""
","
","323.64999999839347","","","","","","","","49","0,1,0","1","countryside","56","probe-159","0.348137223357225","0.6452299973917112","0.1636323436922889","0","","","","","","","",""
"","html-keyboard-response","209","896582","0.0-114.0-1.0","""event"",""trial"",""time""
""fullscreenenter"",""0"",""4017""
","
","
","""event"",""trial"",""time""
""fullscreenenter"",""0"",""4017""
","
","null","<p></p>","null","","","","","","","","","","","","","","","","","","","","","","",""
"","do_trial","210","901714","0.0-115.0-0.0","""event"",""trial"",""time""
""fullscreenenter"",""0"",""4017""
","
","
","""event"",""trial"",""time""
""fullscreenenter"",""0"",""4017""
","
","460.4250000010943","","","","","","","","51","0,0,0","1","countryside","57","probe-37","0.37918357894900767","0.5891369120845527","0.05167935500550623","0","","","","","","","",""
"","html-keyboard-response","211","902717","0.0-115.0-1.0","""event"",""trial"",""time""
""fullscreenenter"",""0"",""4017""
","
","
","""event"",""trial"",""time""
""fullscreenenter"",""0"",""4017""
","
","null","<p></p>","null","","","","","","","","","","","","","","","","","","","","","","",""
"","do_trial","212","908895","0.0-116.0-0.0","""event"",""trial"",""time""
""fullscreenenter"",""0"",""4017""
","
","
","""event"",""trial"",""time""
""fullscreenenter"",""0"",""4017""
","
","null","","","","","","","","null","1,1,0","1","countryside","58","probe-120","0.3537835957739144","0.5208769320552584","0.14239313719485872","","","","","","","","",""
"","html-keyboard-response","213","909901","0.0-116.0-1.0","""event"",""trial"",""time""
""fullscreenenter"",""0"",""4017""
","
","
","""event"",""trial"",""time""
""fullscreenenter"",""0"",""4017""
","
","null","<p></p>","null","","","","","","","","","","","","","","","","","","","","","","",""
"","do_trial","214","915061","0.0-117.0-0.0","""event"",""trial"",""time""
""fullscreenenter"",""0"",""4017""
","
","
","""event"",""trial"",""time""
""fullscreenenter"",""0"",""4017""
","
","481.7750000001397","","","","","","","","50","0,1,1","1","countryside","59","probe-226","0.2871424122907886","0.6265177244827386","0.07088420239209213","1","","","","","","","",""
"","html-keyboard-response","215","916064","0.0-117.0-1.0","""event"",""trial"",""time""
""fullscreenenter"",""0"",""4017""
","
","
","""event"",""trial"",""time""
""fullscreenenter"",""0"",""4017""
","
","null","<p></p>","null","","","","","","","","","","","","","","","","","","","","","","",""
"","do_trial","216","921873","0.0-118.0-0.0","""event"",""trial"",""time""
""fullscreenenter"",""0"",""4017""
","
","
","""event"",""trial"",""time""
""fullscreenenter"",""0"",""4017""
","
","1139.999999999418","","","","","","","","50","0,0,0","1","countryside","60","probe-204","0.2650026243825913","0.7326674083416983","0.10496721672646503","0","","","","","","","",""
"","html-keyboard-response","217","922879","0.0-118.0-1.0","""event"",""trial"",""time""
""fullscreenenter"",""0"",""4017""
","
","
","""event"",""trial"",""time""
""fullscreenenter"",""0"",""4017""
","
","null","<p></p>","null","","","","","","","","","","","","","","","","","","","","","","",""
"","do_trial","218","928304","0.0-119.0-0.0","""event"",""trial"",""time""
""fullscreenenter"",""0"",""4017""
","
","
","""event"",""trial"",""time""
""fullscreenenter"",""0"",""4017""
","
","741.3450000020675","","","","","","","","50","0,1,0","1","countryside","61","probe-55","0.10969173219026956","0.6905327069174123","0.09977875776746561","1","","","","","","","",""
"","html-keyboard-response","219","929309","0.0-119.0-1.0","""event"",""trial"",""time""
""fullscreenenter"",""0"",""4017""
","
","
","""event"",""trial"",""time""
""fullscreenenter"",""0"",""4017""
","
","null","<p></p>","null","","","","","","","","","","","","","","","","","","","","","","",""
"","do_trial","220","934404","0.0-120.0-0.0","""event"",""trial"",""time""
""fullscreenenter"",""0"",""4017""
","
","
","""event"",""trial"",""time""
""fullscreenenter"",""0"",""4017""
","
","424.9149999995716","","","","","","","","51","0,0,0","1","countryside","62","probe-36","0.1623935496902541","0.5835483759164106","0.061626030196992816","0","","","","","","","",""
"","html-keyboard-response","221","935409","0.0-120.0-1.0","""event"",""trial"",""time""
""fullscreenenter"",""0"",""4017""
","
","
","""event"",""trial"",""time""
""fullscreenenter"",""0"",""4017""
","
","null","<p></p>","null","","","","","","","","","","","","","","","","","","","","","","",""
"","do_trial","222","941960","0.0-121.0-0.0","""event"",""trial"",""time""
""fullscreenenter"",""0"",""4017""
","
","
","""event"",""trial"",""time""
""fullscreenenter"",""0"",""4017""
","
","1880.2599999981467","","","","","","","","49","0,0,0","1","countryside","63","probe-142","0.16254758654671497","0.6919599202847655","0.052314145690124346","0","","","","","","","",""
"","html-keyboard-response","223","942964","0.0-121.0-1.0","""event"",""trial"",""time""
""fullscreenenter"",""0"",""4017""
","
","
","""event"",""trial"",""time""
""fullscreenenter"",""0"",""4017""
","
","null","<p></p>","null","","","","","","","","","","","","","","","","","","","","","","",""
"","do_trial","224","949868","0.0-122.0-0.0","""event"",""trial"",""time""
""fullscreenenter"",""0"",""4017""
","
","
","""event"",""trial"",""time""
""fullscreenenter"",""0"",""4017""
","
","2224.325000002864","","","","","","","","49","1,1,0","1","countryside","64","probe-200","0.3805132621690626","0.6750098428202945","0.1382933602828042","1","","","","","","","",""
"","html-keyboard-response","225","950874","0.0-122.0-1.0","""event"",""trial"",""time""
""fullscreenenter"",""0"",""4017""
","
","
","""event"",""trial"",""time""
""fullscreenenter"",""0"",""4017""
","
","null","<p></p>","null","","","","","","","","","","","","","","","","","","","","","","",""
"","do_trial","226","958374","0.0-123.0-0.0","""event"",""trial"",""time""
""fullscreenenter"",""0"",""4017""
","
","
","""event"",""trial"",""time""
""fullscreenenter"",""0"",""4017""
","
","2809.894999998505","","","","","","","","49","0,1,0","1","countryside","65","probe-166","0.35579531419769567","0.7062865461649119","0.12022360979149778","0","","","","","","","",""
"","html-keyboard-response","227","959380","0.0-123.0-1.0","""event"",""trial"",""time""
""fullscreenenter"",""0"",""4017""
","
","
","""event"",""trial"",""time""
""fullscreenenter"",""0"",""4017""
","
","null","<p></p>","null","","","","","","","","","","","","","","","","","","","","","","",""
"","do_trial","228","964985","0.0-124.0-0.0","""event"",""trial"",""time""
""fullscreenenter"",""0"",""4017""
","
","
","""event"",""trial"",""time""
""fullscreenenter"",""0"",""4017""
","
","924.9149999995716","","","","","","","","49","0,1,0","1","countryside","66","probe-219","0.23884645218428519","0.569296599058421","0.0863353767463513","0","","","","","","","",""
"","html-keyboard-response","229","965988","0.0-124.0-1.0","""event"",""trial"",""time""
""fullscreenenter"",""0"",""4017""
","
","
","""event"",""trial"",""time""
""fullscreenenter"",""0"",""4017""
","
","null","<p></p>","null","","","","","","","","","","","","","","","","","","","","","","",""
"","do_trial","230","971223","0.0-125.0-0.0","""event"",""trial"",""time""
""fullscreenenter"",""0"",""4017""
","
","
","""event"",""trial"",""time""
""fullscreenenter"",""0"",""4017""
","
","567.6149999998743","","","","","","","","49","0,1,0","1","countryside","67","probe-208","0.2295298743112557","0.7114926140104642","0.07343258589789281","0","","","","","","","",""
"","html-keyboard-response","231","972226","0.0-125.0-1.0","""event"",""trial"",""time""
""fullscreenenter"",""0"",""4017""
","
","
","""event"",""trial"",""time""
""fullscreenenter"",""0"",""4017""
","
","null","<p></p>","null","","","","","","","","","","","","","","","","","","","","","","",""
"","do_trial","232","977686","0.0-126.0-0.0","""event"",""trial"",""time""
""fullscreenenter"",""0"",""4017""
","
","
","""event"",""trial"",""time""
""fullscreenenter"",""0"",""4017""
","
","793.6300000001211","","","","","","","","51","1,1,0","1","countryside","68","probe-64","0.1834023844718558","0.7269678726509163","0.15276658832287315","0","","","","","","","",""
"","html-keyboard-response","233","978690","0.0-126.0-1.0","""event"",""trial"",""time""
""fullscreenenter"",""0"",""4017""
","
","
","""event"",""trial"",""time""
""fullscreenenter"",""0"",""4017""
","
","null","<p></p>","null","","","","","","","","","","","","","","","","","","","","","","",""
"","do_trial","234","983975","0.0-127.0-0.0","""event"",""trial"",""time""
""fullscreenenter"",""0"",""4017""
","
","
","""event"",""trial"",""time""
""fullscreenenter"",""0"",""4017""
","
","608.9199999987613","","","","","","","","51","1,0,0","1","countryside","69","probe-100","0.17165012792390408","0.5576599634003845","0.17985444525565353","0","","","","","","","",""
"","html-keyboard-response","235","984978","0.0-127.0-1.0","""event"",""trial"",""time""
""fullscreenenter"",""0"",""4017""
","
","
","""event"",""trial"",""time""
""fullscreenenter"",""0"",""4017""
","
","null","<p></p>","null","","","","","","","","","","","","","","","","","","","","","","",""
"","do_bye","236","986490","0.0-128.0-0.0","""event"",""trial"",""time""
""fullscreenenter"",""0"",""4017""
","
","
","""event"",""trial"",""time""
""fullscreenenter"",""0"",""4017""
","
","null","","","","","","","","null","","","","","","","","","","","","","","","","",""
"","break","237","988169","0.0-128.0-1.0","""event"",""trial"",""time""
""fullscreenenter"",""0"",""4017""
","
","
","""event"",""trial"",""time""
""fullscreenenter"",""0"",""4017""
","
","1674.1699999985285","<div class='center'><p>Time to take a quick break! You have 2 minutes to rest, but you can move on sooner if you'd like.</p><p> Press the <b>space bar</b> to continue.</p></div>","32","","","","","","","","","","","","","","","","","","","","","","",""
"","do_travel","238","997176","0.0-129.0-0.0","""event"",""trial"",""time""
""fullscreenenter"",""0"",""4017""
","
","
","""event"",""trial"",""time""
""fullscreenenter"",""0"",""4017""
","
","null","","","","","","","","null","","","","","","","","","","","","","","","","",""
"","do_welcome","239","1001193","0.0-129.0-1.0","""event"",""trial"",""time""
""fullscreenenter"",""0"",""4017""
","
","
","""event"",""trial"",""time""
""fullscreenenter"",""0"",""4017""
","
","null","","","","","","","","null","","","","","","","","","","","","","","","","",""
"","do_trial","240","1007380","0.0-130.0-0.0","""event"",""trial"",""time""
""fullscreenenter"",""0"",""4017""
","
","
","""event"",""trial"",""time""
""fullscreenenter"",""0"",""4017""
","
","null","","","","","","","","null","0,1,0","2","coast","70","probe-172","0.14029328440790287","1","0.159888410904905","","","","","","","","",""
"","html-keyboard-response","241","1008383","0.0-130.0-1.0","""event"",""trial"",""time""
""fullscreenenter"",""0"",""4017""
","
","
","""event"",""trial"",""time""
""fullscreenenter"",""0"",""4017""
","
","null","<p></p>","null","","","","","","","","","","","","","","","","","","","","","","",""
"","do_trial","242","1013525","0.0-131.0-0.0","""event"",""trial"",""time""
""fullscreenenter"",""0"",""4017""
","
","
","""event"",""trial"",""time""
""fullscreenenter"",""0"",""4017""
","
","471.6499999994412","","","","","","","","49","0,1,0","2","coast","71","probe-229","0.3179056736369188","1","0.16041263607234996","0","","","","","","","",""
"","html-keyboard-response","243","1014528","0.0-131.0-1.0","""event"",""trial"",""time""
""fullscreenenter"",""0"",""4017""
","
","
","""event"",""trial"",""time""
""fullscreenenter"",""0"",""4017""
","
","null","<p></p>","null","","","","","","","","","","","","","","","","","","","","","","",""
"","do_trial","244","1020179","0.0-132.0-0.0","""event"",""trial"",""time""
""fullscreenenter"",""0"",""4017""
","
","
","""event"",""trial"",""time""
""fullscreenenter"",""0"",""4017""
","
","966.4850000008009","","","","","","","","49","0,1,0","2","coast","72","probe-132","0.35490944612270736","0.8942005694866327","0.14721909561989463","0","","","","","","","",""
"","html-keyboard-response","245","1021184","0.0-132.0-1.0","""event"",""trial"",""time""
""fullscreenenter"",""0"",""4017""
","
","
","""event"",""trial"",""time""
""fullscreenenter"",""0"",""4017""
","
","null","<p></p>","null","","","","","","","","","","","","","","","","","","","","","","",""
"","do_trial","246","1026680","0.0-133.0-0.0","""event"",""trial"",""time""
""fullscreenenter"",""0"",""4017""
","
","
","""event"",""trial"",""time""
""fullscreenenter"",""0"",""4017""
","
","815.660000000149","","","","","","","","49","1,1,0","2","coast","73","probe-20","0.44496086292875303","0.8838918674147174","0.29682586757293605","1","","","","","","","",""
"","html-keyboard-response","247","1027685","0.0-133.0-1.0","""event"",""trial"",""time""
""fullscreenenter"",""0"",""4017""
","
","
","""event"",""trial"",""time""
""fullscreenenter"",""0"",""4017""
","
","null","<p></p>","null","","","","","","","","","","","","","","","","","","","","","","",""
"","do_trial","248","1035051","0.0-134.0-0.0","""event"",""trial"",""time""
""fullscreenenter"",""0"",""4017""
","
","
","""event"",""trial"",""time""
""fullscreenenter"",""0"",""4017""
","
","2699.0550000009825","","","","","","","","49","0,1,0","2","coast","74","probe-72","0.3900251164140219","0.7816208132179765","0.3126565505097403","0","","","","","","","",""
"","html-keyboard-response","249","1036054","0.0-134.0-1.0","""event"",""trial"",""time""
""fullscreenenter"",""0"",""4017""
","
","
","""event"",""trial"",""time""
""fullscreenenter"",""0"",""4017""
","
","null","<p></p>","null","","","","","","","","","","","","","","","","","","","","","","",""
"","do_trial","250","1041892","0.0-135.0-0.0","""event"",""trial"",""time""
""fullscreenenter"",""0"",""4017""
","
","
","""event"",""trial"",""time""
""fullscreenenter"",""0"",""4017""
","
","1162.1400000003632","","","","","","","","51","0,1,0","2","coast","75","probe-189","0.3218040855555453","0.6383678586671861","0.26843452115754163","0","","","","","","","",""
"","html-keyboard-response","251","1042897","0.0-135.0-1.0","""event"",""trial"",""time""
""fullscreenenter"",""0"",""4017""
","
","
","""event"",""trial"",""time""
""fullscreenenter"",""0"",""4017""
","
","null","<p></p>","null","","","","","","","","","","","","","","","","","","","","","","",""
"","do_trial","252","1048085","0.0-136.0-0.0","""event"",""trial"",""time""
""fullscreenenter"",""0"",""4017""
","
","
","""event"",""trial"",""time""
""fullscreenenter"",""0"",""4017""
","
","510.730000001844","","","","","","","","50","0,1,0","2","coast","76","probe-114","0.2620220906863266","0.7618657138384117","0.17548709490382197","1","","","","","","","",""
"","html-keyboard-response","253","1049088","0.0-136.0-1.0","""event"",""trial"",""time""
""fullscreenenter"",""0"",""4017""
","
","
","""event"",""trial"",""time""
""fullscreenenter"",""0"",""4017""
","
","null","<p></p>","null","","","","","","","","","","","","","","","","","","","","","","",""
"","do_trial","254","1054999","0.0-137.0-0.0","""event"",""trial"",""time""
""fullscreenenter"",""0"",""4017""
","
","
","""event"",""trial"",""time""
""fullscreenenter"",""0"",""4017""
","
","1246.8100000005215","","","","","","","","50","1,0,0","2","coast","77","probe-228","0.27530216812222996","0.9050139781752605","0.10222488407009958","0","","","","","","","",""
"","html-keyboard-response","255","1056002","0.0-137.0-1.0","""event"",""trial"",""time""
""fullscreenenter"",""0"",""4017""
","
","
","""event"",""trial"",""time""
""fullscreenenter"",""0"",""4017""
","
","null","<p></p>","null","","","","","","","","","","","","","","","","","","","","","","",""
"","do_trial","256","1061382","0.0-138.0-0.0","""event"",""trial"",""time""
""fullscreenenter"",""0"",""4017""
","
","
","""event"",""trial"",""time""
""fullscreenenter"",""0"",""4017""
","
","705.3650000016205","","","","","","","","50","0,0,1","2","coast","78","probe-34","0.29495283848848447","0.6886053589122413","0.17781794931666492","0","","","","","","","",""
"","html-keyboard-response","257","1062388","0.0-138.0-1.0","""event"",""trial"",""time""
""fullscreenenter"",""0"",""4017""
","
","
","""event"",""trial"",""time""
""fullscreenenter"",""0"",""4017""
","
","null","<p></p>","null","","","","","","","","","","","","","","","","","","","","","","",""
"","do_trial","258","1067589","0.0-139.0-0.0","""event"",""trial"",""time""
""fullscreenenter"",""0"",""4017""
","
","
","""event"",""trial"",""time""
""fullscreenenter"",""0"",""4017""
","
","521.899999999674","","","","","","","","50","0,1,0","2","coast","79","probe-191","0.2679938162273661","0.7388486011846481","0.21480311400604613","1","","","","","","","",""
"","html-keyboard-response","259","1068593","0.0-139.0-1.0","""event"",""trial"",""time""
""fullscreenenter"",""0"",""4017""
","
","
","""event"",""trial"",""time""
""fullscreenenter"",""0"",""4017""
","
","null","<p></p>","null","","","","","","","","","","","","","","","","","","","","","","",""
"","do_trial","260","1075158","0.0-140.0-0.0","""event"",""trial"",""time""
""fullscreenenter"",""0"",""4017""
","
","
","""event"",""trial"",""time""
""fullscreenenter"",""0"",""4017""
","
","1885.0999999996275","","","","","","","","49","0,1,0","2","coast","80","probe-153","0.1792446763739293","0.7645155756871351","0.25320501491292535","0","","","","","","","",""
