"success","trial_type","trial_index","time_elapsed","internal_node_id","interactions","blur_events","focus_events","fullscreenenter_events","fullscreenexit_events","rt","stimulus","key_press","subject_id","participant_id","age","gender","prompt","response","choice_outcomes","context_n","context_img_id","trial_n","probe_img_id","pR_red","pR_white","pR_black","outcome","contextArray_ind","validImageProbes","invalidImageProbes","pRew_Red","pRew_White","pRew_Black","availableForMemProbe","choice_blocks"
"true","fullscreen","0","5238","0.0-0.0","""event"",""trial"",""time""
""fullscreenenter"",""0"",""4249""
","
","
","""event"",""trial"",""time""
""fullscreenenter"",""0"",""4249""
","
","","","","","","","","","","","","","","","","","","","","","","","","","",""
"","pavlovia","1","5242","0.0-1.0","""event"",""trial"",""time""
""fullscreenenter"",""0"",""4249""
","
","
","""event"",""trial"",""time""
""fullscreenenter"",""0"",""4249""
","
","","","","","","","","","","","","","","","","","","","","","","","","","",""
"","instruc1","2","50400","0.0-2.0","""event"",""trial"",""time""
""fullscreenenter"",""0"",""4249""
","
","
","""event"",""trial"",""time""
""fullscreenenter"",""0"",""4249""
","
","null","run_exp/static/audio/clip_1_welcome.m4a","null","221","22","9","Male","<div class='center'><p>Welcome! This is the first part of the study. It will last ~30 minutes. In part 1 and part 2 of the study, you are the head captain of a pirate ship traveling around the world to different islands. You will play a few different games throughout these two parts. Here is an overview of them:</p><br><p>Part 1 (today)</p><p>1. Instructions, practice game, and quiz</p><p>2. Pick a pirate game on 6 different islands</p><br><p>Part 2 (tomorrow)</p><p>3. Pick a pirate game and memory game</p><p>4. Where did you see this ship? </p></div>","","","","","","","","","","","","","","","","","",""
"","html-keyboard-response","3","83269","0.0-3.0","""event"",""trial"",""time""
""fullscreenenter"",""0"",""4249""
","
","
","""event"",""trial"",""time""
""fullscreenenter"",""0"",""4249""
","
","32864.5","<div class='center'><p>Welcome! This is the first part of the study. It will last ~30 minutes. In part 1 and part 2 of the study, you are the head captain of a pirate ship traveling around the world to different islands. You will play a few different games throughout these two parts. Here is an overview of them:</p><br><p>Part 1 (today)</p><p>1. Instructions, practice game, and quiz</p><p>2. Pick a pirate game on 6 different islands</p><br><p>Part 2 (tomorrow)</p><p>3. Pick a pirate game and memory game</p><p>4. Where did you see this ship? </p><p><b>[Press the space bar to continue]</b></p></div>","32","","","","","","","","","","","","","","","","","","","","","","",""
"","instruc2","4","89293","0.0-4.0","""event"",""trial"",""time""
""fullscreenenter"",""0"",""4249""
","
","
","""event"",""trial"",""time""
""fullscreenenter"",""0"",""4249""
","
","null","run_exp/static/audio/clip_2_different_places.m4a","null","","","","","<div class='center'><p>Today, you’ll visit these 6 islands on your journey. You'll be able to see these islands from your ship.</p><p><img src='run_exp/static/images/contexts/all_contexts.png' height='500'></p></div>","","","","","","","","","","","","","","","","","",""
"","html-keyboard-response","5","90904","0.0-5.0","""event"",""trial"",""time""
""fullscreenenter"",""0"",""4249""
","
","
","""event"",""trial"",""time""
""fullscreenenter"",""0"",""4249""
","
","1608.5","<div class='center'><p>Today, you’ll visit these 6 islands on your journey. You'll be able to see these islands from your ship.</p><p><img src='run_exp/static/images/contexts/all_contexts.png' height='500'></p><p><b>[Press the space bar to continue]</b></p></div>","32","","","","","","","","","","","","","","","","","","","","","","",""
"","instruc3","6","100593","0.0-6.0","""event"",""trial"",""time""
""fullscreenenter"",""0"",""4249""
","
","
","""event"",""trial"",""time""
""fullscreenenter"",""0"",""4249""
","
","null","run_exp/static/audio/clip_3_goal_of_game_1.m4a","null","","","","","<div class='center'><p> The pirates on your ship will rob other ships as they leave the island.</p> These ships have just sold their goods to the islanders, so they will be filled with lots and lots of gold.</p><p><img src='run_exp/static/images/tutorial/ship_center.png' height='400'></p></div>","","","","","","","","","","","","","","","","","",""
"","html-keyboard-response","7","101625","0.0-7.0","""event"",""trial"",""time""
""fullscreenenter"",""0"",""4249""
","
","
","""event"",""trial"",""time""
""fullscreenenter"",""0"",""4249""
","
","1029.5","<div class='center'><p> The pirates on your ship will rob other ships as they leave the island.</p> These ships have just sold their goods to the islanders, so they will be filled with lots and lots of gold.</p><p><img src='run_exp/static/images/tutorial/ship_center.png' height='400'></p><p><b>[Press the space bar to continue]</b></p></div>","32","","","","","","","","","","","","","","","","","","","","","","",""
"","instruc4","8","129611","0.0-8.0","""event"",""trial"",""time""
""fullscreenenter"",""0"",""4249""
","
","
","""event"",""trial"",""time""
""fullscreenenter"",""0"",""4249""
","
","null","run_exp/static/audio/clip_4_goal_of_game_2.m4a","null","","","","","<div class='center'><p>As the head captain, you do not have to rob any ships yourself. Another pirate will be doing the robbing for you. First, you will choose a pirate to rob the next ship.</p><p><img src='run_exp/static/images/tutorial/pirates_all_crop.png' height='200'></p><p>Then, you'll see if the pirate successfully robbed the ship of their gold. If they were successful, then you'll get a stack of gold coins like this:</p><p><img src='run_exp/static/images/tutorial/reward.png' height='150'></p><p> If they were <b>not</b> successful, then you'll get no gold coins, and you'll see a big red x like this: </p><p><img src='run_exp/static/images/tutorial/reward_no.png' height='150'></p><p> How much bonus money you make is based on how many gold coins you collect.</p><div>","","","","","","","","","","","","","","","","","",""
"","html-keyboard-response","9","140112","0.0-9.0","""event"",""trial"",""time""
""fullscreenenter"",""0"",""4249""
","
","
","""event"",""trial"",""time""
""fullscreenenter"",""0"",""4249""
","
","10498.700000000186","<div class='center'><p>As the head captain, you do not have to rob any ships yourself. Another pirate will be doing the robbing for you. First, you will choose a pirate to rob the next ship.</p><p><img src='run_exp/static/images/tutorial/pirates_all_crop.png' height='200'></p><p>Then, you'll see if the pirate successfully robbed the ship of their gold. If they were successful, then you'll get a stack of gold coins like this:</p><p><img src='run_exp/static/images/tutorial/reward.png' height='150'></p><p> If they were <b>not</b> successful, then you'll get no gold coins, and you'll see a big red x like this: </p><p><img src='run_exp/static/images/tutorial/reward_no.png' height='150'></p><p> How much bonus money you make is based on how many gold coins you collect.</p<p><b>[Press the space bar to continue]</b></p></div>","32","","","","","","","","","","","","","","","","","","","","","","",""
"","instruc5","10","162047","0.0-10.0","""event"",""trial"",""time""
""fullscreenenter"",""0"",""4249""
","
","
","""event"",""trial"",""time""
""fullscreenenter"",""0"",""4249""
","
","21932.900000000373","run_exp/static/audio/clip_5_probabilistic.m4a","49","","","","","<div class='center'><p>Even the most skilled pirate can not rob EVERY ship.</p><p> Some ships will have very strong protections against pirate attacks.</p><p> Blue beard, here, is very, very good at robbing ships, but he won't be successful every time he tries to rob one.</p><p> You can press the <b>‘1’</b> key on the keyboard to choose him.</p><p> Try choosing him 10 times to see how often he succeeds at robbing a ship. </p><p><img src='run_exp/static/images/tutorial/blue.png' height='500'></p></div>","","","","","","","","","","","","","","","","","",""
"","html-keyboard-response","11","163567","0.0-11.0","""event"",""trial"",""time""
""fullscreenenter"",""0"",""4249""
","
","
","""event"",""trial"",""time""
""fullscreenenter"",""0"",""4249""
","
","null","<div class='center'><p><img src='run_exp/static/images/tutorial/blue_win.png' height='500'></p></div>","null","","","","","","","","","","","","","","","","","","","","","","",""
"","html-keyboard-response","12","163657","0.0-12.0","""event"",""trial"",""time""
""fullscreenenter"",""0"",""4249""
","
","
","""event"",""trial"",""time""
""fullscreenenter"",""0"",""4249""
","
","88.6000000005588","<div class='center'><img src='run_exp/static/images/tutorial/blue.png' height='500'></p></div>","49","","","","","","","","","","","","","","","","","","","","","","",""
"","html-keyboard-response","13","165177","0.0-13.0","""event"",""trial"",""time""
""fullscreenenter"",""0"",""4249""
","
","
","""event"",""trial"",""time""
""fullscreenenter"",""0"",""4249""
","
","null","<div class='center'><p><img src='run_exp/static/images/tutorial/blue_win.png' height='500'></p></div>","null","","","","","","","","","","","","","","","","","","","","","","",""
"","html-keyboard-response","14","166354","0.0-14.0","""event"",""trial"",""time""
""fullscreenenter"",""0"",""4249""
","
","
","""event"",""trial"",""time""
""fullscreenenter"",""0"",""4249""
","
","1176","<div class='center'><img src='run_exp/static/images/tutorial/blue.png' height='500'></p></div>","49","","","","","","","","","","","","","","","","","","","","","","",""
"","html-keyboard-response","15","167857","0.0-15.0","""event"",""trial"",""time""
""fullscreenenter"",""0"",""4249""
","
","
","""event"",""trial"",""time""
""fullscreenenter"",""0"",""4249""
","
","null","<div class='center'><p><img src='run_exp/static/images/tutorial/blue_win.png' height='500'></p></div>","null","","","","","","","","","","","","","","","","","","","","","","",""
"","html-keyboard-response","16","168393","0.0-16.0","""event"",""trial"",""time""
""fullscreenenter"",""0"",""4249""
","
","
","""event"",""trial"",""time""
""fullscreenenter"",""0"",""4249""
","
","534.4000000003725","<div class='center'><img src='run_exp/static/images/tutorial/blue.png' height='500'></p></div>","49","","","","","","","","","","","","","","","","","","","","","","",""
"","html-keyboard-response","17","169907","0.0-17.0","""event"",""trial"",""time""
""fullscreenenter"",""0"",""4249""
","
","
","""event"",""trial"",""time""
""fullscreenenter"",""0"",""4249""
","
","null","<div class='center'><p><img src='run_exp/static/images/tutorial/blue_no_win.png' height='500'></p></div>","null","","","","","","","","","","","","","","","","","","","","","","",""
"","html-keyboard-response","18","170407","0.0-18.0","""event"",""trial"",""time""
""fullscreenenter"",""0"",""4249""
","
","
","""event"",""trial"",""time""
""fullscreenenter"",""0"",""4249""
","
","498.8999999994412","<div class='center'><img src='run_exp/static/images/tutorial/blue.png' height='500'></p></div>","49","","","","","","","","","","","","","","","","","","","","","","",""
"","html-keyboard-response","19","171913","0.0-19.0","""event"",""trial"",""time""
""fullscreenenter"",""0"",""4249""
","
","
","""event"",""trial"",""time""
""fullscreenenter"",""0"",""4249""
","
","null","<div class='center'><p><img src='run_exp/static/images/tutorial/blue_win.png' height='500'></p></div>","null","","","","","","","","","","","","","","","","","","","","","","",""
"","html-keyboard-response","20","172348","0.0-20.0","""event"",""trial"",""time""
""fullscreenenter"",""0"",""4249""
","
","
","""event"",""trial"",""time""
""fullscreenenter"",""0"",""4249""
","
","433.90000000037253","<div class='center'><img src='run_exp/static/images/tutorial/blue.png' height='500'></p></div>","49","","","","","","","","","","","","","","","","","","","","","","",""
"","html-keyboard-response","21","173854","0.0-21.0","""event"",""trial"",""time""
""fullscreenenter"",""0"",""4249""
","
","
","""event"",""trial"",""time""
""fullscreenenter"",""0"",""4249""
","
","null","<div class='center'><p><img src='run_exp/static/images/tutorial/blue_win.png' height='500'></p></div>","null","","","","","","","","","","","","","","","","","","","","","","",""
"","html-keyboard-response","22","174513","0.0-22.0","""event"",""trial"",""time""
""fullscreenenter"",""0"",""4249""
","
","
","""event"",""trial"",""time""
""fullscreenenter"",""0"",""4249""
","
","657.5","<div class='center'><img src='run_exp/static/images/tutorial/blue.png' height='500'></p></div>","49","","","","","","","","","","","","","","","","","","","","","","",""
"","html-keyboard-response","23","176022","0.0-23.0","""event"",""trial"",""time""
""fullscreenenter"",""0"",""4249""
","
","
","""event"",""trial"",""time""
""fullscreenenter"",""0"",""4249""
","
","null","<div class='center'><p><img src='run_exp/static/images/tutorial/blue_win.png' height='500'></p></div>","null","","","","","","","","","","","","","","","","","","","","","","",""
"","html-keyboard-response","24","176640","0.0-24.0","""event"",""trial"",""time""
""fullscreenenter"",""0"",""4249""
","
","
","""event"",""trial"",""time""
""fullscreenenter"",""0"",""4249""
","
","616.7000000001863","<div class='center'><img src='run_exp/static/images/tutorial/blue.png' height='500'></p></div>","49","","","","","","","","","","","","","","","","","","","","","","",""
"","html-keyboard-response","25","178146","0.0-25.0","""event"",""trial"",""time""
""fullscreenenter"",""0"",""4249""
","
","
","""event"",""trial"",""time""
""fullscreenenter"",""0"",""4249""
","
","null","<div class='center'><p><img src='run_exp/static/images/tutorial/blue_no_win.png' height='500'></p></div>","null","","","","","","","","","","","","","","","","","","","","","","",""
"","html-keyboard-response","26","178661","0.0-26.0","""event"",""trial"",""time""
""fullscreenenter"",""0"",""4249""
","
","
","""event"",""trial"",""time""
""fullscreenenter"",""0"",""4249""
","
","502.8999999994412","<div class='center'><img src='run_exp/static/images/tutorial/blue.png' height='500'></p></div>","49","","","","","","","","","","","","","","","","","","","","","","",""
"","html-keyboard-response","27","180178","0.0-27.0","""event"",""trial"",""time""
""fullscreenenter"",""0"",""4249""
","
","
","""event"",""trial"",""time""
""fullscreenenter"",""0"",""4249""
","
","null","<div class='center'><p><img src='run_exp/static/images/tutorial/blue_win.png' height='500'></p></div>","null","","","","","","","","","","","","","","","","","","","","","","",""
"","html-keyboard-response","28","180769","0.0-28.0","""event"",""trial"",""time""
""fullscreenenter"",""0"",""4249""
","
","
","""event"",""trial"",""time""
""fullscreenenter"",""0"",""4249""
","
","589.2999999998137","<div class='center'><img src='run_exp/static/images/tutorial/blue.png' height='500'></p></div>","49","","","","","","","","","","","","","","","","","","","","","","",""
"","html-keyboard-response","29","182277","0.0-29.0","""event"",""trial"",""time""
""fullscreenenter"",""0"",""4249""
","
","
","""event"",""trial"",""time""
""fullscreenenter"",""0"",""4249""
","
","null","<div class='center'><p><img src='run_exp/static/images/tutorial/blue_win.png' height='500'></p></div>","null","","","","","","","","","","","","","","","","","","","","","","",""
"","instruc6","30","188377","0.0-30.0","""event"",""trial"",""time""
""fullscreenenter"",""0"",""4249""
","
","
","""event"",""trial"",""time""
""fullscreenenter"",""0"",""4249""
","
","null","run_exp/static/audio/clip_6_blue_beard_outcome.m4a","null","","","","","<div class='center'><p> See, he succeeded in robbing the ships most of the time but not every time. </p></div>","","","","","","","","","","","","","","","","","",""
"","html-keyboard-response","31","189936","0.0-31.0","""event"",""trial"",""time""
""fullscreenenter"",""0"",""4249""
","
","
","""event"",""trial"",""time""
""fullscreenenter"",""0"",""4249""
","
","1557.9000000003725","<div class='center'><p> See, he succeeded in robbing the ships most of the time but not every time. </p><p><b>[Press the space bar to continue]</b></p></div>","32","","","","","","","","","","","","","","","","","","","","","","",""
"","audio-keyboard-response","32","205992","0.0-32.0","""event"",""trial"",""time""
""fullscreenenter"",""0"",""4249""
","
","
","""event"",""trial"",""time""
""fullscreenenter"",""0"",""4249""
","
","16054.200000000186","run_exp/static/audio/clip_7_pick_pirate.m4a","51","","","","","","","","","","","","","","","","","","","","","","",""
"","audio-keyboard-response","33","210261","0.0-33.0-0.0","""event"",""trial"",""time""
""fullscreenenter"",""0"",""4249""
","
","
","""event"",""trial"",""time""
""fullscreenenter"",""0"",""4249""
","
","4265.5999999996275","run_exp/static/audio/clip_8_chosen_pirate_win.m4a","32","","","","","","","","","","","","","","","","","","","","","","",""
"","audio-keyboard-response","34","212609","0.0-33.0-1.0","""event"",""trial"",""time""
""fullscreenenter"",""0"",""4249""
","
","
","""event"",""trial"",""time""
""fullscreenenter"",""0"",""4249""
","
","2346.2999999998137","run_exp/static/audio/clip_9_pick_a_pirate_again.m4a","49","","","","","","","","","","","","","","","","","","","","","","",""
"","audio-keyboard-response","35","216603","0.0-34.0-0.0","""event"",""trial"",""time""
""fullscreenenter"",""0"",""4249""
","
","
","""event"",""trial"",""time""
""fullscreenenter"",""0"",""4249""
","
","3991.0999999996275","run_exp/static/audio/clip_10_chosen_pirate_loss.m4a","32","","","","","","","","","","","","","","","","","","","","","","",""
"","instruc9","36","222096","0.0-35.0-0.0","""event"",""trial"",""time""
""fullscreenenter"",""0"",""4249""
","
","
","""event"",""trial"",""time""
""fullscreenenter"",""0"",""4249""
","
","null","run_exp/static/audio/clip_11_time_out.m4a","null","","","","","<div class='center'><p>If you don’t make your choice fast enough, you’ll have to wait a few seconds before you can make another one. </p><p><img src='run_exp/static/images/miscellaneous/hurry_up.png' height='500'></p></div>","","","","","","","","","","","","","","","","","",""
"","html-keyboard-response","37","223006","0.0-35.0-1.0","""event"",""trial"",""time""
""fullscreenenter"",""0"",""4249""
","
","
","""event"",""trial"",""time""
""fullscreenenter"",""0"",""4249""
","
","908.0999999996275","<div class='center'><p>If you don’t make your choice fast enough, you’ll have to wait a few seconds before you can make another one. </p><p><img src='run_exp/static/images/miscellaneous/hurry_up.png' height='500'></p><p><b>[Press the space bar to continue]</b></p></div>","32","","","","","","","","","","","","","","","","","","","","","","",""
"","instruc10","38","262096","0.0-35.0-2.0","""event"",""trial"",""time""
""fullscreenenter"",""0"",""4249""
","
","
","""event"",""trial"",""time""
""fullscreenenter"",""0"",""4249""
","
","null","run_exp/static/audio/clip_12_probe.m4a","null","","","","","<div class='center'><p>Once you've chosen a pirate, you’ll be shown the ship they are robbing. You will never rob the same ship twice. Ships can be told apart from one another by the image on them. These are the goods that they sell. See, this ship has a travel mug on it. </p><p> You’ll have to remember which island you saw each ship on. You will win more gold coins and hence more bonus money if you remember correctly! To help you remember, you can imagine a story. For example, here, you could imagine a mug full of water in the desert. Or, as another example, if on the forest island, your pirate robbed a ship with an apple on it, you could imagine an apple falling from a tree in the forest. </p><p><img src='run_exp/static/images/tutorial/example_probe.png' height='500'></p></div>","","","","","","","","","","","","","","","","","",""
"","html-keyboard-response","39","267382","0.0-35.0-3.0","""event"",""trial"",""time""
""fullscreenenter"",""0"",""4249""
","
","
","""event"",""trial"",""time""
""fullscreenenter"",""0"",""4249""
","
","5285","<div class='center'><p>Once you've chosen a pirate, you’ll be shown the ship they are robbing. You will never rob the same ship twice. Ships can be told apart from one another by the image on them. These are the goods that they sell. See, this ship has a travel mug on it. </p><p> You’ll have to remember which island you saw each ship on. You will win more gold coins and hence more bonus money if you remember correctly! To help you remember, you can imagine a story. For example, here, you could imagine a mug full of water in the desert. Or, as another example, if on the forest island, your pirate robbed a ship with an apple on it, you could imagine an apple falling from a tree in the forest. </p><p><img src='run_exp/static/images/tutorial/example_probe.png' height='500'></p><p><b>[Press the space bar to continue]</b></p></div>","32","","","","","","","","","","","","","","","","","","","","","","",""
"","instruc11","40","283795","0.0-35.0-4.0","""event"",""trial"",""time""
""fullscreenenter"",""0"",""4249""
","
","
","""event"",""trial"",""time""
""fullscreenenter"",""0"",""4249""
","
","null","run_exp/static/audio/clip_13_changepoint.m4a","null","","","","","<div class='center'><p>How successful a pirate is at robbing ships will depend on the island you’re on.</p><p> A pirate may have visited this island many times before and gained a lot of practice robbing ships there.</p><p>So, they’re more likely to be successful than a pirate who has never visited the island before.</p></div>","","","","","","","","","","","","","","","","","",""
"","html-keyboard-response","41","285304","0.0-35.0-5.0","""event"",""trial"",""time""
""fullscreenenter"",""0"",""4249""
","
","
","""event"",""trial"",""time""
""fullscreenenter"",""0"",""4249""
","
","1507.5","<div class='center'><p>How successful a pirate is at robbing ships will depend on the island you’re on.</p><p> A pirate may have visited this island many times before and gained a lot of practice robbing ships there.</p><p>So, they’re more likely to be successful than a pirate who has never visited the island before.</p><p><b>[Press the space bar to continue]</b></p></div>","32","","","","","","","","","","","","","","","","","","","","","","",""
"","instruc12","42","326395","0.0-35.0-6.0","""event"",""trial"",""time""
""fullscreenenter"",""0"",""4249""
","
","
","""event"",""trial"",""time""
""fullscreenenter"",""0"",""4249""
","
","null","run_exp/static/audio/clip_14_drift.m4a","null","","","","","<div class='center'><p>How successful a pirate is at robbing ships can also change over the time spent on the island. </p><p> Ships may hear from islanders about the pirates coming and will improve their protections against the attack. This may make it harder to rob them.</p><p> Ships may also become lazy and weaken the strength of their protections. This may make it easier to rob them.</p><br><p>Things are always changing on the high seas! So, try your best to pay attention!</p><p><img src='run_exp/static/images/tutorial/contingency.png' height='500'></p></div>","","","","","","","","","","","","","","","","","",""
"","html-keyboard-response","43","334590","0.0-35.0-7.0","""event"",""trial"",""time""
""fullscreenenter"",""0"",""4249""
","
","
","""event"",""trial"",""time""
""fullscreenenter"",""0"",""4249""
","
","8192.400000000373","<div class='center'><p>How successful a pirate is at robbing ships can also change over the time spent on the island. </p><p> Ships may hear from islanders about the pirates coming and will improve their protections against the attack. This may make it harder to rob them.</p><p> Ships may also become lazy and weaken the strength of their protections. This may make it easier to rob them.</p><br><p>Things are always changing on the high seas! So, try your best to pay attention!</p><p><img src='run_exp/static/images/tutorial/contingency.png' height='500'></p><p><b>[Press the space bar to continue]</b></p></div>","32","","","","","","","","","","","","","","","","","","","","","","",""
"","instruc13","44","369775","0.0-35.0-8.0","""event"",""trial"",""time""
""fullscreenenter"",""0"",""4249""
","
","
","""event"",""trial"",""time""
""fullscreenenter"",""0"",""4249""
","
","null","run_exp/static/audio/clip_15_summary.m4a","null","","","","","<div class='center'><p>Let's go over the instructions quickly again. You have two important things to do: </p><b><p> 1. Pick the pirate who is the best at robbing ships on the current island. </p></b><b><p> 2. Remember on which island a ship was robbed.</p> </b><p>The amount of bonus money you can win depends on both.</p><p><br><p>Let’s try a practice game. The game will start by showing you the pirates. First, pick a pirate using the <b> 1, 2, 3 </b> keys on your keyboard. When you are shown a ship, try to remember which island you’re on by making up a story.</p><p>This is just a practice game, so you’re not playing for money. </p><p> Good luck! This game will be very difficult but try your best!</p></div>","","","","","","","","","","","","","","","","","",""
"","html-keyboard-response","45","370607","0.0-35.0-9.0","""event"",""trial"",""time""
""fullscreenenter"",""0"",""4249""
","
","
","""event"",""trial"",""time""
""fullscreenenter"",""0"",""4249""
","
","830","<div class='center'><p>Let's go over the instructions quickly again. You have two important things to do: </p><b><p> 1. Pick the pirate who is the best at robbing ships on the current island. </p></b><b><p> 2. Remember on which island a ship was robbed.</p> </b><p>The amount of bonus money you can win depends on both.</p><p><br><p>Let’s try a practice game. The game will start by showing you the pirates. First, pick a pirate using the <b> 1, 2, 3 </b> keys on your keyboard. When you are shown a ship, try to remember which island you’re on by making up a story.</p><p>This is just a practice game, so you’re not playing for money. </p><p> Good luck! This game will be very difficult but try your best!</p><p><b>[Press the space bar to continue]</b></p></div>","32","","","","","","","","","","","","","","","","","","","","","","",""
"","do_welcome","46","374624","0.0-35.0-10.0","""event"",""trial"",""time""
""fullscreenenter"",""0"",""4249""
","
","
","""event"",""trial"",""time""
""fullscreenenter"",""0"",""4249""
","
","null","","","","","","","","null","","","","","","","","","","","","","","","","",""
"","do_trial","47","381404","0.0-35.0-11.0","""event"",""trial"",""time""
""fullscreenenter"",""0"",""4249""
","
","
","""event"",""trial"",""time""
""fullscreenenter"",""0"",""4249""
","
","2259.800000000745","","","","","","","","49","1,0,0","","","","","","","","","","","","","","","",""
"","html-keyboard-response","48","382414","0.0-36.0-0.0","""event"",""trial"",""time""
""fullscreenenter"",""0"",""4249""
","
","
","""event"",""trial"",""time""
""fullscreenenter"",""0"",""4249""
","
","null","<p></p>","null","","","","","","","","","","","","","","","","","","","","","","",""
"","do_trial","49","388175","0.0-36.0-1.0","""event"",""trial"",""time""
""fullscreenenter"",""0"",""4249""
","
","
","""event"",""trial"",""time""
""fullscreenenter"",""0"",""4249""
","
","1243.5","","","","","","","","50","1,1,0","","","","","","","","","","","","","","","",""
"","html-keyboard-response","50","389177","0.0-37.0-0.0","""event"",""trial"",""time""
""fullscreenenter"",""0"",""4249""
","
","
","""event"",""trial"",""time""
""fullscreenenter"",""0"",""4249""
","
","null","<p></p>","null","","","","","","","","","","","","","","","","","","","","","","",""
"","do_trial","51","394106","0.0-37.0-1.0","""event"",""trial"",""time""
""fullscreenenter"",""0"",""4249""
","
","
","""event"",""trial"",""time""
""fullscreenenter"",""0"",""4249""
","
","407.80000000074506","","","","","","","","51","1,0,1","","","","","","","","","","","","","","","",""
"","html-keyboard-response","52","395123","0.0-38.0-0.0","""event"",""trial"",""time""
""fullscreenenter"",""0"",""4249""
","
","
","""event"",""trial"",""time""
""fullscreenenter"",""0"",""4249""
","
","null","<p></p>","null","","","","","","","","","","","","","","","","","","","","","","",""
"","do_trial","53","400539","0.0-38.0-1.0","""event"",""trial"",""time""
""fullscreenenter"",""0"",""4249""
","
","
","""event"",""trial"",""time""
""fullscreenenter"",""0"",""4249""
","
","904.7999999988824","","","","","","","","49","0,1,0","","","","","","","","","","","","","","","",""
"","html-keyboard-response","54","401554","0.0-39.0-0.0","""event"",""trial"",""time""
""fullscreenenter"",""0"",""4249""
","
","
","""event"",""trial"",""time""
""fullscreenenter"",""0"",""4249""
","
","null","<p></p>","null","","","","","","","","","","","","","","","","","","","","","","",""
"","do_trial","55","406469","0.0-39.0-1.0","""event"",""trial"",""time""
""fullscreenenter"",""0"",""4249""
","
","
","""event"",""trial"",""time""
""fullscreenenter"",""0"",""4249""
","
","406.40000000037253","","","","","","","","50","1,0,0","","","","","","","","","","","","","","","",""
"","do_bye","56","407986","0.0-40.0-0.0","""event"",""trial"",""time""
""fullscreenenter"",""0"",""4249""
","
","
","""event"",""trial"",""time""
""fullscreenenter"",""0"",""4249""
","
","null","","","","","","","","null","","","","","","","","","","","","","","","","",""
"","do_travel","57","417006","0.0-40.0-1.0","""event"",""trial"",""time""
""fullscreenenter"",""0"",""4249""
","
","
","""event"",""trial"",""time""
""fullscreenenter"",""0"",""4249""
","
","null","","","","","","","","null","","","","","","","","","","","","","","","","",""
"","do_welcome","58","421026","0.0-40.0-2.0","""event"",""trial"",""time""
""fullscreenenter"",""0"",""4249""
","
","
","""event"",""trial"",""time""
""fullscreenenter"",""0"",""4249""
","
","null","","","","","","","","null","","","","","","","","","","","","","","","","",""
"","do_trial","59","426846","0.0-40.0-3.0","""event"",""trial"",""time""
""fullscreenenter"",""0"",""4249""
","
","
","""event"",""trial"",""time""
""fullscreenenter"",""0"",""4249""
","
","1300.4000000003725","","","","","","","","49","1,0,0","","","","","","","","","","","","","","","",""
"","html-keyboard-response","60","427866","0.0-41.0-0.0","""event"",""trial"",""time""
""fullscreenenter"",""0"",""4249""
","
","
","""event"",""trial"",""time""
""fullscreenenter"",""0"",""4249""
","
","null","<p></p>","null","","","","","","","","","","","","","","","","","","","","","","",""
"","do_trial","61","433743","0.0-41.0-1.0","""event"",""trial"",""time""
""fullscreenenter"",""0"",""4249""
","
","
","""event"",""trial"",""time""
""fullscreenenter"",""0"",""4249""
","
","1355.4000000003725","","","","","","","","49","1,0,1","","","","","","","","","","","","","","","",""
"","html-keyboard-response","62","434745","0.0-42.0-0.0","""event"",""trial"",""time""
""fullscreenenter"",""0"",""4249""
","
","
","""event"",""trial"",""time""
""fullscreenenter"",""0"",""4249""
","
","null","<p></p>","null","","","","","","","","","","","","","","","","","","","","","","",""
"","do_trial","63","440692","0.0-42.0-1.0","""event"",""trial"",""time""
""fullscreenenter"",""0"",""4249""
","
","
","""event"",""trial"",""time""
""fullscreenenter"",""0"",""4249""
","
","1439.800000000745","","","","","","","","49","1,1,0","","","","","","","","","","","","","","","",""
"","html-keyboard-response","64","441706","0.0-43.0-0.0","""event"",""trial"",""time""
""fullscreenenter"",""0"",""4249""
","
","
","""event"",""trial"",""time""
""fullscreenenter"",""0"",""4249""
","
","null","<p></p>","null","","","","","","","","","","","","","","","","","","","","","","",""
"","do_trial","65","446705","0.0-43.0-1.0","""event"",""trial"",""time""
""fullscreenenter"",""0"",""4249""
","
","
","""event"",""trial"",""time""
""fullscreenenter"",""0"",""4249""
","
","482.80000000074506","","","","","","","","49","0,0,1","","","","","","","","","","","","","","","",""
"","html-keyboard-response","66","447720","0.0-44.0-0.0","""event"",""trial"",""time""
""fullscreenenter"",""0"",""4249""
","
","
","""event"",""trial"",""time""
""fullscreenenter"",""0"",""4249""
","
","null","<p></p>","null","","","","","","","","","","","","","","","","","","","","","","",""
"","do_trial","67","452654","0.0-44.0-1.0","""event"",""trial"",""time""
""fullscreenenter"",""0"",""4249""
","
","
","""event"",""trial"",""time""
""fullscreenenter"",""0"",""4249""
","
","412.59999999962747","","","","","","","","50","1,0,1","","","","","","","","","","","","","","","",""
"","html-keyboard-response","68","454778","0.0-45.0-0.0","""event"",""trial"",""time""
""fullscreenenter"",""0"",""4249""
","
","
","""event"",""trial"",""time""
""fullscreenenter"",""0"",""4249""
","
","2121.4000000003725","<div class='center'><p><img src='run_exp/static/images/tutorial/prac_best_pirate.png'  height='500'></p></div>","49","","","","","","","","","","","","","","","","","","","","","","",""
"","html-keyboard-response","69","456779","0.0-46.0-0.0","""event"",""trial"",""time""
""fullscreenenter"",""0"",""4249""
","
","
","""event"",""trial"",""time""
""fullscreenenter"",""0"",""4249""
","
","1999.6000000014901","<div class='center'><p>That's correct! Red beard was the best.</p><p><b>[Press the space bar to continue]</b></p></div>","32","","","","","","","","","","","","","","","","","","","","","","",""
"","html-keyboard-response","70","460093","0.0-46.0-1.0","""event"",""trial"",""time""
""fullscreenenter"",""0"",""4249""
","
","
","""event"",""trial"",""time""
""fullscreenenter"",""0"",""4249""
","
","3313.4000000003725","<div class='center'><p><img src='run_exp/static/images/tutorial/prac_source.png'  height='500'></p></div>","50","","","","","","","","","","","","","","","","","","","","","","",""
"","html-keyboard-response","71","461715","0.0-47.0-0.0","""event"",""trial"",""time""
""fullscreenenter"",""0"",""4249""
","
","
","""event"",""trial"",""time""
""fullscreenenter"",""0"",""4249""
","
","1620.800000000745","<div class='center'><p>That's correct! You saw this ship on the cavern island.</p><p><b>[Press the space bar to continue]</b></p></div>","32","","","","","","","","","","","","","","","","","","","","","","",""
"","quiz_beginning","72","473609","0.0-47.0-1.0","""event"",""trial"",""time""
""fullscreenenter"",""0"",""4249""
","
","
","""event"",""trial"",""time""
""fullscreenenter"",""0"",""4249""
","
","null","run_exp/static/audio/clip_16_quiz_intro.m4a","null","","","","","<div class='center'><p>Good job on the practice game! Now, you will be asked some true or false questions to make sure you really understand the rules of the game.</p><p> Press <b>'1'</b> on the keyboard for true and press <b>'2'</b> for false.</p></div>","","","","","","","","","","","","","","","","","",""
"","audio-keyboard-response","73","477915","0.0-47.0-2.0","""event"",""trial"",""time""
""fullscreenenter"",""0"",""4249""
","
","
","""event"",""trial"",""time""
""fullscreenenter"",""0"",""4249""
","
","4304.5","run_exp/static/audio/clip_17_q1.m4a","49","","","","","","","","","","","","","","","","","","","","","","",""
"","correct","74","480329","0.0-48.0-0.0","""event"",""trial"",""time""
""fullscreenenter"",""0"",""4249""
","
","
","""event"",""trial"",""time""
""fullscreenenter"",""0"",""4249""
","
","null","run_exp/static/audio/clip_18_correct.m4a","null","","","","","<div class='center'><p>That's correct!</p></div>","","","","","","","","","","","","","","","","","",""
"","html-keyboard-response","75","481270","0.0-48.0-1.0","""event"",""trial"",""time""
""fullscreenenter"",""0"",""4249""
","
","
","""event"",""trial"",""time""
""fullscreenenter"",""0"",""4249""
","
","940.5","<div class='center'><p>That's correct!</p><p><b>[Press the space bar to continue]</b></p></div>","32","","","","","","","","","","","","","","","","","","","","","","",""
"","audio-keyboard-response","76","488517","0.0-48.0-2.0","""event"",""trial"",""time""
""fullscreenenter"",""0"",""4249""
","
","
","""event"",""trial"",""time""
""fullscreenenter"",""0"",""4249""
","
","7244.700000001118","run_exp/static/audio/clip_20_q2.m4a","50","","","","","","","","","","","","","","","","","","","","","","",""
"","correct","77","490909","0.0-49.0-0.0","""event"",""trial"",""time""
""fullscreenenter"",""0"",""4249""
","
","
","""event"",""trial"",""time""
""fullscreenenter"",""0"",""4249""
","
","null","run_exp/static/audio/clip_18_correct.m4a","null","","","","","<div class='center'><p>That's correct!</p></div>","","","","","","","","","","","","","","","","","",""
"","html-keyboard-response","78","491427","0.0-49.0-1.0","""event"",""trial"",""time""
""fullscreenenter"",""0"",""4249""
","
","
","""event"",""trial"",""time""
""fullscreenenter"",""0"",""4249""
","
","516.5999999996275","<div class='center'><p>That's correct!</p><p><b>[Press the space bar to continue]</b></p></div>","32","","","","","","","","","","","","","","","","","","","","","","",""
"","audio-keyboard-response","79","498498","0.0-49.0-2.0","""event"",""trial"",""time""
""fullscreenenter"",""0"",""4249""
","
","
","""event"",""trial"",""time""
""fullscreenenter"",""0"",""4249""
","
","7070.5","run_exp/static/audio/clip_22_q3.m4a","50","","","","","","","","","","","","","","","","","","","","","","",""
"","correct","80","500889","0.0-50.0-0.0","""event"",""trial"",""time""
""fullscreenenter"",""0"",""4249""
","
","
","""event"",""trial"",""time""
""fullscreenenter"",""0"",""4249""
","
","null","run_exp/static/audio/clip_18_correct.m4a","null","","","","","<div class='center'><p>That's correct!</p></div>","","","","","","","","","","","","","","","","","",""
"","html-keyboard-response","81","501194","0.0-50.0-1.0","""event"",""trial"",""time""
""fullscreenenter"",""0"",""4249""
","
","
","""event"",""trial"",""time""
""fullscreenenter"",""0"",""4249""
","
","303.80000000074506","<div class='center'><p>That's correct!</p><p><b>[Press the space bar to continue]</b></p></div>","32","","","","","","","","","","","","","","","","","","","","","","",""
"","audio-keyboard-response","82","505776","0.0-50.0-2.0","""event"",""trial"",""time""
""fullscreenenter"",""0"",""4249""
","
","
","""event"",""trial"",""time""
""fullscreenenter"",""0"",""4249""
","
","4580.699999999255","run_exp/static/audio/clip_24_q4.m4a","49","","","","","","","","","","","","","","","","","","","","","","",""
"","correct","83","508230","0.0-51.0-0.0","""event"",""trial"",""time""
""fullscreenenter"",""0"",""4249""
","
","
","""event"",""trial"",""time""
""fullscreenenter"",""0"",""4249""
","
","null","run_exp/static/audio/clip_18_correct.m4a","null","","","","","<div class='center'><p>That's correct!</p></div>","","","","","","","","","","","","","","","","","",""
"","html-keyboard-response","84","508515","0.0-51.0-1.0","""event"",""trial"",""time""
""fullscreenenter"",""0"",""4249""
","
","
","""event"",""trial"",""time""
""fullscreenenter"",""0"",""4249""
","
","283.7999999988824","<div class='center'><p>That's correct!</p><p><b>[Press the space bar to continue]</b></p></div>","32","","","","","","","","","","","","","","","","","","","","","","",""
"","q_all_corr","85","517010","0.0-52.0-0.0","""event"",""trial"",""time""
""fullscreenenter"",""0"",""4249""
","
","
","""event"",""trial"",""time""
""fullscreenenter"",""0"",""4249""
","
","null","run_exp/static/audio/clip_27_quiz_all_correct.m4a","null","","","","","<div class='center'><p>Good job! You’re now ready to move on to the real game! Remember this game will be difficult but don't get discouraged and try your best!</p></div>","","","","","","","","","","","","","","","","","",""
"","html-keyboard-response","86","517396","0.0-52.0-1.0","""event"",""trial"",""time""
""fullscreenenter"",""0"",""4249""
","
","
","""event"",""trial"",""time""
""fullscreenenter"",""0"",""4249""
","
","384.09999999962747","<div class='center'><p>Good job! You’re now ready to move on to the real game! Remember this game will be difficult but don't get discouraged and try your best!</p><p><b>[Press the space bar to continue]</b></p></div>","32","","","","","","","","","","","","","","","","","","","","","","",""
"","do_welcome","87","521409","0.0-53.0-0.0","""event"",""trial"",""time""
""fullscreenenter"",""0"",""4249""
","
","
","""event"",""trial"",""time""
""fullscreenenter"",""0"",""4249""
","
","null","","","","","","","","null","","","","","","","","","","","","","","","","",""
"","do_trial","88","527179","0.0-54.0-0.0","""event"",""trial"",""time""
""fullscreenenter"",""0"",""4249""
","
","
","""event"",""trial"",""time""
""fullscreenenter"",""0"",""4249""
","
","1202","","","","","","","","49","0,0,0","0","mountain","0","probe-20","0.6","0.3","0.1","0","","","","","","","",""
"","html-keyboard-response","89","528189","0.0-54.0-1.0","""event"",""trial"",""time""
""fullscreenenter"",""0"",""4249""
","
","
","""event"",""trial"",""time""
""fullscreenenter"",""0"",""4249""
","
","null","<p></p>","null","","","","","","","","","","","","","","","","","","","","","","",""
"","do_trial","90","533422","0.0-55.0-0.0","""event"",""trial"",""time""
""fullscreenenter"",""0"",""4249""
","
","
","""event"",""trial"",""time""
""fullscreenenter"",""0"",""4249""
","
","668.8000000007451","","","","","","","","50","1,1,0","0","mountain","1","probe-226","0.47827608804381705","0.2513467008853347","0.1393286814658124","1","","","","","","","",""
"","html-keyboard-response","91","534424","0.0-55.0-1.0","""event"",""trial"",""time""
""fullscreenenter"",""0"",""4249""
","
","
","""event"",""trial"",""time""
""fullscreenenter"",""0"",""4249""
","
","null","<p></p>","null","","","","","","","","","","","","","","","","","","","","","","",""
"","do_trial","92","539542","0.0-56.0-0.0","""event"",""trial"",""time""
""fullscreenenter"",""0"",""4249""
","
","
","""event"",""trial"",""time""
""fullscreenenter"",""0"",""4249""
","
","552.3000000007451","","","","","","","","50","0,0,1","0","mountain","2","probe-98","0.4924483355535027","0.2377577351316484","0.2912993739557616","0","","","","","","","",""
"","html-keyboard-response","93","540556","0.0-56.0-1.0","""event"",""trial"",""time""
""fullscreenenter"",""0"",""4249""
","
","
","""event"",""trial"",""time""
""fullscreenenter"",""0"",""4249""
","
","null","<p></p>","null","","","","","","","","","","","","","","","","","","","","","","",""
"","do_trial","94","545906","0.0-57.0-0.0","""event"",""trial"",""time""
""fullscreenenter"",""0"",""4249""
","
","
","""event"",""trial"",""time""
""fullscreenenter"",""0"",""4249""
","
","785.1000000014901","","","","","","","","51","1,0,0","0","mountain","3","probe-103","0.5882794939233114","0.18921926127939614","0.07598764561532453","0","","","","","","","",""
"","html-keyboard-response","95","546921","0.0-57.0-1.0","""event"",""trial"",""time""
""fullscreenenter"",""0"",""4249""
","
","
","""event"",""trial"",""time""
""fullscreenenter"",""0"",""4249""
","
","null","<p></p>","null","","","","","","","","","","","","","","","","","","","","","","",""
"","do_trial","96","554181","0.0-58.0-0.0","""event"",""trial"",""time""
""fullscreenenter"",""0"",""4249""
","
","
","""event"",""trial"",""time""
""fullscreenenter"",""0"",""4249""
","
","2696.699999999255","","","","","","","","49","1,1,0","0","mountain","4","probe-194","0.6932404578089107","0.36255157023866597","0.10817513975693581","1","","","","","","","",""
"","html-keyboard-response","97","555188","0.0-58.0-1.0","""event"",""trial"",""time""
""fullscreenenter"",""0"",""4249""
","
","
","""event"",""trial"",""time""
""fullscreenenter"",""0"",""4249""
","
","null","<p></p>","null","","","","","","","","","","","","","","","","","","","","","","",""
"","do_trial","98","560918","0.0-59.0-0.0","""event"",""trial"",""time""
""fullscreenenter"",""0"",""4249""
","
","
","""event"",""trial"",""time""
""fullscreenenter"",""0"",""4249""
","
","1169.7999999988824","","","","","","","","49","0,0,0","0","mountain","5","probe-76","0.4734242930684257","0.3765157907516295","0.06387099713446957","0","","","","","","","",""
"","html-keyboard-response","99","561932","0.0-59.0-1.0","""event"",""trial"",""time""
""fullscreenenter"",""0"",""4249""
","
","
","""event"",""trial"",""time""
""fullscreenenter"",""0"",""4249""
","
","null","<p></p>","null","","","","","","","","","","","","","","","","","","","","","","",""
"","do_trial","100","567414","0.0-60.0-0.0","""event"",""trial"",""time""
""fullscreenenter"",""0"",""4249""
","
","
","""event"",""trial"",""time""
""fullscreenenter"",""0"",""4249""
","
","924.9000000003725","","","","","","","","50","1,1,1","0","mountain","6","probe-186","0.5209998844073187","0.21757803084966532","0.10383309987867285","1","","","","","","","",""
"","html-keyboard-response","101","568431","0.0-60.0-1.0","""event"",""trial"",""time""
""fullscreenenter"",""0"",""4249""
","
","
","""event"",""trial"",""time""
""fullscreenenter"",""0"",""4249""
","
","null","<p></p>","null","","","","","","","","","","","","","","","","","","","","","","",""
"","do_trial","102","573714","0.0-61.0-0.0","""event"",""trial"",""time""
""fullscreenenter"",""0"",""4249""
","
","
","""event"",""trial"",""time""
""fullscreenenter"",""0"",""4249""
","
","718.4000000003725","","","","","","","","50","1,1,1","0","mountain","7","probe-160","0.6200705994589653","0.2078987470620843","0.1201338899659922","1","","","","","","","",""
"","html-keyboard-response","103","574729","0.0-61.0-1.0","""event"",""trial"",""time""
""fullscreenenter"",""0"",""4249""
","
","
","""event"",""trial"",""time""
""fullscreenenter"",""0"",""4249""
","
","null","<p></p>","null","","","","","","","","","","","","","","","","","","","","","","",""
"","do_trial","104","579994","0.0-62.0-0.0","""event"",""trial"",""time""
""fullscreenenter"",""0"",""4249""
","
","
","""event"",""trial"",""time""
""fullscreenenter"",""0"",""4249""
","
","709.8000000007451","","","","","","","","50","0,1,1","0","mountain","8","probe-192","0.4714738839442108","0.2473066907259465","0.2278646727147897","1","","","","","","","",""
"","html-keyboard-response","105","581010","0.0-62.0-1.0","""event"",""trial"",""time""
""fullscreenenter"",""0"",""4249""
","
","
","""event"",""trial"",""time""
""fullscreenenter"",""0"",""4249""
","
","null","<p></p>","null","","","","","","","","","","","","","","","","","","","","","","",""
"","do_trial","106","586024","0.0-63.0-0.0","""event"",""trial"",""time""
""fullscreenenter"",""0"",""4249""
","
","
","""event"",""trial"",""time""
""fullscreenenter"",""0"",""4249""
","
","444.19999999925494","","","","","","","","50","0,0,0","0","mountain","9","probe-90","0.44678991587056394","0.3121100853824708","0.10404953011793076","0","","","","","","","",""
"","html-keyboard-response","107","587041","0.0-63.0-1.0","""event"",""trial"",""time""
""fullscreenenter"",""0"",""4249""
","
","
","""event"",""trial"",""time""
""fullscreenenter"",""0"",""4249""
","
","null","<p></p>","null","","","","","","","","","","","","","","","","","","","","","","",""
"","do_trial","108","592324","0.0-64.0-0.0","""event"",""trial"",""time""
""fullscreenenter"",""0"",""4249""
","
","
","""event"",""trial"",""time""
""fullscreenenter"",""0"",""4249""
","
","721.5","","","","","","","","50","0,0,0","0","mountain","10","probe-92","0.3908790917394436","0.4173444386338227","0.06773320229561082","0","","","","","","","",""
"","html-keyboard-response","109","593340","0.0-64.0-1.0","""event"",""trial"",""time""
""fullscreenenter"",""0"",""4249""
","
","
","""event"",""trial"",""time""
""fullscreenenter"",""0"",""4249""
","
","null","<p></p>","null","","","","","","","","","","","","","","","","","","","","","","",""
"","do_trial","110","598271","0.0-65.0-0.0","""event"",""trial"",""time""
""fullscreenenter"",""0"",""4249""
","
","
","""event"",""trial"",""time""
""fullscreenenter"",""0"",""4249""
","
","373.7999999988824","","","","","","","","49","0,0,0","0","mountain","11","probe-104","0.4495190399928635","0.4171392314140019","0.05445665433000322","0","","","","","","","",""
"","html-keyboard-response","111","599286","0.0-65.0-1.0","""event"",""trial"",""time""
""fullscreenenter"",""0"",""4249""
","
","
","""event"",""trial"",""time""
""fullscreenenter"",""0"",""4249""
","
","null","<p></p>","null","","","","","","","","","","","","","","","","","","","","","","",""
"","do_trial","112","605669","0.0-66.0-0.0","""event"",""trial"",""time""
""fullscreenenter"",""0"",""4249""
","
","
","""event"",""trial"",""time""
""fullscreenenter"",""0"",""4249""
","
","1812.3999999985099","","","","","","","","51","0,0,1","0","mountain","12","probe-71","0.43749529571299456","0.44708440440084507","0.060980460209339116","1","","","","","","","",""
"","html-keyboard-response","113","606684","0.0-66.0-1.0","""event"",""trial"",""time""
""fullscreenenter"",""0"",""4249""
","
","
","""event"",""trial"",""time""
""fullscreenenter"",""0"",""4249""
","
","null","<p></p>","null","","","","","","","","","","","","","","","","","","","","","","",""
"","do_trial","114","611751","0.0-67.0-0.0","""event"",""trial"",""time""
""fullscreenenter"",""0"",""4249""
","
","
","""event"",""trial"",""time""
""fullscreenenter"",""0"",""4249""
","
","500.3999999985099","","","","","","","","51","0,0,0","0","mountain","13","probe-203","0.4701396384806185","0.25207288566149655","0.24385622492857298","0","","","","","","","",""
"","html-keyboard-response","115","612755","0.0-67.0-1.0","""event"",""trial"",""time""
""fullscreenenter"",""0"",""4249""
","
","
","""event"",""trial"",""time""
""fullscreenenter"",""0"",""4249""
","
","null","<p></p>","null","","","","","","","","","","","","","","","","","","","","","","",""
"","do_trial","116","617848","0.0-68.0-0.0","""event"",""trial"",""time""
""fullscreenenter"",""0"",""4249""
","
","
","""event"",""trial"",""time""
""fullscreenenter"",""0"",""4249""
","
","527.4000000003725","","","","","","","","50","0,0,1","0","mountain","14","probe-41","0.4986541832341221","0.35311311099339726","0.1364622826845373","0","","","","","","","",""
"","html-keyboard-response","117","618863","0.0-68.0-1.0","""event"",""trial"",""time""
""fullscreenenter"",""0"",""4249""
","
","
","""event"",""trial"",""time""
""fullscreenenter"",""0"",""4249""
","
","null","<p></p>","null","","","","","","","","","","","","","","","","","","","","","","",""
"","do_trial","118","623800","0.0-69.0-0.0","""event"",""trial"",""time""
""fullscreenenter"",""0"",""4249""
","
","
","""event"",""trial"",""time""
""fullscreenenter"",""0"",""4249""
","
","374.09999999962747","","","","","","","","51","0,0,0","0","mountain","15","probe-184","0.5750686927025026","0.38610032700699465","0.11413789493006495","0","","","","","","","",""
"","html-keyboard-response","119","624812","0.0-69.0-1.0","""event"",""trial"",""time""
""fullscreenenter"",""0"",""4249""
","
","
","""event"",""trial"",""time""
""fullscreenenter"",""0"",""4249""
","
","null","<p></p>","null","","","","","","","","","","","","","","","","","","","","","","",""
"","do_trial","120","629943","0.0-70.0-0.0","""event"",""trial"",""time""
""fullscreenenter"",""0"",""4249""
","
","
","""event"",""trial"",""time""
""fullscreenenter"",""0"",""4249""
","
","571.6000000014901","","","","","","","","49","1,0,0","0","mountain","16","probe-124","0.448832720355809","0.271373841993696","0.08528407205669829","1","","","","","","","",""
"","html-keyboard-response","121","630959","0.0-70.0-1.0","""event"",""trial"",""time""
""fullscreenenter"",""0"",""4249""
","
","
","""event"",""trial"",""time""
""fullscreenenter"",""0"",""4249""
","
","null","<p></p>","null","","","","","","","","","","","","","","","","","","","","","","",""
"","do_trial","122","636240","0.0-71.0-0.0","""event"",""trial"",""time""
""fullscreenenter"",""0"",""4249""
","
","
","""event"",""trial"",""time""
""fullscreenenter"",""0"",""4249""
","
","719.5","","","","","","","","50","1,1,0","0","mountain","17","probe-93","0.5129701268392712","0.4181382033991777","0.12639797000258102","1","","","","","","","",""
"","html-keyboard-response","123","637257","0.0-71.0-1.0","""event"",""trial"",""time""
""fullscreenenter"",""0"",""4249""
","
","
","""event"",""trial"",""time""
""fullscreenenter"",""0"",""4249""
","
","null","<p></p>","null","","","","","","","","","","","","","","","","","","","","","","",""
"","do_trial","124","642290","0.0-72.0-0.0","""event"",""trial"",""time""
""fullscreenenter"",""0"",""4249""
","
","
","""event"",""trial"",""time""
""fullscreenenter"",""0"",""4249""
","
","475.3999999985099","","","","","","","","50","0,0,0","0","mountain","18","probe-222","0.4819242305501517","0.28360865861423973","0.07280189210120665","0","","","","","","","",""
"","html-keyboard-response","125","643292","0.0-72.0-1.0","""event"",""trial"",""time""
""fullscreenenter"",""0"",""4249""
","
","
","""event"",""trial"",""time""
""fullscreenenter"",""0"",""4249""
","
","null","<p></p>","null","","","","","","","","","","","","","","","","","","","","","","",""
"","do_trial","126","648821","0.0-73.0-0.0","""event"",""trial"",""time""
""fullscreenenter"",""0"",""4249""
","
","
","""event"",""trial"",""time""
""fullscreenenter"",""0"",""4249""
","
","971","","","","","","","","49","1,0,0","0","mountain","19","probe-197","0.5931567834857359","0.16808241582125655","0.14962551140740588","1","","","","","","","",""
"","html-keyboard-response","127","649835","0.0-73.0-1.0","""event"",""trial"",""time""
""fullscreenenter"",""0"",""4249""
","
","
","""event"",""trial"",""time""
""fullscreenenter"",""0"",""4249""
","
","null","<p></p>","null","","","","","","","","","","","","","","","","","","","","","","",""
"","do_trial","128","656715","0.0-74.0-0.0","""event"",""trial"",""time""
""fullscreenenter"",""0"",""4249""
","
","
","""event"",""trial"",""time""
""fullscreenenter"",""0"",""4249""
","
","2311.9000000003725","","","","","","","","49","1,0,0","0","mountain","20","probe-156","0.5673977753879497","0.14141411925659372","0.059093302452948464","1","","","","","","","",""
"","html-keyboard-response","129","657717","0.0-74.0-1.0","""event"",""trial"",""time""
""fullscreenenter"",""0"",""4249""
","
","
","""event"",""trial"",""time""
""fullscreenenter"",""0"",""4249""
","
","null","<p></p>","null","","","","","","","","","","","","","","","","","","","","","","",""
"","do_trial","130","663330","0.0-75.0-0.0","""event"",""trial"",""time""
""fullscreenenter"",""0"",""4249""
","
","
","""event"",""trial"",""time""
""fullscreenenter"",""0"",""4249""
","
","1044","","","","","","","","49","0,0,0","0","mountain","21","probe-109","0.4888644001108252","0.1448630326439203","0.0865796667122878","0","","","","","","","",""
"","html-keyboard-response","131","664347","0.0-75.0-1.0","""event"",""trial"",""time""
""fullscreenenter"",""0"",""4249""
","
","
","""event"",""trial"",""time""
""fullscreenenter"",""0"",""4249""
","
","null","<p></p>","null","","","","","","","","","","","","","","","","","","","","","","",""
"","do_trial","132","669515","0.0-76.0-0.0","""event"",""trial"",""time""
""fullscreenenter"",""0"",""4249""
","
","
","""event"",""trial"",""time""
""fullscreenenter"",""0"",""4249""
","
","600.5","","","","","","","","50","1,0,0","0","mountain","22","probe-17","0.6470297714172107","0.11612025334548749","0.0673363680482849","0","","","","","","","",""
"","html-keyboard-response","133","670528","0.0-76.0-1.0","""event"",""trial"",""time""
""fullscreenenter"",""0"",""4249""
","
","
","""event"",""trial"",""time""
""fullscreenenter"",""0"",""4249""
","
","null","<p></p>","null","","","","","","","","","","","","","","","","","","","","","","",""
"","do_trial","134","675528","0.0-77.0-0.0","""event"",""trial"",""time""
""fullscreenenter"",""0"",""4249""
","
","
","""event"",""trial"",""time""
""fullscreenenter"",""0"",""4249""
","
","433.2000000011176","","","","","","","","50","1,1,0","0","mountain","23","probe-38","0.5498743666542495","0.08975597130663118","0.11925854504809513","1","","","","","","","",""
"","html-keyboard-response","135","676544","0.0-77.0-1.0","""event"",""trial"",""time""
""fullscreenenter"",""0"",""4249""
","
","
","""event"",""trial"",""time""
""fullscreenenter"",""0"",""4249""
","
","null","<p></p>","null","","","","","","","","","","","","","","","","","","","","","","",""
"","do_trial","136","681775","0.0-78.0-0.0","""event"",""trial"",""time""
""fullscreenenter"",""0"",""4249""
","
","
","""event"",""trial"",""time""
""fullscreenenter"",""0"",""4249""
","
","672.3000000007451","","","","","","","","50","1,0,0","0","mountain","24","probe-23","0.41245739779711926","0.20421334740996566","0.12545810197256202","0","","","","","","","",""
"","html-keyboard-response","137","682777","0.0-78.0-1.0","""event"",""trial"",""time""
""fullscreenenter"",""0"",""4249""
","
","
","""event"",""trial"",""time""
""fullscreenenter"",""0"",""4249""
","
","null","<p></p>","null","","","","","","","","","","","","","","","","","","","","","","",""
"","do_trial","138","687957","0.0-79.0-0.0","""event"",""trial"",""time""
""fullscreenenter"",""0"",""4249""
","
","
","""event"",""trial"",""time""
""fullscreenenter"",""0"",""4249""
","
","618","","","","","","","","51","1,0,0","0","mountain","25","probe-69","0.4569897794367111","0.13067765630141104","0.09809319682906872","0","","","","","","","",""
"","html-keyboard-response","139","688973","0.0-79.0-1.0","""event"",""trial"",""time""
""fullscreenenter"",""0"",""4249""
","
","
","""event"",""trial"",""time""
""fullscreenenter"",""0"",""4249""
","
","null","<p></p>","null","","","","","","","","","","","","","","","","","","","","","","",""
"","do_trial","140","694173","0.0-80.0-0.0","""event"",""trial"",""time""
""fullscreenenter"",""0"",""4249""
","
","
","""event"",""trial"",""time""
""fullscreenenter"",""0"",""4249""
","
","640.1999999992549","","","","","","","","51","0,1,0","0","mountain","26","probe-204","0.3739625670762677","0.26736812433344176","0.11451405936541403","0","","","","","","","",""
"","html-keyboard-response","141","695187","0.0-80.0-1.0","""event"",""trial"",""time""
""fullscreenenter"",""0"",""4249""
","
","
","""event"",""trial"",""time""
""fullscreenenter"",""0"",""4249""
","
","null","<p></p>","null","","","","","","","","","","","","","","","","","","","","","","",""
"","do_trial","142","700154","0.0-81.0-0.0","""event"",""trial"",""time""
""fullscreenenter"",""0"",""4249""
","
","
","""event"",""trial"",""time""
""fullscreenenter"",""0"",""4249""
","
","399.19999999925494","","","","","","","","49","0,1,1","0","mountain","27","probe-175","0.44288918981514896","0.28064060826534315","0.17135000178606757","0","","","","","","","",""
"","html-keyboard-response","143","701168","0.0-81.0-1.0","""event"",""trial"",""time""
""fullscreenenter"",""0"",""4249""
","
","
","""event"",""trial"",""time""
""fullscreenenter"",""0"",""4249""
","
","null","<p></p>","null","","","","","","","","","","","","","","","","","","","","","","",""
"","do_trial","144","706838","0.0-82.0-0.0","""event"",""trial"",""time""
""fullscreenenter"",""0"",""4249""
","
","
","""event"",""trial"",""time""
""fullscreenenter"",""0"",""4249""
","
","1111.9000000003725","","","","","","","","50","0,0,1","0","mountain","28","probe-40","0.5040921296991957","0.23776525578359015","0.13329169368744442","0","","","","","","","",""
"","html-keyboard-response","145","707849","0.0-82.0-1.0","""event"",""trial"",""time""
""fullscreenenter"",""0"",""4249""
","
","
","""event"",""trial"",""time""
""fullscreenenter"",""0"",""4249""
","
","null","<p></p>","null","","","","","","","","","","","","","","","","","","","","","","",""
"","do_trial","146","714630","0.0-83.0-0.0","""event"",""trial"",""time""
""fullscreenenter"",""0"",""4249""
","
","
","""event"",""trial"",""time""
""fullscreenenter"",""0"",""4249""
","
","2222.60000000149","","","","","","","","49","1,1,1","0","mountain","29","probe-187","0.6260975319011693","0.23449163579717996","0.2987343313092532","1","","","","","","","",""
"","html-keyboard-response","147","715647","0.0-83.0-1.0","""event"",""trial"",""time""
""fullscreenenter"",""0"",""4249""
","
","
","""event"",""trial"",""time""
""fullscreenenter"",""0"",""4249""
","
","null","<p></p>","null","","","","","","","","","","","","","","","","","","","","","","",""
"","do_bye","148","717161","0.0-84.0-0.0","""event"",""trial"",""time""
""fullscreenenter"",""0"",""4249""
","
","
","""event"",""trial"",""time""
""fullscreenenter"",""0"",""4249""
","
","null","","","","","","","","null","","","","","","","","","","","","","","","","",""
"","break","149","720206","0.0-84.0-1.0","""event"",""trial"",""time""
""fullscreenenter"",""0"",""4249""
","
","
","""event"",""trial"",""time""
""fullscreenenter"",""0"",""4249""
","
","3043.2000000011176","<div class='center'><p>Time to take a quick break! You have 2 minutes to rest, but you can move on sooner if you'd like.</p><p> Press the <b>space bar</b> to continue.</p></div>","32","","","","","","","","","","","","","","","","","","","","","","",""
"","do_travel","150","729210","0.0-85.0-0.0","""event"",""trial"",""time""
""fullscreenenter"",""0"",""4249""
","
","
","""event"",""trial"",""time""
""fullscreenenter"",""0"",""4249""
","
","null","","","","","","","","null","","","","","","","","","","","","","","","","",""
"","do_welcome","151","733220","0.0-85.0-1.0","""event"",""trial"",""time""
""fullscreenenter"",""0"",""4249""
","
","
","""event"",""trial"",""time""
""fullscreenenter"",""0"",""4249""
","
","null","","","","","","","","null","","","","","","","","","","","","","","","","",""
"","do_trial","152","739590","0.0-86.0-0.0","""event"",""trial"",""time""
""fullscreenenter"",""0"",""4249""
","
","
","""event"",""trial"",""time""
""fullscreenenter"",""0"",""4249""
","
","1797.800000000745","","","","","","","","49","1,0,0","1","coast","30","probe-85","1","0.2379518002178613","0.3325747841288447","1","","","","","","","",""
"","html-keyboard-response","153","740610","0.0-86.0-1.0","""event"",""trial"",""time""
""fullscreenenter"",""0"",""4249""
","
","
","""event"",""trial"",""time""
""fullscreenenter"",""0"",""4249""
","
","null","<p></p>","null","","","","","","","","","","","","","","","","","","","","","","",""
"","do_trial","154","745768","0.0-87.0-0.0","""event"",""trial"",""time""
""fullscreenenter"",""0"",""4249""
","
","
","""event"",""trial"",""time""
""fullscreenenter"",""0"",""4249""
","
","590.7999999988824","","","","","","","","49","1,0,0","1","coast","31","probe-189","1","0.22855193834680507","0.29498123195035303","1","","","","","","","",""
"","html-keyboard-response","155","746786","0.0-87.0-1.0","""event"",""trial"",""time""
""fullscreenenter"",""0"",""4249""
","
","
","""event"",""trial"",""time""
""fullscreenenter"",""0"",""4249""
","
","null","<p></p>","null","","","","","","","","","","","","","","","","","","","","","","",""
"","do_trial","156","752171","0.0-88.0-0.0","""event"",""trial"",""time""
""fullscreenenter"",""0"",""4249""
","
","
","""event"",""trial"",""time""
""fullscreenenter"",""0"",""4249""
","
","828.8999999985099","","","","","","","","49","1,1,0","1","coast","32","probe-51","1","0.4686835588872865","0.3532209053786188","1","","","","","","","",""
"","html-keyboard-response","157","753184","0.0-88.0-1.0","""event"",""trial"",""time""
""fullscreenenter"",""0"",""4249""
","
","
","""event"",""trial"",""time""
""fullscreenenter"",""0"",""4249""
","
","null","<p></p>","null","","","","","","","","","","","","","","","","","","","","","","",""
"","do_trial","158","759033","0.0-89.0-0.0","""event"",""trial"",""time""
""fullscreenenter"",""0"",""4249""
","
","
","""event"",""trial"",""time""
""fullscreenenter"",""0"",""4249""
","
","1285","","","","","","","","49","1,0,1","1","coast","33","probe-12","0.8728399699733208","0.36298715133634024","0.19224765834929966","1","","","","","","","",""
"","html-keyboard-response","159","760049","0.0-89.0-1.0","""event"",""trial"",""time""
""fullscreenenter"",""0"",""4249""
","
","
","""event"",""trial"",""time""
""fullscreenenter"",""0"",""4249""
","
","null","<p></p>","null","","","","","","","","","","","","","","","","","","","","","","",""
"","do_trial","160","765312","0.0-90.0-0.0","""event"",""trial"",""time""
""fullscreenenter"",""0"",""4249""
","
","
","""event"",""trial"",""time""
""fullscreenenter"",""0"",""4249""
","
","702.0999999996275","","","","","","","","49","1,0,0","1","coast","34","probe-138","0.7612680096067151","0.26866421432377285","0.09666136324697114","1","","","","","","","",""
"","html-keyboard-response","161","766328","0.0-90.0-1.0","""event"",""trial"",""time""
""fullscreenenter"",""0"",""4249""
","
","
","""event"",""trial"",""time""
""fullscreenenter"",""0"",""4249""
","
","null","<p></p>","null","","","","","","","","","","","","","","","","","","","","","","",""
"","do_trial","162","771328","0.0-91.0-0.0","""event"",""trial"",""time""
""fullscreenenter"",""0"",""4249""
","
","
","""event"",""trial"",""time""
""fullscreenenter"",""0"",""4249""
","
","439.69999999925494","","","","","","","","49","0,0,0","1","coast","35","probe-209","0.5998378901855308","0.27877252514659806","0.08618890981091953","0","","","","","","","",""
"","html-keyboard-response","163","772344","0.0-91.0-1.0","""event"",""trial"",""time""
""fullscreenenter"",""0"",""4249""
","
","
","""event"",""trial"",""time""
""fullscreenenter"",""0"",""4249""
","
","null","<p></p>","null","","","","","","","","","","","","","","","","","","","","","","",""
"","do_trial","164","777242","0.0-92.0-0.0","""event"",""trial"",""time""
""fullscreenenter"",""0"",""4249""
","
","
","""event"",""trial"",""time""
""fullscreenenter"",""0"",""4249""
","
","328.7000000011176","","","","","","","","49","1,0,0","1","coast","36","probe-169","0.7553560879547588","0.33972864454452284","0.13386903234180372","1","","","","","","","",""
"","html-keyboard-response","165","778259","0.0-92.0-1.0","""event"",""trial"",""time""
""fullscreenenter"",""0"",""4249""
","
","
","""event"",""trial"",""time""
""fullscreenenter"",""0"",""4249""
","
","null","<p></p>","null","","","","","","","","","","","","","","","","","","","","","","",""
"","do_trial","166","783174","0.0-93.0-0.0","""event"",""trial"",""time""
""fullscreenenter"",""0"",""4249""
","
","
","""event"",""trial"",""time""
""fullscreenenter"",""0"",""4249""
","
","353.40000000037253","","","","","","","","49","1,1,0","1","coast","37","probe-73","0.7291064468303498","0.3651688809322611","0.06550627904979354","1","","","","","","","",""
"","html-keyboard-response","167","784191","0.0-93.0-1.0","""event"",""trial"",""time""
""fullscreenenter"",""0"",""4249""
","
","
","""event"",""trial"",""time""
""fullscreenenter"",""0"",""4249""
","
","null","<p></p>","null","","","","","","","","","","","","","","","","","","","","","","",""
"","do_trial","168","790322","0.0-94.0-0.0","""event"",""trial"",""time""
""fullscreenenter"",""0"",""4249""
","
","
","""event"",""trial"",""time""
""fullscreenenter"",""0"",""4249""
","
","1565.7999999988824","","","","","","","","49","0,0,0","1","coast","38","probe-163","0.6332680309245253","0.3817576737707868","0.11969935503943578","0","","","","","","","",""
"","html-keyboard-response","169","791338","0.0-94.0-1.0","""event"",""trial"",""time""
""fullscreenenter"",""0"",""4249""
","
","
","""event"",""trial"",""time""
""fullscreenenter"",""0"",""4249""
","
","null","<p></p>","null","","","","","","","","","","","","","","","","","","","","","","",""
"","do_trial","170","797037","0.0-95.0-0.0","""event"",""trial"",""time""
""fullscreenenter"",""0"",""4249""
","
","
","""event"",""trial"",""time""
""fullscreenenter"",""0"",""4249""
","
","1144.199999999255","","","","","","","","49","1,0,0","1","coast","39","probe-63","0.6434531725762104","0.2317123455194559","0.06347120023582214","1","","","","","","","",""
"","html-keyboard-response","171","798052","0.0-95.0-1.0","""event"",""trial"",""time""
""fullscreenenter"",""0"",""4249""
","
","
","""event"",""trial"",""time""
""fullscreenenter"",""0"",""4249""
","
","null","<p></p>","null","","","","","","","","","","","","","","","","","","","","","","",""
"","do_trial","172","803671","0.0-96.0-0.0","""event"",""trial"",""time""
""fullscreenenter"",""0"",""4249""
","
","
","""event"",""trial"",""time""
""fullscreenenter"",""0"",""4249""
","
","1049.800000000745","","","","","","","","49","1,0,0","1","coast","40","probe-115","0.650823226550298","0.3745393056729565","0.08372779238144139","1","","","","","","","",""
"","html-keyboard-response","173","804683","0.0-96.0-1.0","""event"",""trial"",""time""
""fullscreenenter"",""0"",""4249""
","
","
","""event"",""trial"",""time""
""fullscreenenter"",""0"",""4249""
","
","null","<p></p>","null","","","","","","","","","","","","","","","","","","","","","","",""
"","do_trial","174","811932","0.0-97.0-0.0","""event"",""trial"",""time""
""fullscreenenter"",""0"",""4249""
","
","
","""event"",""trial"",""time""
""fullscreenenter"",""0"",""4249""
","
","2689.199999999255","","","","","","","","49","1,0,0","1","coast","41","probe-111","0.5804712408227912","0.41081476801718525","0.20714039179582572","1","","","","","","","",""
"","html-keyboard-response","175","812947","0.0-97.0-1.0","""event"",""trial"",""time""
""fullscreenenter"",""0"",""4249""
","
","
","""event"",""trial"",""time""
""fullscreenenter"",""0"",""4249""
","
","null","<p></p>","null","","","","","","","","","","","","","","","","","","","","","","",""
"","do_trial","176","819029","0.0-98.0-0.0","""event"",""trial"",""time""
""fullscreenenter"",""0"",""4249""
","
","
","""event"",""trial"",""time""
""fullscreenenter"",""0"",""4249""
","
","null","","","","","","","","null","1,0,1","1","coast","42","probe-01","0.38198807136766405","0.14108036722784623","0.32041399882310545","","","","","","","","",""
"","html-keyboard-response","177","820046","0.0-98.0-1.0","""event"",""trial"",""time""
""fullscreenenter"",""0"",""4249""
","
","
","""event"",""trial"",""time""
""fullscreenenter"",""0"",""4249""
","
","null","<p></p>","null","","","","","","","","","","","","","","","","","","","","","","",""
"","do_trial","178","825101","0.0-99.0-0.0","""event"",""trial"",""time""
""fullscreenenter"",""0"",""4249""
","
","
","""event"",""trial"",""time""
""fullscreenenter"",""0"",""4249""
","
","490.5","","","","","","","","49","0,0,0","1","coast","43","probe-176","0.25477734614690617","0.12237926144819186","0.4140239877154845","0","","","","","","","",""
"","html-keyboard-response","179","826111","0.0-99.0-1.0","""event"",""trial"",""time""
""fullscreenenter"",""0"",""4249""
","
","
","""event"",""trial"",""time""
""fullscreenenter"",""0"",""4249""
","
","null","<p></p>","null","","","","","","","","","","","","","","","","","","","","","","",""
"","do_trial","180","831075","0.0-100.0-0.0","""event"",""trial"",""time""
""fullscreenenter"",""0"",""4249""
","
","
","""event"",""trial"",""time""
""fullscreenenter"",""0"",""4249""
","
","404.30000000074506","","","","","","","","49","1,1,1","1","coast","44","probe-89","0.35994562765465177","0.16768776184816436","0.45567022021227","1","","","","","","","",""
"","html-keyboard-response","181","832090","0.0-100.0-1.0","""event"",""trial"",""time""
""fullscreenenter"",""0"",""4249""
","
","
","""event"",""trial"",""time""
""fullscreenenter"",""0"",""4249""
","
","null","<p></p>","null","","","","","","","","","","","","","","","","","","","","","","",""
"","do_trial","182","837090","0.0-101.0-0.0","""event"",""trial"",""time""
""fullscreenenter"",""0"",""4249""
","
","
","""event"",""trial"",""time""
""fullscreenenter"",""0"",""4249""
","
","440.40000000037253","","","","","","","","49","1,0,0","1","coast","45","probe-200","0.288739778311747","0.06181734638903898","0.6663002614413099","1","","","","","","","",""
"","html-keyboard-response","183","838105","0.0-101.0-1.0","""event"",""trial"",""time""
""fullscreenenter"",""0"",""4249""
","
","
","""event"",""trial"",""time""
""fullscreenenter"",""0"",""4249""
","
","null","<p></p>","null","","","","","","","","","","","","","","","","","","","","","","",""
"","do_trial","184","842939","0.0-102.0-0.0","""event"",""trial"",""time""
""fullscreenenter"",""0"",""4249""
","
","
","""event"",""trial"",""time""
""fullscreenenter"",""0"",""4249""
","
","278.5","","","","","","","","49","1,0,1","1","coast","46","probe-88","0.35709720393882494","0.21140483289861198","0.6467128855414971","1","","","","","","","",""
"","html-keyboard-response","185","843953","0.0-102.0-1.0","""event"",""trial"",""time""
""fullscreenenter"",""0"",""4249""
","
","
","""event"",""trial"",""time""
""fullscreenenter"",""0"",""4249""
","
","null","<p></p>","null","","","","","","","","","","","","","","","","","","","","","","",""
"","do_trial","186","850286","0.0-103.0-0.0","""event"",""trial"",""time""
""fullscreenenter"",""0"",""4249""
","
","
","""event"",""trial"",""time""
""fullscreenenter"",""0"",""4249""
","
","1777.0999999996275","","","","","","","","49","1,0,1","1","coast","47","probe-29","0.39774549466173026","0.19011587944193578","0.672066519989545","1","","","","","","","",""
"","html-keyboard-response","187","851301","0.0-103.0-1.0","""event"",""trial"",""time""
""fullscreenenter"",""0"",""4249""
","
","
","""event"",""trial"",""time""
""fullscreenenter"",""0"",""4249""
","
","null","<p></p>","null","","","","","","","","","","","","","","","","","","","","","","",""
"","do_trial","188","856834","0.0-104.0-0.0","""event"",""trial"",""time""
""fullscreenenter"",""0"",""4249""
","
","
","""event"",""trial"",""time""
""fullscreenenter"",""0"",""4249""
","
","972.4000000003725","","","","","","","","49","0,0,1","1","coast","48","probe-65","0.3466157180151987","0.10956307958198766","0.6302757077295654","0","","","","","","","",""
"","html-keyboard-response","189","857848","0.0-104.0-1.0","""event"",""trial"",""time""
""fullscreenenter"",""0"",""4249""
","
","
","""event"",""trial"",""time""
""fullscreenenter"",""0"",""4249""
","
","null","<p></p>","null","","","","","","","","","","","","","","","","","","","","","","",""
"","do_trial","190","862715","0.0-105.0-0.0","""event"",""trial"",""time""
""fullscreenenter"",""0"",""4249""
","
","
","""event"",""trial"",""time""
""fullscreenenter"",""0"",""4249""
","
","307.40000000037253","","","","","","","","49","0,0,1","1","coast","49","probe-221","0.4471609867813246","0.18215778713552877","0.6636816507642779","0","","","","","","","",""
"","html-keyboard-response","191","863732","0.0-105.0-1.0","""event"",""trial"",""time""
""fullscreenenter"",""0"",""4249""
","
","
","""event"",""trial"",""time""
""fullscreenenter"",""0"",""4249""
","
","null","<p></p>","null","","","","","","","","","","","","","","","","","","","","","","",""
"","do_trial","192","868764","0.0-106.0-0.0","""event"",""trial"",""time""
""fullscreenenter"",""0"",""4249""
","
","
","""event"",""trial"",""time""
""fullscreenenter"",""0"",""4249""
","
","470.90000000037253","","","","","","","","49","0,0,0","1","coast","50","probe-105","0.1718889781148322","0.09329922339855154","0.6756416258750413","0","","","","","","","",""
"","html-keyboard-response","193","869778","0.0-106.0-1.0","""event"",""trial"",""time""
""fullscreenenter"",""0"",""4249""
","
","
","""event"",""trial"",""time""
""fullscreenenter"",""0"",""4249""
","
","null","<p></p>","null","","","","","","","","","","","","","","","","","","","","","","",""
"","do_trial","194","874794","0.0-107.0-0.0","""event"",""trial"",""time""
""fullscreenenter"",""0"",""4249""
","
","
","""event"",""trial"",""time""
""fullscreenenter"",""0"",""4249""
","
","452.7999999988824","","","","","","","","49","0,0,1","1","coast","51","probe-135","0.247186925017581","0.09765310280103874","0.8089882261230781","0","","","","","","","",""
"","html-keyboard-response","195","875810","0.0-107.0-1.0","""event"",""trial"",""time""
""fullscreenenter"",""0"",""4249""
","
","
","""event"",""trial"",""time""
""fullscreenenter"",""0"",""4249""
","
","null","<p></p>","null","","","","","","","","","","","","","","","","","","","","","","",""
"","do_trial","196","880708","0.0-108.0-0.0","""event"",""trial"",""time""
""fullscreenenter"",""0"",""4249""
","
","
","""event"",""trial"",""time""
""fullscreenenter"",""0"",""4249""
","
","330.09999999962747","","","","","","","","50","0,0,0","1","coast","52","probe-75","0.24501651926277937","0.06926510430742068","0.687595918579338","0","","","","","","","",""
"","html-keyboard-response","197","881724","0.0-108.0-1.0","""event"",""trial"",""time""
""fullscreenenter"",""0"",""4249""
","
","
","""event"",""trial"",""time""
""fullscreenenter"",""0"",""4249""
","
","null","<p></p>","null","","","","","","","","","","","","","","","","","","","","","","",""
"","do_trial","198","886842","0.0-109.0-0.0","""event"",""trial"",""time""
""fullscreenenter"",""0"",""4249""
","
","
","""event"",""trial"",""time""
""fullscreenenter"",""0"",""4249""
","
","562.2000000011176","","","","","","","","50","0,0,0","1","coast","53","probe-22","0.2682789476229745","0.08449522608149326","0.6847956619814006","0","","","","","","","",""
"","html-keyboard-response","199","887855","0.0-109.0-1.0","""event"",""trial"",""time""
""fullscreenenter"",""0"",""4249""
","
","
","""event"",""trial"",""time""
""fullscreenenter"",""0"",""4249""
","
","null","<p></p>","null","","","","","","","","","","","","","","","","","","","","","","",""
"","do_trial","200","892688","0.0-110.0-0.0","""event"",""trial"",""time""
""fullscreenenter"",""0"",""4249""
","
","
","""event"",""trial"",""time""
""fullscreenenter"",""0"",""4249""
","
","271.80000000074506","","","","","","","","51","0,0,1","1","coast","54","probe-218","0.3328398280723004","0.14923521347876592","0.8865215962337836","1","","","","","","","",""
"","html-keyboard-response","201","893706","0.0-110.0-1.0","""event"",""trial"",""time""
""fullscreenenter"",""0"",""4249""
","
","
","""event"",""trial"",""time""
""fullscreenenter"",""0"",""4249""
","
","null","<p></p>","null","","","","","","","","","","","","","","","","","","","","","","",""
"","do_trial","202","898838","0.0-111.0-0.0","""event"",""trial"",""time""
""fullscreenenter"",""0"",""4249""
","
","
","""event"",""trial"",""time""
""fullscreenenter"",""0"",""4249""
","
","566.1000000014901","","","","","","","","51","0,0,1","1","coast","55","probe-173","0.19130433614156458","0.11507500542579921","0.7061260397620965","1","","","","","","","",""
"","html-keyboard-response","203","899852","0.0-111.0-1.0","""event"",""trial"",""time""
""fullscreenenter"",""0"",""4249""
","
","
","""event"",""trial"",""time""
""fullscreenenter"",""0"",""4249""
","
","null","<p></p>","null","","","","","","","","","","","","","","","","","","","","","","",""
"","do_trial","204","904784","0.0-112.0-0.0","""event"",""trial"",""time""
""fullscreenenter"",""0"",""4249""
","
","
","""event"",""trial"",""time""
""fullscreenenter"",""0"",""4249""
","
","375.19999999925494","","","","","","","","51","0,0,1","1","coast","56","probe-116","0.2700470999134984","0.2505633077121846","0.6642850617140325","1","","","","","","","",""
"","html-keyboard-response","205","905800","0.0-112.0-1.0","""event"",""trial"",""time""
""fullscreenenter"",""0"",""4249""
","
","
","""event"",""trial"",""time""
""fullscreenenter"",""0"",""4249""
","
","null","<p></p>","null","","","","","","","","","","","","","","","","","","","","","","",""
"","do_trial","206","910682","0.0-113.0-0.0","""event"",""trial"",""time""
""fullscreenenter"",""0"",""4249""
","
","
","""event"",""trial"",""time""
""fullscreenenter"",""0"",""4249""
","
","325.40000000037253","","","","","","","","51","0,0,0","1","coast","57","probe-179","0.2547373982421793","0.2752897092243399","0.6345739915326554","0","","","","","","","",""
"","html-keyboard-response","207","911697","0.0-113.0-1.0","""event"",""trial"",""time""
""fullscreenenter"",""0"",""4249""
","
","
","""event"",""trial"",""time""
""fullscreenenter"",""0"",""4249""
","
","null","<p></p>","null","","","","","","","","","","","","","","","","","","","","","","",""
"","do_trial","208","916597","0.0-114.0-0.0","""event"",""trial"",""time""
""fullscreenenter"",""0"",""4249""
","
","
","""event"",""trial"",""time""
""fullscreenenter"",""0"",""4249""
","
","339.90000000037253","","","","","","","","51","0,0,1","1","coast","58","probe-118","0.2546249519462907","0.23769889290792257","0.7445896526777193","1","","","","","","","",""
"","html-keyboard-response","209","917612","0.0-114.0-1.0","""event"",""trial"",""time""
""fullscreenenter"",""0"",""4249""
","
","
","""event"",""trial"",""time""
""fullscreenenter"",""0"",""4249""
","
","null","<p></p>","null","","","","","","","","","","","","","","","","","","","","","","",""
"","do_trial","210","922829","0.0-115.0-0.0","""event"",""trial"",""time""
""fullscreenenter"",""0"",""4249""
","
","
","""event"",""trial"",""time""
""fullscreenenter"",""0"",""4249""
","
","659.3000000007451","","","","","","","","51","0,0,1","1","coast","59","probe-166","0.2073358285062709","0.16481154751276086","0.7830545136189505","1","","","","","","","",""
"","html-keyboard-response","211","923843","0.0-115.0-1.0","""event"",""trial"",""time""
""fullscreenenter"",""0"",""4249""
","
","
","""event"",""trial"",""time""
""fullscreenenter"",""0"",""4249""
","
","null","<p></p>","null","","","","","","","","","","","","","","","","","","","","","","",""
"","do_trial","212","928942","0.0-116.0-0.0","""event"",""trial"",""time""
""fullscreenenter"",""0"",""4249""
","
","
","""event"",""trial"",""time""
""fullscreenenter"",""0"",""4249""
","
","531.2000000011176","","","","","","","","51","1,0,0","1","coast","60","probe-193","0.22077047430115648","0.2310600072253698","0.5696648771330686","0","","","","","","","",""
"","html-keyboard-response","213","929957","0.0-116.0-1.0","""event"",""trial"",""time""
""fullscreenenter"",""0"",""4249""
","
","
","""event"",""trial"",""time""
""fullscreenenter"",""0"",""4249""
","
","null","<p></p>","null","","","","","","","","","","","","","","","","","","","","","","",""
"","do_trial","214","935156","0.0-117.0-0.0","""event"",""trial"",""time""
""fullscreenenter"",""0"",""4249""
","
","
","""event"",""trial"",""time""
""fullscreenenter"",""0"",""4249""
","
","639","","","","","","","","51","1,0,1","1","coast","61","probe-159","0.22029438004433083","0.1495590475590531","0.7280666212190363","1","","","","","","","",""
"","html-keyboard-response","215","936173","0.0-117.0-1.0","""event"",""trial"",""time""
""fullscreenenter"",""0"",""4249""
","
","
","""event"",""trial"",""time""
""fullscreenenter"",""0"",""4249""
","
","null","<p></p>","null","","","","","","","","","","","","","","","","","","","","","","",""
"","do_trial","216","941255","0.0-118.0-0.0","""event"",""trial"",""time""
""fullscreenenter"",""0"",""4249""
","
","
","""event"",""trial"",""time""
""fullscreenenter"",""0"",""4249""
","
","519.8000000007451","","","","","","","","51","0,0,1","1","coast","62","probe-172","0.22397494060810452","0.06080415174477329","0.6080565590339506","1","","","","","","","",""
"","html-keyboard-response","217","942270","0.0-118.0-1.0","""event"",""trial"",""time""
""fullscreenenter"",""0"",""4249""
","
","
","""event"",""trial"",""time""
""fullscreenenter"",""0"",""4249""
","
","null","<p></p>","null","","","","","","","","","","","","","","","","","","","","","","",""
"","do_trial","218","947836","0.0-119.0-0.0","""event"",""trial"",""time""
""fullscreenenter"",""0"",""4249""
","
","
","""event"",""trial"",""time""
""fullscreenenter"",""0"",""4249""
","
","1005","","","","","","","","51","0,0,1","1","coast","63","probe-131","0.1952078539107997","0.1441955334147655","0.6354143790874625","1","","","","","","","",""
"","html-keyboard-response","219","948852","0.0-119.0-1.0","""event"",""trial"",""time""
""fullscreenenter"",""0"",""4249""
","
","
","""event"",""trial"",""time""
""fullscreenenter"",""0"",""4249""
","
","null","<p></p>","null","","","","","","","","","","","","","","","","","","","","","","",""
"","do_trial","220","953551","0.0-120.0-0.0","""event"",""trial"",""time""
""fullscreenenter"",""0"",""4249""
","
","
","""event"",""trial"",""time""
""fullscreenenter"",""0"",""4249""
","
","138.7999999988824","","","","","","","","49","0,0,1","1","coast","64","probe-26","0.35134199162863583","0.07648219610967429","0.6747663206055651","0","","","","","","","",""
"","html-keyboard-response","221","954565","0.0-120.0-1.0","""event"",""trial"",""time""
""fullscreenenter"",""0"",""4249""
","
","
","""event"",""trial"",""time""
""fullscreenenter"",""0"",""4249""
","
","null","<p></p>","null","","","","","","","","","","","","","","","","","","","","","","",""
"","do_trial","222","959499","0.0-121.0-0.0","""event"",""trial"",""time""
""fullscreenenter"",""0"",""4249""
","
","
","""event"",""trial"",""time""
""fullscreenenter"",""0"",""4249""
","
","367.7999999988824","","","","","","","","49","0,0,0","1","coast","65","probe-77","0.2875282960553977","0.06194217157423089","0.7146000550626243","0","","","","","","","",""
"","html-keyboard-response","223","960514","0.0-121.0-1.0","""event"",""trial"",""time""
""fullscreenenter"",""0"",""4249""
","
","
","""event"",""trial"",""time""
""fullscreenenter"",""0"",""4249""
","
","null","<p></p>","null","","","","","","","","","","","","","","","","","","","","","","",""
"","do_trial","224","965414","0.0-122.0-0.0","""event"",""trial"",""time""
""fullscreenenter"",""0"",""4249""
","
","
","""event"",""trial"",""time""
""fullscreenenter"",""0"",""4249""
","
","343.1000000014901","","","","","","","","49","0,1,1","1","coast","66","probe-133","0.2920351621865788","0.15600326591799124","0.5806922031678178","0","","","","","","","",""
"","html-keyboard-response","225","966428","0.0-122.0-1.0","""event"",""trial"",""time""
""fullscreenenter"",""0"",""4249""
","
","
","""event"",""trial"",""time""
""fullscreenenter"",""0"",""4249""
","
","null","<p></p>","null","","","","","","","","","","","","","","","","","","","","","","",""
"","do_trial","226","971295","0.0-123.0-0.0","""event"",""trial"",""time""
""fullscreenenter"",""0"",""4249""
","
","
","""event"",""trial"",""time""
""fullscreenenter"",""0"",""4249""
","
","299.5","","","","","","","","51","0,0,1","1","coast","67","probe-134","0.2491286583508299","0.0518090866989675","0.5864366243912861","1","","","","","","","",""
"","html-keyboard-response","227","972311","0.0-123.0-1.0","""event"",""trial"",""time""
""fullscreenenter"",""0"",""4249""
","
","
","""event"",""trial"",""time""
""fullscreenenter"",""0"",""4249""
","
","null","<p></p>","null","","","","","","","","","","","","","","","","","","","","","","",""
"","do_trial","228","978027","0.0-124.0-0.0","""event"",""trial"",""time""
""fullscreenenter"",""0"",""4249""
","
","
","""event"",""trial"",""time""
""fullscreenenter"",""0"",""4249""
","
","1161.300000000745","","","","","","","","51","0,0,1","1","coast","68","probe-30","0.18218301210120708","0.08040369368828182","0.5629072219047019","1","","","","","","","",""
"","html-keyboard-response","229","979040","0.0-124.0-1.0","""event"",""trial"",""time""
""fullscreenenter"",""0"",""4249""
","
","
","""event"",""trial"",""time""
""fullscreenenter"",""0"",""4249""
","
","null","<p></p>","null","","","","","","","","","","","","","","","","","","","","","","",""
"","do_trial","230","984143","0.0-125.0-0.0","""event"",""trial"",""time""
""fullscreenenter"",""0"",""4249""
","
","
","""event"",""trial"",""time""
""fullscreenenter"",""0"",""4249""
","
","546","","","","","","","","51","0,0,1","1","coast","69","probe-53","0.25031771213548387","0.17622457834737965","0.5229851818008311","1","","","","","","","",""
"","html-keyboard-response","231","985156","0.0-125.0-1.0","""event"",""trial"",""time""
""fullscreenenter"",""0"",""4249""
","
","
","""event"",""trial"",""time""
""fullscreenenter"",""0"",""4249""
","
","null","<p></p>","null","","","","","","","","","","","","","","","","","","","","","","",""
"","do_bye","232","986667","0.0-126.0-0.0","""event"",""trial"",""time""
""fullscreenenter"",""0"",""4249""
","
","
","""event"",""trial"",""time""
""fullscreenenter"",""0"",""4249""
","
","null","","","","","","","","null","","","","","","","","","","","","","","","","",""
"","break","233","1004967","0.0-126.0-1.0","""event"",""trial"",""time""
""fullscreenenter"",""0"",""4249""
","
","
","""event"",""trial"",""time""
""fullscreenenter"",""0"",""4249""
","
","18298.5","<div class='center'><p>Time to take a quick break! You have 2 minutes to rest, but you can move on sooner if you'd like.</p><p> Press the <b>space bar</b> to continue.</p></div>","32","","","","","","","","","","","","","","","","","","","","","","",""
"","do_travel","234","1013988","0.0-127.0-0.0","""event"",""trial"",""time""
""fullscreenenter"",""0"",""4249""
","
","
","""event"",""trial"",""time""
""fullscreenenter"",""0"",""4249""
","
","null","","","","","","","","null","","","","","","","","","","","","","","","","",""
"","do_welcome","235","1018008","0.0-127.0-1.0","""event"",""trial"",""time""
""fullscreenenter"",""0"",""4249""
","
","
","""event"",""trial"",""time""
""fullscreenenter"",""0"",""4249""
","
","null","","","","","","","","null","","","","","","","","","","","","","","","","",""
"","do_trial","236","1023928","0.0-128.0-0.0","""event"",""trial"",""time""
""fullscreenenter"",""0"",""4249""
","
","
","""event"",""trial"",""time""
""fullscreenenter"",""0"",""4249""
","
","1349.8999999985099","","","","","","","","49","0,1,1","2","city","70","probe-49","0.3185142914594673","0.16425704148046777","1","0","","","","","","","",""
"","html-keyboard-response","237","1024948","0.0-128.0-1.0","""event"",""trial"",""time""
""fullscreenenter"",""0"",""4249""
","
","
","""event"",""trial"",""time""
""fullscreenenter"",""0"",""4249""
","
","null","<p></p>","null","","","","","","","","","","","","","","","","","","","","","","",""
"","do_trial","238","1030100","0.0-129.0-0.0","""event"",""trial"",""time""
""fullscreenenter"",""0"",""4249""
","
","
","""event"",""trial"",""time""
""fullscreenenter"",""0"",""4249""
","
","593.0999999996275","","","","","","","","49","1,0,1","2","city","71","probe-182","0.34996733644227496","0.14261710049861814","1","1","","","","","","","",""
"","html-keyboard-response","239","1031102","0.0-129.0-1.0","""event"",""trial"",""time""
""fullscreenenter"",""0"",""4249""
","
","
","""event"",""trial"",""time""
""fullscreenenter"",""0"",""4249""
","
","null","<p></p>","null","","","","","","","","","","","","","","","","","","","","","","",""
"","do_trial","240","1036021","0.0-130.0-0.0","""event"",""trial"",""time""
""fullscreenenter"",""0"",""4249""
","
","
","""event"",""trial"",""time""
""fullscreenenter"",""0"",""4249""
","
","349.2000000011176","","","","","","","","49","0,0,0","2","city","72","probe-32","0.3653569747328198","0.08699139382638466","0.8118414245872466","0","","","","","","","",""
"","html-keyboard-response","241","1037037","0.0-130.0-1.0","""event"",""trial"",""time""
""fullscreenenter"",""0"",""4249""
","
","
","""event"",""trial"",""time""
""fullscreenenter"",""0"",""4249""
","
","null","<p></p>","null","","","","","","","","","","","","","","","","","","","","","","",""
"","do_trial","242","1042036","0.0-131.0-0.0","""event"",""trial"",""time""
""fullscreenenter"",""0"",""4249""
","
","
","""event"",""trial"",""time""
""fullscreenenter"",""0"",""4249""
","
","441.2999999988824","","","","","","","","49","1,0,0","2","city","73","probe-28","0.35610992530322627","0.08843322222927819","0.7162277956240779","1","","","","","","","",""
"","html-keyboard-response","243","1043053","0.0-131.0-1.0","""event"",""trial"",""time""
""fullscreenenter"",""0"",""4249""
","
","
","""event"",""trial"",""time""
""fullscreenenter"",""0"",""4249""
","
","null","<p></p>","null","","","","","","","","","","","","","","","","","","","","","","",""
"","do_trial","244","1048019","0.0-132.0-0.0","""event"",""trial"",""time""
""fullscreenenter"",""0"",""4249""
","
","
","""event"",""trial"",""time""
""fullscreenenter"",""0"",""4249""
","
","405.19999999925494","","","","","","","","49","1,0,0","2","city","74","probe-31","0.41151264140152327","0.08999645214685491","0.63618320141578","1","","","","","","","",""
"","html-keyboard-response","245","1049034","0.0-132.0-1.0","""event"",""trial"",""time""
""fullscreenenter"",""0"",""4249""
","
","
","""event"",""trial"",""time""
""fullscreenenter"",""0"",""4249""
","
","null","<p></p>","null","","","","","","","","","","","","","","","","","","","","","","",""
"","do_trial","246","1054249","0.0-133.0-0.0","""event"",""trial"",""time""
""fullscreenenter"",""0"",""4249""
","
","
","""event"",""trial"",""time""
""fullscreenenter"",""0"",""4249""
","
","654.6000000014901","","","","","","","","49","0,0,1","2","city","75","probe-220","0.41278116069859877","0.18417556913763392","0.5737320874129042","0","","","","","","","",""
"","html-keyboard-response","247","1055264","0.0-133.0-1.0","""event"",""trial"",""time""
""fullscreenenter"",""0"",""4249""
","
","
","""event"",""trial"",""time""
""fullscreenenter"",""0"",""4249""
","
","null","<p></p>","null","","","","","","","","","","","","","","","","","","","","","","",""
"","do_trial","248","1060534","0.0-134.0-0.0","""event"",""trial"",""time""
""fullscreenenter"",""0"",""4249""
","
","
","""event"",""trial"",""time""
""fullscreenenter"",""0"",""4249""
","
","714.9000000003725","","","","","","","","49","0,0,0","2","city","76","probe-79","0.3168786848869057","0.08812698240253998","0.5720936876547106","0","","","","","","","",""
"","html-keyboard-response","249","1061547","0.0-134.0-1.0","""event"",""trial"",""time""
""fullscreenenter"",""0"",""4249""
","
","
","""event"",""trial"",""time""
""fullscreenenter"",""0"",""4249""
","
","null","<p></p>","null","","","","","","","","","","","","","","","","","","","","","","",""
"","do_trial","250","1066397","0.0-135.0-0.0","""event"",""trial"",""time""
""fullscreenenter"",""0"",""4249""
","
","
","""event"",""trial"",""time""
""fullscreenenter"",""0"",""4249""
","
","291.90000000037253","","","","","","","","51","0,0,0","2","city","77","probe-107","0.34352840591977946","0.14244178477483033","0.5515766726907242","0","","","","","","","",""
"","html-keyboard-response","251","1067412","0.0-135.0-1.0","""event"",""trial"",""time""
""fullscreenenter"",""0"",""4249""
","
","
","""event"",""trial"",""time""
""fullscreenenter"",""0"",""4249""
","
","null","<p></p>","null","","","","","","","","","","","","","","","","","","","","","","",""
"","do_trial","252","1072561","0.0-136.0-0.0","""event"",""trial"",""time""
""fullscreenenter"",""0"",""4249""
","
","
","""event"",""trial"",""time""
""fullscreenenter"",""0"",""4249""
","
","583.5999999996275","","","","","","","","51","0,0,0","2","city","78","probe-141","0.39667288096535475","0.18193075478303958","0.5532981057549202","0","","","","","","","",""
"","html-keyboard-response","253","1073564","0.0-136.0-1.0","""event"",""trial"",""time""
""fullscreenenter"",""0"",""4249""
","
","
","""event"",""trial"",""time""
""fullscreenenter"",""0"",""4249""
","
","null","<p></p>","null","","","","","","","","","","","","","","","","","","","","","","",""
"","do_trial","254","1078910","0.0-137.0-0.0","""event"",""trial"",""time""
""fullscreenenter"",""0"",""4249""
","
","
","""event"",""trial"",""time""
""fullscreenenter"",""0"",""4249""
","
","787.0999999996275","","","","","","","","51","0,1,1","2","city","79","probe-158","0.3854686986018221","0.20836399048970408","0.48820831045428154","1","","","","","","","",""
"","html-keyboard-response","255","1079925","0.0-137.0-1.0","""event"",""trial"",""time""
""fullscreenenter"",""0"",""4249""
","
","
","""event"",""trial"",""time""
""fullscreenenter"",""0"",""4249""
","
","null","<p></p>","null","","","","","","","","","","","","","","","","","","","","","","",""
"","do_trial","256","1084808","0.0-138.0-0.0","""event"",""trial"",""time""
""fullscreenenter"",""0"",""4249""
","
","
","""event"",""trial"",""time""
""fullscreenenter"",""0"",""4249""
","
","319.40000000037253","","","","","","","","51","0,1,0","2","city","80","probe-185","0.36721306148571303","0.26337491784594874","0.3987732250569882","0","","","","","","","",""
"","html-keyboard-response","257","1085824","0.0-138.0-1.0","""event"",""trial"",""time""
""fullscreenenter"",""0"",""4249""
","
","
","""event"",""trial"",""time""
""fullscreenenter"",""0"",""4249""
","
","null","<p></p>","null","","","","","","","","","","","","","","","","","","","","","","",""
"","do_trial","258","1090672","0.0-139.0-0.0","""event"",""trial"",""time""
""fullscreenenter"",""0"",""4249""
","
","
","""event"",""trial"",""time""
""fullscreenenter"",""0"",""4249""
","
","293.90000000037253","","","","","","","","50","0,1,1","2","city","81","probe-02","0.3874954225333936","0.29280316290922415","0.42826508926842954","1","","","","","","","",""
"","html-keyboard-response","259","1091688","0.0-139.0-1.0","""event"",""trial"",""time""
""fullscreenenter"",""0"",""4249""
","
","
","""event"",""trial"",""time""
""fullscreenenter"",""0"",""4249""
","
","null","<p></p>","null","","","","","","","","","","","","","","","","","","","","","","",""
"","do_trial","260","1096587","0.0-140.0-0.0","""event"",""trial"",""time""
""fullscreenenter"",""0"",""4249""
","
","
","""event"",""trial"",""time""
""fullscreenenter"",""0"",""4249""
","
","343.40000000037253","","","","","","","","50","1,0,0","2","city","82","probe-120","0.31969988009744926","0.4114811481639806","0.44115441478796286","0","","","","","","","",""
"","html-keyboard-response","261","1097602","0.0-140.0-1.0","""event"",""trial"",""time""
""fullscreenenter"",""0"",""4249""
","
","
","""event"",""trial"",""time""
""fullscreenenter"",""0"",""4249""
","
