"success","trial_type","trial_index","time_elapsed","internal_node_id","interactions","blur_events","focus_events","fullscreenenter_events","fullscreenexit_events","rt","stimulus","key_press","subject_id","participant_id","age","gender","prompt","response","choice_outcomes","context_n","context_img_id","trial_n","probe_img_id","pR_red","pR_white","pR_black","outcome","contextArray_ind","validImageProbes","invalidImageProbes","pRew_Red","pRew_White","pRew_Black","availableForMemProbe","choice_blocks"
"true","fullscreen","0","3362","0.0-0.0","""event"",""trial"",""time""
""fullscreenenter"",""0"",""2379""
","
","
","""event"",""trial"",""time""
""fullscreenenter"",""0"",""2379""
","
","","","","","","","","","","","","","","","","","","","","","","","","","",""
"","pavlovia","1","3368","0.0-1.0","""event"",""trial"",""time""
""fullscreenenter"",""0"",""2379""
","
","
","""event"",""trial"",""time""
""fullscreenenter"",""0"",""2379""
","
","","","","","","","","","","","","","","","","","","","","","","","","","",""
"","instruc1","2","48498","0.0-2.0","""event"",""trial"",""time""
""fullscreenenter"",""0"",""2379""
","
","
","""event"",""trial"",""time""
""fullscreenenter"",""0"",""2379""
","
","null","run_exp/static/audio/clip_1_welcome.m4a","null","301","905","16","Female","<div class='center'><p>Welcome! This is the first part of the study. It will last ~30 minutes. In part 1 and part 2 of the study, you are the head captain of a pirate ship traveling around the world to different islands. You will play a few different games throughout these two parts. Here is an overview of them:</p><br><p>Part 1 (today)</p><p>1. Instructions, practice game, and quiz</p><p>2. Pick a pirate game on 6 different islands</p><br><p>Part 2 (tomorrow)</p><p>3. Pick a pirate game and memory game</p><p>4. Where did you see this ship? </p></div>","","","","","","","","","","","","","","","","","",""
"","html-keyboard-response","3","54079","0.0-3.0","""event"",""trial"",""time""
""fullscreenenter"",""0"",""2379""
","
","
","""event"",""trial"",""time""
""fullscreenenter"",""0"",""2379""
","
","5577.800000000745","<div class='center'><p>Welcome! This is the first part of the study. It will last ~30 minutes. In part 1 and part 2 of the study, you are the head captain of a pirate ship traveling around the world to different islands. You will play a few different games throughout these two parts. Here is an overview of them:</p><br><p>Part 1 (today)</p><p>1. Instructions, practice game, and quiz</p><p>2. Pick a pirate game on 6 different islands</p><br><p>Part 2 (tomorrow)</p><p>3. Pick a pirate game and memory game</p><p>4. Where did you see this ship? </p><p><b>[Press the space bar to continue]</b></p></div>","32","","","","","","","","","","","","","","","","","","","","","","",""
"","instruc2","4","59410","0.0-4.0","""event"",""trial"",""time""
""fullscreenenter"",""0"",""2379""
","
","
","""event"",""trial"",""time""
""fullscreenenter"",""0"",""2379""
","
","null","run_exp/static/audio/clip_2_different_places.m4a","null","","","","","<div class='center'><p>Today, you’ll visit these 6 islands on your journey. You'll be able to see these islands from your ship.</p><p><img src='run_exp/static/images/contexts/all_contexts.png' height='500'></p></div>","","","","","","","","","","","","","","","","","",""
"","html-keyboard-response","5","64269","0.0-5.0","""event"",""trial"",""time""
""fullscreenenter"",""0"",""2379""
","
","
","""event"",""trial"",""time""
""fullscreenenter"",""0"",""2379""
","
","4856.200000001118","<div class='center'><p>Today, you’ll visit these 6 islands on your journey. You'll be able to see these islands from your ship.</p><p><img src='run_exp/static/images/contexts/all_contexts.png' height='500'></p><p><b>[Press the space bar to continue]</b></p></div>","32","","","","","","","","","","","","","","","","","","","","","","",""
"","instruc3","6","73992","0.0-6.0","""event"",""trial"",""time""
""fullscreenenter"",""0"",""2379""
","
","
","""event"",""trial"",""time""
""fullscreenenter"",""0"",""2379""
","
","null","run_exp/static/audio/clip_3_goal_of_game_1.m4a","null","","","","","<div class='center'><p> The pirates on your ship will rob other ships as they leave the island.</p> These ships have just sold their goods to the islanders, so they will be filled with lots and lots of gold.</p><p><img src='run_exp/static/images/tutorial/ship_center.png' height='400'></p></div>","","","","","","","","","","","","","","","","","",""
"","html-keyboard-response","7","74973","0.0-7.0","""event"",""trial"",""time""
""fullscreenenter"",""0"",""2379""
","
","
","""event"",""trial"",""time""
""fullscreenenter"",""0"",""2379""
","
","979","<div class='center'><p> The pirates on your ship will rob other ships as they leave the island.</p> These ships have just sold their goods to the islanders, so they will be filled with lots and lots of gold.</p><p><img src='run_exp/static/images/tutorial/ship_center.png' height='400'></p><p><b>[Press the space bar to continue]</b></p></div>","32","","","","","","","","","","","","","","","","","","","","","","",""
"","instruc4","8","102971","0.0-8.0","""event"",""trial"",""time""
""fullscreenenter"",""0"",""2379""
","
","
","""event"",""trial"",""time""
""fullscreenenter"",""0"",""2379""
","
","null","run_exp/static/audio/clip_4_goal_of_game_2.m4a","null","","","","","<div class='center'><p>As the head captain, you do not have to rob any ships yourself. Another pirate will be doing the robbing for you. First, you will choose a pirate to rob the next ship.</p><p><img src='run_exp/static/images/tutorial/pirates_all_crop.png' height='200'></p><p>Then, you'll see if the pirate successfully robbed the ship of their gold. If they were successful, then you'll get a stack of gold coins like this:</p><p><img src='run_exp/static/images/tutorial/reward.png' height='150'></p><p> If they were <b>not</b> successful, then you'll get no gold coins, and you'll see a big red x like this: </p><p><img src='run_exp/static/images/tutorial/reward_no.png' height='150'></p><p> How much bonus money you make is based on how many gold coins you collect.</p><div>","","","","","","","","","","","","","","","","","",""
"","html-keyboard-response","9","104739","0.0-9.0","""event"",""trial"",""time""
""fullscreenenter"",""0"",""2379""
","
","
","""event"",""trial"",""time""
""fullscreenenter"",""0"",""2379""
","
","1766.199999999255","<div class='center'><p>As the head captain, you do not have to rob any ships yourself. Another pirate will be doing the robbing for you. First, you will choose a pirate to rob the next ship.</p><p><img src='run_exp/static/images/tutorial/pirates_all_crop.png' height='200'></p><p>Then, you'll see if the pirate successfully robbed the ship of their gold. If they were successful, then you'll get a stack of gold coins like this:</p><p><img src='run_exp/static/images/tutorial/reward.png' height='150'></p><p> If they were <b>not</b> successful, then you'll get no gold coins, and you'll see a big red x like this: </p><p><img src='run_exp/static/images/tutorial/reward_no.png' height='150'></p><p> How much bonus money you make is based on how many gold coins you collect.</p<p><b>[Press the space bar to continue]</b></p></div>","32","","","","","","","","","","","","","","","","","","","","","","",""
"","instruc5","10","122456","0.0-10.0","""event"",""trial"",""time""
""fullscreenenter"",""0"",""2379""
","
","
","""event"",""trial"",""time""
""fullscreenenter"",""0"",""2379""
","
","17715.5","run_exp/static/audio/clip_5_probabilistic.m4a","49","","","","","<div class='center'><p>Even the most skilled pirate can not rob EVERY ship.</p><p> Some ships will have very strong protections against pirate attacks.</p><p> Blue beard, here, is very, very good at robbing ships, but he won't be successful every time he tries to rob one.</p><p> You can press the <b>‘1’</b> key on the keyboard to choose him.</p><p> Try choosing him 10 times to see how often he succeeds at robbing a ship. </p><p><img src='run_exp/static/images/tutorial/blue.png' height='500'></p></div>","","","","","","","","","","","","","","","","","",""
"","html-keyboard-response","11","123963","0.0-11.0","""event"",""trial"",""time""
""fullscreenenter"",""0"",""2379""
","
","
","""event"",""trial"",""time""
""fullscreenenter"",""0"",""2379""
","
","null","<div class='center'><p><img src='run_exp/static/images/tutorial/blue_win.png' height='500'></p></div>","null","","","","","","","","","","","","","","","","","","","","","","",""
"","html-keyboard-response","12","126537","0.0-12.0","""event"",""trial"",""time""
""fullscreenenter"",""0"",""2379""
","
","
","""event"",""trial"",""time""
""fullscreenenter"",""0"",""2379""
","
","2572.5999999996275","<div class='center'><img src='run_exp/static/images/tutorial/blue.png' height='500'></p></div>","49","","","","","","","","","","","","","","","","","","","","","","",""
"","html-keyboard-response","13","128041","0.0-13.0","""event"",""trial"",""time""
""fullscreenenter"",""0"",""2379""
","
","
","""event"",""trial"",""time""
""fullscreenenter"",""0"",""2379""
","
","null","<div class='center'><p><img src='run_exp/static/images/tutorial/blue_win.png' height='500'></p></div>","null","","","","","","","","","","","","","","","","","","","","","","",""
"","html-keyboard-response","14","128713","0.0-14.0","""event"",""trial"",""time""
""fullscreenenter"",""0"",""2379""
","
","
","""event"",""trial"",""time""
""fullscreenenter"",""0"",""2379""
","
","671","<div class='center'><img src='run_exp/static/images/tutorial/blue.png' height='500'></p></div>","49","","","","","","","","","","","","","","","","","","","","","","",""
"","html-keyboard-response","15","130215","0.0-15.0","""event"",""trial"",""time""
""fullscreenenter"",""0"",""2379""
","
","
","""event"",""trial"",""time""
""fullscreenenter"",""0"",""2379""
","
","null","<div class='center'><p><img src='run_exp/static/images/tutorial/blue_win.png' height='500'></p></div>","null","","","","","","","","","","","","","","","","","","","","","","",""
"","html-keyboard-response","16","130536","0.0-16.0","""event"",""trial"",""time""
""fullscreenenter"",""0"",""2379""
","
","
","""event"",""trial"",""time""
""fullscreenenter"",""0"",""2379""
","
","320.2000000011176","<div class='center'><img src='run_exp/static/images/tutorial/blue.png' height='500'></p></div>","49","","","","","","","","","","","","","","","","","","","","","","",""
"","html-keyboard-response","17","132039","0.0-17.0","""event"",""trial"",""time""
""fullscreenenter"",""0"",""2379""
","
","
","""event"",""trial"",""time""
""fullscreenenter"",""0"",""2379""
","
","null","<div class='center'><p><img src='run_exp/static/images/tutorial/blue_no_win.png' height='500'></p></div>","null","","","","","","","","","","","","","","","","","","","","","","",""
"","html-keyboard-response","18","132482","0.0-18.0","""event"",""trial"",""time""
""fullscreenenter"",""0"",""2379""
","
","
","""event"",""trial"",""time""
""fullscreenenter"",""0"",""2379""
","
","441.19999999925494","<div class='center'><img src='run_exp/static/images/tutorial/blue.png' height='500'></p></div>","49","","","","","","","","","","","","","","","","","","","","","","",""
"","html-keyboard-response","19","133985","0.0-19.0","""event"",""trial"",""time""
""fullscreenenter"",""0"",""2379""
","
","
","""event"",""trial"",""time""
""fullscreenenter"",""0"",""2379""
","
","null","<div class='center'><p><img src='run_exp/static/images/tutorial/blue_win.png' height='500'></p></div>","null","","","","","","","","","","","","","","","","","","","","","","",""
"","html-keyboard-response","20","134425","0.0-20.0","""event"",""trial"",""time""
""fullscreenenter"",""0"",""2379""
","
","
","""event"",""trial"",""time""
""fullscreenenter"",""0"",""2379""
","
","437.69999999925494","<div class='center'><img src='run_exp/static/images/tutorial/blue.png' height='500'></p></div>","49","","","","","","","","","","","","","","","","","","","","","","",""
"","html-keyboard-response","21","135928","0.0-21.0","""event"",""trial"",""time""
""fullscreenenter"",""0"",""2379""
","
","
","""event"",""trial"",""time""
""fullscreenenter"",""0"",""2379""
","
","null","<div class='center'><p><img src='run_exp/static/images/tutorial/blue_win.png' height='500'></p></div>","null","","","","","","","","","","","","","","","","","","","","","","",""
"","html-keyboard-response","22","136265","0.0-22.0","""event"",""trial"",""time""
""fullscreenenter"",""0"",""2379""
","
","
","""event"",""trial"",""time""
""fullscreenenter"",""0"",""2379""
","
","334.7999999988824","<div class='center'><img src='run_exp/static/images/tutorial/blue.png' height='500'></p></div>","49","","","","","","","","","","","","","","","","","","","","","","",""
"","html-keyboard-response","23","137767","0.0-23.0","""event"",""trial"",""time""
""fullscreenenter"",""0"",""2379""
","
","
","""event"",""trial"",""time""
""fullscreenenter"",""0"",""2379""
","
","null","<div class='center'><p><img src='run_exp/static/images/tutorial/blue_win.png' height='500'></p></div>","null","","","","","","","","","","","","","","","","","","","","","","",""
"","html-keyboard-response","24","138329","0.0-24.0","""event"",""trial"",""time""
""fullscreenenter"",""0"",""2379""
","
","
","""event"",""trial"",""time""
""fullscreenenter"",""0"",""2379""
","
","560.4000000003725","<div class='center'><img src='run_exp/static/images/tutorial/blue.png' height='500'></p></div>","49","","","","","","","","","","","","","","","","","","","","","","",""
"","html-keyboard-response","25","139831","0.0-25.0","""event"",""trial"",""time""
""fullscreenenter"",""0"",""2379""
","
","
","""event"",""trial"",""time""
""fullscreenenter"",""0"",""2379""
","
","null","<div class='center'><p><img src='run_exp/static/images/tutorial/blue_no_win.png' height='500'></p></div>","null","","","","","","","","","","","","","","","","","","","","","","",""
"","html-keyboard-response","26","140425","0.0-26.0","""event"",""trial"",""time""
""fullscreenenter"",""0"",""2379""
","
","
","""event"",""trial"",""time""
""fullscreenenter"",""0"",""2379""
","
","592.2999999988824","<div class='center'><img src='run_exp/static/images/tutorial/blue.png' height='500'></p></div>","49","","","","","","","","","","","","","","","","","","","","","","",""
"","html-keyboard-response","27","141926","0.0-27.0","""event"",""trial"",""time""
""fullscreenenter"",""0"",""2379""
","
","
","""event"",""trial"",""time""
""fullscreenenter"",""0"",""2379""
","
","null","<div class='center'><p><img src='run_exp/static/images/tutorial/blue_win.png' height='500'></p></div>","null","","","","","","","","","","","","","","","","","","","","","","",""
"","html-keyboard-response","28","142224","0.0-28.0","""event"",""trial"",""time""
""fullscreenenter"",""0"",""2379""
","
","
","""event"",""trial"",""time""
""fullscreenenter"",""0"",""2379""
","
","296.90000000037253","<div class='center'><img src='run_exp/static/images/tutorial/blue.png' height='500'></p></div>","49","","","","","","","","","","","","","","","","","","","","","","",""
"","html-keyboard-response","29","143730","0.0-29.0","""event"",""trial"",""time""
""fullscreenenter"",""0"",""2379""
","
","
","""event"",""trial"",""time""
""fullscreenenter"",""0"",""2379""
","
","null","<div class='center'><p><img src='run_exp/static/images/tutorial/blue_win.png' height='500'></p></div>","null","","","","","","","","","","","","","","","","","","","","","","",""
"","instruc6","30","149146","0.0-30.0","""event"",""trial"",""time""
""fullscreenenter"",""0"",""2379""
","
","
","""event"",""trial"",""time""
""fullscreenenter"",""0"",""2379""
","
","null","run_exp/static/audio/clip_6_blue_beard_outcome.m4a","null","","","","","<div class='center'><p> See, he succeeded in robbing the ships most of the time but not every time. </p></div>","","","","","","","","","","","","","","","","","",""
"","html-keyboard-response","31","149944","0.0-31.0","""event"",""trial"",""time""
""fullscreenenter"",""0"",""2379""
","
","
","""event"",""trial"",""time""
""fullscreenenter"",""0"",""2379""
","
","796.5","<div class='center'><p> See, he succeeded in robbing the ships most of the time but not every time. </p><p><b>[Press the space bar to continue]</b></p></div>","32","","","","","","","","","","","","","","","","","","","","","","",""
"","audio-keyboard-response","32","153248","0.0-32.0","""event"",""trial"",""time""
""fullscreenenter"",""0"",""2379""
","
","
","""event"",""trial"",""time""
""fullscreenenter"",""0"",""2379""
","
","3302","run_exp/static/audio/clip_7_pick_pirate.m4a","50","","","","","","","","","","","","","","","","","","","","","","",""
"","audio-keyboard-response","33","154744","0.0-33.0-0.0","""event"",""trial"",""time""
""fullscreenenter"",""0"",""2379""
","
","
","""event"",""trial"",""time""
""fullscreenenter"",""0"",""2379""
","
","1493.4000000003725","run_exp/static/audio/clip_8_chosen_pirate_win.m4a","32","","","","","","","","","","","","","","","","","","","","","","",""
"","audio-keyboard-response","34","155225","0.0-33.0-1.0","""event"",""trial"",""time""
""fullscreenenter"",""0"",""2379""
","
","
","""event"",""trial"",""time""
""fullscreenenter"",""0"",""2379""
","
","478.80000000074506","run_exp/static/audio/clip_9_pick_a_pirate_again.m4a","50","","","","","","","","","","","","","","","","","","","","","","",""
"","audio-keyboard-response","35","157607","0.0-34.0-0.0","""event"",""trial"",""time""
""fullscreenenter"",""0"",""2379""
","
","
","""event"",""trial"",""time""
""fullscreenenter"",""0"",""2379""
","
","2380.2000000011176","run_exp/static/audio/clip_10_chosen_pirate_loss.m4a","32","","","","","","","","","","","","","","","","","","","","","","",""
"","instruc9","36","163124","0.0-35.0-0.0","""event"",""trial"",""time""
""fullscreenenter"",""0"",""2379""
","
","
","""event"",""trial"",""time""
""fullscreenenter"",""0"",""2379""
","
","null","run_exp/static/audio/clip_11_time_out.m4a","null","","","","","<div class='center'><p>If you don’t make your choice fast enough, you’ll have to wait a few seconds before you can make another one. </p><p><img src='run_exp/static/images/miscellaneous/hurry_up.png' height='500'></p></div>","","","","","","","","","","","","","","","","","",""
"","html-keyboard-response","37","163544","0.0-35.0-1.0","""event"",""trial"",""time""
""fullscreenenter"",""0"",""2379""
","
","
","""event"",""trial"",""time""
""fullscreenenter"",""0"",""2379""
","
","417.80000000074506","<div class='center'><p>If you don’t make your choice fast enough, you’ll have to wait a few seconds before you can make another one. </p><p><img src='run_exp/static/images/miscellaneous/hurry_up.png' height='500'></p><p><b>[Press the space bar to continue]</b></p></div>","32","","","","","","","","","","","","","","","","","","","","","","",""
"","instruc10","38","202643","0.0-35.0-2.0","""event"",""trial"",""time""
""fullscreenenter"",""0"",""2379""
","
","
","""event"",""trial"",""time""
""fullscreenenter"",""0"",""2379""
","
","null","run_exp/static/audio/clip_12_probe.m4a","null","","","","","<div class='center'><p>Once you've chosen a pirate, you’ll be shown the ship they are robbing. You will never rob the same ship twice. Ships can be told apart from one another by the image on them. These are the goods that they sell. See, this ship has a travel mug on it. </p><p> You’ll have to remember which island you saw each ship on. You will win more gold coins and hence more bonus money if you remember correctly! To help you remember, you can imagine a story. For example, here, you could imagine a mug full of water in the desert. Or, as another example, if on the forest island, your pirate robbed a ship with an apple on it, you could imagine an apple falling from a tree in the forest. </p><p><img src='run_exp/static/images/tutorial/example_probe.png' height='500'></p></div>","","","","","","","","","","","","","","","","","",""
"","html-keyboard-response","39","209179","0.0-35.0-3.0","""event"",""trial"",""time""
""fullscreenenter"",""0"",""2379""
","
","
","""event"",""trial"",""time""
""fullscreenenter"",""0"",""2379""
","
","6534.5999999996275","<div class='center'><p>Once you've chosen a pirate, you’ll be shown the ship they are robbing. You will never rob the same ship twice. Ships can be told apart from one another by the image on them. These are the goods that they sell. See, this ship has a travel mug on it. </p><p> You’ll have to remember which island you saw each ship on. You will win more gold coins and hence more bonus money if you remember correctly! To help you remember, you can imagine a story. For example, here, you could imagine a mug full of water in the desert. Or, as another example, if on the forest island, your pirate robbed a ship with an apple on it, you could imagine an apple falling from a tree in the forest. </p><p><img src='run_exp/static/images/tutorial/example_probe.png' height='500'></p><p><b>[Press the space bar to continue]</b></p></div>","32","","","","","","","","","","","","","","","","","","","","","","",""
"","instruc11","40","225607","0.0-35.0-4.0","""event"",""trial"",""time""
""fullscreenenter"",""0"",""2379""
","
","
","""event"",""trial"",""time""
""fullscreenenter"",""0"",""2379""
","
","null","run_exp/static/audio/clip_13_changepoint.m4a","null","","","","","<div class='center'><p>How successful a pirate is at robbing ships will depend on the island you’re on.</p><p> A pirate may have visited this island many times before and gained a lot of practice robbing ships there.</p><p>So, they’re more likely to be successful than a pirate who has never visited the island before.</p></div>","","","","","","","","","","","","","","","","","",""
"","html-keyboard-response","41","226642","0.0-35.0-5.0","""event"",""trial"",""time""
""fullscreenenter"",""0"",""2379""
","
","
","""event"",""trial"",""time""
""fullscreenenter"",""0"",""2379""
","
","1034.0999999996275","<div class='center'><p>How successful a pirate is at robbing ships will depend on the island you’re on.</p><p> A pirate may have visited this island many times before and gained a lot of practice robbing ships there.</p><p>So, they’re more likely to be successful than a pirate who has never visited the island before.</p><p><b>[Press the space bar to continue]</b></p></div>","32","","","","","","","","","","","","","","","","","","","","","","",""
"","instruc12","42","267751","0.0-35.0-6.0","""event"",""trial"",""time""
""fullscreenenter"",""0"",""2379""
","
","
","""event"",""trial"",""time""
""fullscreenenter"",""0"",""2379""
","
","null","run_exp/static/audio/clip_14_drift.m4a","null","","","","","<div class='center'><p>How successful a pirate is at robbing ships can also change over the time spent on the island. </p><p> Ships may hear from islanders about the pirates coming and will improve their protections against the attack. This may make it harder to rob them.</p><p> Ships may also become lazy and weaken the strength of their protections. This may make it easier to rob them.</p><br><p>Things are always changing on the high seas! So, try your best to pay attention!</p><p><img src='run_exp/static/images/tutorial/contingency.png' height='500'></p></div>","","","","","","","","","","","","","","","","","",""
"","html-keyboard-response","43","269051","0.0-35.0-7.0","""event"",""trial"",""time""
""fullscreenenter"",""0"",""2379""
","
","
","""event"",""trial"",""time""
""fullscreenenter"",""0"",""2379""
","
","1298.2999999988824","<div class='center'><p>How successful a pirate is at robbing ships can also change over the time spent on the island. </p><p> Ships may hear from islanders about the pirates coming and will improve their protections against the attack. This may make it harder to rob them.</p><p> Ships may also become lazy and weaken the strength of their protections. This may make it easier to rob them.</p><br><p>Things are always changing on the high seas! So, try your best to pay attention!</p><p><img src='run_exp/static/images/tutorial/contingency.png' height='500'></p><p><b>[Press the space bar to continue]</b></p></div>","32","","","","","","","","","","","","","","","","","","","","","","",""
"","instruc13","44","304250","0.0-35.0-8.0","""event"",""trial"",""time""
""fullscreenenter"",""0"",""2379""
","
","
","""event"",""trial"",""time""
""fullscreenenter"",""0"",""2379""
","
","null","run_exp/static/audio/clip_15_summary.m4a","null","","","","","<div class='center'><p>Let's go over the instructions quickly again. You have two important things to do: </p><b><p> 1. Pick the pirate who is the best at robbing ships on the current island. </p></b><b><p> 2. Remember on which island a ship was robbed.</p> </b><p>The amount of bonus money you can win depends on both.</p><p><br><p>Let’s try a practice game. The game will start by showing you the pirates. First, pick a pirate using the <b> 1, 2, 3 </b> keys on your keyboard. When you are shown a ship, try to remember which island you’re on by making up a story.</p><p>This is just a practice game, so you’re not playing for money. </p><p> Good luck! This game will be very difficult but try your best!</p></div>","","","","","","","","","","","","","","","","","",""
"","html-keyboard-response","45","305171","0.0-35.0-9.0","""event"",""trial"",""time""
""fullscreenenter"",""0"",""2379""
","
","
","""event"",""trial"",""time""
""fullscreenenter"",""0"",""2379""
","
","919.1999999992549","<div class='center'><p>Let's go over the instructions quickly again. You have two important things to do: </p><b><p> 1. Pick the pirate who is the best at robbing ships on the current island. </p></b><b><p> 2. Remember on which island a ship was robbed.</p> </b><p>The amount of bonus money you can win depends on both.</p><p><br><p>Let’s try a practice game. The game will start by showing you the pirates. First, pick a pirate using the <b> 1, 2, 3 </b> keys on your keyboard. When you are shown a ship, try to remember which island you’re on by making up a story.</p><p>This is just a practice game, so you’re not playing for money. </p><p> Good luck! This game will be very difficult but try your best!</p><p><b>[Press the space bar to continue]</b></p></div>","32","","","","","","","","","","","","","","","","","","","","","","",""
"","do_welcome","46","309186","0.0-35.0-10.0","""event"",""trial"",""time""
""fullscreenenter"",""0"",""2379""
","
","
","""event"",""trial"",""time""
""fullscreenenter"",""0"",""2379""
","
","null","","","","","","","","null","","","","","","","","","","","","","","","","",""
"","do_trial","47","315198","0.0-35.0-11.0","""event"",""trial"",""time""
""fullscreenenter"",""0"",""2379""
","
","
","""event"",""trial"",""time""
""fullscreenenter"",""0"",""2379""
","
","null","","","","","","","","null","1,0,0","","","","","","","","","","","","","","","",""
"","html-keyboard-response","48","316205","0.0-36.0-0.0","""event"",""trial"",""time""
""fullscreenenter"",""0"",""2379""
","
","
","""event"",""trial"",""time""
""fullscreenenter"",""0"",""2379""
","
","null","<p></p>","null","","","","","","","","","","","","","","","","","","","","","","",""
"","do_trial","49","321495","0.0-36.0-1.0","""event"",""trial"",""time""
""fullscreenenter"",""0"",""2379""
","
","
","""event"",""trial"",""time""
""fullscreenenter"",""0"",""2379""
","
","781","","","","","","","","51","1,0,0","","","","","","","","","","","","","","","",""
"","html-keyboard-response","50","322498","0.0-37.0-0.0","""event"",""trial"",""time""
""fullscreenenter"",""0"",""2379""
","
","
","""event"",""trial"",""time""
""fullscreenenter"",""0"",""2379""
","
","null","<p></p>","null","","","","","","","","","","","","","","","","","","","","","","",""
"","do_trial","51","327513","0.0-37.0-1.0","""event"",""trial"",""time""
""fullscreenenter"",""0"",""2379""
","
","
","""event"",""trial"",""time""
""fullscreenenter"",""0"",""2379""
","
","504.69999999925494","","","","","","","","49","1,1,0","","","","","","","","","","","","","","","",""
"","html-keyboard-response","52","328518","0.0-38.0-0.0","""event"",""trial"",""time""
""fullscreenenter"",""0"",""2379""
","
","
","""event"",""trial"",""time""
""fullscreenenter"",""0"",""2379""
","
","null","<p></p>","null","","","","","","","","","","","","","","","","","","","","","","",""
"","do_trial","53","333420","0.0-38.0-1.0","""event"",""trial"",""time""
""fullscreenenter"",""0"",""2379""
","
","
","""event"",""trial"",""time""
""fullscreenenter"",""0"",""2379""
","
","388.2000000011176","","","","","","","","50","1,0,1","","","","","","","","","","","","","","","",""
"","html-keyboard-response","54","334426","0.0-39.0-0.0","""event"",""trial"",""time""
""fullscreenenter"",""0"",""2379""
","
","
","""event"",""trial"",""time""
""fullscreenenter"",""0"",""2379""
","
","null","<p></p>","null","","","","","","","","","","","","","","","","","","","","","","",""
"","do_trial","55","339269","0.0-39.0-1.0","""event"",""trial"",""time""
""fullscreenenter"",""0"",""2379""
","
","
","""event"",""trial"",""time""
""fullscreenenter"",""0"",""2379""
","
","334.5","","","","","","","","49","0,1,0","","","","","","","","","","","","","","","",""
"","html-keyboard-response","56","340276","0.0-40.0-0.0","""event"",""trial"",""time""
""fullscreenenter"",""0"",""2379""
","
","
","""event"",""trial"",""time""
""fullscreenenter"",""0"",""2379""
","
","null","<p></p>","null","","","","","","","","","","","","","","","","","","","","","","",""
"","do_trial","57","345837","0.0-40.0-1.0","""event"",""trial"",""time""
""fullscreenenter"",""0"",""2379""
","
","
","""event"",""trial"",""time""
""fullscreenenter"",""0"",""2379""
","
","1052","","","","","","","","51","1,0,0","","","","","","","","","","","","","","","",""
"","do_bye","58","347346","0.0-41.0-0.0","""event"",""trial"",""time""
""fullscreenenter"",""0"",""2379""
","
","
","""event"",""trial"",""time""
""fullscreenenter"",""0"",""2379""
","
","null","","","","","","","","null","","","","","","","","","","","","","","","","",""
"","do_travel","59","356352","0.0-41.0-1.0","""event"",""trial"",""time""
""fullscreenenter"",""0"",""2379""
","
","
","""event"",""trial"",""time""
""fullscreenenter"",""0"",""2379""
","
","null","","","","","","","","null","","","","","","","","","","","","","","","","",""
"","do_welcome","60","360361","0.0-41.0-2.0","""event"",""trial"",""time""
""fullscreenenter"",""0"",""2379""
","
","
","""event"",""trial"",""time""
""fullscreenenter"",""0"",""2379""
","
","null","","","","","","","","null","","","","","","","","","","","","","","","","",""
"","do_trial","61","365314","0.0-41.0-3.0","""event"",""trial"",""time""
""fullscreenenter"",""0"",""2379""
","
","
","""event"",""trial"",""time""
""fullscreenenter"",""0"",""2379""
","
","442.59999999962747","","","","","","","","50","1,0,0","","","","","","","","","","","","","","","",""
"","html-keyboard-response","62","366318","0.0-42.0-0.0","""event"",""trial"",""time""
""fullscreenenter"",""0"",""2379""
","
","
","""event"",""trial"",""time""
""fullscreenenter"",""0"",""2379""
","
","null","<p></p>","null","","","","","","","","","","","","","","","","","","","","","","",""
"","do_trial","63","371224","0.0-42.0-1.0","""event"",""trial"",""time""
""fullscreenenter"",""0"",""2379""
","
","
","""event"",""trial"",""time""
""fullscreenenter"",""0"",""2379""
","
","392.30000000074506","","","","","","","","51","1,0,1","","","","","","","","","","","","","","","",""
"","html-keyboard-response","64","372230","0.0-43.0-0.0","""event"",""trial"",""time""
""fullscreenenter"",""0"",""2379""
","
","
","""event"",""trial"",""time""
""fullscreenenter"",""0"",""2379""
","
","null","<p></p>","null","","","","","","","","","","","","","","","","","","","","","","",""
"","do_trial","65","377061","0.0-43.0-1.0","""event"",""trial"",""time""
""fullscreenenter"",""0"",""2379""
","
","
","""event"",""trial"",""time""
""fullscreenenter"",""0"",""2379""
","
","320.90000000037253","","","","","","","","51","1,1,0","","","","","","","","","","","","","","","",""
"","html-keyboard-response","66","378063","0.0-44.0-0.0","""event"",""trial"",""time""
""fullscreenenter"",""0"",""2379""
","
","
","""event"",""trial"",""time""
""fullscreenenter"",""0"",""2379""
","
","null","<p></p>","null","","","","","","","","","","","","","","","","","","","","","","",""
"","do_trial","67","382607","0.0-44.0-1.0","""event"",""trial"",""time""
""fullscreenenter"",""0"",""2379""
","
","
","""event"",""trial"",""time""
""fullscreenenter"",""0"",""2379""
","
","33.59999999962747","","","","","","","","49","0,0,1","","","","","","","","","","","","","","","",""
"","html-keyboard-response","68","383612","0.0-45.0-0.0","""event"",""trial"",""time""
""fullscreenenter"",""0"",""2379""
","
","
","""event"",""trial"",""time""
""fullscreenenter"",""0"",""2379""
","
","null","<p></p>","null","","","","","","","","","","","","","","","","","","","","","","",""
"","do_trial","69","388586","0.0-45.0-1.0","""event"",""trial"",""time""
""fullscreenenter"",""0"",""2379""
","
","
","""event"",""trial"",""time""
""fullscreenenter"",""0"",""2379""
","
","460.69999999925494","","","","","","","","49","1,0,1","","","","","","","","","","","","","","","",""
"","html-keyboard-response","70","389270","0.0-46.0-0.0","""event"",""trial"",""time""
""fullscreenenter"",""0"",""2379""
","
","
","""event"",""trial"",""time""
""fullscreenenter"",""0"",""2379""
","
","681.5","<div class='center'><p><img src='run_exp/static/images/tutorial/prac_best_pirate.png'  height='500'></p></div>","49","","","","","","","","","","","","","","","","","","","","","","",""
"","html-keyboard-response","71","390446","0.0-47.0-0.0","""event"",""trial"",""time""
""fullscreenenter"",""0"",""2379""
","
","
","""event"",""trial"",""time""
""fullscreenenter"",""0"",""2379""
","
","1175.0999999996275","<div class='center'><p>That's correct! Red beard was the best.</p><p><b>[Press the space bar to continue]</b></p></div>","32","","","","","","","","","","","","","","","","","","","","","","",""
"","html-keyboard-response","72","394654","0.0-47.0-1.0","""event"",""trial"",""time""
""fullscreenenter"",""0"",""2379""
","
","
","""event"",""trial"",""time""
""fullscreenenter"",""0"",""2379""
","
","4206.5","<div class='center'><p><img src='run_exp/static/images/tutorial/prac_source.png'  height='500'></p></div>","50","","","","","","","","","","","","","","","","","","","","","","",""
"","html-keyboard-response","73","396142","0.0-48.0-0.0","""event"",""trial"",""time""
""fullscreenenter"",""0"",""2379""
","
","
","""event"",""trial"",""time""
""fullscreenenter"",""0"",""2379""
","
","1486.800000000745","<div class='center'><p>That's correct! You saw this ship on the cavern island.</p><p><b>[Press the space bar to continue]</b></p></div>","32","","","","","","","","","","","","","","","","","","","","","","",""
"","quiz_beginning","74","407359","0.0-48.0-1.0","""event"",""trial"",""time""
""fullscreenenter"",""0"",""2379""
","
","
","""event"",""trial"",""time""
""fullscreenenter"",""0"",""2379""
","
","null","run_exp/static/audio/clip_16_quiz_intro.m4a","null","","","","","<div class='center'><p>Good job on the practice game! Now, you will be asked some true or false questions to make sure you really understand the rules of the game.</p><p> Press <b>'1'</b> on the keyboard for true and press <b>'2'</b> for false.</p></div>","","","","","","","","","","","","","","","","","",""
"","audio-keyboard-response","75","410812","0.0-48.0-2.0","""event"",""trial"",""time""
""fullscreenenter"",""0"",""2379""
","
","
","""event"",""trial"",""time""
""fullscreenenter"",""0"",""2379""
","
","3450.5","run_exp/static/audio/clip_17_q1.m4a","49","","","","","","","","","","","","","","","","","","","","","","",""
"","correct","76","413234","0.0-49.0-0.0","""event"",""trial"",""time""
""fullscreenenter"",""0"",""2379""
","
","
","""event"",""trial"",""time""
""fullscreenenter"",""0"",""2379""
","
","null","run_exp/static/audio/clip_18_correct.m4a","null","","","","","<div class='center'><p>That's correct!</p></div>","","","","","","","","","","","","","","","","","",""
"","html-keyboard-response","77","413932","0.0-49.0-1.0","""event"",""trial"",""time""
""fullscreenenter"",""0"",""2379""
","
","
","""event"",""trial"",""time""
""fullscreenenter"",""0"",""2379""
","
","697.1000000014901","<div class='center'><p>That's correct!</p><p><b>[Press the space bar to continue]</b></p></div>","32","","","","","","","","","","","","","","","","","","","","","","",""
"","audio-keyboard-response","78","418212","0.0-49.0-2.0","""event"",""trial"",""time""
""fullscreenenter"",""0"",""2379""
","
","
","""event"",""trial"",""time""
""fullscreenenter"",""0"",""2379""
","
","4278.9000000003725","run_exp/static/audio/clip_20_q2.m4a","50","","","","","","","","","","","","","","","","","","","","","","",""
"","correct","79","420618","0.0-50.0-0.0","""event"",""trial"",""time""
""fullscreenenter"",""0"",""2379""
","
","
","""event"",""trial"",""time""
""fullscreenenter"",""0"",""2379""
","
","null","run_exp/static/audio/clip_18_correct.m4a","null","","","","","<div class='center'><p>That's correct!</p></div>","","","","","","","","","","","","","","","","","",""
"","html-keyboard-response","80","421592","0.0-50.0-1.0","""event"",""trial"",""time""
""fullscreenenter"",""0"",""2379""
","
","
","""event"",""trial"",""time""
""fullscreenenter"",""0"",""2379""
","
","973","<div class='center'><p>That's correct!</p><p><b>[Press the space bar to continue]</b></p></div>","32","","","","","","","","","","","","","","","","","","","","","","",""
"","audio-keyboard-response","81","424548","0.0-50.0-2.0","""event"",""trial"",""time""
""fullscreenenter"",""0"",""2379""
","
","
","""event"",""trial"",""time""
""fullscreenenter"",""0"",""2379""
","
","2955.4000000003725","run_exp/static/audio/clip_22_q3.m4a","50","","","","","","","","","","","","","","","","","","","","","","",""
"","correct","82","426956","0.0-51.0-0.0","""event"",""trial"",""time""
""fullscreenenter"",""0"",""2379""
","
","
","""event"",""trial"",""time""
""fullscreenenter"",""0"",""2379""
","
","null","run_exp/static/audio/clip_18_correct.m4a","null","","","","","<div class='center'><p>That's correct!</p></div>","","","","","","","","","","","","","","","","","",""
"","html-keyboard-response","83","428565","0.0-51.0-1.0","""event"",""trial"",""time""
""fullscreenenter"",""0"",""2379""
","
","
","""event"",""trial"",""time""
""fullscreenenter"",""0"",""2379""
","
","1607.300000000745","<div class='center'><p>That's correct!</p><p><b>[Press the space bar to continue]</b></p></div>","32","","","","","","","","","","","","","","","","","","","","","","",""
"","audio-keyboard-response","84","430278","0.0-51.0-2.0","""event"",""trial"",""time""
""fullscreenenter"",""0"",""2379""
","
","
","""event"",""trial"",""time""
""fullscreenenter"",""0"",""2379""
","
","1712.4000000003725","run_exp/static/audio/clip_24_q4.m4a","49","","","","","","","","","","","","","","","","","","","","","","",""
"","correct","85","432762","0.0-52.0-0.0","""event"",""trial"",""time""
""fullscreenenter"",""0"",""2379""
","
","
","""event"",""trial"",""time""
""fullscreenenter"",""0"",""2379""
","
","null","run_exp/static/audio/clip_18_correct.m4a","null","","","","","<div class='center'><p>That's correct!</p></div>","","","","","","","","","","","","","","","","","",""
"","html-keyboard-response","86","435588","0.0-52.0-1.0","""event"",""trial"",""time""
""fullscreenenter"",""0"",""2379""
","
","
","""event"",""trial"",""time""
""fullscreenenter"",""0"",""2379""
","
","2824.7999999988824","<div class='center'><p>That's correct!</p><p><b>[Press the space bar to continue]</b></p></div>","32","","","","","","","","","","","","","","","","","","","","","","",""
"","q_all_corr","87","444092","0.0-53.0-0.0","""event"",""trial"",""time""
""fullscreenenter"",""0"",""2379""
","
","
","""event"",""trial"",""time""
""fullscreenenter"",""0"",""2379""
","
","null","run_exp/static/audio/clip_27_quiz_all_correct.m4a","null","","","","","<div class='center'><p>Good job! You’re now ready to move on to the real game! Remember this game will be difficult but don't get discouraged and try your best!</p></div>","","","","","","","","","","","","","","","","","",""
"","html-keyboard-response","88","445236","0.0-53.0-1.0","""event"",""trial"",""time""
""fullscreenenter"",""0"",""2379""
","
","
","""event"",""trial"",""time""
""fullscreenenter"",""0"",""2379""
","
","1142","<div class='center'><p>Good job! You’re now ready to move on to the real game! Remember this game will be difficult but don't get discouraged and try your best!</p><p><b>[Press the space bar to continue]</b></p></div>","32","","","","","","","","","","","","","","","","","","","","","","",""
"","do_welcome","89","449247","0.0-54.0-0.0","""event"",""trial"",""time""
""fullscreenenter"",""0"",""2379""
","
","
","""event"",""trial"",""time""
""fullscreenenter"",""0"",""2379""
","
","null","","","","","","","","null","","","","","","","","","","","","","","","","",""
"","do_trial","90","456248","0.0-55.0-0.0","""event"",""trial"",""time""
""fullscreenenter"",""0"",""2379""
","
","
","""event"",""trial"",""time""
""fullscreenenter"",""0"",""2379""
","
","2418.199999999255","","","","","","","","50","1,0,0","0","highway","0","probe-226","0.6","0.3","0.1","0","","","","","","","",""
"","html-keyboard-response","91","457250","0.0-55.0-1.0","""event"",""trial"",""time""
""fullscreenenter"",""0"",""2379""
","
","
","""event"",""trial"",""time""
""fullscreenenter"",""0"",""2379""
","
","null","<p></p>","null","","","","","","","","","","","","","","","","","","","","","","",""
"","do_trial","92","462166","0.0-56.0-0.0","""event"",""trial"",""time""
""fullscreenenter"",""0"",""2379""
","
","
","""event"",""trial"",""time""
""fullscreenenter"",""0"",""2379""
","
","338.2000000011176","","","","","","","","51","1,1,0","0","highway","1","probe-223","0.662210265703083","0.2982874708373404","0.1347334144989861","0","","","","","","","",""
"","html-keyboard-response","93","463168","0.0-56.0-1.0","""event"",""trial"",""time""
""fullscreenenter"",""0"",""2379""
","
","
","""event"",""trial"",""time""
""fullscreenenter"",""0"",""2379""
","
","null","<p></p>","null","","","","","","","","","","","","","","","","","","","","","","",""
"","do_trial","94","468072","0.0-57.0-0.0","""event"",""trial"",""time""
""fullscreenenter"",""0"",""2379""
","
","
","""event"",""trial"",""time""
""fullscreenenter"",""0"",""2379""
","
","325.2999999988824","","","","","","","","49","1,0,0","0","highway","2","probe-67","0.7744426954361618","0.3878477756887418","0.14378518100182397","1","","","","","","","",""
"","html-keyboard-response","95","469077","0.0-57.0-1.0","""event"",""trial"",""time""
""fullscreenenter"",""0"",""2379""
","
","
","""event"",""trial"",""time""
""fullscreenenter"",""0"",""2379""
","
","null","<p></p>","null","","","","","","","","","","","","","","","","","","","","","","",""
"","do_trial","96","474241","0.0-58.0-0.0","""event"",""trial"",""time""
""fullscreenenter"",""0"",""2379""
","
","
","""event"",""trial"",""time""
""fullscreenenter"",""0"",""2379""
","
","592.4000000003725","","","","","","","","49","1,1,0","0","highway","3","probe-32","0.7754536201295251","0.4583564149394656","0.11455073762873735","1","","","","","","","",""
"","html-keyboard-response","97","475246","0.0-58.0-1.0","""event"",""trial"",""time""
""fullscreenenter"",""0"",""2379""
","
","
","""event"",""trial"",""time""
""fullscreenenter"",""0"",""2379""
","
","null","<p></p>","null","","","","","","","","","","","","","","","","","","","","","","",""
"","do_trial","98","480151","0.0-59.0-0.0","""event"",""trial"",""time""
""fullscreenenter"",""0"",""2379""
","
","
","""event"",""trial"",""time""
""fullscreenenter"",""0"",""2379""
","
","334.2999999988824","","","","","","","","51","1,0,0","0","highway","4","probe-205","0.5939602316358651","0.35171038451624215","0.2581114518478924","0","","","","","","","",""
"","html-keyboard-response","99","481155","0.0-59.0-1.0","""event"",""trial"",""time""
""fullscreenenter"",""0"",""2379""
","
","
","""event"",""trial"",""time""
""fullscreenenter"",""0"",""2379""
","
","null","<p></p>","null","","","","","","","","","","","","","","","","","","","","","","",""
"","do_trial","100","486554","0.0-60.0-0.0","""event"",""trial"",""time""
""fullscreenenter"",""0"",""2379""
","
","
","""event"",""trial"",""time""
""fullscreenenter"",""0"",""2379""
","
","822.3000000007451","","","","","","","","49","1,1,0","0","highway","5","probe-110","0.5741047494505946","0.39336579104082414","0.1510064191685344","1","","","","","","","",""
"","html-keyboard-response","101","487558","0.0-60.0-1.0","""event"",""trial"",""time""
""fullscreenenter"",""0"",""2379""
","
","
","""event"",""trial"",""time""
""fullscreenenter"",""0"",""2379""
","
","null","<p></p>","null","","","","","","","","","","","","","","","","","","","","","","",""
"","do_trial","102","492903","0.0-61.0-0.0","""event"",""trial"",""time""
""fullscreenenter"",""0"",""2379""
","
","
","""event"",""trial"",""time""
""fullscreenenter"",""0"",""2379""
","
","766.5","","","","","","","","49","1,1,0","0","highway","6","probe-229","0.5841996093110917","0.26038389571940507","0.05123361861932654","1","","","","","","","",""
"","html-keyboard-response","103","493909","0.0-61.0-1.0","""event"",""trial"",""time""
""fullscreenenter"",""0"",""2379""
","
","
","""event"",""trial"",""time""
""fullscreenenter"",""0"",""2379""
","
","null","<p></p>","null","","","","","","","","","","","","","","","","","","","","","","",""
"","do_trial","104","498848","0.0-62.0-0.0","""event"",""trial"",""time""
""fullscreenenter"",""0"",""2379""
","
","
","""event"",""trial"",""time""
""fullscreenenter"",""0"",""2379""
","
","363.5","","","","","","","","49","0,0,0","0","highway","7","probe-41","0.712690038108012","0.23676109643034626","0.07790445190159424","0","","","","","","","",""
"","html-keyboard-response","105","499854","0.0-62.0-1.0","""event"",""trial"",""time""
""fullscreenenter"",""0"",""2379""
","
","
","""event"",""trial"",""time""
""fullscreenenter"",""0"",""2379""
","
","null","<p></p>","null","","","","","","","","","","","","","","","","","","","","","","",""
"","do_trial","106","504767","0.0-63.0-0.0","""event"",""trial"",""time""
""fullscreenenter"",""0"",""2379""
","
","
","""event"",""trial"",""time""
""fullscreenenter"",""0"",""2379""
","
","338.5","","","","","","","","49","0,1,0","0","highway","8","probe-72","0.6099546124143553","0.2380862654219683","0.08752268450661356","0","","","","","","","",""
"","html-keyboard-response","107","505770","0.0-63.0-1.0","""event"",""trial"",""time""
""fullscreenenter"",""0"",""2379""
","
","
","""event"",""trial"",""time""
""fullscreenenter"",""0"",""2379""
","
","null","<p></p>","null","","","","","","","","","","","","","","","","","","","","","","",""
"","do_trial","108","510608","0.0-64.0-0.0","""event"",""trial"",""time""
""fullscreenenter"",""0"",""2379""
","
","
","""event"",""trial"",""time""
""fullscreenenter"",""0"",""2379""
","
","261.40000000037253","","","","","","","","50","1,0,0","0","highway","9","probe-16","0.6326745548306643","0.3516213684022047","0.1759813592312193","0","","","","","","","",""
"","html-keyboard-response","109","511614","0.0-64.0-1.0","""event"",""trial"",""time""
""fullscreenenter"",""0"",""2379""
","
","
","""event"",""trial"",""time""
""fullscreenenter"",""0"",""2379""
","
","null","<p></p>","null","","","","","","","","","","","","","","","","","","","","","","",""
"","do_trial","110","517080","0.0-65.0-0.0","""event"",""trial"",""time""
""fullscreenenter"",""0"",""2379""
","
","
","""event"",""trial"",""time""
""fullscreenenter"",""0"",""2379""
","
","888.1999999992549","","","","","","","","49","0,0,0","0","highway","10","probe-146","0.5795283347426227","0.4305935079989464","0.15603230900884538","0","","","","","","","",""
"","html-keyboard-response","111","518082","0.0-65.0-1.0","""event"",""trial"",""time""
""fullscreenenter"",""0"",""2379""
","
","
","""event"",""trial"",""time""
""fullscreenenter"",""0"",""2379""
","
","null","<p></p>","null","","","","","","","","","","","","","","","","","","","","","","",""
"","do_trial","112","522991","0.0-66.0-0.0","""event"",""trial"",""time""
""fullscreenenter"",""0"",""2379""
","
","
","""event"",""trial"",""time""
""fullscreenenter"",""0"",""2379""
","
","333.40000000037253","","","","","","","","51","1,0,1","0","highway","11","probe-174","0.7075386657597419","0.4165810205990095","0.17648974499738843","1","","","","","","","",""
"","html-keyboard-response","113","523993","0.0-66.0-1.0","""event"",""trial"",""time""
""fullscreenenter"",""0"",""2379""
","
","
","""event"",""trial"",""time""
""fullscreenenter"",""0"",""2379""
","
","null","<p></p>","null","","","","","","","","","","","","","","","","","","","","","","",""
"","do_trial","114","528934","0.0-67.0-0.0","""event"",""trial"",""time""
""fullscreenenter"",""0"",""2379""
","
","
","""event"",""trial"",""time""
""fullscreenenter"",""0"",""2379""
","
","369.69999999925494","","","","","","","","51","0,0,0","0","highway","12","probe-122","0.7135067063131783","0.2978755104392575","0.05440475610557004","0","","","","","","","",""
"","html-keyboard-response","115","529938","0.0-67.0-1.0","""event"",""trial"",""time""
""fullscreenenter"",""0"",""2379""
","
","
","""event"",""trial"",""time""
""fullscreenenter"",""0"",""2379""
","
","null","<p></p>","null","","","","","","","","","","","","","","","","","","","","","","",""
"","do_trial","116","534854","0.0-68.0-0.0","""event"",""trial"",""time""
""fullscreenenter"",""0"",""2379""
","
","
","""event"",""trial"",""time""
""fullscreenenter"",""0"",""2379""
","
","343.30000000074506","","","","","","","","49","0,0,0","0","highway","13","probe-84","0.7610238310935878","0.17531836954632646","0.16427658284522906","0","","","","","","","",""
"","html-keyboard-response","117","535859","0.0-68.0-1.0","""event"",""trial"",""time""
""fullscreenenter"",""0"",""2379""
","
","
","""event"",""trial"",""time""
""fullscreenenter"",""0"",""2379""
","
","null","<p></p>","null","","","","","","","","","","","","","","","","","","","","","","",""
"","do_trial","118","540749","0.0-69.0-0.0","""event"",""trial"",""time""
""fullscreenenter"",""0"",""2379""
","
","
","""event"",""trial"",""time""
""fullscreenenter"",""0"",""2379""
","
","318.59999999962747","","","","","","","","50","1,0,0","0","highway","14","probe-157","0.699161109882621","0.11845712068806004","0.1710425167027687","0","","","","","","","",""
"","html-keyboard-response","119","541751","0.0-69.0-1.0","""event"",""trial"",""time""
""fullscreenenter"",""0"",""2379""
","
","
","""event"",""trial"",""time""
""fullscreenenter"",""0"",""2379""
","
","null","<p></p>","null","","","","","","","","","","","","","","","","","","","","","","",""
"","do_trial","120","546774","0.0-70.0-0.0","""event"",""trial"",""time""
""fullscreenenter"",""0"",""2379""
","
","
","""event"",""trial"",""time""
""fullscreenenter"",""0"",""2379""
","
","447.80000000074506","","","","","","","","51","1,0,0","0","highway","15","probe-213","0.7627957343873152","0.2827112468661154","0.0856924596221526","0","","","","","","","",""
"","html-keyboard-response","121","547780","0.0-70.0-1.0","""event"",""trial"",""time""
""fullscreenenter"",""0"",""2379""
","
","
","""event"",""trial"",""time""
""fullscreenenter"",""0"",""2379""
","
","null","<p></p>","null","","","","","","","","","","","","","","","","","","","","","","",""
"","do_trial","122","552716","0.0-71.0-0.0","""event"",""trial"",""time""
""fullscreenenter"",""0"",""2379""
","
","
","""event"",""trial"",""time""
""fullscreenenter"",""0"",""2379""
","
","367.2999999988824","","","","","","","","49","1,0,0","0","highway","16","probe-19","0.6600646254552206","0.3137558472451591","0.11074089990606215","1","","","","","","","",""
"","html-keyboard-response","123","553722","0.0-71.0-1.0","""event"",""trial"",""time""
""fullscreenenter"",""0"",""2379""
","
","
","""event"",""trial"",""time""
""fullscreenenter"",""0"",""2379""
","
","null","<p></p>","null","","","","","","","","","","","","","","","","","","","","","","",""
"","do_trial","124","558718","0.0-72.0-0.0","""event"",""trial"",""time""
""fullscreenenter"",""0"",""2379""
","
","
","""event"",""trial"",""time""
""fullscreenenter"",""0"",""2379""
","
","421.2999999988824","","","","","","","","49","1,0,0","0","highway","17","probe-73","0.5404095377863952","0.2558551038465495","0.2266715729362098","1","","","","","","","",""
"","html-keyboard-response","125","559722","0.0-72.0-1.0","""event"",""trial"",""time""
""fullscreenenter"",""0"",""2379""
","
","
","""event"",""trial"",""time""
""fullscreenenter"",""0"",""2379""
","
","null","<p></p>","null","","","","","","","","","","","","","","","","","","","","","","",""
"","do_trial","126","564755","0.0-73.0-0.0","""event"",""trial"",""time""
""fullscreenenter"",""0"",""2379""
","
","
","""event"",""trial"",""time""
""fullscreenenter"",""0"",""2379""
","
","463.09999999962747","","","","","","","","49","0,1,0","0","highway","18","probe-115","0.568714355185353","0.41567893401211087","0.28477388079356514","0","","","","","","","",""
"","html-keyboard-response","127","565760","0.0-73.0-1.0","""event"",""trial"",""time""
""fullscreenenter"",""0"",""2379""
","
","
","""event"",""trial"",""time""
""fullscreenenter"",""0"",""2379""
","
","null","<p></p>","null","","","","","","","","","","","","","","","","","","","","","","",""
"","do_trial","128","571166","0.0-74.0-0.0","""event"",""trial"",""time""
""fullscreenenter"",""0"",""2379""
","
","
","""event"",""trial"",""time""
""fullscreenenter"",""0"",""2379""
","
","834.4000000003725","","","","","","","","49","0,0,0","0","highway","19","probe-83","0.5336062088345225","0.47568089300331196","0.16437879648636877","0","","","","","","","",""
"","html-keyboard-response","129","572174","0.0-74.0-1.0","""event"",""trial"",""time""
""fullscreenenter"",""0"",""2379""
","
","
","""event"",""trial"",""time""
""fullscreenenter"",""0"",""2379""
","
","null","<p></p>","null","","","","","","","","","","","","","","","","","","","","","","",""
"","do_trial","130","576764","0.0-75.0-0.0","""event"",""trial"",""time""
""fullscreenenter"",""0"",""2379""
","
","
","""event"",""trial"",""time""
""fullscreenenter"",""0"",""2379""
","
","16.5","","","","","","","","51","1,0,0","0","highway","20","probe-109","0.5993563035729494","0.3685043206227393","0.25985391646215333","0","","","","","","","",""
"","html-keyboard-response","131","577767","0.0-75.0-1.0","""event"",""trial"",""time""
""fullscreenenter"",""0"",""2379""
","
","
","""event"",""trial"",""time""
""fullscreenenter"",""0"",""2379""
","
","null","<p></p>","null","","","","","","","","","","","","","","","","","","","","","","",""
"","do_trial","132","582343","0.0-76.0-0.0","""event"",""trial"",""time""
""fullscreenenter"",""0"",""2379""
","
","
","""event"",""trial"",""time""
""fullscreenenter"",""0"",""2379""
","
","0.2999999988824129","","","","","","","","49","0,0,0","0","highway","21","probe-167","0.4771928571773453","0.29736986295819756","0.18261238574169414","0","","","","","","","",""
"","html-keyboard-response","133","583347","0.0-76.0-1.0","""event"",""trial"",""time""
""fullscreenenter"",""0"",""2379""
","
","
","""event"",""trial"",""time""
""fullscreenenter"",""0"",""2379""
","
","null","<p></p>","null","","","","","","","","","","","","","","","","","","","","","","",""
"","do_trial","134","588277","0.0-77.0-0.0","""event"",""trial"",""time""
""fullscreenenter"",""0"",""2379""
","
","
","""event"",""trial"",""time""
""fullscreenenter"",""0"",""2379""
","
","353.30000000074506","","","","","","","","49","0,0,0","0","highway","22","probe-94","0.5918848701492262","0.19901285838709853","0.15916104246405133","0","","","","","","","",""
"","html-keyboard-response","135","589282","0.0-77.0-1.0","""event"",""trial"",""time""
""fullscreenenter"",""0"",""2379""
","
","
","""event"",""trial"",""time""
""fullscreenenter"",""0"",""2379""
","
","null","<p></p>","null","","","","","","","","","","","","","","","","","","","","","","",""
"","do_trial","136","594338","0.0-78.0-0.0","""event"",""trial"",""time""
""fullscreenenter"",""0"",""2379""
","
","
","""event"",""trial"",""time""
""fullscreenenter"",""0"",""2379""
","
","480.40000000037253","","","","","","","","51","1,0,1","0","highway","23","probe-103","0.6459769365539744","0.16450007788634907","0.21459910341647281","1","","","","","","","",""
"","html-keyboard-response","137","595341","0.0-78.0-1.0","""event"",""trial"",""time""
""fullscreenenter"",""0"",""2379""
","
","
","""event"",""trial"",""time""
""fullscreenenter"",""0"",""2379""
","
","null","<p></p>","null","","","","","","","","","","","","","","","","","","","","","","",""
"","do_trial","138","600248","0.0-79.0-0.0","""event"",""trial"",""time""
""fullscreenenter"",""0"",""2379""
","
","
","""event"",""trial"",""time""
""fullscreenenter"",""0"",""2379""
","
","330.90000000037253","","","","","","","","51","1,0,0","0","highway","24","probe-140","0.6632465169454125","0.28866459775320014","0.05261720193452396","0","","","","","","","",""
"","html-keyboard-response","139","601251","0.0-79.0-1.0","""event"",""trial"",""time""
""fullscreenenter"",""0"",""2379""
","
","
","""event"",""trial"",""time""
""fullscreenenter"",""0"",""2379""
","
","null","<p></p>","null","","","","","","","","","","","","","","","","","","","","","","",""
"","do_trial","140","605867","0.0-80.0-0.0","""event"",""trial"",""time""
""fullscreenenter"",""0"",""2379""
","
","
","""event"",""trial"",""time""
""fullscreenenter"",""0"",""2379""
","
","43.5","","","","","","","","49","1,0,0","0","highway","25","probe-58","0.6736332493483043","0.24047230416135637","0.10992933813192927","1","","","","","","","",""
"","html-keyboard-response","141","606872","0.0-80.0-1.0","""event"",""trial"",""time""
""fullscreenenter"",""0"",""2379""
","
","
","""event"",""trial"",""time""
""fullscreenenter"",""0"",""2379""
","
","null","<p></p>","null","","","","","","","","","","","","","","","","","","","","","","",""
"","do_trial","142","611920","0.0-81.0-0.0","""event"",""trial"",""time""
""fullscreenenter"",""0"",""2379""
","
","
","""event"",""trial"",""time""
""fullscreenenter"",""0"",""2379""
","
","472.30000000074506","","","","","","","","49","1,0,0","0","highway","26","probe-176","0.7626427809262586","0.2527827094832215","0.07635085325592034","1","","","","","","","",""
"","html-keyboard-response","143","612925","0.0-81.0-1.0","""event"",""trial"",""time""
""fullscreenenter"",""0"",""2379""
","
","
","""event"",""trial"",""time""
""fullscreenenter"",""0"",""2379""
","
","null","<p></p>","null","","","","","","","","","","","","","","","","","","","","","","",""
"","do_trial","144","617985","0.0-82.0-0.0","""event"",""trial"",""time""
""fullscreenenter"",""0"",""2379""
","
","
","""event"",""trial"",""time""
""fullscreenenter"",""0"",""2379""
","
","491.90000000037253","","","","","","","","51","1,0,0","0","highway","27","probe-40","0.7967562652052211","0.2788141340496046","0.1725073628693938","0","","","","","","","",""
"","html-keyboard-response","145","618991","0.0-82.0-1.0","""event"",""trial"",""time""
""fullscreenenter"",""0"",""2379""
","
","
","""event"",""trial"",""time""
""fullscreenenter"",""0"",""2379""
","
","null","<p></p>","null","","","","","","","","","","","","","","","","","","","","","","",""
"","do_trial","146","623951","0.0-83.0-0.0","""event"",""trial"",""time""
""fullscreenenter"",""0"",""2379""
","
","
","""event"",""trial"",""time""
""fullscreenenter"",""0"",""2379""
","
","382.7999999988824","","","","","","","","49","1,1,0","0","highway","28","probe-227","0.8147570830867739","0.45018302913279","0.13954621679561538","1","","","","","","","",""
"","html-keyboard-response","147","624955","0.0-83.0-1.0","""event"",""trial"",""time""
""fullscreenenter"",""0"",""2379""
","
","
","""event"",""trial"",""time""
""fullscreenenter"",""0"",""2379""
","
","null","<p></p>","null","","","","","","","","","","","","","","","","","","","","","","",""
"","do_trial","148","629846","0.0-84.0-0.0","""event"",""trial"",""time""
""fullscreenenter"",""0"",""2379""
","
","
","""event"",""trial"",""time""
""fullscreenenter"",""0"",""2379""
","
","311.2000000011176","","","","","","","","49","1,0,0","0","highway","29","probe-34","0.7009247616784957","0.3760738597773161","0.2626812830685063","1","","","","","","","",""
"","html-keyboard-response","149","630850","0.0-84.0-1.0","""event"",""trial"",""time""
""fullscreenenter"",""0"",""2379""
","
","
","""event"",""trial"",""time""
""fullscreenenter"",""0"",""2379""
","
","null","<p></p>","null","","","","","","","","","","","","","","","","","","","","","","",""
"","do_bye","150","632357","0.0-85.0-0.0","""event"",""trial"",""time""
""fullscreenenter"",""0"",""2379""
","
","
","""event"",""trial"",""time""
""fullscreenenter"",""0"",""2379""
","
","null","","","","","","","","null","","","","","","","","","","","","","","","","",""
"","break","151","637722","0.0-85.0-1.0","""event"",""trial"",""time""
""fullscreenenter"",""0"",""2379""
","
","
","""event"",""trial"",""time""
""fullscreenenter"",""0"",""2379""
","
","5363.4000000003725","<div class='center'><p>Time to take a quick break! You have 2 minutes to rest, but you can move on sooner if you'd like.</p><p> Press the <b>space bar</b> to continue.</p></div>","32","","","","","","","","","","","","","","","","","","","","","","",""
"","do_travel","152","646729","0.0-86.0-0.0","""event"",""trial"",""time""
""fullscreenenter"",""0"",""2379""
","
","
","""event"",""trial"",""time""
""fullscreenenter"",""0"",""2379""
","
","null","","","","","","","","null","","","","","","","","","","","","","","","","",""
"","do_welcome","153","650738","0.0-86.0-1.0","""event"",""trial"",""time""
""fullscreenenter"",""0"",""2379""
","
","
","""event"",""trial"",""time""
""fullscreenenter"",""0"",""2379""
","
","null","","","","","","","","null","","","","","","","","","","","","","","","","",""
"","do_trial","154","656816","0.0-87.0-0.0","""event"",""trial"",""time""
""fullscreenenter"",""0"",""2379""
","
","
","""event"",""trial"",""time""
""fullscreenenter"",""0"",""2379""
","
","null","","","","","","","","null","1,1,0","1","forest","30","probe-197","1","0.30003313143742694","0.24116250367223743","","","","","","","","",""
"","html-keyboard-response","155","657820","0.0-87.0-1.0","""event"",""trial"",""time""
""fullscreenenter"",""0"",""2379""
","
","
","""event"",""trial"",""time""
""fullscreenenter"",""0"",""2379""
","
","null","<p></p>","null","","","","","","","","","","","","","","","","","","","","","","",""
"","do_trial","156","662773","0.0-88.0-0.0","""event"",""trial"",""time""
""fullscreenenter"",""0"",""2379""
","
","
","""event"",""trial"",""time""
""fullscreenenter"",""0"",""2379""
","
","383.2000000011176","","","","","","","","51","1,0,1","1","forest","31","probe-160","1","0.24993030319355142","0.14283838660071219","1","","","","","","","",""
"","html-keyboard-response","157","663778","0.0-88.0-1.0","""event"",""trial"",""time""
""fullscreenenter"",""0"",""2379""
","
","
","""event"",""trial"",""time""
""fullscreenenter"",""0"",""2379""
","
","null","<p></p>","null","","","","","","","","","","","","","","","","","","","","","","",""
"","do_trial","158","668699","0.0-89.0-0.0","""event"",""trial"",""time""
""fullscreenenter"",""0"",""2379""
","
","
","""event"",""trial"",""time""
""fullscreenenter"",""0"",""2379""
","
","349.5","","","","","","","","50","1,0,0","1","forest","32","probe-76","1","0.1977044559052093","0.14998451772461643","0","","","","","","","",""
"","html-keyboard-response","159","669704","0.0-89.0-1.0","""event"",""trial"",""time""
""fullscreenenter"",""0"",""2379""
","
","
","""event"",""trial"",""time""
""fullscreenenter"",""0"",""2379""
","
","null","<p></p>","null","","","","","","","","","","","","","","","","","","","","","","",""
"","do_trial","160","674882","0.0-90.0-0.0","""event"",""trial"",""time""
""fullscreenenter"",""0"",""2379""
","
","
","""event"",""trial"",""time""
""fullscreenenter"",""0"",""2379""
","
","608.9000000003725","","","","","","","","51","0,0,0","1","forest","33","probe-64","0.9115131032236522","0.07759072303351737","0.09993165871911583","0","","","","","","","",""
"","html-keyboard-response","161","675886","0.0-90.0-1.0","""event"",""trial"",""time""
""fullscreenenter"",""0"",""2379""
","
","
","""event"",""trial"",""time""
""fullscreenenter"",""0"",""2379""
","
","null","<p></p>","null","","","","","","","","","","","","","","","","","","","","","","",""
"","do_trial","162","680866","0.0-91.0-0.0","""event"",""trial"",""time""
""fullscreenenter"",""0"",""2379""
","
","
","""event"",""trial"",""time""
""fullscreenenter"",""0"",""2379""
","
","408.90000000037253","","","","","","","","51","1,0,0","1","forest","34","probe-128","0.7472555742910201","0.20770801839032543","0.1418103950847998","0","","","","","","","",""
"","html-keyboard-response","163","681873","0.0-91.0-1.0","""event"",""trial"",""time""
""fullscreenenter"",""0"",""2379""
","
","
","""event"",""trial"",""time""
""fullscreenenter"",""0"",""2379""
","
","null","<p></p>","null","","","","","","","","","","","","","","","","","","","","","","",""
"","do_trial","164","686815","0.0-92.0-0.0","""event"",""trial"",""time""
""fullscreenenter"",""0"",""2379""
","
","
","""event"",""trial"",""time""
""fullscreenenter"",""0"",""2379""
","
","368.90000000037253","","","","","","","","49","0,1,0","1","forest","35","probe-199","0.6936726123734457","0.3122660377519297","0.14819460912853386","0","","","","","","","",""
"","html-keyboard-response","165","687817","0.0-92.0-1.0","""event"",""trial"",""time""
""fullscreenenter"",""0"",""2379""
","
","
","""event"",""trial"",""time""
""fullscreenenter"",""0"",""2379""
","
","null","<p></p>","null","","","","","","","","","","","","","","","","","","","","","","",""
"","do_trial","166","693145","0.0-93.0-0.0","""event"",""trial"",""time""
""fullscreenenter"",""0"",""2379""
","
","
","""event"",""trial"",""time""
""fullscreenenter"",""0"",""2379""
","
","754.1999999992549","","","","","","","","50","1,0,0","1","forest","36","probe-211","0.6585982413384635","0.21121393021606175","0.22813224517075326","0","","","","","","","",""
"","html-keyboard-response","167","694150","0.0-93.0-1.0","""event"",""trial"",""time""
""fullscreenenter"",""0"",""2379""
","
","
","""event"",""trial"",""time""
""fullscreenenter"",""0"",""2379""
","
","null","<p></p>","null","","","","","","","","","","","","","","","","","","","","","","",""
"","do_trial","168","699086","0.0-94.0-0.0","""event"",""trial"",""time""
""fullscreenenter"",""0"",""2379""
","
","
","""event"",""trial"",""time""
""fullscreenenter"",""0"",""2379""
","
","364.19999999925494","","","","","","","","51","1,1,0","1","forest","37","probe-51","0.6044162923888693","0.3093777981352964","0.11796359728981905","0","","","","","","","",""
"","html-keyboard-response","169","700089","0.0-94.0-1.0","""event"",""trial"",""time""
""fullscreenenter"",""0"",""2379""
","
","
","""event"",""trial"",""time""
""fullscreenenter"",""0"",""2379""
","
","null","<p></p>","null","","","","","","","","","","","","","","","","","","","","","","",""
"","do_trial","170","704674","0.0-95.0-0.0","""event"",""trial"",""time""
""fullscreenenter"",""0"",""2379""
","
","
","""event"",""trial"",""time""
""fullscreenenter"",""0"",""2379""
","
","12.400000000372529","","","","","","","","49","1,0,0","1","forest","38","probe-214","0.5374392584417785","0.371580238015013","0.20686984347780069","1","","","","","","","",""
"","html-keyboard-response","171","705676","0.0-95.0-1.0","""event"",""trial"",""time""
""fullscreenenter"",""0"",""2379""
","
","
","""event"",""trial"",""time""
""fullscreenenter"",""0"",""2379""
","
","null","<p></p>","null","","","","","","","","","","","","","","","","","","","","","","",""
"","do_trial","172","710529","0.0-96.0-0.0","""event"",""trial"",""time""
""fullscreenenter"",""0"",""2379""
","
","
","""event"",""trial"",""time""
""fullscreenenter"",""0"",""2379""
","
","284.2999999988824","","","","","","","","50","1,1,0","1","forest","39","probe-74","0.5651932021010906","0.20973201431059793","0.20298862026362588","1","","","","","","","",""
"","html-keyboard-response","173","711532","0.0-96.0-1.0","""event"",""trial"",""time""
""fullscreenenter"",""0"",""2379""
","
","
","""event"",""trial"",""time""
""fullscreenenter"",""0"",""2379""
","
","null","<p></p>","null","","","","","","","","","","","","","","","","","","","","","","",""
"","do_trial","174","716370","0.0-97.0-0.0","""event"",""trial"",""time""
""fullscreenenter"",""0"",""2379""
","
","
","""event"",""trial"",""time""
""fullscreenenter"",""0"",""2379""
","
","265.40000000037253","","","","","","","","49","0,0,0","1","forest","40","probe-178","0.40878752996828566","0.31311418951243736","0.20976086501307362","0","","","","","","","",""
"","html-keyboard-response","175","717373","0.0-97.0-1.0","""event"",""trial"",""time""
""fullscreenenter"",""0"",""2379""
","
","
","""event"",""trial"",""time""
""fullscreenenter"",""0"",""2379""
","
","null","<p></p>","null","","","","","","","","","","","","","","","","","","","","","","",""
"","do_trial","176","722328","0.0-98.0-0.0","""event"",""trial"",""time""
""fullscreenenter"",""0"",""2379""
","
","
","""event"",""trial"",""time""
""fullscreenenter"",""0"",""2379""
","
","383.5","","","","","","","","50","1,0,0","1","forest","41","probe-200","0.4635325515127462","0.13630717286853053","0.16689696625424355","0","","","","","","","",""
"","html-keyboard-response","177","723334","0.0-98.0-1.0","""event"",""trial"",""time""
""fullscreenenter"",""0"",""2379""
","
","
","""event"",""trial"",""time""
""fullscreenenter"",""0"",""2379""
","
","null","<p></p>","null","","","","","","","","","","","","","","","","","","","","","","",""
"","do_trial","178","728024","0.0-99.0-0.0","""event"",""trial"",""time""
""fullscreenenter"",""0"",""2379""
","
","
","""event"",""trial"",""time""
""fullscreenenter"",""0"",""2379""
","
","118.09999999962747","","","","","","","","51","0,0,1","1","forest","42","probe-155","0.3898032687278479","0.1737163028332358","0.22642902881739496","1","","","","","","","",""
"","html-keyboard-response","179","729030","0.0-99.0-1.0","""event"",""trial"",""time""
""fullscreenenter"",""0"",""2379""
","
","
","""event"",""trial"",""time""
""fullscreenenter"",""0"",""2379""
","
","null","<p></p>","null","","","","","","","","","","","","","","","","","","","","","","",""
"","do_trial","180","733607","0.0-100.0-0.0","""event"",""trial"",""time""
""fullscreenenter"",""0"",""2379""
","
","
","""event"",""trial"",""time""
""fullscreenenter"",""0"",""2379""
","
","0.2000000011175871","","","","","","","","49","1,0,0","1","forest","43","probe-137","0.25852176753508027","0.27113124389794707","0.46502733211193414","1","","","","","","","",""
"","html-keyboard-response","181","734610","0.0-100.0-1.0","""event"",""trial"",""time""
""fullscreenenter"",""0"",""2379""
","
","
","""event"",""trial"",""time""
""fullscreenenter"",""0"",""2379""
","
","null","<p></p>","null","","","","","","","","","","","","","","","","","","","","","","",""
"","do_trial","182","739556","0.0-101.0-0.0","""event"",""trial"",""time""
""fullscreenenter"",""0"",""2379""
","
","
","""event"",""trial"",""time""
""fullscreenenter"",""0"",""2379""
","
","367.7999999988824","","","","","","","","51","0,0,0","1","forest","44","probe-204","0.23510251359087542","0.0632318190115178","0.44404057736864316","0","","","","","","","",""
"","html-keyboard-response","183","740561","0.0-101.0-1.0","""event"",""trial"",""time""
""fullscreenenter"",""0"",""2379""
","
","
","""event"",""trial"",""time""
""fullscreenenter"",""0"",""2379""
","
","null","<p></p>","null","","","","","","","","","","","","","","","","","","","","","","",""
"","do_trial","184","745134","0.0-102.0-0.0","""event"",""trial"",""time""
""fullscreenenter"",""0"",""2379""
","
","
","""event"",""trial"",""time""
""fullscreenenter"",""0"",""2379""
","
","0.2999999988824129","","","","","","","","49","0,0,1","1","forest","45","probe-05","0.29390317035734276","0.05139017177645874","0.45530049857575755","0","","","","","","","",""
"","html-keyboard-response","185","746139","0.0-102.0-1.0","""event"",""trial"",""time""
""fullscreenenter"",""0"",""2379""
","
","
","""event"",""trial"",""time""
""fullscreenenter"",""0"",""2379""
","
","null","<p></p>","null","","","","","","","","","","","","","","","","","","","","","","",""
"","do_trial","186","751023","0.0-103.0-0.0","""event"",""trial"",""time""
""fullscreenenter"",""0"",""2379""
","
","
","""event"",""trial"",""time""
""fullscreenenter"",""0"",""2379""
","
","310.30000000074506","","","","","","","","50","1,0,1","1","forest","46","probe-187","0.20162668122546415","0.11177426416515968","0.7815443738259064","0","","","","","","","",""
"","html-keyboard-response","187","752029","0.0-103.0-1.0","""event"",""trial"",""time""
""fullscreenenter"",""0"",""2379""
","
","
","""event"",""trial"",""time""
""fullscreenenter"",""0"",""2379""
","
","null","<p></p>","null","","","","","","","","","","","","","","","","","","","","","","",""
"","do_trial","188","756932","0.0-104.0-0.0","""event"",""trial"",""time""
""fullscreenenter"",""0"",""2379""
","
","
","""event"",""trial"",""time""
""fullscreenenter"",""0"",""2379""
","
","327.7000000011176","","","","","","","","49","0,0,1","1","forest","47","probe-201","0.28185177310411613","0.05499335088327516","0.6773306828370314","0","","","","","","","",""
"","html-keyboard-response","189","757934","0.0-104.0-1.0","""event"",""trial"",""time""
""fullscreenenter"",""0"",""2379""
","
","
","""event"",""trial"",""time""
""fullscreenenter"",""0"",""2379""
","
","null","<p></p>","null","","","","","","","","","","","","","","","","","","","","","","",""
"","do_trial","190","762707","0.0-105.0-0.0","""event"",""trial"",""time""
""fullscreenenter"",""0"",""2379""
","
","
","""event"",""trial"",""time""
""fullscreenenter"",""0"",""2379""
","
","199.30000000074506","","","","","","","","51","0,0,1","1","forest","48","probe-148","0.3074355332509544","0.08127058739449365","0.6181471364695624","1","","","","","","","",""
"","html-keyboard-response","191","763711","0.0-105.0-1.0","""event"",""trial"",""time""
""fullscreenenter"",""0"",""2379""
","
","
","""event"",""trial"",""time""
""fullscreenenter"",""0"",""2379""
","
","null","<p></p>","null","","","","","","","","","","","","","","","","","","","","","","",""
"","do_trial","192","768697","0.0-106.0-0.0","""event"",""trial"",""time""
""fullscreenenter"",""0"",""2379""
","
","
","""event"",""trial"",""time""
""fullscreenenter"",""0"",""2379""
","
","415.7999999988824","","","","","","","","51","0,0,0","1","forest","49","probe-61","0.3388409603926917","0.07063282845768365","0.494776730140659","0","","","","","","","",""
"","html-keyboard-response","193","769702","0.0-106.0-1.0","""event"",""trial"",""time""
""fullscreenenter"",""0"",""2379""
","
","
","""event"",""trial"",""time""
""fullscreenenter"",""0"",""2379""
","
","null","<p></p>","null","","","","","","","","","","","","","","","","","","","","","","",""
"","do_trial","194","774627","0.0-107.0-0.0","""event"",""trial"",""time""
""fullscreenenter"",""0"",""2379""
","
","
","""event"",""trial"",""time""
""fullscreenenter"",""0"",""2379""
","
","349.7999999988824","","","","","","","","51","0,0,1","1","forest","50","probe-144","0.35098099573343816","0.07035524187702658","0.6098578251987635","1","","","","","","","",""
"","html-keyboard-response","195","775634","0.0-107.0-1.0","""event"",""trial"",""time""
""fullscreenenter"",""0"",""2379""
","
","
","""event"",""trial"",""time""
""fullscreenenter"",""0"",""2379""
","
","null","<p></p>","null","","","","","","","","","","","","","","","","","","","","","","",""
"","do_trial","196","780602","0.0-108.0-0.0","""event"",""trial"",""time""
""fullscreenenter"",""0"",""2379""
","
","
","""event"",""trial"",""time""
""fullscreenenter"",""0"",""2379""
","
","393.3999999985099","","","","","","","","49","0,0,1","1","forest","51","probe-09","0.326787629572057","0.17213781757633229","0.5457714296584665","0","","","","","","","",""
"","html-keyboard-response","197","781606","0.0-108.0-1.0","""event"",""trial"",""time""
""fullscreenenter"",""0"",""2379""
","
","
","""event"",""trial"",""time""
""fullscreenenter"",""0"",""2379""
","
","null","<p></p>","null","","","","","","","","","","","","","","","","","","","","","","",""
"","do_trial","198","786827","0.0-109.0-0.0","""event"",""trial"",""time""
""fullscreenenter"",""0"",""2379""
","
","
","""event"",""trial"",""time""
""fullscreenenter"",""0"",""2379""
","
","648.5","","","","","","","","51","0,0,1","1","forest","52","probe-82","0.33044590786099803","0.08659227277764668","0.5581282988211039","1","","","","","","","",""
"","html-keyboard-response","199","787832","0.0-109.0-1.0","""event"",""trial"",""time""
""fullscreenenter"",""0"",""2379""
","
","
","""event"",""trial"",""time""
""fullscreenenter"",""0"",""2379""
","
","null","<p></p>","null","","","","","","","","","","","","","","","","","","","","","","",""
"","do_trial","200","792935","0.0-110.0-0.0","""event"",""trial"",""time""
""fullscreenenter"",""0"",""2379""
","
","
","""event"",""trial"",""time""
""fullscreenenter"",""0"",""2379""
","
","529.5","","","","","","","","51","0,0,0","1","forest","53","probe-192","0.21354296010843649","0.14611976578965866","0.4608647006521682","0","","","","","","","",""
"","html-keyboard-response","201","793940","0.0-110.0-1.0","""event"",""trial"",""time""
""fullscreenenter"",""0"",""2379""
","
","
","""event"",""trial"",""time""
""fullscreenenter"",""0"",""2379""
","
","null","<p></p>","null","","","","","","","","","","","","","","","","","","","","","","",""
"","do_trial","202","798598","0.0-111.0-0.0","""event"",""trial"",""time""
""fullscreenenter"",""0"",""2379""
","
","
","""event"",""trial"",""time""
""fullscreenenter"",""0"",""2379""
","
","82","","","","","","","","49","1,0,0","1","forest","54","probe-36","0.260050742580151","0.21347123740106638","0.43871406866342355","1","","","","","","","",""
"","html-keyboard-response","203","799604","0.0-111.0-1.0","""event"",""trial"",""time""
""fullscreenenter"",""0"",""2379""
","
","
","""event"",""trial"",""time""
""fullscreenenter"",""0"",""2379""
","
","null","<p></p>","null","","","","","","","","","","","","","","","","","","","","","","",""
"","do_trial","204","805231","0.0-112.0-0.0","""event"",""trial"",""time""
""fullscreenenter"",""0"",""2379""
","
","
","""event"",""trial"",""time""
""fullscreenenter"",""0"",""2379""
","
","1051.2000000011176","","","","","","","","51","1,0,1","1","forest","55","probe-10","0.09102395147730728","0.13676119067564313","0.525298202499725","1","","","","","","","",""
"","html-keyboard-response","205","806234","0.0-112.0-1.0","""event"",""trial"",""time""
""fullscreenenter"",""0"",""2379""
","
","
","""event"",""trial"",""time""
""fullscreenenter"",""0"",""2379""
","
","null","<p></p>","null","","","","","","","","","","","","","","","","","","","","","","",""
"","do_trial","206","812643","0.0-113.0-0.0","""event"",""trial"",""time""
""fullscreenenter"",""0"",""2379""
","
","
","""event"",""trial"",""time""
""fullscreenenter"",""0"",""2379""
","
","1839","","","","","","","","51","0,0,1","1","forest","56","probe-209","0.18291846949878263","0.05437989131589729","0.5736743540152623","1","","","","","","","",""
"","html-keyboard-response","207","813646","0.0-113.0-1.0","""event"",""trial"",""time""
""fullscreenenter"",""0"",""2379""
","
","
","""event"",""trial"",""time""
""fullscreenenter"",""0"",""2379""
","
","null","<p></p>","null","","","","","","","","","","","","","","","","","","","","","","",""
"","do_trial","208","819374","0.0-114.0-0.0","""event"",""trial"",""time""
""fullscreenenter"",""0"",""2379""
","
","
","""event"",""trial"",""time""
""fullscreenenter"",""0"",""2379""
","
","1153.9000000003725","","","","","","","","51","0,0,0","1","forest","57","probe-86","0.27417396216714535","0.05504950095951169","0.7447956158287602","0","","","","","","","",""
"","html-keyboard-response","209","820378","0.0-114.0-1.0","""event"",""trial"",""time""
""fullscreenenter"",""0"",""2379""
","
","
","""event"",""trial"",""time""
""fullscreenenter"",""0"",""2379""
","
","null","<p></p>","null","","","","","","","","","","","","","","","","","","","","","","",""
"","do_trial","210","826402","0.0-115.0-0.0","""event"",""trial"",""time""
""fullscreenenter"",""0"",""2379""
","
","
","""event"",""trial"",""time""
""fullscreenenter"",""0"",""2379""
","
","1451.300000000745","","","","","","","","51","0,1,1","1","forest","58","probe-23","0.3645049888238917","0.20698637373083503","0.799656603225585","1","","","","","","","",""
"","html-keyboard-response","211","827407","0.0-115.0-1.0","""event"",""trial"",""time""
""fullscreenenter"",""0"",""2379""
","
","
","""event"",""trial"",""time""
""fullscreenenter"",""0"",""2379""
","
","null","<p></p>","null","","","","","","","","","","","","","","","","","","","","","","",""
"","do_trial","212","832758","0.0-116.0-0.0","""event"",""trial"",""time""
""fullscreenenter"",""0"",""2379""
","
","
","""event"",""trial"",""time""
""fullscreenenter"",""0"",""2379""
","
","782.1000000014901","","","","","","","","51","0,0,1","1","forest","59","probe-27","0.3528910719679222","0.07201554719074453","0.6792342963043362","1","","","","","","","",""
"","html-keyboard-response","213","833764","0.0-116.0-1.0","""event"",""trial"",""time""
""fullscreenenter"",""0"",""2379""
","
","
","""event"",""trial"",""time""
""fullscreenenter"",""0"",""2379""
","
","null","<p></p>","null","","","","","","","","","","","","","","","","","","","","","","",""
"","do_trial","214","838380","0.0-117.0-0.0","""event"",""trial"",""time""
""fullscreenenter"",""0"",""2379""
","
","
","""event"",""trial"",""time""
""fullscreenenter"",""0"",""2379""
","
","43.90000000037253","","","","","","","","51","0,0,0","1","forest","60","probe-175","0.2613338750883071","0.13712068744386938","0.6817304020360851","0","","","","","","","",""
"","html-keyboard-response","215","839386","0.0-117.0-1.0","""event"",""trial"",""time""
""fullscreenenter"",""0"",""2379""
","
","
","""event"",""trial"",""time""
""fullscreenenter"",""0"",""2379""
","
","null","<p></p>","null","","","","","","","","","","","","","","","","","","","","","","",""
"","do_trial","216","844087","0.0-118.0-0.0","""event"",""trial"",""time""
""fullscreenenter"",""0"",""2379""
","
","
","""event"",""trial"",""time""
""fullscreenenter"",""0"",""2379""
","
","128.10000000149012","","","","","","","","50","0,0,1","1","forest","61","probe-43","0.3597588099101061","0.09868446572211138","0.6136943756179062","0","","","","","","","",""
"","html-keyboard-response","217","845090","0.0-118.0-1.0","""event"",""trial"",""time""
""fullscreenenter"",""0"",""2379""
","
","
","""event"",""trial"",""time""
""fullscreenenter"",""0"",""2379""
","
","null","<p></p>","null","","","","","","","","","","","","","","","","","","","","","","",""
"","do_trial","218","851168","0.0-119.0-0.0","""event"",""trial"",""time""
""fullscreenenter"",""0"",""2379""
","
","
","""event"",""trial"",""time""
""fullscreenenter"",""0"",""2379""
","
","null","","","","","","","","null","0,0,0","1","forest","62","probe-179","0.21541171642751963","0.11550532470876293","0.46991749301779595","","","","","","","","",""
"","html-keyboard-response","219","852172","0.0-119.0-1.0","""event"",""trial"",""time""
""fullscreenenter"",""0"",""2379""
","
","
","""event"",""trial"",""time""
""fullscreenenter"",""0"",""2379""
","
","null","<p></p>","null","","","","","","","","","","","","","","","","","","","","","","",""
"","do_trial","220","858246","0.0-120.0-0.0","""event"",""trial"",""time""
""fullscreenenter"",""0"",""2379""
","
","
","""event"",""trial"",""time""
""fullscreenenter"",""0"",""2379""
","
","null","","","","","","","","null","0,0,0","1","forest","63","probe-219","0.23259332437041924","0.0680351543856143","0.6104342928860781","","","","","","","","",""
"","html-keyboard-response","221","859252","0.0-120.0-1.0","""event"",""trial"",""time""
""fullscreenenter"",""0"",""2379""
","
","
","""event"",""trial"",""time""
""fullscreenenter"",""0"",""2379""
","
","null","<p></p>","null","","","","","","","","","","","","","","","","","","","","","","",""
"","do_trial","222","864270","0.0-121.0-0.0","""event"",""trial"",""time""
""fullscreenenter"",""0"",""2379""
","
","
","""event"",""trial"",""time""
""fullscreenenter"",""0"",""2379""
","
","443.5","","","","","","","","50","0,0,1","1","forest","64","probe-177","0.05205234442805022","0.111201569280035","0.6428799627930865","0","","","","","","","",""
"","html-keyboard-response","223","865276","0.0-121.0-1.0","""event"",""trial"",""time""
""fullscreenenter"",""0"",""2379""
","
","
","""event"",""trial"",""time""
""fullscreenenter"",""0"",""2379""
","
","null","<p></p>","null","","","","","","","","","","","","","","","","","","","","","","",""
"","do_trial","224","870183","0.0-122.0-0.0","""event"",""trial"",""time""
""fullscreenenter"",""0"",""2379""
","
","
","""event"",""trial"",""time""
""fullscreenenter"",""0"",""2379""
","
","334.7999999988824","","","","","","","","51","0,0,0","1","forest","65","probe-196","0.11475769104233262","0.12405650881569928","0.616865108193024","0","","","","","","","",""
"","html-keyboard-response","225","871189","0.0-122.0-1.0","""event"",""trial"",""time""
""fullscreenenter"",""0"",""2379""
","
","
","""event"",""trial"",""time""
""fullscreenenter"",""0"",""2379""
","
","null","<p></p>","null","","","","","","","","","","","","","","","","","","","","","","",""
"","do_trial","226","876603","0.0-123.0-0.0","""event"",""trial"",""time""
""fullscreenenter"",""0"",""2379""
","
","
","""event"",""trial"",""time""
""fullscreenenter"",""0"",""2379""
","
","840.5","","","","","","","","51","1,0,1","1","forest","66","probe-80","0.18023496299919126","0.12991095489397733","0.5449969547042778","1","","","","","","","",""
"","html-keyboard-response","227","877606","0.0-123.0-1.0","""event"",""trial"",""time""
""fullscreenenter"",""0"",""2379""
","
","
","""event"",""trial"",""time""
""fullscreenenter"",""0"",""2379""
","
","null","<p></p>","null","","","","","","","","","","","","","","","","","","","","","","",""
"","do_trial","228","882784","0.0-124.0-0.0","""event"",""trial"",""time""
""fullscreenenter"",""0"",""2379""
","
","
","""event"",""trial"",""time""
""fullscreenenter"",""0"",""2379""
","
","608.1999999992549","","","","","","","","49","0,0,1","1","forest","67","probe-153","0.32149071618572456","0.07440662273052016","0.5214709883069927","0","","","","","","","",""
"","html-keyboard-response","229","883791","0.0-124.0-1.0","""event"",""trial"",""time""
""fullscreenenter"",""0"",""2379""
","
","
","""event"",""trial"",""time""
""fullscreenenter"",""0"",""2379""
","
","null","<p></p>","null","","","","","","","","","","","","","","","","","","","","","","",""
"","do_trial","230","889061","0.0-125.0-0.0","""event"",""trial"",""time""
""fullscreenenter"",""0"",""2379""
","
","
","""event"",""trial"",""time""
""fullscreenenter"",""0"",""2379""
","
","698.9000000003725","","","","","","","","51","1,0,0","1","forest","68","probe-95","0.3110103352900421","0.14262263216848034","0.5539106658232269","0","","","","","","","",""
"","html-keyboard-response","231","890065","0.0-125.0-1.0","""event"",""trial"",""time""
""fullscreenenter"",""0"",""2379""
","
","
","""event"",""trial"",""time""
""fullscreenenter"",""0"",""2379""
","
","null","<p></p>","null","","","","","","","","","","","","","","","","","","","","","","",""
"","do_trial","232","894677","0.0-126.0-0.0","""event"",""trial"",""time""
""fullscreenenter"",""0"",""2379""
","
","
","""event"",""trial"",""time""
""fullscreenenter"",""0"",""2379""
","
","34.20000000111759","","","","","","","","51","0,0,0","1","forest","69","probe-63","0.371651023405612","0.08246222007723397","0.5108904866857248","0","","","","","","","",""
"","html-keyboard-response","233","895683","0.0-126.0-1.0","""event"",""trial"",""time""
""fullscreenenter"",""0"",""2379""
","
","
","""event"",""trial"",""time""
""fullscreenenter"",""0"",""2379""
","
","null","<p></p>","null","","","","","","","","","","","","","","","","","","","","","","",""
"","do_bye","234","897192","0.0-127.0-0.0","""event"",""trial"",""time""
""fullscreenenter"",""0"",""2379""
","
","
","""event"",""trial"",""time""
""fullscreenenter"",""0"",""2379""
","
","null","","","","","","","","null","","","","","","","","","","","","","","","","",""
"","break","235","900438","0.0-127.0-1.0","""event"",""trial"",""time""
""fullscreenenter"",""0"",""2379""
","
","
","""event"",""trial"",""time""
""fullscreenenter"",""0"",""2379""
","
","3243.699999999255","<div class='center'><p>Time to take a quick break! You have 2 minutes to rest, but you can move on sooner if you'd like.</p><p> Press the <b>space bar</b> to continue.</p></div>","32","","","","","","","","","","","","","","","","","","","","","","",""
"","do_travel","236","909443","0.0-128.0-0.0","""event"",""trial"",""time""
""fullscreenenter"",""0"",""2379""
","
","
","""event"",""trial"",""time""
""fullscreenenter"",""0"",""2379""
","
","null","","","","","","","","null","","","","","","","","","","","","","","","","",""
"","do_welcome","237","913453","0.0-128.0-1.0","""event"",""trial"",""time""
""fullscreenenter"",""0"",""2379""
","
","
","""event"",""trial"",""time""
""fullscreenenter"",""0"",""2379""
","
","null","","","","","","","","null","","","","","","","","","","","","","","","","",""
"","do_trial","238","919247","0.0-129.0-0.0","""event"",""trial"",""time""
""fullscreenenter"",""0"",""2379""
","
","
","""event"",""trial"",""time""
""fullscreenenter"",""0"",""2379""
","
","1220.2000000011176","","","","","","","","51","1,0,1","2","mountain","70","probe-60","0.33425764824536514","0.06892920597137382","1","1","","","","","","","",""
"","html-keyboard-response","239","920250","0.0-129.0-1.0","""event"",""trial"",""time""
""fullscreenenter"",""0"",""2379""
","
","
","""event"",""trial"",""time""
""fullscreenenter"",""0"",""2379""
","
","null","<p></p>","null","","","","","","","","","","","","","","","","","","","","","","",""
"","do_trial","240","924943","0.0-130.0-0.0","""event"",""trial"",""time""
""fullscreenenter"",""0"",""2379""
","
","
","""event"",""trial"",""time""
""fullscreenenter"",""0"",""2379""
","
","122.09999999962747","","","","","","","","51","0,0,1","2","mountain","71","probe-142","0.24826960990838096","0.15552951469448054","1","1","","","","","","","",""
"","html-keyboard-response","241","925948","0.0-130.0-1.0","""event"",""trial"",""time""
""fullscreenenter"",""0"",""2379""
","
","
","""event"",""trial"",""time""
""fullscreenenter"",""0"",""2379""
","
","null","<p></p>","null","","","","","","","","","","","","","","","","","","","","","","",""
"","do_trial","242","930929","0.0-131.0-0.0","""event"",""trial"",""time""
""fullscreenenter"",""0"",""2379""
","
","
","""event"",""trial"",""time""
""fullscreenenter"",""0"",""2379""
","
","404.90000000037253","","","","","","","","51","0,0,1","2","mountain","72","probe-202","0.23785342506906887","0.24518735179416523","0.9399164401327121","1","","","","","","","",""
"","html-keyboard-response","243","931935","0.0-131.0-1.0","""event"",""trial"",""time""
""fullscreenenter"",""0"",""2379""
","
","
","""event"",""trial"",""time""
""fullscreenenter"",""0"",""2379""
","
","null","<p></p>","null","","","","","","","","","","","","","","","","","","","","","","",""
"","do_trial","244","936934","0.0-132.0-0.0","""event"",""trial"",""time""
""fullscreenenter"",""0"",""2379""
","
","
","""event"",""trial"",""time""
""fullscreenenter"",""0"",""2379""
","
","424.5","","","","","","","","51","0,1,1","2","mountain","73","probe-188","0.1896272058157392","0.3217140322563767","0.9045202229978818","1","","","","","","","",""
"","html-keyboard-response","245","937938","0.0-132.0-1.0","""event"",""trial"",""time""
""fullscreenenter"",""0"",""2379""
","
","
","""event"",""trial"",""time""
""fullscreenenter"",""0"",""2379""
","
","null","<p></p>","null","","","","","","","","","","","","","","","","","","","","","","",""
"","do_trial","246","943821","0.0-133.0-0.0","""event"",""trial"",""time""
""fullscreenenter"",""0"",""2379""
","
","
","""event"",""trial"",""time""
""fullscreenenter"",""0"",""2379""
","
","1309.2000000011176","","","","","","","","51","0,0,1","2","mountain","74","probe-220","0.2694568165067078","0.14023622863722074","0.7139940361582637","1","","","","","","","",""
"","html-keyboard-response","247","944826","0.0-133.0-1.0","""event"",""trial"",""time""
""fullscreenenter"",""0"",""2379""
","
","
","""event"",""trial"",""time""
""fullscreenenter"",""0"",""2379""
","
","null","<p></p>","null","","","","","","","","","","","","","","","","","","","","","","",""
"","do_trial","248","949792","0.0-134.0-0.0","""event"",""trial"",""time""
""fullscreenenter"",""0"",""2379""
","
","
","""event"",""trial"",""time""
""fullscreenenter"",""0"",""2379""
","
","390.2999999988824","","","","","","","","51","0,0,0","2","mountain","75","probe-79","0.27769427789419227","0.14932332240713136","0.600688257397662","0","","","","","","","",""
"","html-keyboard-response","249","950795","0.0-134.0-1.0","""event"",""trial"",""time""
""fullscreenenter"",""0"",""2379""
","
","
","""event"",""trial"",""time""
""fullscreenenter"",""0"",""2379""
","
","null","<p></p>","null","","","","","","","","","","","","","","","","","","","","","","",""
"","do_trial","250","956868","0.0-135.0-0.0","""event"",""trial"",""time""
""fullscreenenter"",""0"",""2379""
","
","
","""event"",""trial"",""time""
""fullscreenenter"",""0"",""2379""
","
","null","","","","","","","","null","1,0,1","2","mountain","76","probe-31","0.33303831448092497","0.11142131529735921","0.7844720563415796","","","","","","","","",""
"","html-keyboard-response","251","957874","0.0-135.0-1.0","""event"",""trial"",""time""
""fullscreenenter"",""0"",""2379""
","
","
","""event"",""trial"",""time""
""fullscreenenter"",""0"",""2379""
","
","null","<p></p>","null","","","","","","","","","","","","","","","","","","","","","","",""
"","do_trial","252","963390","0.0-136.0-0.0","""event"",""trial"",""time""
""fullscreenenter"",""0"",""2379""
","
","
","""event"",""trial"",""time""
""fullscreenenter"",""0"",""2379""
","
","942.5999999996275","","","","","","","","51","0,1,0","2","mountain","77","probe-183","0.30886659423952123","0.2372473346869703","0.5496496562563994","0","","","","","","","",""
"","html-keyboard-response","253","964394","0.0-136.0-1.0","""event"",""trial"",""time""
""fullscreenenter"",""0"",""2379""
","
","
","""event"",""trial"",""time""
""fullscreenenter"",""0"",""2379""
","
","null","<p></p>","null","","","","","","","","","","","","","","","","","","","","","","",""
"","do_trial","254","969391","0.0-137.0-0.0","""event"",""trial"",""time""
""fullscreenenter"",""0"",""2379""
","
","
","""event"",""trial"",""time""
""fullscreenenter"",""0"",""2379""
","
","427.90000000037253","","","","","","","","49","0,0,1","2","mountain","78","probe-169","0.28406347843215224","0.09108567994401792","0.605779633677456","0","","","","","","","",""
"","html-keyboard-response","255","970394","0.0-137.0-1.0","""event"",""trial"",""time""
""fullscreenenter"",""0"",""2379""
","
","
","""event"",""trial"",""time""
""fullscreenenter"",""0"",""2379""
","
","null","<p></p>","null","","","","","","","","","","","","","","","","","","","","","","",""
"","do_trial","256","975654","0.0-138.0-0.0","""event"",""trial"",""time""
""fullscreenenter"",""0"",""2379""
","
","
","""event"",""trial"",""time""
""fullscreenenter"",""0"",""2379""
","
","686.6999999992549","","","","","","","","51","0,0,1","2","mountain","79","probe-14","0.24721202749553287","0.14221777992284793","0.5589275307313655","1","","","","","","","",""
"","html-keyboard-response","257","976659","0.0-138.0-1.0","""event"",""trial"",""time""
""fullscreenenter"",""0"",""2379""
","
","
","""event"",""trial"",""time""
""fullscreenenter"",""0"",""2379""
","
","null","<p></p>","null","","","","","","","","","","","","","","","","","","","","","","",""
"","do_trial","258","981814","0.0-139.0-0.0","""event"",""trial"",""time""
""fullscreenenter"",""0"",""2379""
","
","
","""event"",""trial"",""time""
""fullscreenenter"",""0"",""2379""
","
","579.8999999985099","","","","","","","","51","1,0,0","2","mountain","80","probe-228","0.30513740614691","0.19217428129551584","0.5155461548133031","0","","","","","","","",""
"","html-keyboard-response","259","982818","0.0-139.0-1.0","""event"",""trial"",""time""
""fullscreenenter"",""0"",""2379""
","
","
","""event"",""trial"",""time""
""fullscreenenter"",""0"",""2379""
","
","null","<p></p>","null","","","","","","","","","","","","","","","","","","","","","","",""
"","do_trial","260","987506","0.0-140.0-0.0","""event"",""trial"",""time""
""fullscreenenter"",""0"",""2379""
","
","
","""event"",""trial"",""time""
""fullscreenenter"",""0"",""2379""
","
","116.30000000074506","","","","","","","","51","1,0,0","2","mountain","81","probe-138","0.17958889984737242","0.255695982198411","0.5906853854449965","0","","","","","","","",""
"","html-keyboard-response","261","988511","0.0-140.0-1.0","""event"",""trial"",""time""
""fullscreenenter"",""0"",""2379""
","
","
","""event"",""trial"",""time""
""fullscreenenter"",""0"",""2379""
","
","null","<p></p>","null","","","","","","","","","","","","","","","","","","","","","","",""
