"success","trial_type","trial_index","time_elapsed","internal_node_id","rt","stimulus","key_press","subject_id","response","choice_outcomes","context_n","context_img_id","trial_n","probe_img_id","pR_red","pR_white","pR_black","outcome","contextArray_ind","validImageProbes","invalidImageProbes","pRew_Red","pRew_White","pRew_Black","availableForMemProbe","choice_blocks"
"true","fullscreen","0","3120","0.0-0.0","","","","","","","","","","","","","","","","","","","","","",""
"","pavlovia","1","3125","0.0-1.0","","","","","","","","","","","","","","","","","","","","","",""
"","html-keyboard-response","2","30912","0.0-2.0","27783.69999998808","<div class='center'><p>Welcome! This is the first day of the experiment which will last ~30 minutes. In this experiment, you are the head captain of a pirate ship traveling around the world to different places. You will complete several different tasks during this experiment. Here is an overview of these tasks:</p><br><p>Day 1</p><p>1. Tutorial and quiz</p><p>2. Pick a pirate game in 6 different places</p><br><p>Day 2</p><p>3. Pick a pirate game and memory game</p><p>4. Final questions and payment</p><br><p>If you complete the entire experiment, you will receive $15 and a possible bonus payment.</p><p><b>[Press the space bar to begin the tutorial]</b></p></div>","32","60fdb53e8810984e37f5303b","","","","","","","","","","","","","","","","","",""
"","html-keyboard-response","3","38481","0.0-3.0","7567.699999988079","<div class='center'><p>You’ll stop at these 6 islands on your journey. You'll be able to see them in the distance from your ship.</p><p><img src='run_exp/static/images/contexts/all_contexts.png' height='500'></p><p><b>[Press the space bar to continue]</b></p></div>","32","","","","","","","","","","","","","","","","","","",""
"","html-keyboard-response","4","41882","0.0-4.0","3399.2999999821186","<div class='center'><p> The pirates on your ship will rob other ships as they leave island</p> These ships have just sold their things to the people living on the island, so they will have lots and lots of gold on them.</p><p><img src='run_exp/static/images/tutorial/ship_center.png' height='400'></p><p><b>[Press the space bar to continue]</b></p></div>","32","","","","","","","","","","","","","","","","","","",""
"","html-keyboard-response","5","49041","0.0-5.0","7157.9000000059605","<div class='center'><p>As the head captain, you do not have to rob any ships yourself.</p><p>Another pirate will be doing the robbing for you. </p><p><img src='run_exp/static/images/tutorial/pirates_all_crop.png' height='200'></p><p>If they could rob the ship, then you will get a stack of gold coins like this:</p><p><img src='run_exp/static/images/tutorial/reward.png' height='150'></p><p> If they couldn't rob the ship, then you will get no gold coins and you'll see a big red x like this: </p><p><img src='run_exp/static/images/tutorial/reward_no.png' height='150'></p><p> How much bonus money you make is based on how many gold coins you collect.</p><p><b>[Press the space bar to continue]</b></p><div>","32","","","","","","","","","","","","","","","","","","",""
"","html-keyboard-response","6","66544","0.0-6.0","17501.399999976158","<div class='center'><p>Even the most skilled pirate can not rob EVERY ship.</p><p> Some ships will have very strong defenses against pirate attacks.</p><p> For example, blue beard, here, is very, very good at robbing ships.</p><p> You can press the <b>‘1’</b> button on the keyboard to choose him.</p><p> Try choosing him 10 times to see how often he can rob a ship. </p><p><img src='run_exp/static/images/tutorial/blue.png' height='500'></p></div>","49","","","","","","","","","","","","","","","","","","",""
"","html-keyboard-response","7","68045","0.0-7.0","null","<div class='center'><p><img src='run_exp/static/images/tutorial/blue_win.png' height='500'></p></div>","null","","","","","","","","","","","","","","","","","","",""
"","html-keyboard-response","8","69582","0.0-8.0","1535.800000011921","<div class='center'><img src='run_exp/static/images/tutorial/blue.png' height='500'></p></div>","49","","","","","","","","","","","","","","","","","","",""
"","html-keyboard-response","9","71084","0.0-9.0","null","<div class='center'><p><img src='run_exp/static/images/tutorial/blue_win.png' height='500'></p></div>","null","","","","","","","","","","","","","","","","","","",""
"","html-keyboard-response","10","71946","0.0-10.0","861.5","<div class='center'><img src='run_exp/static/images/tutorial/blue.png' height='500'></p></div>","49","","","","","","","","","","","","","","","","","","",""
"","html-keyboard-response","11","73448","0.0-11.0","null","<div class='center'><p><img src='run_exp/static/images/tutorial/blue_win.png' height='500'></p></div>","null","","","","","","","","","","","","","","","","","","",""
"","html-keyboard-response","12","74095","0.0-12.0","646.5999999940395","<div class='center'><img src='run_exp/static/images/tutorial/blue.png' height='500'></p></div>","49","","","","","","","","","","","","","","","","","","",""
"","html-keyboard-response","13","75596","0.0-13.0","null","<div class='center'><p><img src='run_exp/static/images/tutorial/blue_no_win.png' height='500'></p></div>","null","","","","","","","","","","","","","","","","","","",""
"","html-keyboard-response","14","76206","0.0-14.0","609.6999999880791","<div class='center'><img src='run_exp/static/images/tutorial/blue.png' height='500'></p></div>","49","","","","","","","","","","","","","","","","","","",""
"","html-keyboard-response","15","77710","0.0-15.0","null","<div class='center'><p><img src='run_exp/static/images/tutorial/blue_win.png' height='500'></p></div>","null","","","","","","","","","","","","","","","","","","",""
"","html-keyboard-response","16","78248","0.0-16.0","536.5999999940395","<div class='center'><img src='run_exp/static/images/tutorial/blue.png' height='500'></p></div>","49","","","","","","","","","","","","","","","","","","",""
"","html-keyboard-response","17","79753","0.0-17.0","null","<div class='center'><p><img src='run_exp/static/images/tutorial/blue_win.png' height='500'></p></div>","null","","","","","","","","","","","","","","","","","","",""
"","html-keyboard-response","18","80175","0.0-18.0","420.80000001192093","<div class='center'><img src='run_exp/static/images/tutorial/blue.png' height='500'></p></div>","49","","","","","","","","","","","","","","","","","","",""
"","html-keyboard-response","19","81678","0.0-19.0","null","<div class='center'><p><img src='run_exp/static/images/tutorial/blue_win.png' height='500'></p></div>","null","","","","","","","","","","","","","","","","","","",""
"","html-keyboard-response","20","82126","0.0-20.0","447.30000001192093","<div class='center'><img src='run_exp/static/images/tutorial/blue.png' height='500'></p></div>","49","","","","","","","","","","","","","","","","","","",""
"","html-keyboard-response","21","83628","0.0-21.0","null","<div class='center'><p><img src='run_exp/static/images/tutorial/blue_no_win.png' height='500'></p></div>","null","","","","","","","","","","","","","","","","","","",""
"","html-keyboard-response","22","84753","0.0-22.0","1123.7999999821186","<div class='center'><img src='run_exp/static/images/tutorial/blue.png' height='500'></p></div>","49","","","","","","","","","","","","","","","","","","",""
"","html-keyboard-response","23","86254","0.0-23.0","null","<div class='center'><p><img src='run_exp/static/images/tutorial/blue_win.png' height='500'></p></div>","null","","","","","","","","","","","","","","","","","","",""
"","html-keyboard-response","24","86745","0.0-24.0","490.59999999403954","<div class='center'><img src='run_exp/static/images/tutorial/blue.png' height='500'></p></div>","49","","","","","","","","","","","","","","","","","","",""
"","html-keyboard-response","25","88248","0.0-25.0","null","<div class='center'><p><img src='run_exp/static/images/tutorial/blue_win.png' height='500'></p></div>","null","","","","","","","","","","","","","","","","","","",""
"","html-keyboard-response","26","90604","0.0-26.0","2355.699999988079","<div class='center'><p> See, he could rob the ships most of the time but not every time. </p><p><b>[Press the space bar to continue]</b></p></div>","32","","","","","","","","","","","","","","","","","","",""
"","html-keyboard-response","27","98498","0.0-27.0","7892.4000000059605","<div class='center'><p>You will get to choose which of three pirates you want to rob the next ship. <p>Press the <b>‘1’</b> button on your keyboard to pick the pirate with the red beard.</p><p> Press <b>‘2’</b> to pick the pirate with the white beard.</p><p> Press <b>‘3’</b> to pick the pirate with the black beard.</p><p>Try picking a pirate now!</p><p><img src='run_exp/static/images/tutorial/all_pirates.png' height='500'></p></div>","51","","","","","","","","","","","","","","","","","","",""
"","html-keyboard-response","28","100407","0.0-28.0-0.0","1907.9000000059605","<div class='center'><p>This pirate could rob the ship!</p><p><img src='run_exp/static/images/tutorial/black_win.png' height='500'></p><p><b>[Press the space bar to continue]</b></p></div>","32","","","","","","","","","","","","","","","","","","",""
"","html-keyboard-response","29","102550","0.0-28.0-1.0","2143","<div class='center'><p>Now try choosing another</p><p><img src='run_exp/static/images/tutorial/all_pirates.png' height='500'></p></div>","50","","","","","","","","","","","","","","","","","","",""
"","html-keyboard-response","30","103746","0.0-29.0-0.0","1195.2999999821186","<div class='center'><p>This pirate could not rob the ship!</p><p><img src='run_exp/static/images/tutorial/white_no_win.png' height='500'></p><p><b>[Press the space bar to continue]</b></p></div>","32","","","","","","","","","","","","","","","","","","",""
"","html-keyboard-response","31","107931","0.0-30.0-0.0","4184.5","<div class='center'><p>If you don’t make your choice fast enough, you’ll have to wait a few seconds before you can make another one. </p><p>You can’t collect more gold coins. You just have to sit and wait.</p><p><img src='run_exp/static/images/miscellaneous/hurry_up.png' height='500'></p><p><b>[Press the space bar to continue]</b></p></div>","32","","","","","","","","","","","","","","","","","","",""
"","html-keyboard-response","32","125792","0.0-30.0-1.0","17860","<div class='center'><p>Once you choose a pirate, you’ll be shown the ship they are robbing.</p><p>You will never rob the same ship twice.</p><p>Ships can be told apart from one another by the image on them.</p><p> Every time you see a ship, you will have to remember on which island you saw it.</p><p> Remembering correctly will help you win more bonus money!</p><p>A helpful strategy is to try to come up with a story of the object on the ship interacting with the current island scene.</p><p> For example, here, you could imagine a mug full of water in the desert. </p><p>For a ship with an apple on it on the forest island, you could imagine an apple falling from a tree in the forest.</p><p><img src='run_exp/static/images/tutorial/example_probe.png' height='500'></p><p><b>[Press the space bar to continue]</b></p></div>","32","","","","","","","","","","","","","","","","","","",""
"","html-keyboard-response","33","131203","0.0-30.0-2.0","5410.299999982119","<div class='center'><p>How good a pirate is at robbing ships will depend on the current island.</p><p> A pirate may have visited the island many times before and gained a lot of practice robbing ships there.</p><p>So, they're more likely to bring back gold coins than a pirate who has never visited this island before. </p><p><b>[Press the space bar to continue]</b></p></div>","32","","","","","","","","","","","","","","","","","","",""
"","html-keyboard-response","34","142134","0.0-30.0-3.0","10931","<div class='center'><p>How good a pirate is at robbing ships can also change over the time spent on the island<p> Ships may hear from islanders about the pirates coming and will improve their protection against the attack. This may make it harder to rob them.</p><p> Ships may also become lazy and lower their protection. This may make it easier to rob them.</p><br><p>Things are always changing on the high seas! So, try your best to pay attention!</p><p><img src='run_exp/static/images/tutorial/contingency.png' height='500'></p><p><b>[Press the space bar to continue]</b></p></div>","32","","","","","","","","","","","","","","","","","","",""
"","html-keyboard-response","35","165834","0.0-30.0-4.0","23699.30000001192","<div class='center'><p>Let's go over the instructions quickly again.You have two important things to do: </p><b><p> 1. Pick the pirate who is the best at robbing ships on the current island.</p></b><b><p> 2. Remember on which island a ship was robbed.</p> </b><p>How much bonus money you make is based on both. </p><br><p>Let’s try a practice game. The game will start by showing you the pirates. First pick a pirate using the <b> 1, 2, 3 </b> buttons on your keyboard. When you are shown a ship, try to remember the island you’re on by making up a story.</p><p> You only have 3 seconds to pick a pirate, so please make a choice quickly! If you are too slow, you’ll have to wait a bit during the time out.</p><p> Don’t feel rushed, but please do try to make a choice every time.</p><p>This is just a practice game, so you’re not playing for money. </p><p> Good luck, remember press <b>'1'</b> to choose red beard, <b>'2'</b> to choose white beard, and <b>'3'</b> to choose black beard</p><p><b>[Press the space bar to begin the practice game]</b></p></div>","32","","","","","","","","","","","","","","","","","","",""
"","do_welcome","36","167345","0.0-30.0-5.0","null","","","","null","","","","","","","","","","","","","","","","",""
"","do_trial","37","172578","0.0-30.0-6.0","722.6999999880791","","","","50","1,0,0","","","","","","","","","","","","","","","",""
"","html-keyboard-response","38","173581","0.0-31.0-0.0","null","<p></p>","null","","","","","","","","","","","","","","","","","","",""
"","do_trial","39","180888","0.0-31.0-1.0","2800.7000000178814","","","","51","1,1,0","","","","","","","","","","","","","","","",""
"","html-keyboard-response","40","181890","0.0-32.0-0.0","null","<p></p>","null","","","","","","","","","","","","","","","","","","",""
"","do_trial","41","186860","0.0-32.0-1.0","464.5","","","","49","1,0,1","","","","","","","","","","","","","","","",""
"","html-keyboard-response","42","187862","0.0-33.0-0.0","null","<p></p>","null","","","","","","","","","","","","","","","","","","",""
"","do_trial","43","193738","0.0-33.0-1.0","1366.800000011921","","","","49","0,1,0","","","","","","","","","","","","","","","",""
"","html-keyboard-response","44","194740","0.0-34.0-0.0","null","<p></p>","null","","","","","","","","","","","","","","","","","","",""
"","do_trial","45","199722","0.0-34.0-1.0","471.69999998807907","","","","50","1,0,0","","","","","","","","","","","","","","","",""
"","do_bye","46","201228","0.0-35.0-0.0","null","","","","null","","","","","","","","","","","","","","","","",""
"","do_travel","47","207230","0.0-35.0-1.0","null","","","","null","","","","","","","","","","","","","","","","",""
"","do_welcome","48","208735","0.0-35.0-2.0","null","","","","null","","","","","","","","","","","","","","","","",""
"","do_trial","49","214221","0.0-35.0-3.0","978.9000000059605","","","","51","1,0,0","","","","","","","","","","","","","","","",""
"","html-keyboard-response","50","215223","0.0-36.0-0.0","null","<p></p>","null","","","","","","","","","","","","","","","","","","",""
"","do_trial","51","220021","0.0-36.0-1.0","289.40000000596046","","","","50","1,0,1","","","","","","","","","","","","","","","",""
"","html-keyboard-response","52","221024","0.0-37.0-0.0","null","<p></p>","null","","","","","","","","","","","","","","","","","","",""
"","do_trial","53","225905","0.0-37.0-1.0","376.40000000596046","","","","49","1,1,0","","","","","","","","","","","","","","","",""
"","html-keyboard-response","54","226906","0.0-38.0-0.0","null","<p></p>","null","","","","","","","","","","","","","","","","","","",""
"","do_trial","55","232279","0.0-38.0-1.0","866.0999999940395","","","","49","0,0,1","","","","","","","","","","","","","","","",""
"","html-keyboard-response","56","233281","0.0-39.0-0.0","null","<p></p>","null","","","","","","","","","","","","","","","","","","",""
"","do_trial","57","238735","0.0-39.0-1.0","947.5999999940395","","","","50","1,0,1","","","","","","","","","","","","","","","",""
"","html-keyboard-response","58","239250","0.0-40.0-0.0","507.80000001192093","<div class='center'><p><img src='run_exp/static/images/tutorial/prac_best_pirate.png'  height='500'></p></div>","51","","","","","","","","","","","","","","","","","","",""
"","html-keyboard-response","59","242470","0.0-41.0-0.0","3219","<div class='center'><p>That's incorrect! Red beard was the best.</p><p><b>[Press the space bar to continue]</b></p></div>","32","","","","","","","","","","","","","","","","","","",""
"","html-keyboard-response","60","246036","0.0-41.0-1.0","3564.7999999821186","<div class='center'><p><img src='run_exp/static/images/tutorial/prac_source.png'  height='500'></p></div>","50","","","","","","","","","","","","","","","","","","",""
"","html-keyboard-response","61","247535","0.0-42.0-0.0","1497.5","<div class='center'><p>That's correct! You saw this ship on the cavern island.</p><p><b>[Press the space bar to continue]</b></p></div>","32","","","","","","","","","","","","","","","","","","",""
"","html-keyboard-response","62","251268","0.0-42.0-1.0","3732.4000000059605","<div class='center'><p>Good job on the practice game! Now, you will be asked you some true or false questions to make sure you really understand the rules of the game.</p><p> Press <b>'1'</b> on the keyboard for true and press <b>'2'</b> for false.</p><p><b>[Press the space bar to begin the quiz]</b></p></div>","32","","","","","","","","","","","","","","","","","","",""
"","html-keyboard-response","63","257867","0.0-42.0-2.0","6597.5999999940395","<div class='center'><p>You win bonus money by making choices as fast as possible.</p><p>Press 1 for true and press  2 for false.</p></div>","49","","","","","","","","","","","","","","","","","","",""
"","html-keyboard-response","64","260031","0.0-43.0-0.0","2163.2000000178814","<<div class='center'><p>That’s incorrect! You win bonus money by collecting as many gold coins as possible!</p><p><b>[press the space bar to continue with the quiz]</b></p></div>","32","","","","","","","","","","","","","","","","","","",""
"","html-keyboard-response","65","263533","0.0-43.0-1.0","3501.2000000178814","<div class='center'><p>You press the <b>‘3’</b> button on the keyboard to choose the red bearded pirate. </p><p>Press 1 for true and press  2 for false.</p></div>","50","","","","","","","","","","","","","","","","","","",""
"","html-keyboard-response","66","264531","0.0-44.0-0.0","997","<div class='center'><p>That's correct!</p> <p><b>[press the space bar to continue with the quiz]</b></p></div>","32","","","","","","","","","","","","","","","","","","",""
"","html-keyboard-response","67","267472","0.0-44.0-1.0","2940.199999988079","<div class='center'><p>The pirate who is the best at robbing ships on the first island will be the best on every other island.</p><p>Press 1 for true and press  2 for false.</p></div>","50","","","","","","","","","","","","","","","","","","",""
"","html-keyboard-response","68","268306","0.0-45.0-0.0","832.7999999821186","<div class='center'><p>That's correct!</p> <p><b>[press the space bar to continue with the quiz]</b></p></div>","32","","","","","","","","","","","","","","","","","","",""
"","html-keyboard-response","69","270542","0.0-45.0-1.0","2234.7999999821186","<div class='center'><p>You should remember the island where a pirate robbed a ship.</p><p>Press 1 for true and press  2 for false.</p></div>","49","","","","","","","","","","","","","","","","","","",""
"","html-keyboard-response","70","271281","0.0-46.0-0.0","738.8000000119209","<div class='center'><p>That's correct!</p> <p><b>[press the space bar to continue with the quiz]</b></p></div>","32","","","","","","","","","","","","","","","","","","",""
"","html-keyboard-response","71","274224","0.0-47.0-0.0","2941.800000011921","<div class='center'><p>Oops, you missed some questions. Now that you’ve heard the correct answers. Try the quiz again! If you fail the quiz too many times, you won’t be able to do the experiment. </p> <p><br>[press the space bar to repeat the quiz]</br></p></div>","32","","","","","","","","","","","","","","","","","","",""
"","html-keyboard-response","72","276856","0.0-47.0-1.0","2631.5","<div class='center'><p>You win bonus money by making choices as fast as possible.</p><p>Press 1 for true and press  2 for false.</p></div>","50","","","","","","","","","","","","","","","","","","",""
"","html-keyboard-response","73","278143","0.0-48.0-0.0","1286.699999988079","<div class='center'><p>That's correct!</p> <p><b>[press the space bar to continue with the quiz]</b></p></div>","32","","","","","","","","","","","","","","","","","","",""
"","html-keyboard-response","74","282404","0.0-48.0-1.0","4260.5","<div class='center'><p>You press the <b>‘3’</b> button on the keyboard to choose the red bearded pirate. </p><p>Press 1 for true and press  2 for false.</p></div>","50","","","","","","","","","","","","","","","","","","",""
"","html-keyboard-response","75","283543","0.0-49.0-0.0","1138.699999988079","<div class='center'><p>That's correct!</p> <p><b>[press the space bar to continue with the quiz]</b></p></div>","32","","","","","","","","","","","","","","","","","","",""
"","html-keyboard-response","76","285605","0.0-49.0-1.0","2060.699999988079","<div class='center'><p>The pirate who is the best at robbing ships on the first island will be the best on every other island.</p><p>Press 1 for true and press  2 for false.</p></div>","50","","","","","","","","","","","","","","","","","","",""
"","html-keyboard-response","77","286256","0.0-50.0-0.0","650.4000000059605","<div class='center'><p>That's correct!</p> <p><b>[press the space bar to continue with the quiz]</b></p></div>","32","","","","","","","","","","","","","","","","","","",""
"","html-keyboard-response","78","287734","0.0-50.0-1.0","1477.7000000178814","<div class='center'><p>You should remember the island where a pirate robbed a ship.</p><p>Press 1 for true and press  2 for false.</p></div>","49","","","","","","","","","","","","","","","","","","",""
"","html-keyboard-response","79","288213","0.0-51.0-0.0","474.30000001192093","<div class='center'><p>That's correct!</p> <p><b>[press the space bar to continue with the quiz]</b></p></div>","32","","","","","","","","","","","","","","","","","","",""
"","html-keyboard-response","80","289465","0.0-52.0-0.0","1250.5","<div class='center'><p>Good job! You’re now ready to move on to the real game!</p> <p><br>[press the space bar to begin!]</br></p></div>","32","","","","","","","","","","","","","","","","","","",""
"","do_welcome","81","290968","0.0-53.0-0.0","null","","","","null","","","","","","","","","","","","","","","","",""
"","do_trial","82","296715","0.0-54.0-0.0","1207.2999999821186","","","","49","0,0,1","0","countryside","0","probe-72","0.6","0.3","0.1","0","","","","","","","",""
"","html-keyboard-response","83","297717","0.0-54.0-1.0","null","<p></p>","null","","","","","","","","","","","","","","","","","","",""
"","do_trial","84","302958","0.0-55.0-0.0","704.7000000178814","","","","50","1,0,0","0","countryside","1","probe-70","0.7027509988601459","0.246320842061229","0.06325096684609051","0","","","","","","","",""
"","html-keyboard-response","85","303963","0.0-55.0-1.0","null","<p></p>","null","","","","","","","","","","","","","","","","","","",""
"","do_trial","86","309012","0.0-56.0-0.0","502.90000000596046","","","","51","1,0,0","0","countryside","2","probe-145","0.6645963064874605","0.24917959963480055","0.05315312855373514","0","","","","","","","",""
"","html-keyboard-response","87","310014","0.0-56.0-1.0","null","<p></p>","null","","","","","","","","","","","","","","","","","","",""
"","do_trial","88","315625","0.0-57.0-0.0","1072.2000000178814","","","","51","1,1,0","0","countryside","3","probe-185","0.5418993172850763","0.17422349987646094","0.17574456223356563","0","","","","","","","",""
"","html-keyboard-response","89","316626","0.0-57.0-1.0","null","<p></p>","null","","","","","","","","","","","","","","","","","","",""
"","do_trial","90","321798","0.0-58.0-0.0","627.8999999761581","","","","49","1,0,0","0","countryside","4","probe-19","0.5688075806518004","0.24476076120345558","0.16559053273677712","1","","","","","","","",""
"","html-keyboard-response","91","322802","0.0-58.0-1.0","null","<p></p>","null","","","","","","","","","","","","","","","","","","",""
"","do_trial","92","328017","0.0-59.0-0.0","671.7000000178814","","","","49","1,1,0","0","countryside","5","probe-07","0.5700674743995378","0.270757171903432","0.07118200987306493","1","","","","","","","",""
"","html-keyboard-response","93","329020","0.0-59.0-1.0","null","<p></p>","null","","","","","","","","","","","","","","","","","","",""
"","do_trial","94","334475","0.0-60.0-0.0","913.5999999940395","","","","49","1,0,1","0","countryside","6","probe-221","0.5571940040263441","0.20925168346118972","0.19037911964867232","1","","","","","","","",""
"","html-keyboard-response","95","335477","0.0-60.0-1.0","null","<p></p>","null","","","","","","","","","","","","","","","","","","",""
"","do_trial","96","340908","0.0-61.0-0.0","890.5","","","","49","1,0,0","0","countryside","7","probe-112","0.696855588816059","0.2624536652100123","0.21176478420538822","1","","","","","","","",""
"","html-keyboard-response","97","341915","0.0-61.0-1.0","null","<p></p>","null","","","","","","","","","","","","","","","","","","",""
"","do_trial","98","347124","0.0-62.0-0.0","666.5","","","","49","1,1,0","0","countryside","8","probe-44","0.6826743963893857","0.2331624506519604","0.07553479286216748","1","","","","","","","",""
"","html-keyboard-response","99","348127","0.0-62.0-1.0","null","<p></p>","null","","","","","","","","","","","","","","","","","","",""
"","do_trial","100","353284","0.0-63.0-0.0","615.4000000059605","","","","49","0,0,0","0","countryside","9","probe-29","0.6522769085369552","0.1962929999915166","0.0633629455454199","0","","","","","","","",""
"","html-keyboard-response","101","354287","0.0-63.0-1.0","null","<p></p>","null","","","","","","","","","","","","","","","","","","",""
"","do_trial","102","359262","0.0-64.0-0.0","428.60000002384186","","","","49","0,0,0","0","countryside","10","probe-149","0.7574989348678232","0.19980271703647393","0.08896064492093726","0","","","","","","","",""
"","html-keyboard-response","103","360264","0.0-64.0-1.0","null","<p></p>","null","","","","","","","","","","","","","","","","","","",""
"","do_trial","104","365795","0.0-65.0-0.0","991.5999999940395","","","","49","0,1,0","0","countryside","11","probe-14","0.732031759105786","0.3363430600865712","0.08673587747738071","0","","","","","","","",""
"","html-keyboard-response","105","366797","0.0-65.0-1.0","null","<p></p>","null","","","","","","","","","","","","","","","","","","",""
"","do_trial","106","371723","0.0-66.0-0.0","375.59999999403954","","","","50","1,0,0","0","countryside","12","probe-198","0.6404373457450545","0.2922367282699057","0.07283936410928607","0","","","","","","","",""
"","html-keyboard-response","107","372729","0.0-66.0-1.0","null","<p></p>","null","","","","","","","","","","","","","","","","","","",""
"","do_trial","108","377792","0.0-67.0-0.0","519.2000000178814","","","","51","1,0,0","0","countryside","13","probe-113","0.6644268715628242","0.3009019789142877","0.12694080186075576","0","","","","","","","",""
"","html-keyboard-response","109","378795","0.0-67.0-1.0","null","<p></p>","null","","","","","","","","","","","","","","","","","","",""
"","do_trial","110","383773","0.0-68.0-0.0","432.59999999403954","","","","49","0,1,0","0","countryside","14","probe-87","0.6444166515557574","0.481269101632588","0.12068694022686378","0","","","","","","","",""
"","html-keyboard-response","111","384776","0.0-68.0-1.0","null","<p></p>","null","","","","","","","","","","","","","","","","","","",""
"","do_trial","112","389801","0.0-69.0-0.0","483.30000001192093","","","","49","1,0,0","0","countryside","15","probe-129","0.5322345146801469","0.4891366355088693","0.1549390907846185","1","","","","","","","",""
"","html-keyboard-response","113","390808","0.0-69.0-1.0","null","<p></p>","null","","","","","","","","","","","","","","","","","","",""
"","do_trial","114","396267","0.0-70.0-0.0","915.0999999940395","","","","49","1,1,0","0","countryside","16","probe-204","0.5967320117710196","0.46676404361528007","0.07670438140809932","1","","","","","","","",""
"","html-keyboard-response","115","397269","0.0-70.0-1.0","null","<p></p>","null","","","","","","","","","","","","","","","","","","",""
"","do_trial","116","402412","0.0-71.0-0.0","600.5999999940395","","","","49","1,0,0","0","countryside","17","probe-53","0.6743755730160114","0.3865150979766099","0.07777007899805445","1","","","","","","","",""
"","html-keyboard-response","117","403415","0.0-71.0-1.0","null","<p></p>","null","","","","","","","","","","","","","","","","","","",""
"","do_trial","118","409320","0.0-72.0-0.0","1365.0999999940395","","","","49","0,0,0","0","countryside","18","probe-86","0.6083654711827667","0.38511334237915806","0.17149057733524609","0","","","","","","","",""
"","html-keyboard-response","119","410321","0.0-72.0-1.0","null","<p></p>","null","","","","","","","","","","","","","","","","","","",""
"","do_trial","120","415316","0.0-73.0-0.0","457","","","","49","1,1,1","0","countryside","19","probe-152","0.49341685052680784","0.2647834332355708","0.33529025873763796","1","","","","","","","",""
"","html-keyboard-response","121","416320","0.0-73.0-1.0","null","<p></p>","null","","","","","","","","","","","","","","","","","","",""
"","do_trial","122","421286","0.0-74.0-0.0","421.59999999403954","","","","49","1,1,0","0","countryside","20","probe-10","0.5190758949812159","0.40427995546693907","0.32236220214011063","1","","","","","","","",""
"","html-keyboard-response","123","422289","0.0-74.0-1.0","null","<p></p>","null","","","","","","","","","","","","","","","","","","",""
"","do_trial","124","427268","0.0-75.0-0.0","434.7000000178814","","","","49","1,0,1","0","countryside","21","probe-181","0.6160919050994725","0.2598769940912201","0.28726041236016825","1","","","","","","","",""
"","html-keyboard-response","125","428269","0.0-75.0-1.0","null","<p></p>","null","","","","","","","","","","","","","","","","","","",""
"","do_trial","126","433376","0.0-76.0-0.0","566.3000000119209","","","","49","1,1,0","0","countryside","22","probe-139","0.5462310709772067","0.32735710121220385","0.24647843571709283","1","","","","","","","",""
"","html-keyboard-response","127","434379","0.0-76.0-1.0","null","<p></p>","null","","","","","","","","","","","","","","","","","","",""
"","do_trial","128","439394","0.0-77.0-0.0","473.30000001192093","","","","49","1,0,0","0","countryside","23","probe-169","0.4257446694373999","0.41042500457037934","0.14042849800896037","1","","","","","","","",""
"","html-keyboard-response","129","440398","0.0-77.0-1.0","null","<p></p>","null","","","","","","","","","","","","","","","","","","",""
"","do_trial","130","445424","0.0-78.0-0.0","484.90000000596046","","","","49","0,0,0","0","countryside","24","probe-99","0.50358976737707","0.3911697845168661","0.2410906023164495","0","","","","","","","",""
"","html-keyboard-response","131","446427","0.0-78.0-1.0","null","<p></p>","null","","","","","","","","","","","","","","","","","","",""
"","do_trial","132","451423","0.0-79.0-0.0","455.59999999403954","","","","49","0,0,0","0","countryside","25","probe-22","0.5795733762480783","0.3149887337435321","0.18839323679940784","0","","","","","","","",""
"","html-keyboard-response","133","452428","0.0-79.0-1.0","null","<p></p>","null","","","","","","","","","","","","","","","","","","",""
"","do_trial","134","457450","0.0-80.0-0.0","480","","","","49","0,1,0","0","countryside","26","probe-31","0.6516885382482681","0.38125160813503955","0.06900882452019502","0","","","","","","","",""
"","html-keyboard-response","135","458452","0.0-80.0-1.0","null","<p></p>","null","","","","","","","","","","","","","","","","","","",""
"","do_trial","136","463401","0.0-81.0-0.0","403","","","","49","0,1,0","0","countryside","27","probe-214","0.625623766277105","0.35386194303047086","0.0816486931735626","0","","","","","","","",""
"","html-keyboard-response","137","464404","0.0-81.0-1.0","null","<p></p>","null","","","","","","","","","","","","","","","","","","",""
"","do_trial","138","470087","0.0-82.0-0.0","1142.6000000238419","","","","49","1,1,1","0","countryside","28","probe-84","0.673810112263129","0.3121870837961549","0.34646039463046646","1","","","","","","","",""
"","html-keyboard-response","139","471092","0.0-82.0-1.0","null","<p></p>","null","","","","","","","","","","","","","","","","","","",""
"","do_trial","140","476089","0.0-83.0-0.0","456.30000001192093","","","","49","1,0,0","0","countryside","29","probe-93","0.6467925439787575","0.2116917723339331","0.31830041937179854","1","","","","","","","",""
"","html-keyboard-response","141","477090","0.0-83.0-1.0","null","<p></p>","null","","","","","","","","","","","","","","","","","","",""
"","do_bye","142","478593","0.0-84.0-0.0","null","","","","null","","","","","","","","","","","","","","","","",""
"","do_travel","143","484595","0.0-85.0-0.0","null","","","","null","","","","","","","","","","","","","","","","",""
"","do_welcome","144","486100","0.0-85.0-1.0","null","","","","null","","","","","","","","","","","","","","","","",""
"","do_trial","145","492736","0.0-86.0-0.0","2091","","","","49","1,0,0","1","mountain","30","probe-98","1","0.16968290792261428","0.29311070393514593","1","","","","","","","",""
"","html-keyboard-response","146","493739","0.0-86.0-1.0","null","<p></p>","null","","","","","","","","","","","","","","","","","","",""
"","do_trial","147","498638","0.0-87.0-0.0","350.2999999821186","","","","49","1,1,0","1","mountain","31","probe-18","1","0.19123620278704498","0.24318218992616736","1","","","","","","","",""
"","html-keyboard-response","148","499640","0.0-87.0-1.0","null","<p></p>","null","","","","","","","","","","","","","","","","","","",""
"","do_trial","149","504760","0.0-88.0-0.0","582.6000000238419","","","","49","1,0,0","1","mountain","32","probe-209","1","0.147076589175546","0.09766226486381023","1","","","","","","","",""
"","html-keyboard-response","150","505766","0.0-88.0-1.0","null","<p></p>","null","","","","","","","","","","","","","","","","","","",""
"","do_trial","151","511025","0.0-89.0-0.0","718.0999999940395","","","","49","1,0,0","1","mountain","33","probe-186","0.6518701834191704","0.1734994803473483","0.09919819628356454","1","","","","","","","",""
"","html-keyboard-response","152","512027","0.0-89.0-1.0","null","<p></p>","null","","","","","","","","","","","","","","","","","","",""
"","do_trial","153","517109","0.0-90.0-0.0","538.1999999880791","","","","49","0,1,0","1","mountain","34","probe-175","0.7768590229953148","0.2810842060645474","0.1052901773611473","0","","","","","","","",""
"","html-keyboard-response","154","518112","0.0-90.0-1.0","null","<p></p>","null","","","","","","","","","","","","","","","","","","",""
"","do_trial","155","523063","0.0-91.0-0.0","408.59999999403954","","","","49","0,0,0","1","mountain","35","probe-50","0.7530775493376414","0.32761352551837697","0.09171016619905505","0","","","","","","","",""
"","html-keyboard-response","156","524064","0.0-91.0-1.0","null","<p></p>","null","","","","","","","","","","","","","","","","","","",""
"","do_trial","157","529120","0.0-92.0-0.0","518.0999999940395","","","","49","1,0,0","1","mountain","36","probe-02","0.7104560339735412","0.4249563078303199","0.18549100299324978","1","","","","","","","",""
"","html-keyboard-response","158","530126","0.0-92.0-1.0","null","<p></p>","null","","","","","","","","","","","","","","","","","","",""
"","do_trial","159","535009","0.0-93.0-0.0","338.7999999821186","","","","49","1,1,0","1","mountain","37","probe-105","0.6805599852034752","0.5279521409389354","0.0570699462752277","1","","","","","","","",""
"","html-keyboard-response","160","536011","0.0-93.0-1.0","null","<p></p>","null","","","","","","","","","","","","","","","","","","",""
"","do_trial","161","541458","0.0-94.0-0.0","908.1000000238419","","","","49","1,0,0","1","mountain","38","probe-35","0.6530369172016225","0.37351674114903843","0.07093360142055007","1","","","","","","","",""
"","html-keyboard-response","162","542462","0.0-94.0-1.0","null","<p></p>","null","","","","","","","","","","","","","","","","","","",""
"","do_trial","163","547603","0.0-95.0-0.0","600.6999999880791","","","","49","0,0,0","1","mountain","39","probe-96","0.6138875976701694","0.3842302031012301","0.051001267424320054","0","","","","","","","",""
"","html-keyboard-response","164","548607","0.0-95.0-1.0","null","<p></p>","null","","","","","","","","","","","","","","","","","","",""
"","do_trial","165","553614","0.0-96.0-0.0","462.59999999403954","","","","49","0,0,0","1","mountain","40","probe-168","0.6440827509007956","0.22090601686646189","0.1239875278957654","0","","","","","","","",""
"","html-keyboard-response","166","554619","0.0-96.0-1.0","null","<p></p>","null","","","","","","","","","","","","","","","","","","",""
"","do_trial","167","559665","0.0-97.0-0.0","505.7000000178814","","","","49","0,0,0","1","mountain","41","probe-182","0.5550162628335048","0.12310108071298499","0.29865519730196816","0","","","","","","","",""
"","html-keyboard-response","168","560670","0.0-97.0-1.0","null","<p></p>","null","","","","","","","","","","","","","","","","","","",""
"","do_trial","169","565735","0.0-98.0-0.0","521.0999999940395","","","","49","0,0,0","1","mountain","42","probe-230","0.33201335637830626","0.26567406389295745","0.4428677207929021","0","","","","","","","",""
"","html-keyboard-response","170","566741","0.0-98.0-1.0","null","<p></p>","null","","","","","","","","","","","","","","","","","","",""
"","do_trial","171","571785","0.0-99.0-0.0","500.59999999403954","","","","49","0,0,0","1","mountain","43","probe-228","0.2965582630718097","0.19798949003630711","0.5507464557467747","0","","","","","","","",""
"","html-keyboard-response","172","572787","0.0-99.0-1.0","null","<p></p>","null","","","","","","","","","","","","","","","","","","",""
"","do_trial","173","577998","0.0-100.0-0.0","667.7999999821186","","","","50","0,0,1","1","mountain","44","probe-225","0.21360878585979687","0.06315643895271951","0.637935820102187","0","","","","","","","",""
"","html-keyboard-response","174","579003","0.0-100.0-1.0","null","<p></p>","null","","","","","","","","","","","","","","","","","","",""
"","do_trial","175","583989","0.0-101.0-0.0","443.40000000596046","","","","51","0,0,1","1","mountain","45","probe-11","0.1430483678070106","0.17450795472377065","0.5471584232226042","1","","","","","","","",""
"","html-keyboard-response","176","584992","0.0-101.0-1.0","null","<p></p>","null","","","","","","","","","","","","","","","","","","",""
"","do_trial","177","590034","0.0-102.0-0.0","503.59999999403954","","","","51","0,1,1","1","mountain","46","probe-41","0.07519545952895017","0.36158414986769083","0.49365662445068226","1","","","","","","","",""
"","html-keyboard-response","178","591037","0.0-102.0-1.0","null","<p></p>","null","","","","","","","","","","","","","","","","","","",""
"","do_trial","179","596204","0.0-103.0-0.0","628.4000000059605","","","","51","0,1,1","1","mountain","47","probe-21","0.08206567347789175","0.5179087791484734","0.6509643548975025","1","","","","","","","",""
"","html-keyboard-response","180","597210","0.0-103.0-1.0","null","<p></p>","null","","","","","","","","","","","","","","","","","","",""
"","do_trial","181","602314","0.0-104.0-0.0","560.6999999880791","","","","51","0,0,0","1","mountain","48","probe-73","0.08636150870259218","0.31373589145437414","0.5742823515973743","0","","","","","","","",""
"","html-keyboard-response","182","603318","0.0-104.0-1.0","null","<p></p>","null","","","","","","","","","","","","","","","","","","",""
"","do_trial","183","608437","0.0-105.0-0.0","572.4000000059605","","","","51","1,0,0","1","mountain","49","probe-184","0.15794370158625762","0.2867682615953453","0.5468632642163807","0","","","","","","","",""
"","html-keyboard-response","184","609441","0.0-105.0-1.0","null","<p></p>","null","","","","","","","","","","","","","","","","","","",""
"","do_trial","185","614371","0.0-106.0-0.0","386.19999998807907","","","","49","0,1,0","1","mountain","50","probe-188","0.2530709529275139","0.19742123276126117","0.6371853331006119","0","","","","","","","",""
"","html-keyboard-response","186","615374","0.0-106.0-1.0","null","<p></p>","null","","","","","","","","","","","","","","","","","","",""
"","do_trial","187","620368","0.0-107.0-0.0","459.30000001192093","","","","51","1,1,0","1","mountain","51","probe-156","0.28410197262089804","0.28100481041183956","0.7479577719787776","0","","","","","","","",""
"","html-keyboard-response","188","621373","0.0-107.0-1.0","null","<p></p>","null","","","","","","","","","","","","","","","","","","",""
"","do_trial","189","626361","0.0-108.0-0.0","445.5","","","","50","1,1,0","1","mountain","52","probe-143","0.291661112935183","0.36702041954293635","0.763252644671506","1","","","","","","","",""
"","html-keyboard-response","190","627366","0.0-108.0-1.0","null","<p></p>","null","","","","","","","","","","","","","","","","","","",""
"","do_trial","191","632416","0.0-109.0-0.0","510.5","","","","50","0,0,1","1","mountain","53","probe-90","0.12401598418629477","0.35551005959037896","0.5319849018055279","0","","","","","","","",""
"","html-keyboard-response","192","633418","0.0-109.0-1.0","null","<p></p>","null","","","","","","","","","","","","","","","","","","",""
"","do_trial","193","638465","0.0-110.0-0.0","505.30000001192093","","","","50","0,0,0","1","mountain","54","probe-82","0.19643995252725233","0.3911021044363107","0.563323433155564","0","","","","","","","",""
"","html-keyboard-response","194","639468","0.0-110.0-1.0","null","<p></p>","null","","","","","","","","","","","","","","","","","","",""
"","do_trial","195","644436","0.0-111.0-0.0","427.7999999821186","","","","49","0,1,0","1","mountain","55","probe-177","0.07728859850049874","0.44255506183175547","0.5035069153931713","0","","","","","","","",""
"","html-keyboard-response","196","645439","0.0-111.0-1.0","null","<p></p>","null","","","","","","","","","","","","","","","","","","",""
"","do_trial","197","650381","0.0-112.0-0.0","397.80000001192093","","","","51","0,1,1","1","mountain","56","probe-58","0.11161772234651558","0.4426080779988637","0.673102973405021","1","","","","","","","",""
"","html-keyboard-response","198","651382","0.0-112.0-1.0","null","<p></p>","null","","","","","","","","","","","","","","","","","","",""
"","do_trial","199","656493","0.0-113.0-0.0","574.0999999940395","","","","51","0,1,1","1","mountain","57","probe-196","0.14730215401431437","0.37808298471183804","0.7235634625401912","1","","","","","","","",""
"","html-keyboard-response","200","657499","0.0-113.0-1.0","null","<p></p>","null","","","","","","","","","","","","","","","","","","",""
"","do_trial","201","662652","0.0-114.0-0.0","608.1999999880791","","","","51","0,0,1","1","mountain","58","probe-136","0.19100879126668388","0.3023218504526803","0.6886757851335171","1","","","","","","","",""
"","html-keyboard-response","202","663659","0.0-114.0-1.0","null","<p></p>","null","","","","","","","","","","","","","","","","","","",""
"","do_trial","203","668858","0.0-115.0-0.0","657.5","","","","51","0,0,1","1","mountain","59","probe-36","0.07226021895950437","0.2698189784813368","0.7046323394200477","1","","","","","","","",""
"","html-keyboard-response","204","669860","0.0-115.0-1.0","null","<p></p>","null","","","","","","","","","","","","","","","","","","",""
"","do_trial","205","675029","0.0-116.0-0.0","630.1999999880791","","","","51","1,1,0","1","mountain","60","probe-132","0.1627982472956871","0.23900354098560722","0.5201844289777185","0","","","","","","","",""
"","html-keyboard-response","206","676034","0.0-116.0-1.0","null","<p></p>","null","","","","","","","","","","","","","","","","","","",""
"","do_trial","207","681014","0.0-117.0-0.0","441.09999999403954","","","","51","0,0,1","1","mountain","61","probe-42","0.19519594345890348","0.3340421873064422","0.5937969950233196","1","","","","","","","",""
"","html-keyboard-response","208","682018","0.0-117.0-1.0","null","<p></p>","null","","","","","","","","","","","","","","","","","","",""
"","do_trial","209","686962","0.0-118.0-0.0","403.80000001192093","","","","51","0,0,1","1","mountain","62","probe-118","0.08071421994089742","0.29458984384892417","0.7340501861577359","1","","","","","","","",""
"","html-keyboard-response","210","687964","0.0-118.0-1.0","null","<p></p>","null","","","","","","","","","","","","","","","","","","",""
"","do_trial","211","693162","0.0-119.0-0.0","657.9000000059605","","","","51","0,0,0","1","mountain","63","probe-15","0.05938804887411223","0.14475066237336007","0.5451211913146545","0","","","","","","","",""
"","html-keyboard-response","212","694168","0.0-119.0-1.0","null","<p></p>","null","","","","","","","","","","","","","","","","","","",""
"","do_trial","213","699137","0.0-120.0-0.0","430.2000000178814","","","","51","1,0,0","1","mountain","64","probe-106","0.24956300404992873","0.19131954066067458","0.6011478604000502","0","","","","","","","",""
"","html-keyboard-response","214","700142","0.0-120.0-1.0","null","<p></p>","null","","","","","","","","","","","","","","","","","","",""
"","do_trial","215","705550","0.0-121.0-0.0","868.6999999880791","","","","51","0,0,0","1","mountain","65","probe-119","0.21432040607912434","0.2800770610299769","0.5366621046997222","0","","","","","","","",""
"","html-keyboard-response","216","706552","0.0-121.0-1.0","null","<p></p>","null","","","","","","","","","","","","","","","","","","",""
"","do_trial","217","711465","0.0-122.0-0.0","375","","","","49","0,1,1","1","mountain","66","probe-147","0.12350882771488655","0.3362723130722406","0.5251819429899323","0","","","","","","","",""
"","html-keyboard-response","218","712466","0.0-122.0-1.0","null","<p></p>","null","","","","","","","","","","","","","","","","","","",""
"","do_trial","219","717517","0.0-123.0-0.0","503.89999997615814","","","","51","0,0,1","1","mountain","67","probe-173","0.09561934617196803","0.39180671224918373","0.5906523937661149","1","","","","","","","",""
"","html-keyboard-response","220","718524","0.0-123.0-1.0","null","<p></p>","null","","","","","","","","","","","","","","","","","","",""
"","do_trial","221","723599","0.0-124.0-0.0","533","","","","51","1,0,1","1","mountain","68","probe-43","0.0978226124368679","0.5341319319700635","0.6075801913139295","1","","","","","","","",""
"","html-keyboard-response","222","724601","0.0-124.0-1.0","null","<p></p>","null","","","","","","","","","","","","","","","","","","",""
"","do_trial","223","729703","0.0-125.0-0.0","556.5999999940395","","","","51","1,1,1","1","mountain","69","probe-88","0.059943769388414475","0.46838789960184335","0.49894518278191136","1","","","","","","","",""
"","html-keyboard-response","224","730705","0.0-125.0-1.0","null","<p></p>","null","","","","","","","","","","","","","","","","","","",""
"","do_bye","225","732214","0.0-126.0-0.0","null","","","","null","","","","","","","","","","","","","","","","",""
"","do_travel","226","738217","0.0-127.0-0.0","null","","","","null","","","","","","","","","","","","","","","","",""
"","do_welcome","227","739726","0.0-127.0-1.0","null","","","","null","","","","","","","","","","","","","","","","",""
"","do_trial","228","745444","0.0-128.0-0.0","1172","","","","49","0,1,1","2","city","70","probe-165","0.07818181756225968","0.2537294175234885","1","0","","","","","","","",""
"","html-keyboard-response","229","746451","0.0-128.0-1.0","null","<p></p>","null","","","","","","","","","","","","","","","","","","",""
"","do_trial","230","751494","0.0-129.0-0.0","501.60000002384186","","","","50","0,0,1","2","city","71","probe-89","0.060907508241394376","0.43317953653989505","1","0","","","","","","","",""
"","html-keyboard-response","231","752498","0.0-129.0-1.0","null","<p></p>","null","","","","","","","","","","","","","","","","","","",""
"","do_trial","232","757488","0.0-130.0-0.0","448.7000000178814","","","","51","0,0,1","2","city","72","probe-49","0.10947437177004159","0.34982113728598924","0.9128226419893247","1","","","","","","","",""
"","html-keyboard-response","233","758495","0.0-130.0-1.0","null","<p></p>","null","","","","","","","","","","","","","","","","","","",""
"","do_trial","234","763611","0.0-131.0-0.0","573.8000000119209","","","","51","0,1,1","2","city","73","probe-161","0.05058334367709561","0.3248901100597307","0.8258004952392665","1","","","","","","","",""
"","html-keyboard-response","235","764617","0.0-131.0-1.0","null","<p></p>","null","","","","","","","","","","","","","","","","","","",""
"","do_trial","236","769851","0.0-132.0-0.0","694.2999999821186","","","","51","0,0,1","2","city","74","probe-48","0.09202694218176388","0.31876767267378175","0.7901668199379747","1","","","","","","","",""
"","html-keyboard-response","237","770853","0.0-132.0-1.0","null","<p></p>","null","","","","","","","","","","","","","","","","","","",""
"","do_trial","238","775840","0.0-133.0-0.0","449.69999998807907","","","","51","0,1,1","2","city","75","probe-20","0.1366992085393325","0.494677797150074","0.707830540821574","1","","","","","","","",""
"","html-keyboard-response","239","776841","0.0-133.0-1.0","null","<p></p>","null","","","","","","","","","","","","","","","","","","",""
"","do_trial","240","781932","0.0-134.0-0.0","552","","","","51","0,0,1","2","city","76","probe-174","0.10920500186094322","0.4042821887093371","0.5466513996732725","1","","","","","","","",""
"","html-keyboard-response","241","782934","0.0-134.0-1.0","null","<p></p>","null","","","","","","","","","","","","","","","","","","",""
"","do_trial","242","788291","0.0-135.0-0.0","813.5","","","","51","0,0,0","2","city","77","probe-170","0.09572387338841006","0.33344507761259984","0.5402885827681171","0","","","","","","","",""
"","html-keyboard-response","243","789293","0.0-135.0-1.0","null","<p></p>","null","","","","","","","","","","","","","","","","","","",""
"","do_trial","244","794643","0.0-136.0-0.0","810","","","","51","0,1,1","2","city","78","probe-13","0.0742047618449793","0.2125688094194581","0.5212735934575013","1","","","","","","","",""
"","html-keyboard-response","245","795645","0.0-136.0-1.0","null","<p></p>","null","","","","","","","","","","","","","","","","","","",""
"","do_trial","246","800695","0.0-137.0-0.0","508.2999999821186","","","","51","0,0,0","2","city","79","probe-146","0.056239433550573995","0.3205717646430005","0.5896626392094593","0","","","","","","","",""
"","html-keyboard-response","247","801698","0.0-137.0-1.0","null","<p></p>","null","","","","","","","","","","","","","","","","","","",""
"","do_trial","248","806695","0.0-138.0-0.0","460","","","","49","0,0,1","2","city","80","probe-47","0.1615269086043326","0.21528735865416315","0.5397186912542074","0","","","","","","","",""
"","html-keyboard-response","249","807701","0.0-138.0-1.0","null","<p></p>","null","","","","","","","","","","","","","","","","","","",""
"","do_trial","250","812714","0.0-139.0-0.0","469.19999998807907","","","","50","0,0,0","2","city","81","probe-191","0.10781462196394696","0.30249474220879197","0.6177717065309466","0","","","","","","","",""
"","html-keyboard-response","251","813717","0.0-139.0-1.0","null","<p></p>","null","","","","","","","","","","","","","","","","","","",""
"","do_trial","252","818846","0.0-140.0-0.0","587.5","","","","51","0,0,1","2","city","82","probe-207","0.26937919296152774","0.17184039834611547","0.46938369182975737","1","","","","","","","",""
"","html-keyboard-response","253","819851","0.0-140.0-1.0","null","<p></p>","null","","","","","","","","","","","","","","","","","","",""
"","do_trial","254","825254","0.0-141.0-0.0","851.2999999821186","","","","51","0,0,0","2","city","83","probe-55","0.3807913809859215","0.18569149326424048","0.4944000951377146","0","","","","","","","",""
"","html-keyboard-response","255","826256","0.0-141.0-1.0","null","<p></p>","null","","","","","","","","","","","","","","","","","","",""
"","do_trial","256","831440","0.0-142.0-0.0","643.8000000119209","","","","51","1,0,0","2","city","84","probe-179","0.447768504822507","0.24489735937241164","0.5393165279542133","0","","","","","","","",""
"","html-keyboard-response","257","832445","0.0-142.0-1.0","null","<p></p>","null","","","","","","","","","","","","","","","","","","",""
"","do_trial","258","837626","0.0-143.0-0.0","634","","","","51","0,0,0","2","city","85","probe-68","0.5418794155881128","0.1740399991870967","0.31839645983377457","0","","","","","","","",""
"","html-keyboard-response","259","838633","0.0-143.0-1.0","null","<p></p>","null","","","","","","","","","","","","","","","","","","",""
"","do_trial","260","843691","0.0-144.0-0.0","512.8000000119209","","","","51","0,0,1","2","city","86","probe-141","0.6541681182863007","0.2411270645418287","0.391278401265107","1","","","","","","","",""
"","html-keyboard-response","261","844695","0.0-144.0-1.0","null","<p></p>","null","","","","","","","","","","","","","","","","","","",""
"","do_trial","262","849841","0.0-145.0-0.0","604.5","","","","51","1,1,0","2","city","87","probe-16","0.6378160926020224","0.31495649201662435","0.3174002903882763","0","","","","","","","",""
"","html-keyboard-response","263","850847","0.0-145.0-1.0","null","<p></p>","null","","","","","","","","","","","","","","","","","","",""
"","do_trial","264","855828","0.0-146.0-0.0","438.69999998807907","","","","51","1,1,0","2","city","88","probe-167","0.5888737636911854","0.19020529735124508","0.3185908236312461","0","","","","","","","",""
"","html-keyboard-response","265","856834","0.0-146.0-1.0","null","<p></p>","null","","","","","","","","","","","","","","","","","","",""
"","do_trial","266","862144","0.0-147.0-0.0","767.5999999940395","","","","50","1,0,1","2","city","89","probe-33","0.6118032181578833","0.22926288478771575","0.3590885761451104","0","","","","","","","",""
"","html-keyboard-response","267","863147","0.0-147.0-1.0","null","<p></p>","null","","","","","","","","","","","","","","","","","","",""
"","do_trial","268","868230","0.0-148.0-0.0","544.8000000119209","","","","51","1,0,0","2","city","90","probe-194","0.7204798982999543","0.10308983765465037","0.20407790862489833","0","","","","","","","",""
"","html-keyboard-response","269","869231","0.0-148.0-1.0","null","<p></p>","null","","","","","","","","","","","","","","","","","","",""
"","do_trial","270","874293","0.0-149.0-0.0","520.1000000238419","","","","49","0,0,0","2","city","91","probe-187","0.7317163890551439","0.08475832388856627","0.16025220579600208","0","","","","","","","",""
"","html-keyboard-response","271","875299","0.0-149.0-1.0","null","<p></p>","null","","","","","","","","","","","","","","","","","","",""
"","do_trial","272","880422","0.0-150.0-0.0","582","","","","51","0,0,0","2","city","92","probe-211","0.6452261754305088","0.06697861858374253","0.3781958940065653","0","","","","","","","",""
"","html-keyboard-response","273","881423","0.0-150.0-1.0","null","<p></p>","null","","","","","","","","","","","","","","","","","","",""
"","do_trial","274","886797","0.0-151.0-0.0","832.4000000059605","","","","51","1,0,0","2","city","93","probe-124","0.6455545197382004","0.07199044672669419","0.27160652810382724","0","","","","","","","",""
"","html-keyboard-response","275","887800","0.0-151.0-1.0","null","<p></p>","null","","","","","","","","","","","","","","","","","","",""
"","do_trial","276","892989","0.0-152.0-0.0","647.3999999761581","","","","51","0,0,0","2","city","94","probe-116","0.6893439098773051","0.11288889653992294","0.21464931404257515","0","","","","","","","",""
"","html-keyboard-response","277","893991","0.0-152.0-1.0","null","<p></p>","null","","","","","","","","","","","","","","","","","","",""
"","do_trial","278","899365","0.0-153.0-0.0","828.4000000059605","","","","49","1,0,1","2","city","95","probe-142","0.6568245889207044","0.10344554561537196","0.3406163455020762","1","","","","","","","",""
"","html-keyboard-response","279","900370","0.0-153.0-1.0","null","<p></p>","null","","","","","","","","","","","","","","","","","","",""
"","do_trial","280","905498","0.0-154.0-0.0","582.5","","","","49","1,1,0","2","city","96","probe-126","0.5428507799771918","0.18532702426382108","0.22461978661746088","1","","","","","","","",""
"","html-keyboard-response","281","906502","0.0-154.0-1.0","null","<p></p>","null","","","","","","","","","","","","","","","","","","",""
"","do_trial","282","911516","0.0-155.0-0.0","475.40000000596046","","","","49","1,0,0","2","city","97","probe-80","0.4323054761452778","0.2998499926059065","0.12689680323563854","1","","","","","","","",""
"","html-keyboard-response","283","912517","0.0-155.0-1.0","null","<p></p>","null","","","","","","","","","","","","","","","","","","",""
"","do_trial","284","917671","0.0-156.0-0.0","607.8000000119209","","","","49","0,0,0","2","city","98","probe-215","0.4681983425213618","0.27775439795278634","0.3218407991876563","0","","","","","","","",""
"","html-keyboard-response","285","918678","0.0-156.0-1.0","null","<p></p>","null","","","","","","","","","","","","","","","","","","",""
"","do_trial","286","923758","0.0-157.0-0.0","537","","","","49","1,0,0","2","city","99","probe-229","0.7288975245308116","0.10720998218349431","0.30867653395395167","1","","","","","","","",""
"","html-keyboard-response","287","924760","0.0-157.0-1.0","null","<p></p>","null","","","","","","","","","","","","","","","","","","",""
"","do_trial","288","929976","0.0-158.0-0.0","670.5999999940395","","","","49","1,0,0","2","city","100","probe-37","0.762930437698741","0.06891014975062276","0.4377891090989954","1","","","","","","","",""
"","html-keyboard-response","289","930981","0.0-158.0-1.0","null","<p></p>","null","","","","","","","","","","","","","","","","","","",""
"","do_trial","290","936043","0.0-159.0-0.0","517.7999999821186","","","","49","1,0,0","2","city","101","probe-134","0.6872990294263981","0.08914286697092273","0.21949871657976297","1","","","","","","","",""
"","html-keyboard-response","291","937044","0.0-159.0-1.0","null","<p></p>","null","","","","","","","","","","","","","","","","","","",""
"","do_trial","292","942248","0.0-160.0-0.0","663.8000000119209","","","","49","1,0,0","2","city","102","probe-223","0.6163545057857732","0.18566392796784079","0.22473085713153507","1","","","","","","","",""
"","html-keyboard-response","293","943250","0.0-160.0-1.0","null","<p></p>","null","","","","","","","","","","","","","","","","","","",""
"","do_trial","294","948390","0.0-161.0-0.0","597.4000000059605","","","","49","0,0,0","2","city","103","probe-130","0.5085765758653441","0.1503193150858073","0.3108704642050203","0","","","","","","","",""
"","html-keyboard-response","295","949393","0.0-161.0-1.0","null","<p></p>","null","","","","","","","","","","","","","","","","","","",""
"","do_trial","296","954484","0.0-162.0-0.0","549.1999999880791","","","","49","0,0,1","2","city","104","probe-159","0.5663659480749523","0.08035376647946517","0.32764265371378787","0","","","","","","","",""
"","html-keyboard-response","297","955488","0.0-162.0-1.0","null","<p></p>","null","","","","","","","","","","","","","","","","","","",""
"","do_trial","298","960567","0.0-163.0-0.0","542.0999999940395","","","","49","0,0,1","2","city","105","probe-183","0.49744943227725047","0.22903355032046827","0.445059275540981","0","","","","","","","",""
"","html-keyboard-response","299","961569","0.0-163.0-1.0","null","<p></p>","null","","","","","","","","","","","","","","","","","","",""
"","do_trial","300","966492","0.0-164.0-0.0","382.2000000178814","","","","49","0,0,1","2","city","106","probe-60","0.45209850073253355","0.18013019059288682","0.5391558989606418","0","","","","","","","",""
"","html-keyboard-response","301","967496","0.0-164.0-1.0","null","<p></p>","null","","","","","","","","","","","","","","","","","","",""
"","do_trial","302","972515","0.0-165.0-0.0","474.2999999821186","","","","51","0,0,1","2","city","107","probe-217","0.582278311316029","0.050109385757797685","0.36991156271798353","1","","","","","","","",""
"","html-keyboard-response","303","973518","0.0-165.0-1.0","null","<p></p>","null","","","","","","","","","","","","","","","","","","",""
"","do_trial","304","978723","0.0-166.0-0.0","665.1999999880791","","","","51","1,0,0","2","city","108","probe-158","0.49224304139632397","0.08106797210675874","0.4258554527598776","0","","","","","","","",""
"","html-keyboard-response","305","979724","0.0-166.0-1.0","null","<p></p>","null","","","","","","","","","","","","","","","","","","",""
"","do_trial","306","985063","0.0-167.0-0.0","798","","","","49","0,0,0","2","city","109","probe-26","0.5233580811212731","0.11353560481668257","0.4822720952999616","0","","","","","","","",""
"","html-keyboard-response","307","986065","0.0-167.0-1.0","null","<p></p>","null","","","","","","","","","","","","","","","","","","",""
"","do_bye","308","987571","0.0-168.0-0.0","null","","","","null","","","","","","","","","","","","","","","","",""
"","do_travel","309","993573","0.0-169.0-0.0","null","","","","null","","","","","","","","","","","","","","","","",""
"","do_welcome","310","995080","0.0-169.0-1.0","null","","","","null","","","","","","","","","","","","","","","","",""
"","do_trial","311","1000813","0.0-170.0-0.0","1187.5","","","","49","1,0,0","3","forest","110","probe-201","1","0.06831100324028792","0.42214010444861855","1","","","","","","","",""
"","html-keyboard-response","312","1001819","0.0-170.0-1.0","null","<p></p>","null","","","","","","","","","","","","","","","","","","",""
"","do_trial","313","1006918","0.0-171.0-0.0","560.2999999821186","","","","49","1,0,1","3","forest","111","probe-121","1","0.052904081189120745","0.32434557523154406","1","","","","","","","",""
"","html-keyboard-response","314","1007919","0.0-171.0-1.0","null","<p></p>","null","","","","","","","","","","","","","","","","","","",""
"","do_trial","315","1012938","0.0-172.0-0.0","475.10000002384186","","","","49","1,0,1","3","forest","112","probe-115","0.8295525641375915","0.07460527847177681","0.2960270516611888","1","","","","","","","",""
"","html-keyboard-response","316","1013939","0.0-172.0-1.0","null","<p></p>","null","","","","","","","","","","","","","","","","","","",""
"","do_trial","317","1018947","0.0-173.0-0.0","469.80000001192093","","","","49","1,0,0","3","forest","113","probe-04","0.8557815344318505","0.08909943587249891","0.33755775746009375","1","","","","","","","",""
"","html-keyboard-response","318","1019948","0.0-173.0-1.0","null","<p></p>","null","","","","","","","","","","","","","","","","","","",""
"","do_trial","319","1024990","0.0-174.0-0.0","500.30000001192093","","","","49","1,0,0","3","forest","114","probe-24","0.7918525055910053","0.1597661680025735","0.2817658651181434","1","","","","","","","",""
"","html-keyboard-response","320","1025992","0.0-174.0-1.0","null","<p></p>","null","","","","","","","","","","","","","","","","","","",""
"","do_trial","321","1031120","0.0-175.0-0.0","583.2999999821186","","","","49","1,0,0","3","forest","115","probe-162","0.7889047264838235","0.15734238732850006","0.3822247069251318","1","","","","","","","",""
"","html-keyboard-response","322","1032126","0.0-175.0-1.0","null","<p></p>","null","","","","","","","","","","","","","","","","","","",""
"","do_trial","323","1037113","0.0-176.0-0.0","448.30000001192093","","","","49","1,0,1","3","forest","116","probe-164","0.7846856843724984","0.08468337553089178","0.41241259275191583","1","","","","","","","",""
"","html-keyboard-response","324","1038117","0.0-176.0-1.0","null","<p></p>","null","","","","","","","","","","","","","","","","","","",""
"","do_trial","325","1043368","0.0-177.0-0.0","711.6999999880791","","","","49","1,0,0","3","forest","117","probe-65","0.6719385451865948","0.1069223411452442","0.4806687813984855","1","","","","","","","",""
"","html-keyboard-response","326","1044374","0.0-177.0-1.0","null","<p></p>","null","","","","","","","","","","","","","","","","","","",""
"","do_trial","327","1049431","0.0-178.0-0.0","515.1999999880791","","","","49","0,0,0","3","forest","118","probe-74","0.5963115360053177","0.12092274942495515","0.3397762176737852","0","","","","","","","",""
"","html-keyboard-response","328","1050433","0.0-178.0-1.0","null","<p></p>","null","","","","","","","","","","","","","","","","","","",""
"","do_trial","329","1055475","0.0-179.0-0.0","501","","","","49","0,0,0","3","forest","119","probe-102","0.5306633274088858","0.10884124126022776","0.46532373120580306","0","","","","","","","",""
"","html-keyboard-response","330","1056482","0.0-179.0-1.0","null","<p></p>","null","","","","","","","","","","","","","","","","","","",""
"","do_trial","331","1061505","0.0-180.0-0.0","480.5","","","","49","0,0,0","3","forest","120","probe-218","0.5047285031616763","0.09063773566004332","0.3781572638943782","0","","","","","","","",""
"","html-keyboard-response","332","1062506","0.0-180.0-1.0","null","<p></p>","null","","","","","","","","","","","","","","","","","","",""
"","do_trial","333","1067521","0.0-181.0-0.0","460.5","","","","49","0,1,0","3","forest","121","probe-95","0.5057361323093146","0.22872667375661096","0.30565120446896393","0","","","","","","","",""
"","html-keyboard-response","334","1068525","0.0-181.0-1.0","null","<p></p>","null","","","","","","","","","","","","","","","","","","",""
"","do_trial","335","1073545","0.0-182.0-0.0","478.2999999821186","","","","50","0,1,0","3","forest","122","probe-148","0.199943107513934","0.33945327697276","0.22490216798049062","1","","","","","","","",""
"","html-keyboard-response","336","1074548","0.0-182.0-1.0","null","<p></p>","null","","","","","","","","","","","","","","","","","","",""
"","do_trial","337","1079852","0.0-183.0-0.0","761.8000000119209","","","","50","0,0,1","3","forest","123","probe-67","0.1372739713190829","0.4430344726157137","0.3948942106525476","0","","","","","","","",""
"","html-keyboard-response","338","1080858","0.0-183.0-1.0","null","<p></p>","null","","","","","","","","","","","","","","","","","","",""
"","do_trial","339","1085982","0.0-184.0-0.0","577.8000000119209","","","","51","1,0,1","3","forest","124","probe-59","0.2708020264812647","0.5878433305628131","0.42032913771589925","1","","","","","","","",""
"","html-keyboard-response","340","1086987","0.0-184.0-1.0","null","<p></p>","null","","","","","","","","","","","","","","","","","","",""
"","do_trial","341","1091939","0.0-185.0-0.0","416.89999997615814","","","","51","0,0,0","3","forest","125","probe-17","0.09841759047233327","0.608302559401109","0.39784505669411446","0","","","","","","","",""
"","html-keyboard-response","342","1092940","0.0-185.0-1.0","null","<p></p>","null","","","","","","","","","","","","","","","","","","",""
"","do_trial","343","1098381","0.0-186.0-0.0","900.4000000059605","","","","50","0,1,1","3","forest","126","probe-123","0.27518887740262243","0.5896076887100554","0.35677669855241545","1","","","","","","","",""
"","html-keyboard-response","344","1099388","0.0-186.0-1.0","null","<p></p>","null","","","","","","","","","","","","","","","","","","",""
"","do_trial","345","1104572","0.0-187.0-0.0","640.4000000059605","","","","50","0,1,0","3","forest","127","probe-189","0.06370595823119073","0.6180991442493163","0.25927442736538664","1","","","","","","","",""
"","html-keyboard-response","346","1105573","0.0-187.0-1.0","null","<p></p>","null","","","","","","","","","","","","","","","","","","",""
"","do_trial","347","1110583","0.0-188.0-0.0","465.69999998807907","","","","50","0,1,0","3","forest","128","probe-135","0.08880936220429413","0.5705193352771205","0.18296346499726007","1","","","","","","","",""
"","html-keyboard-response","348","1111584","0.0-188.0-1.0","null","<p></p>","null","","","","","","","","","","","","","","","","","","",""
"","do_trial","349","1116541","0.0-189.0-0.0","415.5","","","","50","0,0,0","3","forest","129","probe-195","0.15934389768358428","0.3892503978012532","0.11748776747337432","0","","","","","","","",""
"","html-keyboard-response","350","1117546","0.0-189.0-1.0","null","<p></p>","null","","","","","","","","","","","","","","","","","","",""
"","do_trial","351","1122573","0.0-190.0-0.0","487","","","","50","0,0,0","3","forest","130","probe-06","0.08925445186797604","0.5277992088530155","0.1912574293967079","0","","","","","","","",""
"","html-keyboard-response","352","1123578","0.0-190.0-1.0","null","<p></p>","null","","","","","","","","","","","","","","","","","","",""
"","do_trial","353","1129359","0.0-191.0-0.0","1237.4000000059605","","","","49","0,0,1","3","forest","131","probe-01","0.15175404389624936","0.5228535995213934","0.39393876098066144","0","","","","","","","",""
"","html-keyboard-response","354","1130363","0.0-191.0-1.0","null","<p></p>","null","","","","","","","","","","","","","","","","","","",""
"","do_trial","355","1136869","0.0-192.0-0.0","1962","","","","51","0,1,1","3","forest","132","probe-66","0.06256318384466006","0.550508561116704","0.23718763659301814","1","","","","","","","",""
"","html-keyboard-response","356","1137874","0.0-192.0-1.0","null","<p></p>","null","","","","","","","","","","","","","","","","","","",""
"","do_trial","357","1143538","0.0-193.0-0.0","1118.7000000178814","","","","51","1,1,0","3","forest","133","probe-109","0.2015991841582857","0.49354244357535254","0.42589210857393417","0","","","","","","","",""
"","html-keyboard-response","358","1144542","0.0-193.0-1.0","null","<p></p>","null","","","","","","","","","","","","","","","","","","",""
"","do_trial","359","1149833","0.0-194.0-0.0","749.0999999940395","","","","51","0,0,0","3","forest","134","probe-25","0.24475148984441297","0.35009339401866213","0.29281176189053765","0","","","","","","","",""
"","html-keyboard-response","360","1150834","0.0-194.0-1.0","null","<p></p>","null","","","","","","","","","","","","","","","","","","",""
"","do_trial","361","1156042","0.0-195.0-0.0","664.1999999880791","","","","50","0,0,0","3","forest","135","probe-220","0.14358257461734894","0.4410375718833094","0.17391518746679324","0","","","","","","","",""
"","html-keyboard-response","362","1157043","0.0-195.0-1.0","null","<p></p>","null","","","","","","","","","","","","","","","","","","",""
"","do_trial","363","1162086","0.0-196.0-0.0","501.2999999821186","","","","50","0,0,0","3","forest","136","probe-227","0.19623195160287624","0.4293904898958094","0.20217483821573154","0","","","","","","","",""
"","html-keyboard-response","364","1163088","0.0-196.0-1.0","null","<p></p>","null","","","","","","","","","","","","","","","","","","",""
"","do_trial","365","1168050","0.0-197.0-0.0","421.7000000178814","","","","49","0,0,0","3","forest","137","probe-56","0.10819429145056629","0.502967854153554","0.13443338903026233","0","","","","","","","",""
"","html-keyboard-response","366","1169057","0.0-197.0-1.0","null","<p></p>","null","","","","","","","","","","","","","","","","","","",""
"","do_trial","367","1174027","0.0-198.0-0.0","428.40000000596046","","","","50","0,0,0","3","forest","138","probe-219","0.1411614762886332","0.5384290440134535","0.25634773758797197","0","","","","","","","",""
"","html-keyboard-response","368","1175029","0.0-198.0-1.0","null","<p></p>","null","","","","","","","","","","","","","","","","","","",""
"","do_trial","369","1180429","0.0-199.0-0.0","855.2000000178814","","","","51","0,0,0","3","forest","139","probe-200","0.06382521888648011","0.6041275191857148","0.2919080089025239","0","","","","","","","",""
"","html-keyboard-response","370","1181435","0.0-199.0-1.0","null","<p></p>","null","","","","","","","","","","","","","","","","","","",""
"","do_trial","371","1186883","0.0-200.0-0.0","907.1999999880791","","","","50","1,1,0","3","forest","140","probe-114","0.16825526999930676","0.6869571593333587","0.36233623962527417","1","","","","","","","",""
"","html-keyboard-response","372","1187885","0.0-200.0-1.0","null","<p></p>","null","","","","","","","","","","","","","","","","","","",""
"","do_trial","373","1193220","0.0-201.0-0.0","793.4000000059605","","","","50","0,1,1","3","forest","141","probe-100","0.11480191218712975","0.5854593740659436","0.3584296153728842","1","","","","","","","",""
"","html-keyboard-response","374","1194224","0.0-201.0-1.0","null","<p></p>","null","","","","","","","","","","","","","","","","","","",""
"","do_trial","375","1199785","0.0-202.0-0.0","1016.5","","","","50","1,1,0","3","forest","142","probe-40","0.19927069187390944","0.5928625154179022","0.4065010331747258","1","","","","","","","",""
"","html-keyboard-response","376","1200787","0.0-202.0-1.0","null","<p></p>","null","","","","","","","","","","","","","","","","","","",""
"","do_trial","377","1206016","0.0-203.0-0.0","683.2000000178814","","","","50","1,1,1","3","forest","143","probe-154","0.23344449104017326","0.6191988547812833","0.42606685297586555","1","","","","","","","",""
"","html-keyboard-response","378","1207018","0.0-203.0-1.0","null","<p></p>","null","","","","","","","","","","","","","","","","","","",""
"","do_trial","379","1212284","0.0-204.0-0.0","723.0999999940395","","","","50","1,0,0","3","forest","144","probe-153","0.2898201086675358","0.6401374729145093","0.27166450500947376","0","","","","","","","",""
"","html-keyboard-response","380","1213286","0.0-204.0-1.0","null","<p></p>","null","","","","","","","","","","","","","","","","","","",""
"","do_trial","381","1218464","0.0-205.0-0.0","633.9000000059605","","","","50","0,0,0","3","forest","145","probe-97","0.19817053883815855","0.6798047701020206","0.43428665212106554","0","","","","","","","",""
"","html-keyboard-response","382","1219469","0.0-205.0-1.0","null","<p></p>","null","","","","","","","","","","","","","","","","","","",""
"","do_trial","383","1224413","0.0-206.0-0.0","398.7000000178814","","","","50","0,0,0","3","forest","146","probe-54","0.19021032549669423","0.6408160982878788","0.3605999537341241","0","","","","","","","",""
"","html-keyboard-response","384","1225415","0.0-206.0-1.0","null","<p></p>","null","","","","","","","","","","","","","","","","","","",""
"","do_trial","385","1230488","0.0-207.0-0.0","531","","","","50","0,0,0","3","forest","147","probe-69","0.22036296136154357","0.6412830391222555","0.4406477881593211","0","","","","","","","",""
"","html-keyboard-response","386","1231496","0.0-207.0-1.0","null","<p></p>","null","","","","","","","","","","","","","","","","","","",""
"","do_trial","387","1236629","0.0-208.0-0.0","592.3000000119209","","","","50","0,1,1","3","forest","148","probe-180","0.06517839543097315","0.6097091654582701","0.31150363885731214","1","","","","","","","",""
"","html-keyboard-response","388","1237631","0.0-208.0-1.0","null","<p></p>","null","","","","","","","","","","","","","","","","","","",""
"","do_trial","389","1242616","0.0-209.0-0.0","443","","","","50","0,1,0","3","forest","149","probe-62","0.10478818356132999","0.5758573718142697","0.2470011015816926","1","","","","","","","",""
"","html-keyboard-response","390","1243622","0.0-209.0-1.0","null","<p></p>","null","","","","","","","","","","","","","","","","","","",""
"","do_bye","391","1245128","0.0-210.0-0.0","null","","","","null","","","","","","","","","","","","","","","","",""
"","do_travel","392","1251135","0.0-211.0-0.0","null","","","","null","","","","","","","","","","","","","","","","",""
"","do_welcome","393","1252641","0.0-211.0-1.0","null","","","","null","","","","","","","","","","","","","","","","",""
"","do_trial","394","1257897","0.0-212.0-0.0","712.2000000178814","","","","50","0,1,0","4","coast","150","probe-63","0.1806343931127872","1","0.2818539277030392","1","","","","","","","",""
"","html-keyboard-response","395","1258899","0.0-212.0-1.0","null","<p></p>","null","","","","","","","","","","","","","","","","","","",""
"","do_trial","396","1263808","0.0-213.0-0.0","366.69999998807907","","","","50","0,1,0","4","coast","151","probe-108","0.24987983858425583","1","0.3377299894516754","1","","","","","","","",""
"","html-keyboard-response","397","1264813","0.0-213.0-1.0","null","<p></p>","null","","","","","","","","","","","","","","","","","","",""
"","do_trial","398","1269969","0.0-214.0-0.0","615.2000000178814","","","","50","0,1,1","4","coast","152","probe-71","0.21405112855677136","0.7812452011363236","0.48088800423786454","1","","","","","","","",""
"","html-keyboard-response","399","1270974","0.0-214.0-1.0","null","<p></p>","null","","","","","","","","","","","","","","","","","","",""
"","do_trial","400","1276067","0.0-215.0-0.0","549.6999999880791","","","","50","0,1,1","4","coast","153","probe-52","0.09311526050284058","0.631292089996039","0.5022304485688337","1","","","","","","","",""
"","html-keyboard-response","401","1277068","0.0-215.0-1.0","null","<p></p>","null","","","","","","","","","","","","","","","","","","",""
"","do_trial","402","1282001","0.0-216.0-0.0","387.59999999403954","","","","50","0,0,0","4","coast","154","probe-131","0.1805726593611181","0.55691252731612","0.2284425384311384","0","","","","","","","",""
"","html-keyboard-response","403","1283002","0.0-216.0-1.0","null","<p></p>","null","","","","","","","","","","","","","","","","","","",""
"","do_trial","404","1287947","0.0-217.0-0.0","405.5","","","","50","0,1,0","4","coast","155","probe-79","0.13906900747319617","0.552582097757641","0.24480498179985316","1","","","","","","","",""
"","html-keyboard-response","405","1288949","0.0-217.0-1.0","null","<p></p>","null","","","","","","","","","","","","","","","","","","",""
"","do_trial","406","1294099","0.0-218.0-0.0","607.1999999880791","","","","50","0,1,0","4","coast","156","probe-140","0.10522028207664573","0.6590060180027145","0.2328790029084139","1","","","","","","","",""
"","html-keyboard-response","407","1295106","0.0-218.0-1.0","null","<p></p>","null","","","","","","","","","","","","","","","","","","",""
"","do_trial","408","1300161","0.0-219.0-0.0","508.5","","","","50","0,1,0","4","coast","157","probe-03","0.1452275651138797","0.6842176657948099","0.24143791255727684","1","","","","","","","",""
"","html-keyboard-response","409","1301163","0.0-219.0-1.0","null","<p></p>","null","","","","","","","","","","","","","","","","","","",""
"","do_trial","410","1306085","0.0-220.0-0.0","378.30000001192093","","","","50","0,1,0","4","coast","158","probe-110","0.15682364383757677","0.6332198804051313","0.34438704622101685","1","","","","","","","",""
"","html-keyboard-response","411","1307087","0.0-220.0-1.0","null","<p></p>","null","","","","","","","","","","","","","","","","","","",""
"","do_trial","412","1312604","0.0-221.0-0.0","975.3000000119209","","","","50","0,1,0","4","coast","159","probe-144","0.22990363610543918","0.6674766642606876","0.34339370256524293","1","","","","","","","",""
"","html-keyboard-response","413","1313606","0.0-221.0-1.0","null","<p></p>","null","","","","","","","","","","","","","","","","","","",""
"","do_trial","414","1318765","0.0-222.0-0.0","618.1999999880791","","","","50","0,0,0","4","coast","160","probe-205","0.29438984280352665","0.7159556154686455","0.36794258832832055","0","","","","","","","",""
"","html-keyboard-response","415","1319767","0.0-222.0-1.0","null","<p></p>","null","","","","","","","","","","","","","","","","","","",""
"","do_trial","416","1324858","0.0-223.0-0.0","544","","","","50","1,0,0","4","coast","161","probe-85","0.26400674907779875","0.6886874773109798","0.3653986618356374","0","","","","","","","",""
"","html-keyboard-response","417","1325860","0.0-223.0-1.0","null","<p></p>","null","","","","","","","","","","","","","","","","","","",""
"","do_trial","418","1331005","0.0-224.0-0.0","597.7999999821186","","","","50","0,1,0","4","coast","162","probe-213","0.4441371112453301","0.5778864954249112","0.2486505652029887","1","","","","","","","",""
"","html-keyboard-response","419","1332012","0.0-224.0-1.0","null","<p></p>","null","","","","","","","","","","","","","","","","","","",""
"","do_trial","420","1337094","0.0-225.0-0.0","536.3000000119209","","","","50","0,1,1","4","coast","163","probe-76","0.45729995536232837","0.3779449550179575","0.2866992183872944","1","","","","","","","",""
"","html-keyboard-response","421","1338101","0.0-225.0-1.0","null","<p></p>","null","","","","","","","","","","","","","","","","","","",""
"","do_trial","422","1343085","0.0-226.0-0.0","435.40000000596046","","","","50","1,0,0","4","coast","164","probe-111","0.5445200527657605","0.0863126303166868","0.3441980297754478","0","","","","","","","",""
"","html-keyboard-response","423","1344087","0.0-226.0-1.0","null","<p></p>","null","","","","","","","","","","","","","","","","","","",""
"","do_trial","424","1349198","0.0-227.0-0.0","564.9000000059605","","","","50","0,0,0","4","coast","165","probe-172","0.569112136871431","0.09236593009629336","0.27116018516585344","0","","","","","","","",""
"","html-keyboard-response","425","1350205","0.0-227.0-1.0","null","<p></p>","null","","","","","","","","","","","","","","","","","","",""
"","do_trial","426","1355294","0.0-228.0-0.0","543.1999999880791","","","","50","1,0,0","4","coast","166","probe-120","0.4336364663348381","0.24518960956810312","0.3017931359044344","0","","","","","","","",""
"","html-keyboard-response","427","1356298","0.0-228.0-1.0","null","<p></p>","null","","","","","","","","","","","","","","","","","","",""
"","do_trial","428","1361267","0.0-229.0-0.0","425.19999998807907","","","","50","1,1,0","4","coast","167","probe-137","0.5978805447024116","0.1484839743503848","0.4004403281692565","1","","","","","","","",""
"","html-keyboard-response","429","1362269","0.0-229.0-1.0","null","<p></p>","null","","","","","","","","","","","","","","","","","","",""
"","do_trial","430","1367288","0.0-230.0-0.0","478.2999999821186","","","","50","1,0,0","4","coast","168","probe-92","0.7368046329999233","0.14890321529187825","0.37894488368754997","0","","","","","","","",""
"","html-keyboard-response","431","1368289","0.0-230.0-1.0","null","<p></p>","null","","","","","","","","","","","","","","","","","","",""
"","do_trial","432","1373333","0.0-231.0-0.0","500.30000001192093","","","","50","0,0,1","4","coast","169","probe-94","0.6276358459627208","0.1250639655801253","0.33413063132146986","0","","","","","","","",""
"","html-keyboard-response","433","1374337","0.0-231.0-1.0","null","<p></p>","null","","","","","","","","","","","","","","","","","","",""
"","do_trial","434","1379592","0.0-232.0-0.0","719.4000000059605","","","","49","1,0,0","4","coast","170","probe-83","0.5588846770482268","0.11614859845271172","0.35589193925772955","1","","","","","","","",""
"","html-keyboard-response","435","1380596","0.0-232.0-1.0","null","<p></p>","null","","","","","","","","","","","","","","","","","","",""
"","do_trial","436","1386033","0.0-233.0-0.0","896.5999999940395","","","","49","0,1,1","4","coast","171","probe-104","0.48293910285576164","0.14339252632118052","0.19747343314721288","0","","","","","","","",""
"","html-keyboard-response","437","1387038","0.0-233.0-1.0","null","<p></p>","null","","","","","","","","","","","","","","","","","","",""
"","do_trial","438","1392606","0.0-234.0-0.0","1030.6000000238419","","","","49","0,0,1","4","coast","172","probe-64","0.5340064624206545","0.06481345513563948","0.3143639891834576","0","","","","","","","",""
"","html-keyboard-response","439","1393609","0.0-234.0-1.0","null","<p></p>","null","","","","","","","","","","","","","","","","","","",""
"","do_trial","440","1398554","0.0-235.0-0.0","405.09999999403954","","","","51","0,0,1","4","coast","173","probe-34","0.5780011083970413","0.05887217783598962","0.42027249459164073","1","","","","","","","",""
"","html-keyboard-response","441","1399557","0.0-235.0-1.0","null","<p></p>","null","","","","","","","","","","","","","","","","","","",""
"","do_trial","442","1404510","0.0-236.0-0.0","412.90000000596046","","","","51","0,0,0","4","coast","174","probe-101","0.43620627162976183","0.055514454374109866","0.36242305107090006","0","","","","","","","",""
"","html-keyboard-response","443","1405514","0.0-236.0-1.0","null","<p></p>","null","","","","","","","","","","","","","","","","","","",""
"","do_trial","444","1411027","0.0-237.0-0.0","971.5","","","","51","0,0,0","4","coast","175","probe-08","0.6436907604701125","0.11087897690910938","0.1790741454449431","0","","","","","","","",""
"","html-keyboard-response","445","1412031","0.0-237.0-1.0","null","<p></p>","null","","","","","","","","","","","","","","","","","","",""
"","do_trial","446","1416879","0.0-238.0-0.0","306.19999998807907","","","","50","0,0,0","4","coast","176","probe-210","0.5574410474160287","0.10695106547497732","0.22777212323426294","0","","","","","","","",""
"","html-keyboard-response","447","1417883","0.0-238.0-1.0","null","<p></p>","null","","","","","","","","","","","","","","","","","","",""
"","do_trial","448","1423258","0.0-239.0-0.0","829.2999999821186","","","","49","1,0,0","4","coast","177","probe-226","0.5728148588769875","0.10792397202086704","0.28608400437505666","1","","","","","","","",""
"","html-keyboard-response","449","1424262","0.0-239.0-1.0","null","<p></p>","null","","","","","","","","","","","","","","","","","","",""
"","do_trial","450","1429757","0.0-240.0-0.0","957.1999999880791","","","","50","0,0,0","4","coast","178","probe-127","0.441772456320203","0.14080996920670913","0.27041927152447703","0","","","","","","","",""
"","html-keyboard-response","451","1430760","0.0-240.0-1.0","null","<p></p>","null","","","","","","","","","","","","","","","","","","",""
"","do_trial","452","1436038","0.0-241.0-0.0","737.5999999940395","","","","49","1,0,0","4","coast","179","probe-107","0.5528818876239608","0.1168395368169431","0.17117685538784128","1","","","","","","","",""
"","html-keyboard-response","453","1437043","0.0-241.0-1.0","null","<p></p>","null","","","","","","","","","","","","","","","","","","",""
"","do_trial","454","1442144","0.0-242.0-0.0","559.4000000059605","","","","51","0,0,1","4","coast","180","probe-12","0.516446838320546","0.09190258269259474","0.3138491380788614","1","","","","","","","",""
"","html-keyboard-response","455","1443147","0.0-242.0-1.0","null","<p></p>","null","","","","","","","","","","","","","","","","","","",""
"","do_trial","456","1448314","0.0-243.0-0.0","627.5","","","","50","1,0,0","4","coast","181","probe-75","0.5666069910300018","0.10754626570783243","0.321812347377606","0","","","","","","","",""
"","html-keyboard-response","457","1449320","0.0-243.0-1.0","null","<p></p>","null","","","","","","","","","","","","","","","","","","",""
"","do_trial","458","1454302","0.0-244.0-0.0","429.90000000596046","","","","51","0,1,0","4","coast","182","probe-125","0.4002772939921376","0.07583267885111679","0.4075387971853387","0","","","","","","","",""
"","html-keyboard-response","459","1455305","0.0-244.0-1.0","null","<p></p>","null","","","","","","","","","","","","","","","","","","",""
"","do_trial","460","1460553","0.0-245.0-0.0","705.7999999821186","","","","51","0,0,0","4","coast","183","probe-117","0.5289071942588587","0.1574790038998367","0.3985475623243269","0","","","","","","","",""
"","html-keyboard-response","461","1461557","0.0-245.0-1.0","null","<p></p>","null","","","","","","","","","","","","","","","","","","",""
"","do_trial","462","1466626","0.0-246.0-0.0","528.7000000178814","","","","51","1,0,0","4","coast","184","probe-192","0.5831339208624587","0.20043468968913325","0.320095252312709","0","","","","","","","",""
"","html-keyboard-response","463","1467630","0.0-246.0-1.0","null","<p></p>","null","","","","","","","","","","","","","","","","","","",""
"","do_trial","464","1472529","0.0-247.0-0.0","358.09999999403954","","","","49","0,0,0","4","coast","185","probe-193","0.5109823095563168","0.16596811235531778","0.27437914205016595","0","","","","","","","",""
"","html-keyboard-response","465","1473533","0.0-247.0-1.0","null","<p></p>","null","","","","","","","","","","","","","","","","","","",""
"","do_trial","466","1478517","0.0-248.0-0.0","441.59999999403954","","","","50","1,0,0","4","coast","186","probe-206","0.5083975201607562","0.07424363831146662","0.31197493239936075","0","","","","","","","",""
"","html-keyboard-response","467","1479521","0.0-248.0-1.0","null","<p></p>","null","","","","","","","","","","","","","","","","","","",""
"","do_trial","468","1485899","0.0-249.0-0.0","1832.300000011921","","","","51","0,1,0","4","coast","187","probe-128","0.5517127702636567","0.3126744418102256","0.23573775079804726","0","","","","","","","",""
"","html-keyboard-response","469","1486905","0.0-249.0-1.0","null","<p></p>","null","","","","","","","","","","","","","","","","","","",""
"","do_trial","470","1491953","0.0-250.0-0.0","504.5","","","","49","1,1,0","4","coast","188","probe-222","0.42721019441091285","0.38389680084179667","0.27552105388929504","1","","","","","","","",""
"","html-keyboard-response","471","1492956","0.0-250.0-1.0","null","<p></p>","null","","","","","","","","","","","","","","","","","","",""
"","do_trial","472","1498051","0.0-251.0-0.0","553.9000000059605","","","","49","1,1,1","4","coast","189","probe-171","0.47360287072672863","0.14712555413100695","0.3540045823942539","1","","","","","","","",""
"","html-keyboard-response","473","1499057","0.0-251.0-1.0","null","<p></p>","null","","","","","","","","","","","","","","","","","","",""
"","do_bye","474","1500566","0.0-252.0-0.0","null","","","","null","","","","","","","","","","","","","","","","",""
"","do_travel","475","1506574","0.0-253.0-0.0","null","","","","null","","","","","","","","","","","","","","","","",""
"","do_welcome","476","1508080","0.0-253.0-1.0","null","","","","null","","","","","","","","","","","","","","","","",""
"","do_trial","477","1513542","0.0-254.0-0.0","918.5999999940395","","","","49","1,0,0","5","highway","190","probe-61","1","0.12374732232035397","0.34519696467922933","1","","","","","","","",""
"","html-keyboard-response","478","1514546","0.0-254.0-1.0","null","<p></p>","null","","","","","","","","","","","","","","","","","","",""
"","do_trial","479","1519583","0.0-255.0-0.0","497.80000001192093","","","","49","1,0,0","5","highway","191","probe-23","1","0.20940252947851426","0.18614847883395463","1","","","","","","","",""
"","html-keyboard-response","480","1520590","0.0-255.0-1.0","null","<p></p>","null","","","","","","","","","","","","","","","","","","",""
"","do_trial","481","1525734","0.0-256.0-0.0","602.5","","","","49","0,0,0","5","highway","192","probe-176","0.6433992194698439","0.2099527854151763","0.17402565981843943","0","","","","","","","",""
"","html-keyboard-response","482","1526735","0.0-256.0-1.0","null","<p></p>","null","","","","","","","","","","","","","","","","","","",""
"","do_trial","483","1531835","0.0-257.0-0.0","560.1999999880791","","","","49","1,0,0","5","highway","193","probe-160","0.5676515329912349","0.11074085984613394","0.22550215531995657","1","","","","","","","",""
"","html-keyboard-response","484","1532839","0.0-257.0-1.0","null","<p></p>","null","","","","","","","","","","","","","","","","","","",""
"","do_trial","485","1537835","0.0-258.0-0.0","449.40000000596046","","","","49","1,0,0","5","highway","194","probe-199","0.7566904229547887","0.08383473570548983","0.39462762990369266","1","","","","","","","",""
"","html-keyboard-response","486","1538840","0.0-258.0-1.0","null","<p></p>","null","","","","","","","","","","","","","","","","","","",""
"","do_trial","487","1543917","0.0-259.0-0.0","537.7999999821186","","","","49","1,0,0","5","highway","195","probe-05","0.716468315712847","0.1444882289165688","0.4146801579385893","1","","","","","","","",""
"","html-keyboard-response","488","1544919","0.0-259.0-1.0","null","<p></p>","null","","","","","","","","","","","","","","","","","","",""
"","do_trial","489","1550168","0.0-260.0-0.0","703.9000000059605","","","","49","1,0,1","5","highway","196","probe-190","0.6104590585190405","0.16595146101822383","0.43356955045100726","1","","","","","","","",""
"","html-keyboard-response","490","1551175","0.0-260.0-1.0","null","<p></p>","null","","","","","","","","","","","","","","","","","","",""
"","do_trial","491","1556248","0.0-261.0-0.0","533.6999999880791","","","","49","0,0,0","5","highway","197","probe-138","0.48078641459665966","0.2641565056875188","0.18612472459544033","0","","","","","","","",""
"","html-keyboard-response","492","1557255","0.0-261.0-1.0","null","<p></p>","null","","","","","","","","","","","","","","","","","","",""
"","do_trial","493","1562498","0.0-262.0-0.0","703.1000000238419","","","","49","1,0,0","5","highway","198","probe-166","0.6924656731478435","0.20443696984251514","0.2103333467834414","1","","","","","","","",""
"","html-keyboard-response","494","1563502","0.0-262.0-1.0","null","<p></p>","null","","","","","","","","","","","","","","","","","","",""
"","do_trial","495","1568687","0.0-263.0-0.0","638.7999999821186","","","","49","1,0,1","5","highway","199","probe-78","0.7512114918113045","0.07589360270020315","0.28892349385858856","1","","","","","","","",""
"","html-keyboard-response","496","1569691","0.0-263.0-1.0","null","<p></p>","null","","","","","","","","","","","","","","","","","","",""
"","do_trial","497","1574679","0.0-264.0-0.0","448.69999998807907","","","","49","1,0,1","5","highway","200","probe-32","0.7950517973417454","0.1712022078753764","0.38513504542833327","1","","","","","","","",""
"","html-keyboard-response","498","1575686","0.0-264.0-1.0","null","<p></p>","null","","","","","","","","","","","","","","","","","","",""
"","do_trial","499","1580593","0.0-265.0-0.0","366.7000000178814","","","","49","1,1,0","5","highway","201","probe-51","0.7974433234451679","0.2388549849693989","0.3529429213862636","1","","","","","","","",""
"","html-keyboard-response","500","1581597","0.0-265.0-1.0","null","<p></p>","null","","","","","","","","","","","","","","","","","","",""
"","do_trial","501","1586484","0.0-266.0-0.0","340.40000000596046","","","","49","0,0,1","5","highway","202","probe-46","0.3760398240297632","0.3236729674819632","0.3676567698352329","0","","","","","","","",""
"","html-keyboard-response","502","1587491","0.0-266.0-1.0","null","<p></p>","null","","","","","","","","","","","","","","","","","","",""
"","do_trial","503","1592394","0.0-267.0-0.0","362.80000001192093","","","","49","0,0,1","5","highway","203","probe-163","0.2229998868376066","0.3716815665534367","0.34796606105051203","0","","","","","","","",""
"","html-keyboard-response","504","1593401","0.0-267.0-1.0","null","<p></p>","null","","","","","","","","","","","","","","","","","","",""
"","do_trial","505","1598432","0.0-268.0-0.0","485.7000000178814","","","","49","0,0,0","5","highway","204","probe-30","0.17286601054801778","0.46442212290423385","0.3485910924631341","0","","","","","","","",""
"","html-keyboard-response","506","1599439","0.0-268.0-1.0","null","<p></p>","null","","","","","","","","","","","","","","","","","","",""
"","do_trial","507","1604361","0.0-269.0-0.0","377.90000000596046","","","","49","0,1,0","5","highway","205","probe-151","0.05113409093930198","0.5416535913143361","0.2593701421696749","0","","","","","","","",""
"","html-keyboard-response","508","1605366","0.0-269.0-1.0","null","<p></p>","null","","","","","","","","","","","","","","","","","","",""
"","do_trial","509","1610377","0.0-270.0-0.0","470","","","","50","0,1,0","5","highway","206","probe-27","0.0986196787757816","0.552129279760176","0.32081762685966325","1","","","","","","","",""
"","html-keyboard-response","510","1611384","0.0-270.0-1.0","null","<p></p>","null","","","","","","","","","","","","","","","","","","",""
"","do_trial","511","1616583","0.0-271.0-0.0","656.0999999940395","","","","50","1,1,0","5","highway","207","probe-203","0.06677277419748599","0.5726638291725992","0.31284640631116906","1","","","","","","","",""
"","html-keyboard-response","512","1617590","0.0-271.0-1.0","null","<p></p>","null","","","","","","","","","","","","","","","","","","",""
"","do_trial","513","1622715","0.0-272.0-0.0","578.6999999880791","","","","50","0,0,0","5","highway","208","probe-09","0.11289099120101297","0.4724478740005947","0.25948201307787605","0","","","","","","","",""
"","html-keyboard-response","514","1623719","0.0-272.0-1.0","null","<p></p>","null","","","","","","","","","","","","","","","","","","",""
"","do_trial","515","1628802","0.0-273.0-0.0","539.5","","","","50","0,1,0","5","highway","209","probe-45","0.0658717328105299","0.6354038048803722","0.2673200463973427","1","","","","","","","",""
"","html-keyboard-response","516","1629804","0.0-273.0-1.0","null","<p></p>","null","","","","","","","","","","","","","","","","","","",""
"","do_trial","517","1635080","0.0-274.0-0.0","734","","","","50","0,1,0","5","highway","210","probe-57","0.08752440007565525","0.7160607428935387","0.218780575690935","1","","","","","","","",""
"","html-keyboard-response","518","1636085","0.0-274.0-1.0","null","<p></p>","null","","","","","","","","","","","","","","","","","","",""
"","do_trial","519","1641256","0.0-275.0-0.0","625","","","","50","0,1,0","5","highway","211","probe-91","0.17395700698511926","0.5926653045950121","0.14808838067633637","1","","","","","","","",""
"","html-keyboard-response","520","1642262","0.0-275.0-1.0","null","<p></p>","null","","","","","","","","","","","","","","","","","","",""
"","do_trial","521","1647623","0.0-276.0-0.0","814.9000000059605","","","","50","1,1,0","5","highway","212","probe-202","0.1835124225451752","0.4707795537756201","0.15981084387906255","1","","","","","","","",""
"","html-keyboard-response","522","1648625","0.0-276.0-1.0","null","<p></p>","null","","","","","","","","","","","","","","","","","","",""
"","do_trial","523","1653691","0.0-277.0-0.0","524.2000000178814","","","","50","0,0,0","5","highway","213","probe-155","0.12278390805366958","0.6001990634677314","0.1582539783403511","0","","","","","","","",""
"","html-keyboard-response","524","1654695","0.0-277.0-1.0","null","<p></p>","null","","","","","","","","","","","","","","","","","","",""
