"success","trial_type","trial_index","time_elapsed","internal_node_id","rt","stimulus","key_press","subject_id","response","choice_outcomes","context_n","context_img_id","trial_n","probe_img_id","pR_red","pR_white","pR_black","outcome","contextArray_ind","validImageProbes","invalidImageProbes","pRew_Red","pRew_White","pRew_Black","availableForMemProbe","choice_blocks"
"true","fullscreen","0","2537","0.0-0.0","","","","","","","","","","","","","","","","","","","","","",""
"","pavlovia","1","2539","0.0-1.0","","","","","","","","","","","","","","","","","","","","","",""
"","html-keyboard-response","2","3960","0.0-2.0","1419.9999999999995","<div class='center'><p>Welcome! This is the first day of the experiment which will last ~30 minutes. In this experiment, you are the head captain of a pirate ship traveling around the world to different places. You will complete several different tasks during this experiment. Here is an overview of these tasks:</p><br><p>Day 1</p><p>1. Tutorial and quiz</p><p>2. Pick a pirate game in 6 different places</p><br><p>Day 2</p><p>3. Pick a pirate game and memory game</p><p>4. Final questions and payment</p><br><p>If you complete the entire experiment, you will receive $15 and a possible bonus payment.</p><p><b>[Press the space bar to begin the tutorial]</b></p></div>","32","60ff05a47ab140b373c58f80","","","","","","","","","","","","","","","","","",""
"","html-keyboard-response","3","4642","0.0-3.0","680.9999999999991","<div class='center'><p>You’ll stop at these 6 islands on your journey. You'll be able to see them in the distance from your ship.</p><p><img src='run_exp/static/images/contexts/all_contexts.png' height='500'></p><p><b>[Press the space bar to continue]</b></p></div>","32","","","","","","","","","","","","","","","","","","",""
"","html-keyboard-response","4","5264","0.0-4.0","620","<div class='center'><p> The pirates on your ship will rob other ships as they leave island</p> These ships have just sold their things to the people living on the island, so they will have lots and lots of gold on them.</p><p><img src='run_exp/static/images/tutorial/ship_center.png' height='400'></p><p><b>[Press the space bar to continue]</b></p></div>","32","","","","","","","","","","","","","","","","","","",""
"","html-keyboard-response","5","5932","0.0-5.0","667","<div class='center'><p>As the head captain, you do not have to rob any ships yourself.</p><p>Another pirate will be doing the robbing for you. </p><p><img src='run_exp/static/images/tutorial/pirates_all_crop.png' height='200'></p><p>If they could rob the ship, then you will get a stack of gold coins like this:</p><p><img src='run_exp/static/images/tutorial/reward.png' height='150'></p><p> If they couldn't rob the ship, then you will get no gold coins and you'll see a big red x like this: </p><p><img src='run_exp/static/images/tutorial/reward_no.png' height='150'></p><p> How much bonus money you make is based on how many gold coins you collect.</p><p><b>[Press the space bar to continue]</b></p><div>","32","","","","","","","","","","","","","","","","","","",""
"","html-keyboard-response","6","6985","0.0-6.0","1052","<div class='center'><p>Even the most skilled pirate can not rob EVERY ship.</p><p> Some ships will have very strong defenses against pirate attacks.</p><p> For example, blue beard, here, is very, very good at robbing ships.</p><p> You can press the <b>‘1’</b> button on the keyboard to choose him.</p><p> Try choosing him 10 times to see how often he can rob a ship. </p><p><img src='run_exp/static/images/tutorial/blue.png' height='500'></p></div>","49","","","","","","","","","","","","","","","","","","",""
"","html-keyboard-response","7","8487","0.0-7.0","null","<div class='center'><p><img src='run_exp/static/images/tutorial/blue_win.png' height='500'></p></div>","null","","","","","","","","","","","","","","","","","","",""
"","html-keyboard-response","8","8922","0.0-8.0","433","<div class='center'><img src='run_exp/static/images/tutorial/blue.png' height='500'></p></div>","49","","","","","","","","","","","","","","","","","","",""
"","html-keyboard-response","9","10424","0.0-9.0","null","<div class='center'><p><img src='run_exp/static/images/tutorial/blue_win.png' height='500'></p></div>","null","","","","","","","","","","","","","","","","","","",""
"","html-keyboard-response","10","10519","0.0-10.0","94","<div class='center'><img src='run_exp/static/images/tutorial/blue.png' height='500'></p></div>","49","","","","","","","","","","","","","","","","","","",""
"","html-keyboard-response","11","12021","0.0-11.0","null","<div class='center'><p><img src='run_exp/static/images/tutorial/blue_win.png' height='500'></p></div>","null","","","","","","","","","","","","","","","","","","",""
"","html-keyboard-response","12","12204","0.0-12.0","181","<div class='center'><img src='run_exp/static/images/tutorial/blue.png' height='500'></p></div>","49","","","","","","","","","","","","","","","","","","",""
"","html-keyboard-response","13","13706","0.0-13.0","null","<div class='center'><p><img src='run_exp/static/images/tutorial/blue_no_win.png' height='500'></p></div>","null","","","","","","","","","","","","","","","","","","",""
"","html-keyboard-response","14","14274","0.0-14.0","566","<div class='center'><img src='run_exp/static/images/tutorial/blue.png' height='500'></p></div>","49","","","","","","","","","","","","","","","","","","",""
"","html-keyboard-response","15","15776","0.0-15.0","null","<div class='center'><p><img src='run_exp/static/images/tutorial/blue_win.png' height='500'></p></div>","null","","","","","","","","","","","","","","","","","","",""
"","html-keyboard-response","16","15851","0.0-16.0","73","<div class='center'><img src='run_exp/static/images/tutorial/blue.png' height='500'></p></div>","49","","","","","","","","","","","","","","","","","","",""
"","html-keyboard-response","17","17353","0.0-17.0","null","<div class='center'><p><img src='run_exp/static/images/tutorial/blue_win.png' height='500'></p></div>","null","","","","","","","","","","","","","","","","","","",""
"","html-keyboard-response","18","17781","0.0-18.0","426","<div class='center'><img src='run_exp/static/images/tutorial/blue.png' height='500'></p></div>","49","","","","","","","","","","","","","","","","","","",""
"","html-keyboard-response","19","19283","0.0-19.0","null","<div class='center'><p><img src='run_exp/static/images/tutorial/blue_win.png' height='500'></p></div>","null","","","","","","","","","","","","","","","","","","",""
"","html-keyboard-response","20","19523","0.0-20.0","238","<div class='center'><img src='run_exp/static/images/tutorial/blue.png' height='500'></p></div>","49","","","","","","","","","","","","","","","","","","",""
"","html-keyboard-response","21","21025","0.0-21.0","null","<div class='center'><p><img src='run_exp/static/images/tutorial/blue_no_win.png' height='500'></p></div>","null","","","","","","","","","","","","","","","","","","",""
"","html-keyboard-response","22","21345","0.0-22.0","316.99999999999636","<div class='center'><img src='run_exp/static/images/tutorial/blue.png' height='500'></p></div>","49","","","","","","","","","","","","","","","","","","",""
"","html-keyboard-response","23","22847","0.0-23.0","null","<div class='center'><p><img src='run_exp/static/images/tutorial/blue_win.png' height='500'></p></div>","null","","","","","","","","","","","","","","","","","","",""
"","html-keyboard-response","24","23244","0.0-24.0","395","<div class='center'><img src='run_exp/static/images/tutorial/blue.png' height='500'></p></div>","49","","","","","","","","","","","","","","","","","","",""
"","html-keyboard-response","25","24748","0.0-25.0","null","<div class='center'><p><img src='run_exp/static/images/tutorial/blue_win.png' height='500'></p></div>","null","","","","","","","","","","","","","","","","","","",""
"","html-keyboard-response","26","26007","0.0-26.0","1256","<div class='center'><p> See, he could rob the ships most of the time but not every time. </p><p><b>[Press the space bar to continue]</b></p></div>","32","","","","","","","","","","","","","","","","","","",""
"","html-keyboard-response","27","26980","0.0-27.0","971","<div class='center'><p>You will get to choose which of three pirates you want to rob the next ship. <p>Press the <b>‘1’</b> button on your keyboard to pick the pirate with the red beard.</p><p> Press <b>‘2’</b> to pick the pirate with the white beard.</p><p> Press <b>‘3’</b> to pick the pirate with the black beard.</p><p>Try picking a pirate now!</p><p><img src='run_exp/static/images/tutorial/all_pirates.png' height='500'></p></div>","49","","","","","","","","","","","","","","","","","","",""
"","html-keyboard-response","28","28983","0.0-28.0-0.0","2000","<div class='center'><p>This pirate could rob the ship!</p><p><img src='run_exp/static/images/tutorial/red_win.png' height='500'></p><p><b>[Press the space bar to continue]</b></p></div>","32","","","","","","","","","","","","","","","","","","",""
"","html-keyboard-response","29","30134","0.0-28.0-1.0","1149","<div class='center'><p>Now try choosing another</p><p><img src='run_exp/static/images/tutorial/all_pirates.png' height='500'></p></div>","50","","","","","","","","","","","","","","","","","","",""
"","html-keyboard-response","30","31681","0.0-29.0-0.0","1543.9999999999964","<div class='center'><p>This pirate could not rob the ship!</p><p><img src='run_exp/static/images/tutorial/white_no_win.png' height='500'></p><p><b>[Press the space bar to continue]</b></p></div>","32","","","","","","","","","","","","","","","","","","",""
"","html-keyboard-response","31","38690","0.0-30.0-0.0","7006","<div class='center'><p>If you don’t make your choice fast enough, you’ll have to wait a few seconds before you can make another one. </p><p>You can’t collect more gold coins. You just have to sit and wait.</p><p><img src='run_exp/static/images/miscellaneous/hurry_up.png' height='500'></p><p><b>[Press the space bar to continue]</b></p></div>","32","","","","","","","","","","","","","","","","","","",""
"","html-keyboard-response","32","60669","0.0-30.0-1.0","21977.000000000007","<div class='center'><p>Once you choose a pirate, you’ll be shown the ship they are robbing.</p><p>You will never rob the same ship twice.</p><p>Ships can be told apart from one another by the image on them.</p><p> Every time you see a ship, you will have to remember on which island you saw it.</p><p> Remembering correctly will help you win more bonus money!</p><p>A helpful strategy is to try to come up with a story of the object on the ship interacting with the current island scene.</p><p> For example, here, you could imagine a mug full of water in the desert. </p><p>For a ship with an apple on it on the forest island, you could imagine an apple falling from a tree in the forest.</p><p><img src='run_exp/static/images/tutorial/example_probe.png' height='500'></p><p><b>[Press the space bar to continue]</b></p></div>","32","","","","","","","","","","","","","","","","","","",""
"","html-keyboard-response","33","66431","0.0-30.0-2.0","5760","<div class='center'><p>How good a pirate is at robbing ships will depend on the current island.</p><p> A pirate may have visited the island many times before and gained a lot of practice robbing ships there.</p><p>So, they're more likely to bring back gold coins than a pirate who has never visited this island before. </p><p><b>[Press the space bar to continue]</b></p></div>","32","","","","","","","","","","","","","","","","","","",""
"","html-keyboard-response","34","83695","0.0-30.0-3.0","17262","<div class='center'><p>How good a pirate is at robbing ships can also change over the time spent on the island<p> Ships may hear from islanders about the pirates coming and will improve their protection against the attack. This may make it harder to rob them.</p><p> Ships may also become lazy and lower their protection. This may make it easier to rob them.</p><br><p>Things are always changing on the high seas! So, try your best to pay attention!</p><p><img src='run_exp/static/images/tutorial/contingency.png' height='500'></p><p><b>[Press the space bar to continue]</b></p></div>","32","","","","","","","","","","","","","","","","","","",""
"","html-keyboard-response","35","106577","0.0-30.0-4.0","22881","<div class='center'><p>Let's go over the instructions quickly again.You have two important things to do: </p><b><p> 1. Pick the pirate who is the best at robbing ships on the current island.</p></b><b><p> 2. Remember on which island a ship was robbed.</p> </b><p>How much bonus money you make is based on both. </p><br><p>Let’s try a practice game. The game will start by showing you the pirates. First pick a pirate using the <b> 1, 2, 3 </b> buttons on your keyboard. When you are shown a ship, try to remember the island you’re on by making up a story.</p><p> You only have 3 seconds to pick a pirate, so please make a choice quickly! If you are too slow, you’ll have to wait a bit during the time out.</p><p> Don’t feel rushed, but please do try to make a choice every time.</p><p>This is just a practice game, so you’re not playing for money. </p><p> Good luck, remember press <b>'1'</b> to choose red beard, <b>'2'</b> to choose white beard, and <b>'3'</b> to choose black beard</p><p><b>[Press the space bar to begin the practice game]</b></p></div>","32","","","","","","","","","","","","","","","","","","",""
"","do_welcome","36","108083","0.0-30.0-5.0","null","","","","null","","","","","","","","","","","","","","","","",""
"","do_trial","37","113225","0.0-30.0-6.0","633.0000000000146","","","","50","1,0,0","","","","","","","","","","","","","","","",""
"","html-keyboard-response","38","114227","0.0-31.0-0.0","null","<p></p>","null","","","","","","","","","","","","","","","","","","",""
"","do_trial","39","120236","0.0-31.0-1.0","null","","","","null","1,1,0","","","","","","","","","","","","","","","",""
"","html-keyboard-response","40","121237","0.0-32.0-0.0","null","<p></p>","null","","","","","","","","","","","","","","","","","","",""
"","do_trial","41","126425","0.0-32.0-1.0","679.9999999999854","","","","51","1,1,0","","","","","","","","","","","","","","","",""
"","html-keyboard-response","42","127427","0.0-33.0-0.0","null","<p></p>","null","","","","","","","","","","","","","","","","","","",""
"","do_trial","43","132623","0.0-33.0-1.0","688","","","","49","1,0,1","","","","","","","","","","","","","","","",""
"","html-keyboard-response","44","133626","0.0-34.0-0.0","null","<p></p>","null","","","","","","","","","","","","","","","","","","",""
"","do_trial","45","139742","0.0-34.0-1.0","1608","","","","50","0,1,0","","","","","","","","","","","","","","","",""
"","html-keyboard-response","46","140744","0.0-35.0-0.0","null","<p></p>","null","","","","","","","","","","","","","","","","","","",""
"","do_trial","47","147805","0.0-35.0-1.0","2553","","","","51","1,0,0","","","","","","","","","","","","","","","",""
"","do_bye","48","149311","0.0-36.0-0.0","null","","","","null","","","","","","","","","","","","","","","","",""
"","do_travel","49","155315","0.0-36.0-1.0","null","","","","null","","","","","","","","","","","","","","","","",""
"","do_welcome","50","156820","0.0-36.0-2.0","null","","","","null","","","","","","","","","","","","","","","","",""
"","do_trial","51","162298","0.0-36.0-3.0","969","","","","51","1,0,0","","","","","","","","","","","","","","","",""
"","html-keyboard-response","52","163301","0.0-37.0-0.0","null","<p></p>","null","","","","","","","","","","","","","","","","","","",""
"","do_trial","53","169722","0.0-37.0-1.0","1915","","","","49","1,0,1","","","","","","","","","","","","","","","",""
"","html-keyboard-response","54","170725","0.0-38.0-0.0","null","<p></p>","null","","","","","","","","","","","","","","","","","","",""
"","do_trial","55","175579","0.0-38.0-1.0","346","","","","51","1,1,0","","","","","","","","","","","","","","","",""
"","html-keyboard-response","56","176582","0.0-39.0-0.0","null","<p></p>","null","","","","","","","","","","","","","","","","","","",""
"","do_trial","57","181785","0.0-39.0-1.0","695","","","","49","0,0,1","","","","","","","","","","","","","","","",""
"","html-keyboard-response","58","182787","0.0-40.0-0.0","null","<p></p>","null","","","","","","","","","","","","","","","","","","",""
"","do_trial","59","187845","0.0-40.0-1.0","550","","","","51","1,0,1","","","","","","","","","","","","","","","",""
"","html-keyboard-response","60","189809","0.0-41.0-0.0","1961.999999999971","<div class='center'><p><img src='run_exp/static/images/tutorial/prac_best_pirate.png'  height='500'></p></div>","51","","","","","","","","","","","","","","","","","","",""
"","html-keyboard-response","61","190543","0.0-42.0-0.0","730.9999999999709","<div class='center'><p>That's incorrect! Red beard was the best.</p><p><b>[Press the space bar to continue]</b></p></div>","32","","","","","","","","","","","","","","","","","","",""
"","html-keyboard-response","62","193405","0.0-42.0-1.0","2859","<div class='center'><p><img src='run_exp/static/images/tutorial/prac_source.png'  height='500'></p></div>","50","","","","","","","","","","","","","","","","","","",""
"","html-keyboard-response","63","194297","0.0-43.0-0.0","890","<div class='center'><p>That's correct! You saw this ship on the cavern island.</p><p><b>[Press the space bar to continue]</b></p></div>","32","","","","","","","","","","","","","","","","","","",""
"","html-keyboard-response","64","198153","0.0-43.0-1.0","3854","<div class='center'><p>Good job on the practice game! Now, you will be asked you some true or false questions to make sure you really understand the rules of the game.</p><p> Press <b>'1'</b> on the keyboard for true and press <b>'2'</b> for false.</p><p><b>[Press the space bar to begin the quiz]</b></p></div>","32","","","","","","","","","","","","","","","","","","",""
"","html-keyboard-response","65","201885","0.0-43.0-2.0","3730","<div class='center'><p>You win bonus money by making choices as fast as possible.</p><p>Press 1 for true and press  2 for false.</p></div>","50","","","","","","","","","","","","","","","","","","",""
"","html-keyboard-response","66","202815","0.0-44.0-0.0","928","<div class='center'><p>That's correct!</p> <p><b>[press the space bar to continue with the quiz]</b></p></div>","32","","","","","","","","","","","","","","","","","","",""
"","html-keyboard-response","67","205826","0.0-44.0-1.0","3010","<div class='center'><p>You press the <b>‘3’</b> button on the keyboard to choose the red bearded pirate. </p><p>Press 1 for true and press  2 for false.</p></div>","50","","","","","","","","","","","","","","","","","","",""
"","html-keyboard-response","68","206711","0.0-45.0-0.0","883","<div class='center'><p>That's correct!</p> <p><b>[press the space bar to continue with the quiz]</b></p></div>","32","","","","","","","","","","","","","","","","","","",""
"","html-keyboard-response","69","210189","0.0-45.0-1.0","3476","<div class='center'><p>The pirate who is the best at robbing ships on the first island will be the best on every other island.</p><p>Press 1 for true and press  2 for false.</p></div>","50","","","","","","","","","","","","","","","","","","",""
"","html-keyboard-response","70","210783","0.0-46.0-0.0","593","<div class='center'><p>That's correct!</p> <p><b>[press the space bar to continue with the quiz]</b></p></div>","32","","","","","","","","","","","","","","","","","","",""
"","html-keyboard-response","71","212971","0.0-46.0-1.0","2185","<div class='center'><p>You should remember the island where a pirate robbed a ship.</p><p>Press 1 for true and press  2 for false.</p></div>","49","","","","","","","","","","","","","","","","","","",""
"","html-keyboard-response","72","213764","0.0-47.0-0.0","784","<div class='center'><p>That's correct!</p> <p><b>[press the space bar to continue with the quiz]</b></p></div>","32","","","","","","","","","","","","","","","","","","",""
"","html-keyboard-response","73","215264","0.0-48.0-0.0","1497","<div class='center'><p>Good job! You’re now ready to move on to the real game!</p> <p><br>[press the space bar to begin!]</br></p></div>","32","","","","","","","","","","","","","","","","","","",""
"","do_welcome","74","216767","0.0-49.0-0.0","null","","","","null","","","","","","","","","","","","","","","","",""
"","do_trial","75","222777","0.0-50.0-0.0","1478","","","","49","1,0,0","0","forest","0","probe-224","0.6","0.3","0.1","1","","","","","","","",""
"","html-keyboard-response","76","223780","0.0-50.0-1.0","null","<p></p>","null","","","","","","","","","","","","","","","","","","",""
"","do_trial","77","229085","0.0-51.0-0.0","774","","","","50","1,0,0","0","forest","1","probe-96","0.754289382171192","0.29991882764791145","0.05752454489087783","0","","","","","","","",""
"","html-keyboard-response","78","230087","0.0-51.0-1.0","null","<p></p>","null","","","","","","","","","","","","","","","","","","",""
"","do_trial","79","235106","0.0-52.0-0.0","486.0000000000291","","","","51","0,0,0","0","forest","2","probe-203","0.7175674936784249","0.32747966113535476","0.11071761712421418","0","","","","","","","",""
"","html-keyboard-response","80","236108","0.0-52.0-1.0","null","<p></p>","null","","","","","","","","","","","","","","","","","","",""
"","do_trial","81","241961","0.0-53.0-0.0","1324.000000000029","","","","49","1,1,0","0","forest","3","probe-168","0.6446744359058937","0.35204302503409574","0.10396848057167508","1","","","","","","","",""
"","html-keyboard-response","82","242963","0.0-53.0-1.0","null","<p></p>","null","","","","","","","","","","","","","","","","","","",""
"","do_trial","83","248276","0.0-54.0-0.0","783","","","","50","1,0,0","0","forest","4","probe-159","0.6668901870911904","0.3228911673821161","0.10447243801842487","0","","","","","","","",""
"","html-keyboard-response","84","249279","0.0-54.0-1.0","null","<p></p>","null","","","","","","","","","","","","","","","","","","",""
"","do_trial","85","254256","0.0-55.0-0.0","447","","","","51","1,0,0","0","forest","5","probe-172","0.727066083741189","0.36350266289314337","0.12546797094219125","0","","","","","","","",""
"","html-keyboard-response","86","255257","0.0-55.0-1.0","null","<p></p>","null","","","","","","","","","","","","","","","","","","",""
"","do_trial","87","260783","0.0-56.0-0.0","996.0000000000582","","","","49","1,0,0","0","forest","6","probe-206","0.6739851894562319","0.39334988581155844","0.05696180939682134","1","","","","","","","",""
"","html-keyboard-response","88","261785","0.0-56.0-1.0","null","<p></p>","null","","","","","","","","","","","","","","","","","","",""
"","do_trial","89","266890","0.0-57.0-0.0","576","","","","50","0,0,0","0","forest","7","probe-155","0.6710019849861004","0.2191665445766362","0.1505418461053356","0","","","","","","","",""
"","html-keyboard-response","90","267893","0.0-57.0-1.0","null","<p></p>","null","","","","","","","","","","","","","","","","","","",""
"","do_trial","91","272949","0.0-58.0-0.0","525.9999999999418","","","","51","0,1,0","0","forest","8","probe-193","0.6501201783790788","0.29285138828688284","0.13940182814097565","0","","","","","","","",""
"","html-keyboard-response","92","273951","0.0-58.0-1.0","null","<p></p>","null","","","","","","","","","","","","","","","","","","",""
"","do_trial","93","279444","0.0-59.0-0.0","960.9999999999418","","","","49","0,0,0","0","forest","9","probe-133","0.6294771475739793","0.3367785934386873","0.10377375200055769","0","","","","","","","",""
"","html-keyboard-response","94","280447","0.0-59.0-1.0","null","<p></p>","null","","","","","","","","","","","","","","","","","","",""
"","do_trial","95","285603","0.0-60.0-0.0","625","","","","50","0,0,0","0","forest","10","probe-189","0.576280488077005","0.37926370592658765","0.06064945611516918","0","","","","","","","",""
"","html-keyboard-response","96","286604","0.0-60.0-1.0","null","<p></p>","null","","","","","","","","","","","","","","","","","","",""
"","do_trial","97","291572","0.0-61.0-0.0","437","","","","51","0,0,0","0","forest","11","probe-202","0.6451265482062394","0.25343565440326643","0.05161078580548519","0","","","","","","","",""
"","html-keyboard-response","98","292574","0.0-61.0-1.0","null","<p></p>","null","","","","","","","","","","","","","","","","","","",""
"","do_trial","99","297708","0.0-62.0-0.0","601","","","","49","1,0,0","0","forest","12","probe-220","0.600847225827298","0.353170697215052","0.06649957699616237","1","","","","","","","",""
"","html-keyboard-response","100","298710","0.0-62.0-1.0","null","<p></p>","null","","","","","","","","","","","","","","","","","","",""
"","do_trial","101","303665","0.0-63.0-0.0","424","","","","50","1,1,0","0","forest","13","probe-228","0.7543155606020306","0.2709555935150478","0.05757987566421971","1","","","","","","","",""
"","html-keyboard-response","102","304666","0.0-63.0-1.0","null","<p></p>","null","","","","","","","","","","","","","","","","","","",""
"","do_trial","103","310072","0.0-64.0-0.0","875","","","","51","0,1,0","0","forest","14","probe-10","0.7529376038838814","0.1558103182347137","0.06628536952565908","0","","","","","","","",""
"","html-keyboard-response","104","311075","0.0-64.0-1.0","null","<p></p>","null","","","","","","","","","","","","","","","","","","",""
"","do_trial","105","316363","0.0-65.0-0.0","758","","","","49","1,0,0","0","forest","15","probe-191","0.7825528041615959","0.16380907839162823","0.15370874010404947","1","","","","","","","",""
"","html-keyboard-response","106","317366","0.0-65.0-1.0","null","<p></p>","null","","","","","","","","","","","","","","","","","","",""
"","do_trial","107","322594","0.0-66.0-0.0","699.9999999999418","","","","50","1,1,0","0","forest","16","probe-34","0.618050787694296","0.311947936295888","0.19382457021085908","1","","","","","","","",""
"","html-keyboard-response","108","323596","0.0-66.0-1.0","null","<p></p>","null","","","","","","","","","","","","","","","","","","",""
"","do_trial","109","328689","0.0-67.0-0.0","560","","","","51","0,0,0","0","forest","17","probe-26","0.589569745856277","0.14687997444190637","0.08892285134805708","0","","","","","","","",""
"","html-keyboard-response","110","329692","0.0-67.0-1.0","null","<p></p>","null","","","","","","","","","","","","","","","","","","",""
"","do_trial","111","334877","0.0-68.0-0.0","657","","","","49","1,0,0","0","forest","18","probe-12","0.6038926863204774","0.19956523958968345","0.11395213339798616","1","","","","","","","",""
"","html-keyboard-response","112","335879","0.0-68.0-1.0","null","<p></p>","null","","","","","","","","","","","","","","","","","","",""
"","do_trial","113","340916","0.0-69.0-0.0","509","","","","50","1,0,0","0","forest","19","probe-94","0.5984210971674941","0.2634699993736524","0.1885231152820426","0","","","","","","","",""
"","html-keyboard-response","114","341918","0.0-69.0-1.0","null","<p></p>","null","","","","","","","","","","","","","","","","","","",""
"","do_trial","115","346898","0.0-70.0-0.0","451","","","","51","1,0,0","0","forest","20","probe-54","0.5205754900340415","0.32294363453740327","0.10625630422295128","0","","","","","","","",""
"","html-keyboard-response","116","347901","0.0-70.0-1.0","null","<p></p>","null","","","","","","","","","","","","","","","","","","",""
"","do_trial","117","353051","0.0-71.0-0.0","621","","","","49","0,1,0","0","forest","21","probe-129","0.5489727854171453","0.3551499637914287","0.09732011769801799","0","","","","","","","",""
"","html-keyboard-response","118","354053","0.0-71.0-1.0","null","<p></p>","null","","","","","","","","","","","","","","","","","","",""
"","do_trial","119","359081","0.0-72.0-0.0","497","","","","50","0,0,0","0","forest","22","probe-88","0.4729117416941333","0.41090355316968263","0.05695187099457402","0","","","","","","","",""
"","html-keyboard-response","120","360083","0.0-72.0-1.0","null","<p></p>","null","","","","","","","","","","","","","","","","","","",""
"","do_trial","121","365029","0.0-73.0-0.0","416","","","","51","1,0,0","0","forest","23","probe-06","0.46204359323330196","0.2941627575545617","0.08307423911783243","0","","","","","","","",""
"","html-keyboard-response","122","366032","0.0-73.0-1.0","null","<p></p>","null","","","","","","","","","","","","","","","","","","",""
"","do_trial","123","370924","0.0-74.0-0.0","364.0000000000582","","","","49","1,0,0","0","forest","24","probe-05","0.5701383036244735","0.2007644597216475","0.1263701706005231","1","","","","","","","",""
"","html-keyboard-response","124","371925","0.0-74.0-1.0","null","<p></p>","null","","","","","","","","","","","","","","","","","","",""
"","do_trial","125","377175","0.0-75.0-0.0","720.0000000000582","","","","50","1,1,0","0","forest","25","probe-103","0.715901142285511","0.2543737826519597","0.09887965128820123","1","","","","","","","",""
"","html-keyboard-response","126","378178","0.0-75.0-1.0","null","<p></p>","null","","","","","","","","","","","","","","","","","","",""
"","do_trial","127","383279","0.0-76.0-0.0","571","","","","51","1,0,0","0","forest","26","probe-29","0.6022253620045139","0.17543957620210412","0.12657291410744123","0","","","","","","","",""
"","html-keyboard-response","128","384281","0.0-76.0-1.0","null","<p></p>","null","","","","","","","","","","","","","","","","","","",""
"","do_trial","129","389263","0.0-77.0-0.0","454","","","","49","1,1,0","0","forest","27","probe-21","0.5824091747841094","0.15606332240079404","0.16758603660304097","1","","","","","","","",""
"","html-keyboard-response","130","390265","0.0-77.0-1.0","null","<p></p>","null","","","","","","","","","","","","","","","","","","",""
"","do_trial","131","395394","0.0-78.0-0.0","598","","","","50","0,0,0","0","forest","28","probe-144","0.6641460525854275","0.07843901528070057","0.05804499017569165","0","","","","","","","",""
"","html-keyboard-response","132","396396","0.0-78.0-1.0","null","<p></p>","null","","","","","","","","","","","","","","","","","","",""
"","do_trial","133","401473","0.0-79.0-0.0","547","","","","49","1,1,0","0","forest","29","probe-110","0.5812660264724253","0.20145892951959213","0.2007357724354204","1","","","","","","","",""
"","html-keyboard-response","134","402476","0.0-79.0-1.0","null","<p></p>","null","","","","","","","","","","","","","","","","","","",""
"","do_bye","135","403982","0.0-80.0-0.0","null","","","","null","","","","","","","","","","","","","","","","",""
"","do_travel","136","409984","0.0-81.0-0.0","null","","","","null","","","","","","","","","","","","","","","","",""
"","do_welcome","137","411490","0.0-81.0-1.0","null","","","","null","","","","","","","","","","","","","","","","",""
"","do_trial","138","416744","0.0-82.0-0.0","723.9999999999418","","","","49","1,0,0","1","countryside","30","probe-25","1","0.18492081969238097","0.13150073067807008","1","","","","","","","",""
"","html-keyboard-response","139","417746","0.0-82.0-1.0","null","<p></p>","null","","","","","","","","","","","","","","","","","","",""
"","do_trial","140","422892","0.0-83.0-0.0","616","","","","50","1,0,0","1","countryside","31","probe-197","1","0.2671269784500012","0.171284302233705","0","","","","","","","",""
"","html-keyboard-response","141","423895","0.0-83.0-1.0","null","<p></p>","null","","","","","","","","","","","","","","","","","","",""
"","do_trial","142","428933","0.0-84.0-0.0","506","","","","51","1,0,0","1","countryside","32","probe-15","1","0.2317469487098137","0.14586086335627677","0","","","","","","","",""
"","html-keyboard-response","143","429935","0.0-84.0-1.0","null","<p></p>","null","","","","","","","","","","","","","","","","","","",""
"","do_trial","144","434846","0.0-85.0-0.0","380","","","","49","1,1,0","1","countryside","33","probe-23","0.7185346252635877","0.18314300891292581","0.23554566251303619","1","","","","","","","",""
"","html-keyboard-response","145","435848","0.0-85.0-1.0","null","<p></p>","null","","","","","","","","","","","","","","","","","","",""
"","do_trial","146","440918","0.0-86.0-0.0","539","","","","50","1,0,0","1","countryside","34","probe-106","0.7337476143611481","0.33398803790498965","0.4014633803170855","0","","","","","","","",""
"","html-keyboard-response","147","441920","0.0-86.0-1.0","null","<p></p>","null","","","","","","","","","","","","","","","","","","",""
"","do_trial","148","447189","0.0-87.0-0.0","737","","","","51","1,0,0","1","countryside","35","probe-150","0.787414025640597","0.28178285017402005","0.2824633671714094","0","","","","","","","",""
"","html-keyboard-response","149","448192","0.0-87.0-1.0","null","<p></p>","null","","","","","","","","","","","","","","","","","","",""
"","do_trial","150","453233","0.0-88.0-0.0","512","","","","49","1,0,0","1","countryside","36","probe-114","0.7393754245320695","0.3078714246291913","0.16380672413007","1","","","","","","","",""
"","html-keyboard-response","151","454234","0.0-88.0-1.0","null","<p></p>","null","","","","","","","","","","","","","","","","","","",""
"","do_trial","152","459477","0.0-89.0-0.0","714","","","","49","0,0,0","1","countryside","37","probe-177","0.6261695723005641","0.1662720277691119","0.1053112989272687","0","","","","","","","",""
"","html-keyboard-response","153","460479","0.0-89.0-1.0","null","<p></p>","null","","","","","","","","","","","","","","","","","","",""
"","do_trial","154","465391","0.0-90.0-0.0","383","","","","50","0,1,0","1","countryside","38","probe-27","0.5881628023136645","0.27314270686189185","0.1016663123556132","1","","","","","","","",""
"","html-keyboard-response","155","466394","0.0-90.0-1.0","null","<p></p>","null","","","","","","","","","","","","","","","","","","",""
"","do_trial","156","471546","0.0-91.0-0.0","623","","","","50","1,0,1","1","countryside","39","probe-86","0.4976032347135198","0.27246124016092405","0.15953358116785588","0","","","","","","","",""
"","html-keyboard-response","157","472549","0.0-91.0-1.0","null","<p></p>","null","","","","","","","","","","","","","","","","","","",""
"","do_trial","158","477547","0.0-92.0-0.0","469","","","","49","0,0,0","1","countryside","40","probe-04","0.6153457949697765","0.21717950222821997","0.12896900707138437","0","","","","","","","",""
"","html-keyboard-response","159","478549","0.0-92.0-1.0","null","<p></p>","null","","","","","","","","","","","","","","","","","","",""
"","do_trial","160","483524","0.0-93.0-0.0","445","","","","50","0,1,0","1","countryside","41","probe-65","0.5684355176069388","0.17363126222512412","0.16008951451206316","1","","","","","","","",""
"","html-keyboard-response","161","484526","0.0-93.0-1.0","null","<p></p>","null","","","","","","","","","","","","","","","","","","",""
"","do_trial","162","489899","0.0-94.0-0.0","845","","","","51","1,1,0","1","countryside","42","probe-80","0.5253207165527143","0.2635982305828448","0.3535949606330596","0","","","","","","","",""
"","html-keyboard-response","163","490902","0.0-94.0-1.0","null","<p></p>","null","","","","","","","","","","","","","","","","","","",""
"","do_trial","164","496033","0.0-95.0-0.0","598.9999999999418","","","","49","1,0,0","1","countryside","43","probe-117","0.26958473253132487","0.1960751439726828","0.507159278137207","1","","","","","","","",""
"","html-keyboard-response","165","497035","0.0-95.0-1.0","null","<p></p>","null","","","","","","","","","","","","","","","","","","",""
"","do_trial","166","501963","0.0-96.0-0.0","397","","","","50","0,0,0","1","countryside","44","probe-148","0.2679402667339732","0.15792669811706703","0.38750397543912696","0","","","","","","","",""
"","html-keyboard-response","167","502966","0.0-96.0-1.0","null","<p></p>","null","","","","","","","","","","","","","","","","","","",""
"","do_trial","168","507996","0.0-97.0-0.0","501","","","","49","0,0,1","1","countryside","45","probe-113","0.2779927591608275","0.2631233283395666","0.4519918007275253","0","","","","","","","",""
"","html-keyboard-response","169","508999","0.0-97.0-1.0","null","<p></p>","null","","","","","","","","","","","","","","","","","","",""
"","do_trial","170","513987","0.0-98.0-0.0","457.9999999999418","","","","50","0,1,0","1","countryside","46","probe-125","0.38114185294899905","0.25286605473674323","0.540001533476931","1","","","","","","","",""
"","html-keyboard-response","171","514990","0.0-98.0-1.0","null","<p></p>","null","","","","","","","","","","","","","","","","","","",""
"","do_trial","172","520038","0.0-99.0-0.0","518.0000000000582","","","","49","1,0,0","1","countryside","47","probe-230","0.3872218731135689","0.1593284799438604","0.5887312692554958","1","","","","","","","",""
"","html-keyboard-response","173","521040","0.0-99.0-1.0","null","<p></p>","null","","","","","","","","","","","","","","","","","","",""
"","do_trial","174","526050","0.0-100.0-0.0","481","","","","50","0,0,1","1","countryside","48","probe-60","0.343553560655224","0.10142195959384759","0.6099885298261678","0","","","","","","","",""
"","html-keyboard-response","175","527052","0.0-100.0-1.0","null","<p></p>","null","","","","","","","","","","","","","","","","","","",""
"","do_trial","176","532395","0.0-101.0-0.0","812","","","","49","1,0,0","1","countryside","49","probe-69","0.47962068807529645","0.0590162306732017","0.6311866217447288","1","","","","","","","",""
"","html-keyboard-response","177","533397","0.0-101.0-1.0","null","<p></p>","null","","","","","","","","","","","","","","","","","","",""
"","do_trial","178","538807","0.0-102.0-0.0","880","","","","50","0,0,0","1","countryside","50","probe-41","0.4429685009750973","0.10329615950293107","0.6814433396354461","0","","","","","","","",""
"","html-keyboard-response","179","539809","0.0-102.0-1.0","null","<p></p>","null","","","","","","","","","","","","","","","","","","",""
"","do_trial","180","544779","0.0-103.0-0.0","434","","","","49","0,0,1","1","countryside","51","probe-137","0.21390574467520843","0.06895600421498395","0.633835601450449","0","","","","","","","",""
"","html-keyboard-response","181","545781","0.0-103.0-1.0","null","<p></p>","null","","","","","","","","","","","","","","","","","","",""
"","do_trial","182","550722","0.0-104.0-0.0","410","","","","50","0,0,0","1","countryside","52","probe-130","0.22753720029301971","0.09754511276410771","0.5403686982941324","0","","","","","","","",""
"","html-keyboard-response","183","551724","0.0-104.0-1.0","null","<p></p>","null","","","","","","","","","","","","","","","","","","",""
"","do_trial","184","557037","0.0-105.0-0.0","782","","","","49","0,0,1","1","countryside","53","probe-82","0.27429266467396507","0.11592368971108105","0.5736309935054528","0","","","","","","","",""
"","html-keyboard-response","185","558039","0.0-105.0-1.0","null","<p></p>","null","","","","","","","","","","","","","","","","","","",""
"","do_trial","186","562992","0.0-106.0-0.0","423","","","","50","0,0,1","1","countryside","54","probe-221","0.16810275569527142","0.1810558926205484","0.62537351263036","0","","","","","","","",""
"","html-keyboard-response","187","563994","0.0-106.0-1.0","null","<p></p>","null","","","","","","","","","","","","","","","","","","",""
"","do_trial","188","569137","0.0-107.0-0.0","617","","","","51","0,0,0","1","countryside","55","probe-178","0.08026030300786126","0.10827424726557094","0.5927460009834344","0","","","","","","","",""
"","html-keyboard-response","189","570139","0.0-107.0-1.0","null","<p></p>","null","","","","","","","","","","","","","","","","","","",""
"","do_trial","190","575250","0.0-108.0-0.0","583","","","","49","0,0,1","1","countryside","56","probe-223","0.09000846572460913","0.16738629577824074","0.6230767465120112","0","","","","","","","",""
"","html-keyboard-response","191","576252","0.0-108.0-1.0","null","<p></p>","null","","","","","","","","","","","","","","","","","","",""
"","do_trial","192","581452","0.0-109.0-0.0","670","","","","50","1,0,1","1","countryside","57","probe-219","0.17014163891765288","0.13133010605293496","0.68310558679941","0","","","","","","","",""
"","html-keyboard-response","193","582455","0.0-109.0-1.0","null","<p></p>","null","","","","","","","","","","","","","","","","","","",""
"","do_trial","194","588118","0.0-110.0-0.0","1132.0000000001164","","","","49","0,0,0","1","countryside","58","probe-132","0.11465893883871997","0.127370273267297","0.6565409994237043","0","","","","","","","",""
"","html-keyboard-response","195","589120","0.0-110.0-1.0","null","<p></p>","null","","","","","","","","","","","","","","","","","","",""
"","do_trial","196","594277","0.0-111.0-0.0","626","","","","49","0,0,1","1","countryside","59","probe-111","0.23837410043712454","0.21058117956039837","0.679825994555921","0","","","","","","","",""
"","html-keyboard-response","197","595279","0.0-111.0-1.0","null","<p></p>","null","","","","","","","","","","","","","","","","","","",""
"","do_trial","198","600218","0.0-112.0-0.0","412.0000000001164","","","","50","0,0,1","1","countryside","60","probe-215","0.1933896804675763","0.07660917824353305","0.5996214030138447","0","","","","","","","",""
"","html-keyboard-response","199","601221","0.0-112.0-1.0","null","<p></p>","null","","","","","","","","","","","","","","","","","","",""
"","do_trial","200","606145","0.0-113.0-0.0","393","","","","50","0,0,1","1","countryside","61","probe-217","0.2876457833882764","0.09066779038886726","0.6340884109923698","0","","","","","","","",""
"","html-keyboard-response","201","607148","0.0-113.0-1.0","null","<p></p>","null","","","","","","","","","","","","","","","","","","",""
"","do_trial","202","612255","0.0-114.0-0.0","576","","","","49","0,0,1","1","countryside","62","probe-173","0.3097229597763444","0.05567056240352049","0.6183809951792281","0","","","","","","","",""
"","html-keyboard-response","203","613258","0.0-114.0-1.0","null","<p></p>","null","","","","","","","","","","","","","","","","","","",""
"","do_trial","204","618385","0.0-115.0-0.0","598","","","","50","0,1,1","1","countryside","63","probe-77","0.32411866588917376","0.19696093822643065","0.49302109528591415","1","","","","","","","",""
"","html-keyboard-response","205","619387","0.0-115.0-1.0","null","<p></p>","null","","","","","","","","","","","","","","","","","","",""
"","do_trial","206","624519","0.0-116.0-0.0","600","","","","50","1,0,0","1","countryside","64","probe-90","0.32223118053845434","0.235919681389255","0.426423758431487","0","","","","","","","",""
"","html-keyboard-response","207","625522","0.0-116.0-1.0","null","<p></p>","null","","","","","","","","","","","","","","","","","","",""
"","do_trial","208","630571","0.0-117.0-0.0","515","","","","49","0,0,0","1","countryside","65","probe-56","0.3011169345039824","0.21942192834277827","0.5343256476530742","0","","","","","","","",""
"","html-keyboard-response","209","631574","0.0-117.0-1.0","null","<p></p>","null","","","","","","","","","","","","","","","","","","",""
"","do_trial","210","636594","0.0-118.0-0.0","490.0000000001164","","","","50","0,1,1","1","countryside","66","probe-100","0.3081498098764631","0.13889319399757333","0.5946778830128477","1","","","","","","","",""
"","html-keyboard-response","211","637597","0.0-118.0-1.0","null","<p></p>","null","","","","","","","","","","","","","","","","","","",""
"","do_trial","212","642972","0.0-119.0-0.0","847","","","","51","0,0,1","1","countryside","67","probe-16","0.27879540977353773","0.14152239906421168","0.5934551271310763","1","","","","","","","",""
"","html-keyboard-response","213","643975","0.0-119.0-1.0","null","<p></p>","null","","","","","","","","","","","","","","","","","","",""
"","do_trial","214","648950","0.0-120.0-0.0","446","","","","49","0,1,1","1","countryside","68","probe-24","0.1908162949761432","0.07858411144877468","0.5272207597496515","0","","","","","","","",""
"","html-keyboard-response","215","649952","0.0-120.0-1.0","null","<p></p>","null","","","","","","","","","","","","","","","","","","",""
"","do_trial","216","655176","0.0-121.0-0.0","696","","","","50","0,0,1","1","countryside","69","probe-52","0.22018339983527116","0.058715547288228476","0.4533464564929192","0","","","","","","","",""
"","html-keyboard-response","217","656177","0.0-121.0-1.0","null","<p></p>","null","","","","","","","","","","","","","","","","","","",""
"","do_bye","218","657683","0.0-122.0-0.0","null","","","","null","","","","","","","","","","","","","","","","",""
"","do_travel","219","663686","0.0-123.0-0.0","null","","","","null","","","","","","","","","","","","","","","","",""
"","do_welcome","220","665191","0.0-123.0-1.0","null","","","","null","","","","","","","","","","","","","","","","",""
"","do_trial","221","670565","0.0-124.0-0.0","844.0000000001164","","","","51","0,1,1","2","city","70","probe-74","0.11718660553339202","0.08627695650181255","1","1","","","","","","","",""
"","html-keyboard-response","222","671567","0.0-124.0-1.0","null","<p></p>","null","","","","","","","","","","","","","","","","","","",""
"","do_trial","223","676922","0.0-125.0-0.0","827.9999999998836","","","","50","0,0,1","2","city","71","probe-79","0.24431654112032433","0.05756276228231283","1","0","","","","","","","",""
"","html-keyboard-response","224","677924","0.0-125.0-1.0","null","<p></p>","null","","","","","","","","","","","","","","","","","","",""
"","do_trial","225","682820","0.0-126.0-0.0","367","","","","49","1,0,0","2","city","72","probe-116","0.22361100191865915","0.1354519917869734","0.7199790692034026","1","","","","","","","",""
"","html-keyboard-response","226","683823","0.0-126.0-1.0","null","<p></p>","null","","","","","","","","","","","","","","","","","","",""
"","do_trial","227","688910","0.0-127.0-0.0","559","","","","49","0,0,1","2","city","73","probe-142","0.1381068568835279","0.06023158410770524","0.7027110149783843","0","","","","","","","",""
"","html-keyboard-response","228","689912","0.0-127.0-1.0","null","<p></p>","null","","","","","","","","","","","","","","","","","","",""
"","do_trial","229","694878","0.0-128.0-0.0","437.9999999998836","","","","50","0,0,0","2","city","74","probe-124","0.34578282071420896","0.06961292109545268","0.7246285589289997","0","","","","","","","",""
"","html-keyboard-response","230","695880","0.0-128.0-1.0","null","<p></p>","null","","","","","","","","","","","","","","","","","","",""
"","do_trial","231","700798","0.0-129.0-0.0","388","","","","51","0,0,1","2","city","75","probe-58","0.32563751223861515","0.1286113546428171","0.7644221418602274","1","","","","","","","",""
"","html-keyboard-response","232","701801","0.0-129.0-1.0","null","<p></p>","null","","","","","","","","","","","","","","","","","","",""
"","do_trial","233","707142","0.0-130.0-0.0","813.0000000001164","","","","49","0,1,1","2","city","76","probe-179","0.3553760990308569","0.24260558516315328","0.6192716347915304","0","","","","","","","",""
"","html-keyboard-response","234","708144","0.0-130.0-1.0","null","<p></p>","null","","","","","","","","","","","","","","","","","","",""
"","do_trial","235","713078","0.0-131.0-0.0","405","","","","51","0,0,1","2","city","77","probe-181","0.4204909828978526","0.1888792624368573","0.6567637091550546","1","","","","","","","",""
"","html-keyboard-response","236","714080","0.0-131.0-1.0","null","<p></p>","null","","","","","","","","","","","","","","","","","","",""
"","do_trial","237","719089","0.0-132.0-0.0","479","","","","51","0,0,0","2","city","78","probe-141","0.37531948582423885","0.16236982092614236","0.5751025620882921","0","","","","","","","",""
"","html-keyboard-response","238","720091","0.0-132.0-1.0","null","<p></p>","null","","","","","","","","","","","","","","","","","","",""
"","do_trial","239","725244","0.0-133.0-0.0","623.0000000001164","","","","50","1,1,0","2","city","79","probe-46","0.2687064293241734","0.21610060998296085","0.5608331188557015","1","","","","","","","",""
"","html-keyboard-response","240","726246","0.0-133.0-1.0","null","<p></p>","null","","","","","","","","","","","","","","","","","","",""
"","do_trial","241","731820","0.0-134.0-0.0","1043","","","","49","1,1,1","2","city","80","probe-109","0.3633402518723346","0.33615423741428635","0.56368722165183","1","","","","","","","",""
"","html-keyboard-response","242","732822","0.0-134.0-1.0","null","<p></p>","null","","","","","","","","","","","","","","","","","","",""
"","do_trial","243","737862","0.0-135.0-0.0","509","","","","50","0,0,1","2","city","81","probe-146","0.3298466000767283","0.3177777869732028","0.5507527458238761","0","","","","","","","",""
"","html-keyboard-response","244","738864","0.0-135.0-1.0","null","<p></p>","null","","","","","","","","","","","","","","","","","","",""
"","do_trial","245","743840","0.0-136.0-0.0","446.0000000001164","","","","51","1,1,1","2","city","82","probe-138","0.4053765397060775","0.1559008720392651","0.4562953282703267","1","","","","","","","",""
"","html-keyboard-response","246","744843","0.0-136.0-1.0","null","<p></p>","null","","","","","","","","","","","","","","","","","","",""
"","do_trial","247","750942","0.0-137.0-0.0","1571","","","","49","0,0,1","2","city","83","probe-57","0.402511915793001","0.05622524836266548","0.4341603561000872","0","","","","","","","",""
"","html-keyboard-response","248","751945","0.0-137.0-1.0","null","<p></p>","null","","","","","","","","","","","","","","","","","","",""
"","do_trial","249","757006","0.0-138.0-0.0","532","","","","50","1,0,1","2","city","84","probe-105","0.3727237793811476","0.23807725174670671","0.4442769334378043","0","","","","","","","",""
"","html-keyboard-response","250","758008","0.0-138.0-1.0","null","<p></p>","null","","","","","","","","","","","","","","","","","","",""
"","do_trial","251","763226","0.0-139.0-0.0","687.9999999998836","","","","51","0,0,1","2","city","85","probe-140","0.406656987646625","0.12814328438131192","0.44646663138288445","1","","","","","","","",""
"","html-keyboard-response","252","764228","0.0-139.0-1.0","null","<p></p>","null","","","","","","","","","","","","","","","","","","",""
"","do_trial","253","769294","0.0-140.0-0.0","537","","","","51","0,1,1","2","city","86","probe-190","0.3687600248524365","0.1932651687127369","0.29759386857753867","1","","","","","","","",""
"","html-keyboard-response","254","770295","0.0-140.0-1.0","null","<p></p>","null","","","","","","","","","","","","","","","","","","",""
"","do_trial","255","775317","0.0-141.0-0.0","493","","","","50","0,0,0","2","city","87","probe-70","0.44683662981552097","0.09461268997980536","0.3405184993687821","0","","","","","","","",""
"","html-keyboard-response","256","776320","0.0-141.0-1.0","null","<p></p>","null","","","","","","","","","","","","","","","","","","",""
"","do_trial","257","781435","0.0-142.0-0.0","586","","","","49","1,0,0","2","city","88","probe-180","0.4351381292154579","0.12884023575161135","0.28198197032305616","1","","","","","","","",""
"","html-keyboard-response","258","782438","0.0-142.0-1.0","null","<p></p>","null","","","","","","","","","","","","","","","","","","",""
"","do_trial","259","788173","0.0-143.0-0.0","1205","","","","51","0,0,1","2","city","89","probe-200","0.4826390895278285","0.1942452781386705","0.41406454782731433","1","","","","","","","",""
"","html-keyboard-response","260","789175","0.0-143.0-1.0","null","<p></p>","null","","","","","","","","","","","","","","","","","","",""
"","do_trial","261","794250","0.0-144.0-0.0","545","","","","51","0,1,1","2","city","90","probe-163","0.5916755557076107","0.30482694190157394","0.4201184662104238","1","","","","","","","",""
"","html-keyboard-response","262","795251","0.0-144.0-1.0","null","<p></p>","null","","","","","","","","","","","","","","","","","","",""
"","do_trial","263","800378","0.0-145.0-0.0","596","","","","51","0,0,1","2","city","91","probe-131","0.5711094751241771","0.28436443945136214","0.4716772415657577","1","","","","","","","",""
"","html-keyboard-response","264","801380","0.0-145.0-1.0","null","<p></p>","null","","","","","","","","","","","","","","","","","","",""
"","do_trial","265","806321","0.0-146.0-0.0","412.0000000001164","","","","51","1,0,1","2","city","92","probe-93","0.6044986867227562","0.15159745422929635","0.3439697536383061","1","","","","","","","",""
"","html-keyboard-response","266","807324","0.0-146.0-1.0","null","<p></p>","null","","","","","","","","","","","","","","","","","","",""
"","do_trial","267","812246","0.0-147.0-0.0","394","","","","51","1,0,0","2","city","93","probe-184","0.4719547153881566","0.15621989481175172","0.34311896108628703","0","","","","","","","",""
"","html-keyboard-response","268","813248","0.0-147.0-1.0","null","<p></p>","null","","","","","","","","","","","","","","","","","","",""
"","do_trial","269","818462","0.0-148.0-0.0","686","","","","51","1,1,0","2","city","94","probe-166","0.6289993359494718","0.27038981922382155","0.31327124794986855","0","","","","","","","",""
"","html-keyboard-response","270","819465","0.0-148.0-1.0","null","<p></p>","null","","","","","","","","","","","","","","","","","","",""
"","do_trial","271","824309","0.0-149.0-0.0","315","","","","49","0,0,0","2","city","95","probe-11","0.5180146409873115","0.23367965893497628","0.4308132347017778","0","","","","","","","",""
"","html-keyboard-response","272","825311","0.0-149.0-1.0","null","<p></p>","null","","","","","","","","","","","","","","","","","","",""
"","do_trial","273","830352","0.0-150.0-0.0","512","","","","50","1,0,1","2","city","96","probe-229","0.6727492476743536","0.16051645214647411","0.3839654305428343","0","","","","","","","",""
"","html-keyboard-response","274","831355","0.0-150.0-1.0","null","<p></p>","null","","","","","","","","","","","","","","","","","","",""
"","do_trial","275","836001","0.0-151.0-0.0","116.99999999988358","","","","51","1,0,1","2","city","97","probe-127","0.6056462446759187","0.06935839047594801","0.30331790376302226","1","","","","","","","",""
"","html-keyboard-response","276","837003","0.0-151.0-1.0","null","<p></p>","null","","","","","","","","","","","","","","","","","","",""
"","do_trial","277","841932","0.0-152.0-0.0","400.0000000001164","","","","49","0,0,0","2","city","98","probe-134","0.6845606771347279","0.12747231197901765","0.24118593156283064","0","","","","","","","",""
"","html-keyboard-response","278","842934","0.0-152.0-1.0","null","<p></p>","null","","","","","","","","","","","","","","","","","","",""
"","do_trial","279","848013","0.0-153.0-0.0","552.0000000001164","","","","50","1,0,0","2","city","99","probe-204","0.7430360078588766","0.0797550810728103","0.25988418657514","0","","","","","","","",""
"","html-keyboard-response","280","849014","0.0-153.0-1.0","null","<p></p>","null","","","","","","","","","","","","","","","","","","",""
"","do_trial","281","853999","0.0-154.0-0.0","455.9999999998836","","","","51","1,0,1","2","city","100","probe-09","0.8348233937744075","0.09210621437614398","0.19651594790763302","1","","","","","","","",""
"","html-keyboard-response","282","855001","0.0-154.0-1.0","null","<p></p>","null","","","","","","","","","","","","","","","","","","",""
"","do_trial","283","860458","0.0-155.0-0.0","928","","","","51","0,0,1","2","city","101","probe-31","0.7177653957655388","0.12281737430239446","0.21234759795620647","1","","","","","","","",""
"","html-keyboard-response","284","861461","0.0-155.0-1.0","null","<p></p>","null","","","","","","","","","","","","","","","","","","",""
"","do_trial","285","866958","0.0-156.0-0.0","969","","","","50","1,0,1","2","city","102","probe-72","0.6456412167834619","0.06273010514311797","0.24486207162350287","0","","","","","","","",""
"","html-keyboard-response","286","867961","0.0-156.0-1.0","null","<p></p>","null","","","","","","","","","","","","","","","","","","",""
"","do_trial","287","873117","0.0-157.0-0.0","628","","","","49","1,0,1","2","city","103","probe-101","0.7236624572657884","0.09548634078854454","0.20326226989816168","1","","","","","","","",""
"","html-keyboard-response","288","874119","0.0-157.0-1.0","null","<p></p>","null","","","","","","","","","","","","","","","","","","",""
"","do_trial","289","879241","0.0-158.0-0.0","599","","","","51","1,0,0","2","city","104","probe-145","0.5868495507171223","0.08892101816662468","0.2308270000137465","0","","","","","","","",""
"","html-keyboard-response","290","880242","0.0-158.0-1.0","null","<p></p>","null","","","","","","","","","","","","","","","","","","",""
"","do_trial","291","885365","0.0-159.0-0.0","595.0000000001164","","","","49","0,0,0","2","city","105","probe-37","0.5865593907574276","0.14637741785266367","0.27860972075860224","0","","","","","","","",""
"","html-keyboard-response","292","886367","0.0-159.0-1.0","null","<p></p>","null","","","","","","","","","","","","","","","","","","",""
"","do_trial","293","891426","0.0-160.0-0.0","531.9999999998836","","","","51","0,0,1","2","city","106","probe-211","0.4684966243560452","0.070531912025327","0.39998727655227995","1","","","","","","","",""
"","html-keyboard-response","294","892428","0.0-160.0-1.0","null","<p></p>","null","","","","","","","","","","","","","","","","","","",""
"","do_trial","295","898268","0.0-161.0-0.0","1311.9999999998836","","","","51","1,0,1","2","city","107","probe-171","0.521075705055888","0.055163716251243625","0.360134058667272","1","","","","","","","",""
"","html-keyboard-response","296","899271","0.0-161.0-1.0","null","<p></p>","null","","","","","","","","","","","","","","","","","","",""
"","do_trial","297","904269","0.0-162.0-0.0","469","","","","51","1,0,1","2","city","108","probe-136","0.5039526543166121","0.07632384757232691","0.2966230468288338","1","","","","","","","",""
"","html-keyboard-response","298","905271","0.0-162.0-1.0","null","<p></p>","null","","","","","","","","","","","","","","","","","","",""
"","do_trial","299","910224","0.0-163.0-0.0","422.0000000001164","","","","51","1,0,0","2","city","109","probe-165","0.583409840605425","0.09186988818849366","0.3185005893893569","0","","","","","","","",""
"","html-keyboard-response","300","911227","0.0-163.0-1.0","null","<p></p>","null","","","","","","","","","","","","","","","","","","",""
"","do_bye","301","912733","0.0-164.0-0.0","null","","","","null","","","","","","","","","","","","","","","","",""
"","do_travel","302","918736","0.0-165.0-0.0","null","","","","null","","","","","","","","","","","","","","","","",""
"","do_welcome","303","920242","0.0-165.0-1.0","null","","","","null","","","","","","","","","","","","","","","","",""
"","do_trial","304","926271","0.0-166.0-0.0","null","","","","null","1,0,0","3","coast","110","probe-53","1","0.15946231131141297","0.2968680053091697","","","","","","","","",""
"","html-keyboard-response","305","927274","0.0-166.0-1.0","null","<p></p>","null","","","","","","","","","","","","","","","","","","",""
"","do_trial","306","932744","0.0-167.0-0.0","940","","","","50","1,0,0","3","coast","111","probe-48","1","0.3098585438652631","0.39164503279571283","0","","","","","","","",""
"","html-keyboard-response","307","933746","0.0-167.0-1.0","null","<p></p>","null","","","","","","","","","","","","","","","","","","",""
"","do_trial","308","938876","0.0-168.0-0.0","602","","","","49","1,0,1","3","coast","112","probe-176","0.8536535883984568","0.22650384573831076","0.40080733458369217","1","","","","","","","",""
"","html-keyboard-response","309","939879","0.0-168.0-1.0","null","<p></p>","null","","","","","","","","","","","","","","","","","","",""
"","do_trial","310","945104","0.0-169.0-0.0","696","","","","51","1,1,0","3","coast","113","probe-39","0.6991365536150015","0.1391754754482058","0.36499132068593854","0","","","","","","","",""
"","html-keyboard-response","311","946107","0.0-169.0-1.0","null","<p></p>","null","","","","","","","","","","","","","","","","","","",""
"","do_trial","312","951536","0.0-170.0-0.0","900.9999999998836","","","","49","0,0,1","3","coast","114","probe-59","0.5917271149612221","0.11503827799817336","0.366451636247358","0","","","","","","","",""
"","html-keyboard-response","313","952538","0.0-170.0-1.0","null","<p></p>","null","","","","","","","","","","","","","","","","","","",""
"","do_trial","314","957555","0.0-171.0-0.0","490","","","","50","1,0,0","3","coast","115","probe-71","0.4979908364498749","0.1459886321842257","0.39187804594655296","0","","","","","","","",""
"","html-keyboard-response","315","958558","0.0-171.0-1.0","null","<p></p>","null","","","","","","","","","","","","","","","","","","",""
"","do_trial","316","963871","0.0-172.0-0.0","784","","","","51","0,0,0","3","coast","116","probe-08","0.536513423378189","0.17548517718734227","0.3490354168466063","0","","","","","","","",""
"","html-keyboard-response","317","964874","0.0-172.0-1.0","null","<p></p>","null","","","","","","","","","","","","","","","","","","",""
"","do_trial","318","970114","0.0-173.0-0.0","711","","","","49","1,1,1","3","coast","117","probe-143","0.48730950075466284","0.24394343733693163","0.31978279772107593","1","","","","","","","",""
"","html-keyboard-response","319","971117","0.0-173.0-1.0","null","<p></p>","null","","","","","","","","","","","","","","","","","","",""
"","do_trial","320","976509","0.0-174.0-0.0","863","","","","50","1,0,0","3","coast","118","probe-158","0.4123805132699176","0.31474995372063613","0.5919151115230868","0","","","","","","","",""
"","html-keyboard-response","321","977512","0.0-174.0-1.0","null","<p></p>","null","","","","","","","","","","","","","","","","","","",""
"","do_trial","322","982664","0.0-175.0-0.0","621.0000000001164","","","","51","1,1,0","3","coast","119","probe-89","0.42540935219755843","0.18011107734187692","0.33433345757180954","0","","","","","","","",""
"","html-keyboard-response","323","983667","0.0-175.0-1.0","null","<p></p>","null","","","","","","","","","","","","","","","","","","",""
"","do_trial","324","989199","0.0-176.0-0.0","1002","","","","49","0,0,0","3","coast","120","probe-68","0.4512838986301051","0.13464778542443598","0.2474252603309283","0","","","","","","","",""
"","html-keyboard-response","325","990202","0.0-176.0-1.0","null","<p></p>","null","","","","","","","","","","","","","","","","","","",""
"","do_trial","326","995142","0.0-177.0-0.0","410","","","","50","1,0,0","3","coast","121","probe-128","0.3969720728635215","0.12959588796423097","0.31855117437716757","0","","","","","","","",""
"","html-keyboard-response","327","996145","0.0-177.0-1.0","null","<p></p>","null","","","","","","","","","","","","","","","","","","",""
"","do_trial","328","1001555","0.0-178.0-0.0","880","","","","51","0,0,0","3","coast","122","probe-194","0.2658554753821049","0.11535493533022834","0.186885031398356","0","","","","","","","",""
"","html-keyboard-response","329","1002558","0.0-178.0-1.0","null","<p></p>","null","","","","","","","","","","","","","","","","","","",""
"","do_trial","330","1007540","0.0-179.0-0.0","452","","","","49","0,0,0","3","coast","123","probe-73","0.2954293697808362","0.2599370913509442","0.33026372432997897","0","","","","","","","",""
"","html-keyboard-response","331","1008543","0.0-179.0-1.0","null","<p></p>","null","","","","","","","","","","","","","","","","","","",""
"","do_trial","332","1013638","0.0-180.0-0.0","565","","","","50","0,0,0","3","coast","124","probe-119","0.35622261877694283","0.43229722776595597","0.2019962899125529","0","","","","","","","",""
"","html-keyboard-response","333","1014640","0.0-180.0-1.0","null","<p></p>","null","","","","","","","","","","","","","","","","","","",""
"","do_trial","334","1019380","0.0-181.0-0.0","208","","","","51","0,1,0","3","coast","125","probe-198","0.33938063822604747","0.5872938424539557","0.15579605795417042","0","","","","","","","",""
"","html-keyboard-response","335","1020382","0.0-181.0-1.0","null","<p></p>","null","","","","","","","","","","","","","","","","","","",""
"","do_trial","336","1027337","0.0-182.0-0.0","2425.0000000001164","","","","49","0,1,0","3","coast","126","probe-170","0.3908693586895061","0.6275680477442379","0.08082492241799485","0","","","","","","","",""
"","html-keyboard-response","337","1028340","0.0-182.0-1.0","null","<p></p>","null","","","","","","","","","","","","","","","","","","",""
"","do_trial","338","1033403","0.0-183.0-0.0","533.0000000001164","","","","49","1,0,0","3","coast","127","probe-75","0.43531784075790814","0.6563109450846762","0.07276523271061282","1","","","","","","","",""
"","html-keyboard-response","339","1034406","0.0-183.0-1.0","null","<p></p>","null","","","","","","","","","","","","","","","","","","",""
"","do_trial","340","1039478","0.0-184.0-0.0","542","","","","50","1,1,0","3","coast","128","probe-154","0.4319084762465407","0.660936693995076","0.1052057121152764","1","","","","","","","",""
"","html-keyboard-response","341","1040480","0.0-184.0-1.0","null","<p></p>","null","","","","","","","","","","","","","","","","","","",""
"","do_trial","342","1045779","0.0-185.0-0.0","769","","","","51","0,0,0","3","coast","129","probe-33","0.4662480758059025","0.5177101656110683","0.0612479318962953","0","","","","","","","",""
"","html-keyboard-response","343","1046781","0.0-185.0-1.0","null","<p></p>","null","","","","","","","","","","","","","","","","","","",""
"","do_trial","344","1051969","0.0-186.0-0.0","657.9999999998836","","","","49","1,1,0","3","coast","130","probe-147","0.44586805675910657","0.7159438637115101","0.11270478379362509","1","","","","","","","",""
"","html-keyboard-response","345","1052972","0.0-186.0-1.0","null","<p></p>","null","","","","","","","","","","","","","","","","","","",""
"","do_trial","346","1059053","0.0-187.0-0.0","1547","","","","50","0,1,0","3","coast","131","probe-20","0.21378929593026544","0.7168599772488256","0.09566953967589267","1","","","","","","","",""
"","html-keyboard-response","347","1060056","0.0-187.0-1.0","null","<p></p>","null","","","","","","","","","","","","","","","","","","",""
"","do_trial","348","1065207","0.0-188.0-0.0","615","","","","49","0,0,0","3","coast","132","probe-188","0.21264817589967652","0.6630733702056704","0.07985470672609311","0","","","","","","","",""
"","html-keyboard-response","349","1066209","0.0-188.0-1.0","null","<p></p>","null","","","","","","","","","","","","","","","","","","",""
"","do_trial","350","1071106","0.0-189.0-0.0","368","","","","50","0,0,0","3","coast","133","probe-195","0.1985163901506081","0.5017011598731711","0.1262722494059392","0","","","","","","","",""
"","html-keyboard-response","351","1072109","0.0-189.0-1.0","null","<p></p>","null","","","","","","","","","","","","","","","","","","",""
"","do_trial","352","1077758","0.0-190.0-0.0","1121.0000000002328","","","","51","0,0,0","3","coast","134","probe-167","0.3280584998259083","0.41576246632410224","0.10021144057870246","0","","","","","","","",""
"","html-keyboard-response","353","1078761","0.0-190.0-1.0","null","<p></p>","null","","","","","","","","","","","","","","","","","","",""
"","do_trial","354","1083872","0.0-191.0-0.0","582","","","","49","0,0,0","3","coast","135","probe-43","0.3354744140332999","0.36772780412387707","0.07730714202010701","0","","","","","","","",""
"","html-keyboard-response","355","1084875","0.0-191.0-1.0","null","<p></p>","null","","","","","","","","","","","","","","","","","","",""
"","do_trial","356","1090018","0.0-192.0-0.0","613","","","","50","0,0,0","3","coast","136","probe-32","0.27388650284775495","0.5409834070568076","0.06703218778037269","0","","","","","","","",""
"","html-keyboard-response","357","1091020","0.0-192.0-1.0","null","<p></p>","null","","","","","","","","","","","","","","","","","","",""
"","do_trial","358","1096519","0.0-193.0-0.0","970","","","","49","0,1,0","3","coast","137","probe-61","0.3667663851152678","0.4524174563299516","0.15844175868947116","0","","","","","","","",""
"","html-keyboard-response","359","1097523","0.0-193.0-1.0","null","<p></p>","null","","","","","","","","","","","","","","","","","","",""
"","do_trial","360","1103049","0.0-194.0-0.0","997","","","","50","0,0,0","3","coast","138","probe-13","0.3419080114622151","0.6045355189399259","0.10194162129473867","0","","","","","","","",""
"","html-keyboard-response","361","1104052","0.0-194.0-1.0","null","<p></p>","null","","","","","","","","","","","","","","","","","","",""
"","do_trial","362","1109501","0.0-195.0-0.0","920","","","","49","0,1,0","3","coast","139","probe-227","0.32342908645869195","0.659990944176038","0.13578912293638148","0","","","","","","","",""
"","html-keyboard-response","363","1110503","0.0-195.0-1.0","null","<p></p>","null","","","","","","","","","","","","","","","","","","",""
"","do_trial","364","1115500","0.0-196.0-0.0","467.00000000023283","","","","50","0,0,0","3","coast","140","probe-209","0.31011003490243366","0.6214085280224831","0.11924405947617928","0","","","","","","","",""
"","html-keyboard-response","365","1116503","0.0-196.0-1.0","null","<p></p>","null","","","","","","","","","","","","","","","","","","",""
"","do_trial","366","1121349","0.0-197.0-0.0","316","","","","49","1,1,1","3","coast","141","probe-97","0.34471591593125794","0.5000165661030511","0.1350701147717072","1","","","","","","","",""
"","html-keyboard-response","367","1122351","0.0-197.0-1.0","null","<p></p>","null","","","","","","","","","","","","","","","","","","",""
"","do_trial","368","1127335","0.0-198.0-0.0","453","","","","49","0,0,0","3","coast","142","probe-199","0.39302784338217117","0.7029362757751929","0.1227876985631963","0","","","","","","","",""
"","html-keyboard-response","369","1128337","0.0-198.0-1.0","null","<p></p>","null","","","","","","","","","","","","","","","","","","",""
"","do_trial","370","1133261","0.0-199.0-0.0","393.00000000023283","","","","51","1,0,0","3","coast","143","probe-186","0.3785887583685673","0.7632964600103052","0.0867591862067638","0","","","","","","","",""
"","html-keyboard-response","371","1134263","0.0-199.0-1.0","null","<p></p>","null","","","","","","","","","","","","","","","","","","",""
"","do_trial","372","1139537","0.0-200.0-0.0","745","","","","50","0,0,0","3","coast","144","probe-28","0.30399479994872974","0.835154033999288","0.07270281683376467","0","","","","","","","",""
"","html-keyboard-response","373","1140540","0.0-200.0-1.0","null","<p></p>","null","","","","","","","","","","","","","","","","","","",""
"","do_trial","374","1145602","0.0-201.0-0.0","533","","","","49","0,1,0","3","coast","145","probe-222","0.20924004585849929","0.7966870263107461","0.15287259860964209","0","","","","","","","",""
"","html-keyboard-response","375","1146604","0.0-201.0-1.0","null","<p></p>","null","","","","","","","","","","","","","","","","","","",""
"","do_trial","376","1151748","0.0-202.0-0.0","614","","","","50","0,1,0","3","coast","146","probe-02","0.2794300239472965","0.5961010861859029","0.14034388004327134","1","","","","","","","",""
"","html-keyboard-response","377","1152751","0.0-202.0-1.0","null","<p></p>","null","","","","","","","","","","","","","","","","","","",""
"","do_trial","378","1158251","0.0-203.0-0.0","970.0000000002328","","","","49","0,1,0","3","coast","147","probe-226","0.345908339440877","0.675615718864642","0.1533022617352166","0","","","","","","","",""
"","html-keyboard-response","379","1159253","0.0-203.0-1.0","null","<p></p>","null","","","","","","","","","","","","","","","","","","",""
"","do_trial","380","1164389","0.0-204.0-0.0","606","","","","50","0,1,0","3","coast","148","probe-49","0.34436658745210963","0.5671454021579385","0.21018361268329194","1","","","","","","","",""
"","html-keyboard-response","381","1165392","0.0-204.0-1.0","null","<p></p>","null","","","","","","","","","","","","","","","","","","",""
"","do_trial","382","1170637","0.0-205.0-0.0","715","","","","51","1,0,0","3","coast","149","probe-07","0.49682588755618484","0.5778672457518467","0.10595412830555105","0","","","","","","","",""
"","html-keyboard-response","383","1171639","0.0-205.0-1.0","null","<p></p>","null","","","","","","","","","","","","","","","","","","",""
"","do_bye","384","1173145","0.0-206.0-0.0","null","","","","null","","","","","","","","","","","","","","","","",""
"","do_travel","385","1179148","0.0-207.0-0.0","null","","","","null","","","","","","","","","","","","","","","","",""
"","do_welcome","386","1180654","0.0-207.0-1.0","null","","","","null","","","","","","","","","","","","","","","","",""
"","do_trial","387","1186003","0.0-208.0-0.0","819.9999999997672","","","","49","1,1,0","4","highway","150","probe-157","0.5081413341950315","1","0.1648200209953417","1","","","","","","","",""
"","html-keyboard-response","388","1187005","0.0-208.0-1.0","null","<p></p>","null","","","","","","","","","","","","","","","","","","",""
"","do_trial","389","1192273","0.0-209.0-0.0","734","","","","50","0,1,0","4","highway","151","probe-18","0.42739330550663573","1","0.11240095029909018","1","","","","","","","",""
"","html-keyboard-response","390","1193275","0.0-209.0-1.0","null","<p></p>","null","","","","","","","","","","","","","","","","","","",""
"","do_trial","391","1198422","0.0-210.0-0.0","616","","","","51","0,0,0","4","highway","152","probe-175","0.33279510544047336","0.8452396944232669","0.07411406903794573","0","","","","","","","",""
"","html-keyboard-response","392","1199425","0.0-210.0-1.0","null","<p></p>","null","","","","","","","","","","","","","","","","","","",""
"","do_trial","393","1204482","0.0-211.0-0.0","524.0000000002328","","","","49","1,1,0","4","highway","153","probe-149","0.3207783662553848","0.7740018272220651","0.056811754657900566","1","","","","","","","",""
"","html-keyboard-response","394","1205484","0.0-211.0-1.0","null","<p></p>","null","","","","","","","","","","","","","","","","","","",""
"","do_trial","395","1210614","0.0-212.0-0.0","601","","","","50","1,1,0","4","highway","154","probe-36","0.43181678701980125","0.77747569687642","0.06515796680994876","1","","","","","","","",""
"","html-keyboard-response","396","1211619","0.0-212.0-1.0","null","<p></p>","null","","","","","","","","","","","","","","","","","","",""
"","do_trial","397","1216978","0.0-213.0-0.0","830","","","","51","0,1,0","4","highway","155","probe-42","0.38652976245876725","0.6926944893776883","0.05858502965754431","0","","","","","","","",""
"","html-keyboard-response","398","1217981","0.0-213.0-1.0","null","<p></p>","null","","","","","","","","","","","","","","","","","","",""
"","do_trial","399","1222860","0.0-214.0-0.0","350","","","","50","0,1,0","4","highway","156","probe-185","0.4594512712105782","0.7167891393978799","0.05074419281128364","1","","","","","","","",""
"","html-keyboard-response","400","1223862","0.0-214.0-1.0","null","<p></p>","null","","","","","","","","","","","","","","","","","","",""
"","do_trial","401","1229708","0.0-215.0-0.0","1312","","","","49","0,0,0","4","highway","157","probe-214","0.5128424130464336","0.6022880071475526","0.07150287314814803","0","","","","","","","",""
"","html-keyboard-response","402","1230710","0.0-215.0-1.0","null","<p></p>","null","","","","","","","","","","","","","","","","","","",""
"","do_trial","403","1235978","0.0-216.0-0.0","737","","","","50","0,1,1","4","highway","158","probe-196","0.41904251820914495","0.7682022266367671","0.0520268801130143","1","","","","","","","",""
"","html-keyboard-response","404","1236982","0.0-216.0-1.0","null","<p></p>","null","","","","","","","","","","","","","","","","","","",""
"","do_trial","405","1242175","0.0-217.0-0.0","661.9999999997672","","","","51","0,1,0","4","highway","159","probe-182","0.308452856277638","0.7372168165034441","0.08117904424532997","0","","","","","","","",""
"","html-keyboard-response","406","1243177","0.0-217.0-1.0","null","<p></p>","null","","","","","","","","","","","","","","","","","","",""
"","do_trial","407","1248070","0.0-218.0-0.0","364","","","","50","1,0,1","4","highway","160","probe-95","0.3501663147239739","0.6826702773951197","0.11599069612305883","0","","","","","","","",""
"","html-keyboard-response","408","1249073","0.0-218.0-1.0","null","<p></p>","null","","","","","","","","","","","","","","","","","","",""
"","do_trial","409","1254465","0.0-219.0-0.0","861","","","","50","1,1,0","4","highway","161","probe-83","0.33497701328454305","0.7053235182074166","0.12370881530587291","1","","","","","","","",""
"","html-keyboard-response","410","1255467","0.0-219.0-1.0","null","<p></p>","null","","","","","","","","","","","","","","","","","","",""
"","do_trial","411","1260763","0.0-220.0-0.0","766","","","","50","1,1,0","4","highway","162","probe-17","0.19322002662301782","0.5859792492502228","0.3081007698244981","1","","","","","","","",""
"","html-keyboard-response","412","1261767","0.0-220.0-1.0","null","<p></p>","null","","","","","","","","","","","","","","","","","","",""
"","do_trial","413","1266669","0.0-221.0-0.0","372","","","","49","0,0,0","4","highway","163","probe-55","0.26844177827475724","0.4254925590142884","0.4453963427441222","0","","","","","","","",""
"","html-keyboard-response","414","1267671","0.0-221.0-1.0","null","<p></p>","null","","","","","","","","","","","","","","","","","","",""
"","do_trial","415","1272867","0.0-222.0-0.0","662","","","","50","0,0,0","4","highway","164","probe-212","0.48626854869578057","0.37122477421173244","0.7262720876947537","0","","","","","","","",""
"","html-keyboard-response","416","1273868","0.0-222.0-1.0","null","<p></p>","null","","","","","","","","","","","","","","","","","","",""
"","do_trial","417","1278594","0.0-223.0-0.0","196","","","","51","0,0,1","4","highway","165","probe-67","0.3084196633992057","0.25215335773456027","0.7399897394613236","1","","","","","","","",""
"","html-keyboard-response","418","1279597","0.0-223.0-1.0","null","<p></p>","null","","","","","","","","","","","","","","","","","","",""
"","do_trial","419","1285633","0.0-224.0-0.0","null","","","","null","0,0,1","4","highway","166","probe-207","0.16291620424146988","0.3291723747690436","0.7146081182020809","","","","","","","","",""
"","html-keyboard-response","420","1286636","0.0-224.0-1.0","null","<p></p>","null","","","","","","","","","","","","","","","","","","",""
"","do_trial","421","1291687","0.0-225.0-0.0","522.9999999997672","","","","50","0,1,0","4","highway","167","probe-164","0.15747712950468667","0.42040978590510447","0.6482932426696434","1","","","","","","","",""
"","html-keyboard-response","422","1292691","0.0-225.0-1.0","null","<p></p>","null","","","","","","","","","","","","","","","","","","",""
"","do_trial","423","1297557","0.0-226.0-0.0","336","","","","51","0,1,0","4","highway","168","probe-120","0.204083952364634","0.3245720778538288","0.6051842716974632","0","","","","","","","",""
"","html-keyboard-response","424","1298559","0.0-226.0-1.0","null","<p></p>","null","","","","","","","","","","","","","","","","","","",""
"","do_trial","425","1303466","0.0-227.0-0.0","377","","","","49","0,0,0","4","highway","169","probe-122","0.15524255678304544","0.3311176265603129","0.5142593376248923","0","","","","","","","",""
"","html-keyboard-response","426","1304469","0.0-227.0-1.0","null","<p></p>","null","","","","","","","","","","","","","","","","","","",""
"","do_trial","427","1309447","0.0-228.0-0.0","449","","","","51","0,0,0","4","highway","170","probe-91","0.055594652089930946","0.27149844687757363","0.49624816588890325","0","","","","","","","",""
"","html-keyboard-response","428","1310450","0.0-228.0-1.0","null","<p></p>","null","","","","","","","","","","","","","","","","","","",""
"","do_trial","429","1316480","0.0-229.0-0.0","null","","","","null","0,1,0","4","highway","171","probe-213","0.18286710817419177","0.16353204984230882","0.5916148142842257","","","","","","","","",""
"","html-keyboard-response","430","1317482","0.0-229.0-1.0","null","<p></p>","null","","","","","","","","","","","","","","","","","","",""
"","do_trial","431","1322104","0.0-230.0-0.0","93","","","","51","0,0,1","4","highway","172","probe-107","0.2086197306991542","0.06142383348568409","0.6341549359382295","1","","","","","","","",""
"","html-keyboard-response","432","1323106","0.0-230.0-1.0","null","<p></p>","null","","","","","","","","","","","","","","","","","","",""
"","do_trial","433","1328627","0.0-231.0-0.0","990","","","","49","0,0,1","4","highway","173","probe-44","0.10217629163663443","0.056753490271805464","0.5442135849162153","0","","","","","","","",""
"","html-keyboard-response","434","1329630","0.0-231.0-1.0","null","<p></p>","null","","","","","","","","","","","","","","","","","","",""
"","do_trial","435","1335626","0.0-232.0-0.0","1467","","","","51","0,0,0","4","highway","174","probe-50","0.07402964295991957","0.05393185383776475","0.6148194911308725","0","","","","","","","",""
"","html-keyboard-response","436","1336629","0.0-232.0-1.0","null","<p></p>","null","","","","","","","","","","","","","","","","","","",""
"","do_trial","437","1341344","0.0-233.0-0.0","186","","","","50","0,0,1","4","highway","175","probe-01","0.088953294266896","0.19206819195491065","0.5233675129099017","0","","","","","","","",""
"","html-keyboard-response","438","1342346","0.0-233.0-1.0","null","<p></p>","null","","","","","","","","","","","","","","","","","","",""
"","do_trial","439","1347581","0.0-234.0-0.0","704","","","","49","0,0,0","4","highway","176","probe-40","0.1093771977299467","0.2286326548295059","0.5946422791030679","0","","","","","","","",""
"","html-keyboard-response","440","1348584","0.0-234.0-1.0","null","<p></p>","null","","","","","","","","","","","","","","","","","","",""
"","do_trial","441","1353674","0.0-235.0-0.0","561","","","","49","0,0,0","4","highway","177","probe-03","0.16229717458576373","0.3516081166236423","0.6787890613435837","0","","","","","","","",""
"","html-keyboard-response","442","1354677","0.0-235.0-1.0","null","<p></p>","null","","","","","","","","","","","","","","","","","","",""
"","do_trial","443","1360173","0.0-236.0-0.0","966","","","","51","0,1,0","4","highway","178","probe-51","0.06914910130102639","0.49181541027920644","0.7194824928990269","0","","","","","","","",""
"","html-keyboard-response","444","1361176","0.0-236.0-1.0","null","<p></p>","null","","","","","","","","","","","","","","","","","","",""
"","do_trial","445","1367206","0.0-237.0-0.0","null","","","","null","1,0,1","4","highway","179","probe-208","0.1471039356915579","0.3975608123382528","0.7267379424504604","","","","","","","","",""
"","html-keyboard-response","446","1368209","0.0-237.0-1.0","null","<p></p>","null","","","","","","","","","","","","","","","","","","",""
"","do_trial","447","1374502","0.0-238.0-0.0","1764.0000000002328","","","","51","1,0,1","4","highway","180","probe-156","0.18578648340375614","0.4789030349884716","0.49021842426440565","1","","","","","","","",""
"","html-keyboard-response","448","1375503","0.0-238.0-1.0","null","<p></p>","null","","","","","","","","","","","","","","","","","","",""
"","do_trial","449","1381533","0.0-239.0-0.0","null","","","","null","0,1,1","4","highway","181","probe-218","0.07225289081353702","0.4750367622317002","0.6247370171329143","","","","","","","","",""
"","html-keyboard-response","450","1382535","0.0-239.0-1.0","null","<p></p>","null","","","","","","","","","","","","","","","","","","",""
"","do_trial","451","1387444","0.0-240.0-0.0","381.00000000023283","","","","49","0,1,1","4","highway","182","probe-169","0.11336486428479656","0.41343292729158143","0.6196713697601831","0","","","","","","","",""
"","html-keyboard-response","452","1388447","0.0-240.0-1.0","null","<p></p>","null","","","","","","","","","","","","","","","","","","",""
"","do_trial","453","1393838","0.0-241.0-0.0","862","","","","50","0,0,0","4","highway","183","probe-162","0.054640532210665525","0.284886092151818","0.5164578354340019","0","","","","","","","",""
"","html-keyboard-response","454","1394841","0.0-241.0-1.0","null","<p></p>","null","","","","","","","","","","","","","","","","","","",""
"","do_trial","455","1400126","0.0-242.0-0.0","754","","","","49","1,0,0","4","highway","184","probe-118","0.28460098196079797","0.2049942491520477","0.37710142235497224","1","","","","","","","",""
"","html-keyboard-response","456","1401129","0.0-242.0-1.0","null","<p></p>","null","","","","","","","","","","","","","","","","","","",""
"","do_trial","457","1406640","0.0-243.0-0.0","983","","","","50","0,0,0","4","highway","185","probe-81","0.0745684884879949","0.2453603788189196","0.4378565228099494","0","","","","","","","",""
"","html-keyboard-response","458","1407643","0.0-243.0-1.0","null","<p></p>","null","","","","","","","","","","","","","","","","","","",""
"","do_trial","459","1412775","0.0-244.0-0.0","603","","","","51","0,0,0","4","highway","186","probe-201","0.06378733162788752","0.19233957217885322","0.5166903692697961","0","","","","","","","",""
"","html-keyboard-response","460","1413777","0.0-244.0-1.0","null","<p></p>","null","","","","","","","","","","","","","","","","","","",""
"","do_trial","461","1419032","0.0-245.0-0.0","725.0000000002328","","","","50","0,0,1","4","highway","187","probe-152","0.15348523042400175","0.2891516234802671","0.5519883822932147","0","","","","","","","",""
"","html-keyboard-response","462","1420034","0.0-245.0-1.0","null","<p></p>","null","","","","","","","","","","","","","","","","","","",""
"","do_trial","463","1426256","0.0-246.0-0.0","1692","","","","50","0,0,1","4","highway","188","probe-183","0.19306931320787357","0.4285273833824483","0.7155149524286426","0","","","","","","","",""
"","html-keyboard-response","464","1427258","0.0-246.0-1.0","null","<p></p>","null","","","","","","","","","","","","","","","","","","",""
"","do_trial","465","1432299","0.0-247.0-0.0","507.99999999976717","","","","49","0,0,1","4","highway","189","probe-30","0.13077427239854442","0.4123159032871984","0.7456246049486169","0","","","","","","","",""
"","html-keyboard-response","466","1433301","0.0-247.0-1.0","null","<p></p>","null","","","","","","","","","","","","","","","","","","",""
"","do_bye","467","1434807","0.0-248.0-0.0","null","","","","null","","","","","","","","","","","","","","","","",""
"","do_travel","468","1440811","0.0-249.0-0.0","null","","","","null","","","","","","","","","","","","","","","","",""
"","do_welcome","469","1442317","0.0-249.0-1.0","null","","","","null","","","","","","","","","","","","","","","","",""
"","do_trial","470","1448345","0.0-250.0-0.0","null","","","","null","0,0,1","5","mountain","190","probe-102","0.10247012219319487","0.443637953968069","1","","","","","","","","",""
"","html-keyboard-response","471","1449348","0.0-250.0-1.0","null","<p></p>","null","","","","","","","","","","","","","","","","","","",""
"","do_trial","472","1454487","0.0-251.0-0.0","610","","","","49","1,1,1","5","mountain","191","probe-108","0.08289898567458336","0.5469154764897709","1","1","","","","","","","",""
"","html-keyboard-response","473","1455490","0.0-251.0-1.0","null","<p></p>","null","","","","","","","","","","","","","","","","","","",""
"","do_trial","474","1460137","0.0-252.0-0.0","119.00000000023283","","","","50","1,0,1","5","mountain","192","probe-139","0.18943590278760014","0.40086076830283773","0.8812966120637907","0","","","","","","","",""
"","html-keyboard-response","475","1461140","0.0-252.0-1.0","null","<p></p>","null","","","","","","","","","","","","","","","","","","",""
"","do_trial","476","1466306","0.0-253.0-0.0","637","","","","51","0,0,1","5","mountain","193","probe-22","0.144507535251935","0.37140212285978697","0.729635091208272","1","","","","","","","",""
"","html-keyboard-response","477","1467310","0.0-253.0-1.0","null","<p></p>","null","","","","","","","","","","","","","","","","","","",""
"","do_trial","478","1472225","0.0-254.0-0.0","385","","","","49","0,0,0","5","mountain","194","probe-35","0.09206732040367899","0.22317255082190002","0.5907612417030329","0","","","","","","","",""
"","html-keyboard-response","479","1473228","0.0-254.0-1.0","null","<p></p>","null","","","","","","","","","","","","","","","","","","",""
"","do_trial","480","1478225","0.0-255.0-0.0","468","","","","50","1,0,0","5","mountain","195","probe-126","0.17638730343888512","0.2442877175866367","0.5605156272207159","0","","","","","","","",""
"","html-keyboard-response","481","1479230","0.0-255.0-1.0","null","<p></p>","null","","","","","","","","","","","","","","","","","","",""
"","do_trial","482","1484393","0.0-256.0-0.0","631","","","","51","0,1,1","5","mountain","196","probe-62","0.062302885557498695","0.3835749530835695","0.5768716210270349","1","","","","","","","",""
"","html-keyboard-response","483","1485396","0.0-256.0-1.0","null","<p></p>","null","","","","","","","","","","","","","","","","","","",""
"","do_trial","484","1490749","0.0-257.0-0.0","822","","","","49","0,1,0","5","mountain","197","probe-115","0.10461335950295361","0.2877400661572177","0.6047307612941512","0","","","","","","","",""
"","html-keyboard-response","485","1491752","0.0-257.0-1.0","null","<p></p>","null","","","","","","","","","","","","","","","","","","",""
"","do_trial","486","1496971","0.0-258.0-0.0","688","","","","50","0,0,0","5","mountain","198","probe-160","0.13715744762688858","0.3731712534019734","0.5814665290074976","0","","","","","","","",""
"","html-keyboard-response","487","1497973","0.0-258.0-1.0","null","<p></p>","null","","","","","","","","","","","","","","","","","","",""
"","do_trial","488","1502636","0.0-259.0-0.0","133","","","","50","1,0,1","5","mountain","199","probe-98","0.23180963946272642","0.3135500259101716","0.49386450775499235","0","","","","","","","",""
"","html-keyboard-response","489","1503640","0.0-259.0-1.0","null","<p></p>","null","","","","","","","","","","","","","","","","","","",""
"","do_trial","490","1510341","0.0-260.0-0.0","2172","","","","51","0,0,0","5","mountain","200","probe-121","0.2413535449624381","0.24909775523671204","0.4864695397440587","0","","","","","","","",""
"","html-keyboard-response","491","1511344","0.0-260.0-1.0","null","<p></p>","null","","","","","","","","","","","","","","","","","","",""
"","do_trial","492","1517374","0.0-261.0-0.0","null","","","","null","0,0,1","5","mountain","201","probe-84","0.3113608726714715","0.21493078389487288","0.4061660529106281","","","","","","","","",""
"","html-keyboard-response","493","1518377","0.0-261.0-1.0","null","<p></p>","null","","","","","","","","","","","","","","","","","","",""
"","do_trial","494","1524408","0.0-262.0-0.0","null","","","","null","0,0,0","5","mountain","202","probe-174","0.4860067212243227","0.20617171271734008","0.33991564137107966","","","","","","","","",""
"","html-keyboard-response","495","1525410","0.0-262.0-1.0","null","<p></p>","null","","","","","","","","","","","","","","","","","","",""
"","do_trial","496","1531441","0.0-263.0-0.0","null","","","","null","1,0,0","5","mountain","203","probe-63","0.5963239302250974","0.13650840328201852","0.29769289137293603","","","","","","","","",""
"","html-keyboard-response","497","1532443","0.0-263.0-1.0","null","<p></p>","null","","","","","","","","","","","","","","","","","","",""
"","do_trial","498","1538915","0.0-264.0-0.0","1941","","","","50","0,0,1","5","mountain","204","probe-85","0.6165354253044829","0.2038184900739209","0.33294883241822154","0","","","","","","","",""
"","html-keyboard-response","499","1539918","0.0-264.0-1.0","null","<p></p>","null","","","","","","","","","","","","","","","","","","",""
"","do_trial","500","1545092","0.0-265.0-0.0","644","","","","51","1,0,0","5","mountain","205","probe-205","0.39374893021209756","0.11937922488055516","0.3904877735846435","0","","","","","","","",""
"","html-keyboard-response","501","1546094","0.0-265.0-1.0","null","<p></p>","null","","","","","","","","","","","","","","","","","","",""
"","do_trial","502","1552017","0.0-266.0-0.0","1391","","","","49","1,0,0","5","mountain","206","probe-92","0.4261495397691643","0.1006937327904798","0.30396973716551445","1","","","","","","","",""
"","html-keyboard-response","503","1553019","0.0-266.0-1.0","null","<p></p>","null","","","","","","","","","","","","","","","","","","",""
"","do_trial","504","1560177","0.0-267.0-0.0","2629.000000000233","","","","50","1,0,0","5","mountain","207","probe-153","0.5014910883379196","0.20920417256796192","0.22683056344904934","0","","","","","","","",""
"","html-keyboard-response","505","1561179","0.0-267.0-1.0","null","<p></p>","null","","","","","","","","","","","","","","","","","","",""
"","do_trial","506","1566614","0.0-268.0-0.0","905","","","","49","1,0,0","5","mountain","208","probe-19","0.6240756636676738","0.07611584266372744","0.08890813947956425","1","","","","","","","",""
"","html-keyboard-response","507","1567617","0.0-268.0-1.0","null","<p></p>","null","","","","","","","","","","","","","","","","","","",""
"","do_trial","508","1574748","0.0-269.0-0.0","2600","","","","50","1,1,0","5","mountain","209","probe-161","0.6033810204974513","0.16732574794609328","0.11572032711644367","1","","","","","","","",""
"","html-keyboard-response","509","1575751","0.0-269.0-1.0","null","<p></p>","null","","","","","","","","","","","","","","","","","","",""
"","do_trial","510","1580393","0.0-270.0-0.0","113","","","","51","1,0,1","5","mountain","210","probe-192","0.5713404190647655","0.22935262418996974","0.20291352790741915","1","","","","","","","",""
"","html-keyboard-response","511","1581394","0.0-270.0-1.0","null","<p></p>","null","","","","","","","","","","","","","","","","","","",""
"","do_trial","512","1586891","0.0-271.0-0.0","966","","","","49","1,0,0","5","mountain","211","probe-64","0.5899596153348367","0.06421445517131395","0.1847237242133172","1","","","","","","","",""
"","html-keyboard-response","513","1587893","0.0-271.0-1.0","null","<p></p>","null","","","","","","","","","","","","","","","","","","",""
"","do_trial","514","1593797","0.0-272.0-0.0","1376","","","","51","1,0,1","5","mountain","212","probe-216","0.7243919737789315","0.058202634025676686","0.12245920859657286","1","","","","","","","",""
"","html-keyboard-response","515","1594799","0.0-272.0-1.0","null","<p></p>","null","","","","","","","","","","","","","","","","","","",""
"","do_trial","516","1600830","0.0-273.0-0.0","null","","","","null","1,0,0","5","mountain","213","probe-38","0.6450183181813058","0.1835108663688387","0.15315639929544245","","","","","","","","",""
"","html-keyboard-response","517","1601831","0.0-273.0-1.0","null","<p></p>","null","","","","","","","","","","","","","","","","","","",""
"","do_trial","518","1606920","0.0-274.0-0.0","557","","","","51","1,0,1","5","mountain","214","probe-78","0.6639794483968992","0.13080504684908803","0.34951872612963875","1","","","","","","","",""
"","html-keyboard-response","519","1607923","0.0-274.0-1.0","null","<p></p>","null","","","","","","","","","","","","","","","","","","",""
"","do_trial","520","1614443","0.0-275.0-0.0","1990","","","","51","1,0,0","5","mountain","215","probe-135","0.6501618258570783","0.10091205727659235","0.3688683293211817","0","","","","","","","",""
"","html-keyboard-response","521","1615445","0.0-275.0-1.0","null","<p></p>","null","","","","","","","","","","","","","","","","","","",""
"","do_trial","522","1621475","0.0-276.0-0.0","null","","","","null","1,0,1","5","mountain","216","probe-210","0.644240912275986","0.09875639724222475","0.388035856864587","","","","","","","","",""
"","html-keyboard-response","523","1622478","0.0-276.0-1.0","null","<p></p>","null","","","","","","","","","","","","","","","","","","",""
"","do_trial","524","1628508","0.0-277.0-0.0","null","","","","null","0,0,0","5","mountain","217","probe-76","0.6114693808165343","0.06857155519377232","0.2190010914833573","","","","","","","","",""
"","html-keyboard-response","525","1629511","0.0-277.0-1.0","null","<p></p>","null","","","","","","","","","","","","","","","","","","",""
"","do_trial","526","1634131","0.0-278.0-0.0","91","","","","50","0,1,1","5","mountain","218","probe-99","0.5875350254295085","0.17507881299945766","0.2905750915756648","1","","","","","","","",""
"","html-keyboard-response","527","1635133","0.0-278.0-1.0","null","<p></p>","null","","","","","","","","","","","","","","","","","","",""
"","do_trial","528","1639834","0.0-279.0-0.0","172","","","","50","0,0,1","5","mountain","219","probe-104","0.7274580715129938","0.22645620509206807","0.2843099514564488","0","","","","","","","",""
"","html-keyboard-response","529","1640837","0.0-279.0-1.0","null","<p></p>","null","","","","","","","","","","","","","","","","","","",""
"","do_trial","530","1646869","0.0-280.0-0.0","null","","","","null","0,0,0","5","mountain","220","probe-225","0.7094974500073085","0.2695250144701983","0.3334471982629426","","","","","","","","",""
"","html-keyboard-response","531","1647871","0.0-280.0-1.0","null","<p></p>","null","","","","","","","","","","","","","","","","","","",""
"","do_trial","532","1652676","0.0-281.0-0.0","277.99999999976717","","","","50","1,0,0","5","mountain","221","probe-14","0.6729166100859152","0.289266560484855","0.3144837788056437","0","","","","","","","",""
"","html-keyboard-response","533","1653678","0.0-281.0-1.0","null","<p></p>","null","","","","","","","","","","","","","","","","","","",""
"","do_trial","534","1658685","0.0-282.0-0.0","477.99999999976717","","","","51","0,0,1","5","mountain","222","probe-87","0.5813451670983","0.187716463439082","0.3482748638143484","1","","","","","","","",""
"","html-keyboard-response","535","1659689","0.0-282.0-1.0","null","<p></p>","null","","","","","","","","","","","","","","","","","","",""
"","do_trial","536","1664465","0.0-283.0-0.0","245","","","","51","0,0,0","5","mountain","223","probe-112","0.6531976479617161","0.262724410473092","0.2393418378208544","0","","","","","","","",""
"","html-keyboard-response","537","1665467","0.0-283.0-1.0","null","<p></p>","null","","","","","","","","","","","","","","","","","","",""
"","do_trial","538","1671494","0.0-284.0-0.0","null","","","","null","1,0,0","5","mountain","224","probe-45","0.6017777619736087","0.0659762195553359","0.4105719375138546","","","","","","","","",""
"","html-keyboard-response","539","1672497","0.0-284.0-1.0","null","<p></p>","null","","","","","","","","","","","","","","","","","","",""
"","do_trial","540","1677437","0.0-285.0-0.0","411.99999999976717","","","","51","0,0,1","5","mountain","225","probe-187","0.545858799491093","0.13822401881385177","0.3000557541129634","1","","","","","","","",""
"","html-keyboard-response","541","1678441","0.0-285.0-1.0","null","<p></p>","null","","","","","","","","","","","","","","","","","","",""
"","do_trial","542","1684001","0.0-286.0-0.0","1030","","","","50","0,0,0","5","mountain","226","probe-123","0.6118685350016569","0.11614057124549348","0.4842219714863855","0","","","","","","","",""
"","html-keyboard-response","543","1685004","0.0-286.0-1.0","null","<p></p>","null","","","","","","","","","","","","","","","","","","",""
"","do_trial","544","1689890","0.0-287.0-0.0","358.00000000023283","","","","50","1,0,1","5","mountain","227","probe-151","0.6168511797971404","0.17537003314477148","0.3302941408330623","0","","","","","","","",""
