"success","trial_type","trial_index","time_elapsed","internal_node_id","rt","stimulus","key_press","subject_id","participant_id","age","gender","prompt","response","choice_outcomes","context_n","context_img_id","trial_n","probe_img_id","pR_red","pR_white","pR_black","outcome","contextArray_ind","validImageProbes","invalidImageProbes","pRew_Red","pRew_White","pRew_Black","availableForMemProbe","choice_blocks"
"true","fullscreen","0","8588","0.0-0.0","","","","","","","","","","","","","","","","","","","","","","","","","",""
"","pavlovia","1","8593","0.0-1.0","","","","","","","","","","","","","","","","","","","","","","","","","",""
"","instruc1","2","64824","0.0-2.0","null","run_exp/static/audio/clip_1_welcome.m4a","null","63","3","12","Female","<div class='center'><p>Welcome! This is the first part of the experiment. It will last ~30 minutes. In this experiment, you are the head captain of a pirate ship traveling around the world to different islands. You will play a few different games during this experiment. Here is an overview of these games:</p><br><p>Part 1 (today)</p><p>1. Instructions, practice game, and quiz</p><p>2. Pick a pirate game on 6 different islands</p><br><p>Part 2 (1 day later)</p><p>3. Pick a pirate game and memory game</p><p>4. Where did I see this ship? game</p><p>5. Which pirate was the best? game</p><br><p>Part 3 (1 week later)</p><p>6. Alien space mining game</p><p>7. Memory game</p></div>","","","","","","","","","","","","","","","","","",""
"","html-keyboard-response","3","66625","0.0-3.0","1800.300000011921","<div class='center'><p>Welcome! This is the first part of the experiment. It will last ~30 minutes. In this experiment, you are the head captain of a pirate ship traveling around the world to different islands. You will play a few different games during this experiment. Here is an overview of these games:</p><br><p>Part 1 (today)</p><p>1. Instructions, practice game, and quiz</p><p>2. Pick a pirate game on 6 different islands</p><br><p>Part 2 (1 day later)</p><p>3. Pick a pirate game and memory game</p><p>4. Where did I see this ship? game</p><p>5. Which pirate was the best? game</p><br><p>Part 3 (1 week later)</p><p>6. Alien space mining game</p><p>7. Memory game</p><p><b>[Press the space bar to continue]</b></p></div>","32","","","","","","","","","","","","","","","","","","","","","","",""
"","instruc2","4","74645","0.0-4.0","null","run_exp/static/audio/clip_2_different_places.m4a","null","","","","","<div class='center'><p>Today, you’ll visit these 6 islands on your journey. You'll be able to see these islands from your ship.</p><p><img src='run_exp/static/images/contexts/all_contexts.png' height='500'></p></div>","","","","","","","","","","","","","","","","","",""
"","html-keyboard-response","5","77225","0.0-5.0","2578.5","<div class='center'><p>Today, you’ll visit these 6 islands on your journey. You'll be able to see these islands from your ship.</p><p><img src='run_exp/static/images/contexts/all_contexts.png' height='500'></p><p><b>[Press the space bar to continue]</b></p></div>","32","","","","","","","","","","","","","","","","","","","","","","",""
"","instruc3","6","89807","0.0-6.0","null","run_exp/static/audio/clip_3_goal_of_game_1.m4a","null","","","","","<div class='center'><p> The pirates on your ship will rob other ships as they leave the island</p> These ships have just sold their things to people on the island, so they will be filled with lots and lots of gold.</p><p><img src='run_exp/static/images/tutorial/ship_center.png' height='400'></p></div>","","","","","","","","","","","","","","","","","",""
"","html-keyboard-response","7","91232","0.0-7.0","1424.2000000178814","<div class='center'><p> The pirates on your ship will rob other ships as they leave the island</p> These ships have just sold their things to people on the island, so they will be filled with lots and lots of gold.</p><p><img src='run_exp/static/images/tutorial/ship_center.png' height='400'></p><p><b>[Press the space bar to continue]</b></p></div>","32","","","","","","","","","","","","","","","","","","","","","","",""
"","instruc4","8","124473","0.0-8.0","null","run_exp/static/audio/clip_4_goal_of_game_2.m4a","null","","","","","<div class='center'><p>As the head captain, you do not have to rob any ships yourself.</p><p>Another pirate will be doing the robbing for you. </p><p>First, you will  choose a pirate to rob the next ship.</p><p><img src='run_exp/static/images/tutorial/pirates_all_crop.png' height='200'></p><p>Then, you'll see if the pirate successfully robbed the ship of their gold. If they were successful, then you'll  get a stack of gold coins like this:</p><p><img src='run_exp/static/images/tutorial/reward.png' height='150'></p><p> If they were <b>not</b> successful, then you'll get no gold coins, and you'll see a big red x like this: </p><p><img src='run_exp/static/images/tutorial/reward_no.png' height='150'></p><p> How much bonus money you make is based on how many gold coins you collect.</p><div>","","","","","","","","","","","","","","","","","",""
"","html-keyboard-response","9","127086","0.0-9.0","2611.699999988079","<div class='center'><p>As the head captain, you do not have to rob any ships yourself.</p><p>Another pirate will be doing the robbing for you. </p><p>First, you will  choose a pirate to rob the next ship.</p><p><img src='run_exp/static/images/tutorial/pirates_all_crop.png' height='200'></p><p>Then, you'll see if the pirate successfully robbed the ship of their gold. If they were successful, then you'll  get a stack of gold coins like this:</p><p><img src='run_exp/static/images/tutorial/reward.png' height='150'></p><p> If they were <b>not</b> successful, then you'll get no gold coins, and you'll see a big red x like this: </p><p><img src='run_exp/static/images/tutorial/reward_no.png' height='150'></p><p> How much bonus money you make is based on how many gold coins you collect.</p<p><b>[Press the space bar to continue]</b></p></div>","32","","","","","","","","","","","","","","","","","","","","","","",""
"","instruc5","10","157852","0.0-10.0","30766.20000001788","run_exp/static/audio/clip_5_probabilistic.m4a","49","","","","","<div class='center'><p>Even the most skilled pirate can not rob EVERY ship.</p><p> Some ships will have very strong protections against pirate attacks.</p><p> Blue beard, here, is very, very good at robbing ships, but he won't be successful every time he tries to rob one.</p><p> You can press the <b>‘1’</b> key on the keyboard to choose him.</p><p> Try choosing him 10 times to see how often he succeeds at robbing a ship. </p><p><img src='run_exp/static/images/tutorial/blue.png' height='500'></p></div>","","","","","","","","","","","","","","","","","",""
"","html-keyboard-response","11","159357","0.0-11.0","null","<div class='center'><p><img src='run_exp/static/images/tutorial/blue_win.png' height='500'></p></div>","null","","","","","","","","","","","","","","","","","","","","","","",""
"","html-keyboard-response","12","159876","0.0-12.0","518","<div class='center'><img src='run_exp/static/images/tutorial/blue.png' height='500'></p></div>","49","","","","","","","","","","","","","","","","","","","","","","",""
"","html-keyboard-response","13","161380","0.0-13.0","null","<div class='center'><p><img src='run_exp/static/images/tutorial/blue_win.png' height='500'></p></div>","null","","","","","","","","","","","","","","","","","","","","","","",""
"","html-keyboard-response","14","161994","0.0-14.0","595.4000000059605","<div class='center'><img src='run_exp/static/images/tutorial/blue.png' height='500'></p></div>","49","","","","","","","","","","","","","","","","","","","","","","",""
"","html-keyboard-response","15","163522","0.0-15.0","null","<div class='center'><p><img src='run_exp/static/images/tutorial/blue_win.png' height='500'></p></div>","null","","","","","","","","","","","","","","","","","","","","","","",""
"","html-keyboard-response","16","163963","0.0-16.0","440.40000000596046","<div class='center'><img src='run_exp/static/images/tutorial/blue.png' height='500'></p></div>","49","","","","","","","","","","","","","","","","","","","","","","",""
"","html-keyboard-response","17","165465","0.0-17.0","null","<div class='center'><p><img src='run_exp/static/images/tutorial/blue_no_win.png' height='500'></p></div>","null","","","","","","","","","","","","","","","","","","","","","","",""
"","html-keyboard-response","18","165944","0.0-18.0","477.40000000596046","<div class='center'><img src='run_exp/static/images/tutorial/blue.png' height='500'></p></div>","49","","","","","","","","","","","","","","","","","","","","","","",""
"","html-keyboard-response","19","167447","0.0-19.0","null","<div class='center'><p><img src='run_exp/static/images/tutorial/blue_win.png' height='500'></p></div>","null","","","","","","","","","","","","","","","","","","","","","","",""
"","html-keyboard-response","20","167844","0.0-20.0","396.09999999403954","<div class='center'><img src='run_exp/static/images/tutorial/blue.png' height='500'></p></div>","49","","","","","","","","","","","","","","","","","","","","","","",""
"","html-keyboard-response","21","169348","0.0-21.0","null","<div class='center'><p><img src='run_exp/static/images/tutorial/blue_win.png' height='500'></p></div>","null","","","","","","","","","","","","","","","","","","","","","","",""
"","html-keyboard-response","22","169739","0.0-22.0","390.5","<div class='center'><img src='run_exp/static/images/tutorial/blue.png' height='500'></p></div>","49","","","","","","","","","","","","","","","","","","","","","","",""
"","html-keyboard-response","23","171244","0.0-23.0","null","<div class='center'><p><img src='run_exp/static/images/tutorial/blue_win.png' height='500'></p></div>","null","","","","","","","","","","","","","","","","","","","","","","",""
"","html-keyboard-response","24","171572","0.0-24.0","326.5","<div class='center'><img src='run_exp/static/images/tutorial/blue.png' height='500'></p></div>","49","","","","","","","","","","","","","","","","","","","","","","",""
"","html-keyboard-response","25","173076","0.0-25.0","null","<div class='center'><p><img src='run_exp/static/images/tutorial/blue_no_win.png' height='500'></p></div>","null","","","","","","","","","","","","","","","","","","","","","","",""
"","html-keyboard-response","26","173924","0.0-26.0","847.2999999821186","<div class='center'><img src='run_exp/static/images/tutorial/blue.png' height='500'></p></div>","49","","","","","","","","","","","","","","","","","","","","","","",""
"","html-keyboard-response","27","175425","0.0-27.0","null","<div class='center'><p><img src='run_exp/static/images/tutorial/blue_win.png' height='500'></p></div>","null","","","","","","","","","","","","","","","","","","","","","","",""
"","html-keyboard-response","28","176107","0.0-28.0","681.5999999940395","<div class='center'><img src='run_exp/static/images/tutorial/blue.png' height='500'></p></div>","49","","","","","","","","","","","","","","","","","","","","","","",""
"","html-keyboard-response","29","177609","0.0-29.0","null","<div class='center'><p><img src='run_exp/static/images/tutorial/blue_win.png' height='500'></p></div>","null","","","","","","","","","","","","","","","","","","","","","","",""
"","instruc6","30","184258","0.0-30.0","null","run_exp/static/audio/clip_6_blue_beard_outcome.m4a","null","","","","","<div class='center'><p> See, he succeeded in robbing the ships most of the time but not every time. </p></div>","","","","","","","","","","","","","","","","","",""
"","html-keyboard-response","31","185595","0.0-31.0","1336.5","<div class='center'><p> See, he succeeded in robbing the ships most of the time but not every time. </p><p><b>[Press the space bar to continue]</b></p></div>","32","","","","","","","","","","","","","","","","","","","","","","",""
"","audio-keyboard-response","32","204587","0.0-32.0","18991.30000001192","run_exp/static/audio/clip_7_pick_pirate.m4a","50","","","","","","","","","","","","","","","","","","","","","","",""
"","audio-keyboard-response","33","210515","0.0-33.0-0.0","5926.199999988079","run_exp/static/audio/clip_8_chosen_pirate_win.m4a","32","","","","","","","","","","","","","","","","","","","","","","",""
"","audio-keyboard-response","34","213170","0.0-33.0-1.0","2654.199999988079","run_exp/static/audio/clip_9_pick_a_pirate_again.m4a","49","","","","","","","","","","","","","","","","","","","","","","",""
"","audio-keyboard-response","35","214954","0.0-34.0-0.0","1782.0999999940395","run_exp/static/audio/clip_10_chosen_pirate_loss.m4a","32","","","","","","","","","","","","","","","","","","","","","","",""
"","instruc9","36","222105","0.0-35.0-0.0","null","run_exp/static/audio/clip_11_time_out.m4a","null","","","","","<div class='center'><p>If you don’t make your choice fast enough, you’ll have to wait a few seconds before you can make another one. </p><p><img src='run_exp/static/images/miscellaneous/hurry_up.png' height='500'></p></div>","","","","","","","","","","","","","","","","","",""
"","html-keyboard-response","37","222586","0.0-35.0-1.0","480.09999999403954","<div class='center'><p>If you don’t make your choice fast enough, you’ll have to wait a few seconds before you can make another one. </p><p><img src='run_exp/static/images/miscellaneous/hurry_up.png' height='500'></p><p><b>[Press the space bar to continue]</b></p></div>","32","","","","","","","","","","","","","","","","","","","","","","",""
"","instruc10","38","271213","0.0-35.0-2.0","null","run_exp/static/audio/clip_12_probe.m4a","null","","","","","<div class='center'><p>Once you've choose a pirate, you’ll be shown the ship they are robbing.</p><p>You will never rob the same ship twice. After all, ships that have already been robbed won’t have gold on them. </p><p>Ships can be told apart from one another by the image on them. See, this one has a travel mug on it. </p><p> You’ll have to remember which island you saw each ship on.You will win more bonus money if you remember correctly! To help you remember, you can imagine a story. For example, here, you could imagine a mug full of water in the desert. Or, as another example, if on the forest island, your pirate robbed a ship with an apple on it, you could imagine an apple falling from a tree in the forest. </p><p><img src='run_exp/static/images/tutorial/example_probe.png' height='500'></p></div>","","","","","","","","","","","","","","","","","",""
"","html-keyboard-response","39","272816","0.0-35.0-3.0","1602.199999988079","<div class='center'><p>Once you've choose a pirate, you’ll be shown the ship they are robbing.</p><p>You will never rob the same ship twice. After all, ships that have already been robbed won’t have gold on them. </p><p>Ships can be told apart from one another by the image on them. See, this one has a travel mug on it. </p><p> You’ll have to remember which island you saw each ship on.You will win more bonus money if you remember correctly! To help you remember, you can imagine a story. For example, here, you could imagine a mug full of water in the desert. Or, as another example, if on the forest island, your pirate robbed a ship with an apple on it, you could imagine an apple falling from a tree in the forest. </p><p><img src='run_exp/static/images/tutorial/example_probe.png' height='500'></p><p><b>[Press the space bar to continue]</b></p></div>","32","","","","","","","","","","","","","","","","","","","","","","",""
"","instruc11","40","293713","0.0-35.0-4.0","null","run_exp/static/audio/clip_13_changepoint.m4a","null","","","","","<div class='center'><p>How successful a pirate is at robbing ships will depend on the island you’re on.</p><p> A pirate may have visited this island many times before and gained a lot of practice robbing ships there.</p><p>So, they’re more likely to be successful than a pirate who has never visited the island before.</p></div>","","","","","","","","","","","","","","","","","",""
"","html-keyboard-response","41","294816","0.0-35.0-5.0","1103.0999999940395","<div class='center'><p>How successful a pirate is at robbing ships will depend on the island you’re on.</p><p> A pirate may have visited this island many times before and gained a lot of practice robbing ships there.</p><p>So, they’re more likely to be successful than a pirate who has never visited the island before.</p><p><b>[Press the space bar to continue]</b></p></div>","32","","","","","","","","","","","","","","","","","","","","","","",""
"","instruc12","42","322829","0.0-35.0-6.0","null","run_exp/static/audio/clip_14_drift.m4a","null","","","","","<div class='center'><p>How successful a pirate is at robbing ships can also change over the time spent on the island. </p><p> Ships may hear from islanders about the pirates coming and will improve their protections against the attack. This may make it harder to rob them.</p><p> Ships may also become lazy and weaken the strength of their protections. This may make it easier to rob them.</p><br><p>Things are always changing on the high seas! So, try your best to pay attention!</p><p><img src='run_exp/static/images/tutorial/contingency.png' height='500'></p></div>","","","","","","","","","","","","","","","","","",""
"","html-keyboard-response","43","323478","0.0-35.0-7.0","648.1999999880791","<div class='center'><p>How successful a pirate is at robbing ships can also change over the time spent on the island. </p><p> Ships may hear from islanders about the pirates coming and will improve their protections against the attack. This may make it harder to rob them.</p><p> Ships may also become lazy and weaken the strength of their protections. This may make it easier to rob them.</p><br><p>Things are always changing on the high seas! So, try your best to pay attention!</p><p><img src='run_exp/static/images/tutorial/contingency.png' height='500'></p><p><b>[Press the space bar to continue]</b></p></div>","32","","","","","","","","","","","","","","","","","","","","","","",""
"","instruc13","44","368129","0.0-35.0-8.0","null","run_exp/static/audio/clip_15_summary.m4a","null","","","","","<div class='center'><p>Let's go over the instructions quickly again. You have two important things to do: </p><b><p> 1. Pick the pirate who is the best at robbing ships on the current island. This way you'll collect more gold coins!</p></b><b><p> 2. Remember on which island a ship was robbed.</p> </b><p>The amount of bonus money you can win depends on both.</p><p><br><p>Let’s try a practice game. The game will start by showing you the pirates. First, pick a pirate using the <b> 1, 2, 3 </b> keys on your keyboard. When you are shown a ship, try to remember which island you’re on by making up a story.</p><p>This is just a practice game, so you’re not playing for money. </p><p> Good luck!</p></div>","","","","","","","","","","","","","","","","","",""
"","html-keyboard-response","45","368605","0.0-35.0-9.0","474.59999999403954","<div class='center'><p>Let's go over the instructions quickly again. You have two important things to do: </p><b><p> 1. Pick the pirate who is the best at robbing ships on the current island. This way you'll collect more gold coins!</p></b><b><p> 2. Remember on which island a ship was robbed.</p> </b><p>The amount of bonus money you can win depends on both.</p><p><br><p>Let’s try a practice game. The game will start by showing you the pirates. First, pick a pirate using the <b> 1, 2, 3 </b> keys on your keyboard. When you are shown a ship, try to remember which island you’re on by making up a story.</p><p>This is just a practice game, so you’re not playing for money. </p><p> Good luck!</p><p><b>[Press the space bar to continue]</b></p></div>","32","","","","","","","","","","","","","","","","","","","","","","",""
"","do_welcome","46","370118","0.0-35.0-10.0","null","","","","","","","","null","","","","","","","","","","","","","","","","",""
"","do_trial","47","376715","0.0-35.0-11.0","2088.2999999821186","","","","","","","","50","1,0,0","","","","","","","","","","","","","","","",""
"","html-keyboard-response","48","377720","0.0-36.0-0.0","null","<p></p>","null","","","","","","","","","","","","","","","","","","","","","","",""
"","do_trial","49","384907","0.0-36.0-1.0","2678.5","","","","","","","","49","1,1,0","","","","","","","","","","","","","","","",""
"","html-keyboard-response","50","385913","0.0-37.0-0.0","null","<p></p>","null","","","","","","","","","","","","","","","","","","","","","","",""
"","do_trial","51","391097","0.0-37.0-1.0","677.2999999821186","","","","","","","","51","1,0,1","","","","","","","","","","","","","","","",""
"","html-keyboard-response","52","392103","0.0-38.0-0.0","null","<p></p>","null","","","","","","","","","","","","","","","","","","","","","","",""
"","do_trial","53","397259","0.0-38.0-1.0","647.4000000059605","","","","","","","","50","0,1,0","","","","","","","","","","","","","","","",""
"","html-keyboard-response","54","398264","0.0-39.0-0.0","null","<p></p>","null","","","","","","","","","","","","","","","","","","","","","","",""
"","do_trial","55","404171","0.0-39.0-1.0","1396.7000000178814","","","","","","","","50","1,0,0","","","","","","","","","","","","","","","",""
"","do_bye","56","405681","0.0-40.0-0.0","null","","","","","","","","null","","","","","","","","","","","","","","","","",""
"","do_travel","57","411684","0.0-40.0-1.0","null","","","","","","","","null","","","","","","","","","","","","","","","","",""
"","do_welcome","58","413189","0.0-40.0-2.0","null","","","","","","","","null","","","","","","","","","","","","","","","","",""
"","do_trial","59","418976","0.0-40.0-3.0","1280.9000000059605","","","","","","","","50","1,0,0","","","","","","","","","","","","","","","",""
"","html-keyboard-response","60","419980","0.0-41.0-0.0","null","<p></p>","null","","","","","","","","","","","","","","","","","","","","","","",""
"","do_trial","61","425312","0.0-41.0-1.0","824.5","","","","","","","","49","1,0,1","","","","","","","","","","","","","","","",""
"","html-keyboard-response","62","426316","0.0-42.0-0.0","null","<p></p>","null","","","","","","","","","","","","","","","","","","","","","","",""
"","do_trial","63","431337","0.0-42.0-1.0","513.4000000059605","","","","","","","","49","1,1,0","","","","","","","","","","","","","","","",""
"","html-keyboard-response","64","432341","0.0-43.0-0.0","null","<p></p>","null","","","","","","","","","","","","","","","","","","","","","","",""
"","do_trial","65","437410","0.0-43.0-1.0","559.5999999940395","","","","","","","","49","0,0,1","","","","","","","","","","","","","","","",""
"","html-keyboard-response","66","438414","0.0-44.0-0.0","null","<p></p>","null","","","","","","","","","","","","","","","","","","","","","","",""
"","do_trial","67","443419","0.0-44.0-1.0","495.2999999821186","","","","","","","","49","1,0,1","","","","","","","","","","","","","","","",""
"","html-keyboard-response","68","454737","0.0-45.0-0.0","11317.299999982119","<div class='center'><p><img src='run_exp/static/images/tutorial/prac_best_pirate.png'  height='500'></p></div>","51","","","","","","","","","","","","","","","","","","","","","","",""
"","html-keyboard-response","69","458233","0.0-46.0-0.0","3494.7000000178814","<div class='center'><p>That's incorrect! Red beard was the best.</p><p><b>[Press the space bar to continue]</b></p></div>","32","","","","","","","","","","","","","","","","","","","","","","",""
"","html-keyboard-response","70","463552","0.0-46.0-1.0","5318.700000017881","<div class='center'><p><img src='run_exp/static/images/tutorial/prac_source.png'  height='500'></p></div>","50","","","","","","","","","","","","","","","","","","","","","","",""
"","html-keyboard-response","71","466289","0.0-47.0-0.0","2736","<div class='center'><p>That's correct! You saw this ship on the cavern island.</p><p><b>[Press the space bar to continue]</b></p></div>","32","","","","","","","","","","","","","","","","","","","","","","",""
"","quiz_beginning","72","479829","0.0-47.0-1.0","null","run_exp/static/audio/clip_16_quiz_intro.m4a","null","","","","","<div class='center'><p>Good job on the practice game! Now, you will be asked some true or false questions to make sure you really understand the rules of the game.</p><p> Press <b>'1'</b> on the keyboard for true and press <b>'2'</b> for false.</p></div>","","","","","","","","","","","","","","","","","",""
"","audio-keyboard-response","73","501120","0.0-47.0-2.0","21290.600000023842","run_exp/static/audio/clip_17_q1.m4a","49","","","","","","","","","","","","","","","","","","","","","","",""
"","q1_err","74","508731","0.0-48.0-0.0","null","run_exp/static/audio/clip_19_wrong_q1.m4a","null","","","","","<div class='center'><p>That’s incorrect! You win bonus money by collecting as many gold coins as possible!</p></div>","","","","","","","","","","","","","","","","","",""
"","html-keyboard-response","75","509607","0.0-48.0-1.0","874.6999999880791","<div class='center'><p>That’s incorrect! You win bonus money by collecting as many gold coins as possible!</p><p><b>[Press the space bar to continue]</b></p></div>","32","","","","","","","","","","","","","","","","","","","","","","",""
"","audio-keyboard-response","76","518247","0.0-48.0-2.0","8640.399999976158","run_exp/static/audio/clip_20_q2.m4a","50","","","","","","","","","","","","","","","","","","","","","","",""
"","correct","77","521223","0.0-49.0-0.0","null","run_exp/static/audio/clip_18_correct.m4a","null","","","","","<div class='center'><p>That's correct!</p></div>","","","","","","","","","","","","","","","","","",""
"","html-keyboard-response","78","522454","0.0-49.0-1.0","1230.300000011921","<div class='center'><p>That's correct!</p><p><b>[Press the space bar to continue]</b></p></div>","32","","","","","","","","","","","","","","","","","","","","","","",""
"","audio-keyboard-response","79","530935","0.0-49.0-2.0","8480.699999988079","run_exp/static/audio/clip_22_q3.m4a","50","","","","","","","","","","","","","","","","","","","","","","",""
"","correct","80","533900","0.0-50.0-0.0","null","run_exp/static/audio/clip_18_correct.m4a","null","","","","","<div class='center'><p>That's correct!</p></div>","","","","","","","","","","","","","","","","","",""
"","html-keyboard-response","81","535037","0.0-50.0-1.0","1135.9000000059605","<div class='center'><p>That's correct!</p><p><b>[Press the space bar to continue]</b></p></div>","32","","","","","","","","","","","","","","","","","","","","","","",""
"","audio-keyboard-response","82","539790","0.0-50.0-2.0","4752.199999988079","run_exp/static/audio/clip_24_q4.m4a","49","","","","","","","","","","","","","","","","","","","","","","",""
"","correct","83","542747","0.0-51.0-0.0","null","run_exp/static/audio/clip_18_correct.m4a","null","","","","","<div class='center'><p>That's correct!</p></div>","","","","","","","","","","","","","","","","","",""
"","html-keyboard-response","84","543350","0.0-51.0-1.0","602.1999999880791","<div class='center'><p>That's correct!</p><p><b>[Press the space bar to continue]</b></p></div>","32","","","","","","","","","","","","","","","","","","","","","","",""
"","q_all_err","85","550897","0.0-52.0-0.0","null","run_exp/static/audio/clip_26_quiz_redo.m4a","null","","","","","<div class='center'><p>Oops, you missed some questions. Now that you’ve heard the correct answers. Try the quiz again! </p></div>","","","","","","","","","","","","","","","","","",""
"","html-keyboard-response","86","551492","0.0-52.0-1.0","594.9000000059605","<div class='center'><p>Oops, you missed some questions. Now that you’ve heard the correct answers. Try the quiz again! </p><p><b>[Press the space bar to continue]</b></p></div>","32","","","","","","","","","","","","","","","","","","","","","","",""
"","audio-keyboard-response","87","557126","0.0-52.0-2.0","5632.9000000059605","run_exp/static/audio/clip_17_q1.m4a","50","","","","","","","","","","","","","","","","","","","","","","",""
"","correct","88","560092","0.0-53.0-0.0","null","run_exp/static/audio/clip_18_correct.m4a","null","","","","","<div class='center'><p>That's correct!</p></div>","","","","","","","","","","","","","","","","","",""
"","html-keyboard-response","89","560444","0.0-53.0-1.0","351.7000000178814","<div class='center'><p>That's correct!</p><p><b>[Press the space bar to continue]</b></p></div>","32","","","","","","","","","","","","","","","","","","","","","","",""
"","audio-keyboard-response","90","563100","0.0-53.0-2.0","2655.9000000059605","run_exp/static/audio/clip_20_q2.m4a","50","","","","","","","","","","","","","","","","","","","","","","",""
"","correct","91","566059","0.0-54.0-0.0","null","run_exp/static/audio/clip_18_correct.m4a","null","","","","","<div class='center'><p>That's correct!</p></div>","","","","","","","","","","","","","","","","","",""
"","html-keyboard-response","92","566404","0.0-54.0-1.0","345.19999998807907","<div class='center'><p>That's correct!</p><p><b>[Press the space bar to continue]</b></p></div>","32","","","","","","","","","","","","","","","","","","","","","","",""
"","audio-keyboard-response","93","572253","0.0-54.0-2.0","5848.0999999940395","run_exp/static/audio/clip_22_q3.m4a","50","","","","","","","","","","","","","","","","","","","","","","",""
"","correct","94","575207","0.0-55.0-0.0","null","run_exp/static/audio/clip_18_correct.m4a","null","","","","","<div class='center'><p>That's correct!</p></div>","","","","","","","","","","","","","","","","","",""
"","html-keyboard-response","95","575580","0.0-55.0-1.0","372.30000001192093","<div class='center'><p>That's correct!</p><p><b>[Press the space bar to continue]</b></p></div>","32","","","","","","","","","","","","","","","","","","","","","","",""
"","audio-keyboard-response","96","580196","0.0-55.0-2.0","4614.9000000059605","run_exp/static/audio/clip_24_q4.m4a","49","","","","","","","","","","","","","","","","","","","","","","",""
"","correct","97","583195","0.0-56.0-0.0","null","run_exp/static/audio/clip_18_correct.m4a","null","","","","","<div class='center'><p>That's correct!</p></div>","","","","","","","","","","","","","","","","","",""
"","html-keyboard-response","98","583916","0.0-56.0-1.0","720.8999999761581","<div class='center'><p>That's correct!</p><p><b>[Press the space bar to continue]</b></p></div>","32","","","","","","","","","","","","","","","","","","","","","","",""
"","q_all_corr","99","590903","0.0-57.0-0.0","null","run_exp/static/audio/clip_27_quiz_all_correct.m4a","null","","","","","<div class='center'><p>Good job! You’re now ready to move on to the real game!</p></div>","","","","","","","","","","","","","","","","","",""
"","html-keyboard-response","100","591196","0.0-57.0-1.0","291.09999999403954","<div class='center'><p>Good job! You’re now ready to move on to the real game!</p><p><b>[Press the space bar to continue]</b></p></div>","32","","","","","","","","","","","","","","","","","","","","","","",""
"","do_welcome","101","592702","0.0-58.0-0.0","null","","","","","","","","null","","","","","","","","","","","","","","","","",""
"","do_trial","102","598746","0.0-59.0-0.0","null","","","","","","","","null","0,0,0","0","coast","0","probe-01","0.6","0.3","0.1","","","","","","","","",""
"","html-keyboard-response","103","599748","0.0-59.0-1.0","null","<p></p>","null","","","","","","","","","","","","","","","","","","","","","","",""
"","do_trial","104","604908","0.0-60.0-0.0","619.6000000238419","","","","","","","","50","1,0,0","0","coast","1","probe-86","0.6732158581876051","0.4007596727099258","0.05157817984682844","0","","","","","","","",""
"","html-keyboard-response","105","605912","0.0-60.0-1.0","null","<p></p>","null","","","","","","","","","","","","","","","","","","","","","","",""
"","do_trial","106","611089","0.0-61.0-0.0","635.5999999940395","","","","","","","","50","0,0,0","0","coast","2","probe-205","0.5735435641671087","0.3508775128837811","0.12329368622221253","0","","","","","","","",""
"","html-keyboard-response","107","612094","0.0-61.0-1.0","null","<p></p>","null","","","","","","","","","","","","","","","","","","","","","","",""
"","do_trial","108","617092","0.0-62.0-0.0","455.2000000178814","","","","","","","","51","1,0,0","0","coast","3","probe-72","0.6586849738728857","0.3588064577126883","0.06745161536678403","0","","","","","","","",""
"","html-keyboard-response","109","618099","0.0-62.0-1.0","null","<p></p>","null","","","","","","","","","","","","","","","","","","","","","","",""
"","do_trial","110","623033","0.0-63.0-0.0","394.69999998807907","","","","","","","","49","1,0,0","0","coast","4","probe-62","0.682506499501452","0.3810702724364626","0.1302564627575472","1","","","","","","","",""
"","html-keyboard-response","111","624039","0.0-63.0-1.0","null","<p></p>","null","","","","","","","","","","","","","","","","","","","","","","",""
"","do_trial","112","629225","0.0-64.0-0.0","645","","","","","","","","49","1,0,0","0","coast","5","probe-96","0.6215317335457271","0.26749170251289095","0.14844786302342183","1","","","","","","","",""
"","html-keyboard-response","113","630228","0.0-64.0-1.0","null","<p></p>","null","","","","","","","","","","","","","","","","","","","","","","",""
"","do_trial","114","635410","0.0-65.0-0.0","643.5","","","","","","","","49","0,0,0","0","coast","6","probe-211","0.6127731506390827","0.3593203922294502","0.1958104420048752","0","","","","","","","",""
"","html-keyboard-response","115","636416","0.0-65.0-1.0","null","<p></p>","null","","","","","","","","","","","","","","","","","","","","","","",""
"","do_trial","116","641312","0.0-66.0-0.0","358.60000002384186","","","","","","","","50","1,1,0","0","coast","7","probe-210","0.6218384996337235","0.3676642194296934","0.06488824180161087","1","","","","","","","",""
"","html-keyboard-response","117","642317","0.0-66.0-1.0","null","<p></p>","null","","","","","","","","","","","","","","","","","","","","","","",""
"","do_trial","118","647288","0.0-67.0-0.0","430.5","","","","","","","","51","0,0,0","0","coast","8","probe-180","0.5550839486931806","0.393165192940252","0.3864741974226766","0","","","","","","","",""
"","html-keyboard-response","119","648292","0.0-67.0-1.0","null","<p></p>","null","","","","","","","","","","","","","","","","","","","","","","",""
"","do_trial","120","653209","0.0-68.0-0.0","377.09999999403954","","","","","","","","50","1,1,0","0","coast","9","probe-183","0.53361764530649","0.2891376538737665","0.3939816865439542","1","","","","","","","",""
"","html-keyboard-response","121","654211","0.0-68.0-1.0","null","<p></p>","null","","","","","","","","","","","","","","","","","","","","","","",""
"","do_trial","122","659192","0.0-69.0-0.0","441.2000000178814","","","","","","","","49","1,1,0","0","coast","10","probe-204","0.609827544590362","0.30614071464606785","0.36595707146436723","1","","","","","","","",""
"","html-keyboard-response","123","660196","0.0-69.0-1.0","null","<p></p>","null","","","","","","","","","","","","","","","","","","","","","","",""
"","do_trial","124","665931","0.0-70.0-0.0","1193.0999999940395","","","","","","","","50","1,0,1","0","coast","11","probe-200","0.5727379271879509","0.2781349395745187","0.2688545286811079","0","","","","","","","",""
"","html-keyboard-response","125","666935","0.0-70.0-1.0","null","<p></p>","null","","","","","","","","","","","","","","","","","","","","","","",""
"","do_trial","126","672099","0.0-71.0-0.0","620.5999999940395","","","","","","","","49","0,0,1","0","coast","12","probe-106","0.5012562023755327","0.2452285549047612","0.27697541387208946","0","","","","","","","",""
"","html-keyboard-response","127","673103","0.0-71.0-1.0","null","<p></p>","null","","","","","","","","","","","","","","","","","","","","","","",""
"","do_trial","128","678183","0.0-72.0-0.0","539.7999999821186","","","","","","","","51","0,1,0","0","coast","13","probe-94","0.5321745467985373","0.27298765428935035","0.11894184564329002","0","","","","","","","",""
"","html-keyboard-response","129","679186","0.0-72.0-1.0","null","<p></p>","null","","","","","","","","","","","","","","","","","","","","","","",""
"","do_trial","130","684162","0.0-73.0-0.0","432.80000001192093","","","","","","","","49","1,0,1","0","coast","14","probe-154","0.5761573958604423","0.4698999605689697","0.23575858785029105","1","","","","","","","",""
"","html-keyboard-response","131","685167","0.0-73.0-1.0","null","<p></p>","null","","","","","","","","","","","","","","","","","","","","","","",""
"","do_trial","132","690400","0.0-74.0-0.0","692.1999999880791","","","","","","","","50","0,1,0","0","coast","15","probe-16","0.4426570551110538","0.48937150482428077","0.09488723844984705","1","","","","","","","",""
"","html-keyboard-response","133","691404","0.0-74.0-1.0","null","<p></p>","null","","","","","","","","","","","","","","","","","","","","","","",""
"","do_trial","134","696380","0.0-75.0-0.0","437.5","","","","","","","","49","1,0,0","0","coast","16","probe-227","0.5637897703087318","0.5063673943801238","0.0803633433759039","1","","","","","","","",""
"","html-keyboard-response","135","697384","0.0-75.0-1.0","null","<p></p>","null","","","","","","","","","","","","","","","","","","","","","","",""
"","do_trial","136","702510","0.0-76.0-0.0","586.5999999940395","","","","","","","","50","0,0,0","0","coast","17","probe-152","0.40576014835005025","0.2776657548678345","0.15204586948839635","0","","","","","","","",""
"","html-keyboard-response","137","703514","0.0-76.0-1.0","null","<p></p>","null","","","","","","","","","","","","","","","","","","","","","","",""
"","do_trial","138","708865","0.0-77.0-0.0","807.6999999880791","","","","","","","","49","0,0,0","0","coast","18","probe-13","0.5261332323586853","0.26799505795106016","0.24648745749427303","0","","","","","","","",""
"","html-keyboard-response","139","709868","0.0-77.0-1.0","null","<p></p>","null","","","","","","","","","","","","","","","","","","","","","","",""
"","do_trial","140","714775","0.0-78.0-0.0","365.7999999821186","","","","","","","","51","0,0,0","0","coast","19","probe-92","0.44801809670680814","0.15856731360794363","0.1579200894006549","0","","","","","","","",""
"","html-keyboard-response","141","715780","0.0-78.0-1.0","null","<p></p>","null","","","","","","","","","","","","","","","","","","","","","","",""
"","do_trial","142","721020","0.0-79.0-0.0","702.1000000238419","","","","","","","","50","0,0,0","0","coast","20","probe-03","0.37419636021948566","0.20785048258418368","0.1090934881858647","0","","","","","","","",""
"","html-keyboard-response","143","722026","0.0-79.0-1.0","null","<p></p>","null","","","","","","","","","","","","","","","","","","","","","","",""
"","do_trial","144","727085","0.0-80.0-0.0","520.1000000238419","","","","","","","","50","1,0,0","0","coast","21","probe-46","0.4543391416141438","0.18135954392775092","0.1460183654997366","0","","","","","","","",""
"","html-keyboard-response","145","728089","0.0-80.0-1.0","null","<p></p>","null","","","","","","","","","","","","","","","","","","","","","","",""
"","do_trial","146","733038","0.0-81.0-0.0","408.30000001192093","","","","","","","","49","0,1,0","0","coast","22","probe-60","0.30431988972434304","0.26587753243093143","0.16493900853257157","0","","","","","","","",""
"","html-keyboard-response","147","734042","0.0-81.0-1.0","null","<p></p>","null","","","","","","","","","","","","","","","","","","","","","","",""
"","do_trial","148","739011","0.0-82.0-0.0","431.59999999403954","","","","","","","","49","0,0,0","0","coast","23","probe-80","0.46879743840791704","0.3373618258828184","0.05039657623314311","0","","","","","","","",""
"","html-keyboard-response","149","740016","0.0-82.0-1.0","null","<p></p>","null","","","","","","","","","","","","","","","","","","","","","","",""
"","do_trial","150","745151","0.0-83.0-0.0","592","","","","","","","","50","0,0,0","0","coast","24","probe-146","0.6030429425039644","0.4375483507128973","0.07204418595108347","0","","","","","","","",""
"","html-keyboard-response","151","746156","0.0-83.0-1.0","null","<p></p>","null","","","","","","","","","","","","","","","","","","","","","","",""
"","do_trial","152","751206","0.0-84.0-0.0","507.90000000596046","","","","","","","","49","0,0,0","0","coast","25","probe-155","0.4445328695817242","0.4166239815301645","0.08991516862813835","0","","","","","","","",""
"","html-keyboard-response","153","752210","0.0-84.0-1.0","null","<p></p>","null","","","","","","","","","","","","","","","","","","","","","","",""
"","do_trial","154","757275","0.0-85.0-0.0","526.5999999940395","","","","","","","","49","1,0,0","0","coast","26","probe-140","0.5284929861682016","0.3980126281068445","0.09155800272588545","1","","","","","","","",""
"","html-keyboard-response","155","758279","0.0-85.0-1.0","null","<p></p>","null","","","","","","","","","","","","","","","","","","","","","","",""
"","do_trial","156","764541","0.0-86.0-0.0","1721.7000000178814","","","","","","","","49","1,1,0","0","coast","27","probe-137","0.5328957594082581","0.3437795855098416","0.0766767552152962","1","","","","","","","",""
"","html-keyboard-response","157","765551","0.0-86.0-1.0","null","<p></p>","null","","","","","","","","","","","","","","","","","","","","","","",""
"","do_trial","158","770706","0.0-87.0-0.0","613.5999999940395","","","","","","","","49","1,0,0","0","coast","28","probe-164","0.563742552437669","0.32218939914419403","0.2150155963080114","1","","","","","","","",""
"","html-keyboard-response","159","771708","0.0-87.0-1.0","null","<p></p>","null","","","","","","","","","","","","","","","","","","","","","","",""
"","do_trial","160","776942","0.0-88.0-0.0","695.6999999880791","","","","","","","","49","1,1,1","0","coast","29","probe-122","0.6142143332829986","0.4220276899139585","0.2999731665714965","1","","","","","","","",""
"","html-keyboard-response","161","777946","0.0-88.0-1.0","null","<p></p>","null","","","","","","","","","","","","","","","","","","","","","","",""
"","do_bye","162","779451","0.0-89.0-0.0","null","","","","","","","","null","","","","","","","","","","","","","","","","",""
"","do_travel","163","785453","0.0-90.0-0.0","null","","","","","","","","null","","","","","","","","","","","","","","","","",""
"","do_welcome","164","786960","0.0-90.0-1.0","null","","","","","","","","null","","","","","","","","","","","","","","","","",""
"","do_trial","165","793844","0.0-91.0-0.0","2342.800000011921","","","","","","","","50","1,0,0","1","mountain","30","probe-99","1","0.3812354321580115","0.21164243609825614","0","","","","","","","",""
"","html-keyboard-response","166","794848","0.0-91.0-1.0","null","<p></p>","null","","","","","","","","","","","","","","","","","","","","","","",""
"","do_trial","167","799952","0.0-92.0-0.0","566.5","","","","","","","","50","1,1,0","1","mountain","31","probe-175","1","0.3442405504973732","0.11405298825931709","1","","","","","","","",""
"","html-keyboard-response","168","800958","0.0-92.0-1.0","null","<p></p>","null","","","","","","","","","","","","","","","","","","","","","","",""
"","do_trial","169","806237","0.0-93.0-0.0","733.7000000178814","","","","","","","","50","1,0,0","1","mountain","32","probe-187","1","0.46504921962552837","0.1363286068138898","0","","","","","","","",""
"","html-keyboard-response","170","807241","0.0-93.0-1.0","null","<p></p>","null","","","","","","","","","","","","","","","","","","","","","","",""
"","do_trial","171","812264","0.0-94.0-0.0","484","","","","","","","","50","0,1,0","1","mountain","33","probe-142","0.7488587567725893","0.5071430079386908","0.15540254778662332","1","","","","","","","",""
"","html-keyboard-response","172","813268","0.0-94.0-1.0","null","<p></p>","null","","","","","","","","","","","","","","","","","","","","","","",""
"","do_trial","173","818313","0.0-95.0-0.0","506.59999999403954","","","","","","","","50","1,1,0","1","mountain","34","probe-22","0.7408180088577276","0.4218319524707845","0.11255222862458103","1","","","","","","","",""
"","html-keyboard-response","174","819314","0.0-95.0-1.0","null","<p></p>","null","","","","","","","","","","","","","","","","","","","","","","",""
"","do_trial","175","824564","0.0-96.0-0.0","706.6000000238419","","","","","","","","50","1,0,0","1","mountain","35","probe-123","0.550145175318286","0.3047399736111584","0.10252491174536353","0","","","","","","","",""
"","html-keyboard-response","176","825567","0.0-96.0-1.0","null","<p></p>","null","","","","","","","","","","","","","","","","","","","","","","",""
"","do_trial","177","830490","0.0-97.0-0.0","383.2000000178814","","","","","","","","50","0,0,0","1","mountain","36","probe-126","0.6547679101799813","0.36610276829805644","0.14076340655765726","0","","","","","","","",""
"","html-keyboard-response","178","831494","0.0-97.0-1.0","null","<p></p>","null","","","","","","","","","","","","","","","","","","","","","","",""
"","do_trial","179","836538","0.0-98.0-0.0","502.59999999403954","","","","","","","","50","1,0,0","1","mountain","37","probe-95","0.5694327882613971","0.2728373421650687","0.12696677434088735","0","","","","","","","",""
"","html-keyboard-response","180","837542","0.0-98.0-1.0","null","<p></p>","null","","","","","","","","","","","","","","","","","","","","","","",""
"","do_trial","181","842490","0.0-99.0-0.0","406.90000000596046","","","","","","","","50","1,0,0","1","mountain","38","probe-69","0.5940722985249876","0.2642445497635258","0.10791279441958498","0","","","","","","","",""
"","html-keyboard-response","182","843494","0.0-99.0-1.0","null","<p></p>","null","","","","","","","","","","","","","","","","","","","","","","",""
"","do_trial","183","848349","0.0-100.0-0.0","317.90000000596046","","","","","","","","51","0,0,0","1","mountain","39","probe-105","0.5966728718146017","0.31371251732535604","0.10124915641817522","0","","","","","","","",""
"","html-keyboard-response","184","849353","0.0-100.0-1.0","null","<p></p>","null","","","","","","","","","","","","","","","","","","","","","","",""
"","do_trial","185","854240","0.0-101.0-0.0","347.2000000178814","","","","","","","","50","0,0,0","1","mountain","40","probe-214","0.5804248402883025","0.49340870474452286","0.11157002383334805","0","","","","","","","",""
"","html-keyboard-response","186","855243","0.0-101.0-1.0","null","<p></p>","null","","","","","","","","","","","","","","","","","","","","","","",""
"","do_trial","187","860297","0.0-102.0-0.0","513.0999999940395","","","","","","","","50","1,1,0","1","mountain","41","probe-150","0.5260350537903292","0.5081541675157927","0.10020034013349076","1","","","","","","","",""
"","html-keyboard-response","188","861300","0.0-102.0-1.0","null","<p></p>","null","","","","","","","","","","","","","","","","","","","","","","",""
"","do_trial","189","866351","0.0-103.0-0.0","510.90000000596046","","","","","","","","50","0,0,1","1","mountain","42","probe-29","0.13141827709042234","0.38706915734924774","0.3643146484334933","0","","","","","","","",""
"","html-keyboard-response","190","867352","0.0-103.0-1.0","null","<p></p>","null","","","","","","","","","","","","","","","","","","","","","","",""
"","do_trial","191","873176","0.0-104.0-0.0","1285.9000000059605","","","","","","","","50","0,0,0","1","mountain","43","probe-111","0.08932545804343282","0.19131905335890245","0.43812394833761564","0","","","","","","","",""
"","html-keyboard-response","192","874180","0.0-104.0-1.0","null","<p></p>","null","","","","","","","","","","","","","","","","","","","","","","",""
"","do_trial","193","879368","0.0-105.0-0.0","648.3000000119209","","","","","","","","50","1,1,1","1","mountain","44","probe-93","0.17287870750062034","0.2967122365808741","0.5075124447689173","1","","","","","","","",""
"","html-keyboard-response","194","880371","0.0-105.0-1.0","null","<p></p>","null","","","","","","","","","","","","","","","","","","","","","","",""
"","do_trial","195","885383","0.0-106.0-0.0","471.40000000596046","","","","","","","","50","0,0,0","1","mountain","45","probe-12","0.09703789879178715","0.3630466605684369","0.492620338559435","0","","","","","","","",""
"","html-keyboard-response","196","886386","0.0-106.0-1.0","null","<p></p>","null","","","","","","","","","","","","","","","","","","","","","","",""
"","do_trial","197","891392","0.0-107.0-0.0","465","","","","","","","","49","0,0,0","1","mountain","46","probe-108","0.21564384127552647","0.3510313650629084","0.6258652018072651","0","","","","","","","",""
"","html-keyboard-response","198","892394","0.0-107.0-1.0","null","<p></p>","null","","","","","","","","","","","","","","","","","","","","","","",""
"","do_trial","199","897422","0.0-108.0-0.0","486.69999998807907","","","","","","","","49","0,0,1","1","mountain","47","probe-220","0.17061847808001016","0.23928878045205706","0.6352552416603898","0","","","","","","","",""
"","html-keyboard-response","200","898424","0.0-108.0-1.0","null","<p></p>","null","","","","","","","","","","","","","","","","","","","","","","",""
"","do_trial","201","903264","0.0-109.0-0.0","297.2999999821186","","","","","","","","50","0,1,0","1","mountain","48","probe-217","0.1245774461419779","0.2770784906200344","0.5962041340342094","1","","","","","","","",""
"","html-keyboard-response","202","904267","0.0-109.0-1.0","null","<p></p>","null","","","","","","","","","","","","","","","","","","","","","","",""
"","do_trial","203","909542","0.0-110.0-0.0","737.5","","","","","","","","50","0,0,0","1","mountain","49","probe-40","0.15515357621166687","0.23550044819106422","0.5404434206203179","0","","","","","","","",""
"","html-keyboard-response","204","910544","0.0-110.0-1.0","null","<p></p>","null","","","","","","","","","","","","","","","","","","","","","","",""
"","do_trial","205","915433","0.0-111.0-0.0","345.40000000596046","","","","","","","","51","0,1,1","1","mountain","50","probe-52","0.23905174047987301","0.24460155365750716","0.552493104394691","1","","","","","","","",""
"","html-keyboard-response","206","916436","0.0-111.0-1.0","null","<p></p>","null","","","","","","","","","","","","","","","","","","","","","","",""
"","do_trial","207","921411","0.0-112.0-0.0","437.2000000178814","","","","","","","","49","0,0,1","1","mountain","51","probe-178","0.1293996800739253","0.14931595857925448","0.4656545868998993","0","","","","","","","",""
"","html-keyboard-response","208","922415","0.0-112.0-1.0","null","<p></p>","null","","","","","","","","","","","","","","","","","","","","","","",""
"","do_trial","209","927287","0.0-113.0-0.0","330.80000001192093","","","","","","","","50","0,0,1","1","mountain","52","probe-79","0.14333114087745277","0.13619590342832394","0.5544763971000345","0","","","","","","","",""
"","html-keyboard-response","210","928292","0.0-113.0-1.0","null","<p></p>","null","","","","","","","","","","","","","","","","","","","","","","",""
"","do_trial","211","933221","0.0-114.0-0.0","389.40000000596046","","","","","","","","49","0,0,1","1","mountain","53","probe-124","0.1815649895015948","0.23612758301269907","0.6718492125204744","0","","","","","","","",""
"","html-keyboard-response","212","934226","0.0-114.0-1.0","null","<p></p>","null","","","","","","","","","","","","","","","","","","","","","","",""
"","do_trial","213","939469","0.0-115.0-0.0","703.8000000119209","","","","","","","","50","0,0,1","1","mountain","54","probe-132","0.1625646240308833","0.23998097354694473","0.7459038788240936","0","","","","","","","",""
"","html-keyboard-response","214","940472","0.0-115.0-1.0","null","<p></p>","null","","","","","","","","","","","","","","","","","","","","","","",""
"","do_trial","215","945391","0.0-116.0-0.0","376.19999998807907","","","","","","","","51","1,0,0","1","mountain","55","probe-218","0.09311353452069975","0.14347846242989565","0.634230528482749","0","","","","","","","",""
"","html-keyboard-response","216","946396","0.0-116.0-1.0","null","<p></p>","null","","","","","","","","","","","","","","","","","","","","","","",""
"","do_trial","217","951323","0.0-117.0-0.0","389","","","","","","","","50","1,0,1","1","mountain","56","probe-38","0.08783511820598873","0.2883825491014451","0.5573308468987511","0","","","","","","","",""
"","html-keyboard-response","218","952326","0.0-117.0-1.0","null","<p></p>","null","","","","","","","","","","","","","","","","","","","","","","",""
"","do_trial","219","957477","0.0-118.0-0.0","609.5","","","","","","","","50","0,0,1","1","mountain","57","probe-113","0.05788275447416637","0.3223882910381555","0.5083608630086812","0","","","","","","","",""
"","html-keyboard-response","220","958481","0.0-118.0-1.0","null","<p></p>","null","","","","","","","","","","","","","","","","","","","","","","",""
"","do_trial","221","963699","0.0-119.0-0.0","679.6999999880791","","","","","","","","50","0,0,0","1","mountain","58","probe-31","0.08415412731552126","0.2324299948597699","0.3673289246866685","0","","","","","","","",""
"","html-keyboard-response","222","964701","0.0-119.0-1.0","null","<p></p>","null","","","","","","","","","","","","","","","","","","","","","","",""
"","do_trial","223","969636","0.0-120.0-0.0","393.90000000596046","","","","","","","","50","0,0,0","1","mountain","59","probe-81","0.14144721312408828","0.18715598994986893","0.5568206694258997","0","","","","","","","",""
"","html-keyboard-response","224","970640","0.0-120.0-1.0","null","<p></p>","null","","","","","","","","","","","","","","","","","","","","","","",""
"","do_trial","225","977446","0.0-121.0-0.0","2264.2000000178814","","","","","","","","50","0,0,1","1","mountain","60","probe-130","0.09725803659901355","0.08963214819352475","0.6029047118973305","0","","","","","","","",""
"","html-keyboard-response","226","978450","0.0-121.0-1.0","null","<p></p>","null","","","","","","","","","","","","","","","","","","","","","","",""
"","do_trial","227","983405","0.0-122.0-0.0","411.7999999821186","","","","","","","","51","1,0,0","1","mountain","61","probe-193","0.0715383283920744","0.15730645931636342","0.47100471530463883","0","","","","","","","",""
"","html-keyboard-response","228","984407","0.0-122.0-1.0","null","<p></p>","null","","","","","","","","","","","","","","","","","","","","","","",""
"","do_trial","229","989833","0.0-123.0-0.0","891.5999999940395","","","","","","","","51","0,1,0","1","mountain","62","probe-84","0.1305574892009058","0.2615884760061604","0.5725443329818205","0","","","","","","","",""
"","html-keyboard-response","230","990837","0.0-123.0-1.0","null","<p></p>","null","","","","","","","","","","","","","","","","","","","","","","",""
"","do_trial","231","996101","0.0-124.0-0.0","720.1999999880791","","","","","","","","51","0,0,0","1","mountain","63","probe-44","0.05840865791511574","0.33670020280850016","0.5343387622970301","0","","","","","","","",""
"","html-keyboard-response","232","997104","0.0-124.0-1.0","null","<p></p>","null","","","","","","","","","","","","","","","","","","","","","","",""
"","do_trial","233","1002053","0.0-125.0-0.0","406.2999999821186","","","","","","","","51","0,1,1","1","mountain","64","probe-107","0.10291704580353063","0.23452631500500346","0.7037733683810343","1","","","","","","","",""
"","html-keyboard-response","234","1003056","0.0-125.0-1.0","null","<p></p>","null","","","","","","","","","","","","","","","","","","","","","","",""
"","do_trial","235","1008033","0.0-126.0-0.0","440.30000001192093","","","","","","","","51","0,1,0","1","mountain","65","probe-215","0.06945912774834205","0.2281250612639039","0.6542147133961187","0","","","","","","","",""
"","html-keyboard-response","236","1009039","0.0-126.0-1.0","null","<p></p>","null","","","","","","","","","","","","","","","","","","","","","","",""
"","do_trial","237","1013980","0.0-127.0-0.0","399.40000000596046","","","","","","","","49","1,1,0","1","mountain","66","probe-213","0.08204131162563723","0.22551199808387637","0.6437433045710276","1","","","","","","","",""
"","html-keyboard-response","238","1014983","0.0-127.0-1.0","null","<p></p>","null","","","","","","","","","","","","","","","","","","","","","","",""
"","do_trial","239","1019912","0.0-128.0-0.0","392.09999999403954","","","","","","","","50","0,0,1","1","mountain","67","probe-160","0.1393429492220468","0.13928989339286946","0.7311663010427611","0","","","","","","","",""
"","html-keyboard-response","240","1020915","0.0-128.0-1.0","null","<p></p>","null","","","","","","","","","","","","","","","","","","","","","","",""
"","do_trial","241","1025789","0.0-129.0-0.0","331.90000000596046","","","","","","","","49","0,1,1","1","mountain","68","probe-74","0.07780483571668491","0.14066654795259234","0.6612950309487644","0","","","","","","","",""
"","html-keyboard-response","242","1026793","0.0-129.0-1.0","null","<p></p>","null","","","","","","","","","","","","","","","","","","","","","","",""
"","do_trial","243","1031812","0.0-130.0-0.0","476.80000001192093","","","","","","","","51","0,0,0","1","mountain","69","probe-174","0.08258324925021886","0.16860828843914671","0.5639743098208263","0","","","","","","","",""
"","html-keyboard-response","244","1032818","0.0-130.0-1.0","null","<p></p>","null","","","","","","","","","","","","","","","","","","","","","","",""
"","do_bye","245","1034327","0.0-131.0-0.0","null","","","","","","","","null","","","","","","","","","","","","","","","","",""
"","do_travel","246","1040328","0.0-132.0-0.0","null","","","","","","","","null","","","","","","","","","","","","","","","","",""
"","do_welcome","247","1041831","0.0-132.0-1.0","null","","","","","","","","null","","","","","","","","","","","","","","","","",""
"","do_trial","248","1048586","0.0-133.0-0.0","2214.300000011921","","","","","","","","51","1,0,1","2","countryside","70","probe-216","0.061048894045745275","0.180059088107364","1","1","","","","","","","",""
"","html-keyboard-response","249","1049590","0.0-133.0-1.0","null","<p></p>","null","","","","","","","","","","","","","","","","","","","","","","",""
"","do_trial","250","1054539","0.0-134.0-0.0","405.69999998807907","","","","","","","","51","0,0,1","2","countryside","71","probe-118","0.0941989507590749","0.29712292763960213","1","1","","","","","","","",""
"","html-keyboard-response","251","1055543","0.0-134.0-1.0","null","<p></p>","null","","","","","","","","","","","","","","","","","","","","","","",""
"","do_trial","252","1060635","0.0-135.0-0.0","549.1999999880791","","","","","","","","51","0,0,1","2","countryside","72","probe-61","0.14495690659865076","0.3389172574639083","0.9199175630420751","1","","","","","","","",""
"","html-keyboard-response","253","1061638","0.0-135.0-1.0","null","<p></p>","null","","","","","","","","","","","","","","","","","","","","","","",""
"","do_trial","254","1066914","0.0-136.0-0.0","734.3000000119209","","","","","","","","51","1,1,1","2","countryside","73","probe-17","0.1751520915178786","0.3854000265932333","0.7346774067219561","1","","","","","","","",""
"","html-keyboard-response","255","1067918","0.0-136.0-1.0","null","<p></p>","null","","","","","","","","","","","","","","","","","","","","","","",""
"","do_trial","256","1073138","0.0-137.0-0.0","677.7999999821186","","","","","","","","51","0,0,1","2","countryside","74","probe-90","0.2121703828410155","0.4039012839498043","0.6565841108194198","1","","","","","","","",""
"","html-keyboard-response","257","1074141","0.0-137.0-1.0","null","<p></p>","null","","","","","","","","","","","","","","","","","","","","","","",""
"","do_trial","258","1079023","0.0-138.0-0.0","342.39999997615814","","","","","","","","51","0,0,1","2","countryside","75","probe-75","0.22873811847987136","0.43040183312382113","0.6741347544018121","1","","","","","","","",""
"","html-keyboard-response","259","1080025","0.0-138.0-1.0","null","<p></p>","null","","","","","","","","","","","","","","","","","","","","","","",""
"","do_trial","260","1085090","0.0-139.0-0.0","522","","","","","","","","51","0,0,1","2","countryside","76","probe-125","0.13549041293294006","0.33571572627328006","0.5565458620212269","1","","","","","","","",""
"","html-keyboard-response","261","1086094","0.0-139.0-1.0","null","<p></p>","null","","","","","","","","","","","","","","","","","","","","","","",""
"","do_trial","262","1091017","0.0-140.0-0.0","380.5","","","","","","","","51","0,1,1","2","countryside","77","probe-226","0.1245790458870686","0.3634774562388961","0.5823728604164288","1","","","","","","","",""
"","html-keyboard-response","263","1092021","0.0-140.0-1.0","null","<p></p>","null","","","","","","","","","","","","","","","","","","","","","","",""
"","do_trial","264","1097138","0.0-141.0-0.0","574.2000000178814","","","","","","","","51","1,1,1","2","countryside","78","probe-59","0.14380795473956237","0.24824230259673158","0.49923938768189274","1","","","","","","","",""
"","html-keyboard-response","265","1098140","0.0-141.0-1.0","null","<p></p>","null","","","","","","","","","","","","","","","","","","","","","","",""
"","do_trial","266","1103550","0.0-142.0-0.0","869.1999999880791","","","","","","","","51","0,0,0","2","countryside","79","probe-203","0.11342886149354647","0.22482617497263213","0.2885626900144299","0","","","","","","","",""
"","html-keyboard-response","267","1104554","0.0-142.0-1.0","null","<p></p>","null","","","","","","","","","","","","","","","","","","","","","","",""
"","do_trial","268","1109537","0.0-143.0-0.0","440.69999998807907","","","","","","","","51","0,1,0","2","countryside","80","probe-05","0.09181959433678338","0.25757218122291214","0.29498422340622776","0","","","","","","","",""
"","html-keyboard-response","269","1110542","0.0-143.0-1.0","null","<p></p>","null","","","","","","","","","","","","","","","","","","","","","","",""
"","do_trial","270","1115437","0.0-144.0-0.0","355.7999999821186","","","","","","","","49","0,0,0","2","countryside","81","probe-192","0.058220473394882656","0.19943101163690194","0.2681237440977212","0","","","","","","","",""
"","html-keyboard-response","271","1116442","0.0-144.0-1.0","null","<p></p>","null","","","","","","","","","","","","","","","","","","","","","","",""
"","do_trial","272","1121328","0.0-145.0-0.0","343.09999999403954","","","","","","","","50","0,1,0","2","countryside","82","probe-11","0.1509219011631657","0.1553513723220853","0.32292987644053933","1","","","","","","","",""
"","html-keyboard-response","273","1122333","0.0-145.0-1.0","null","<p></p>","null","","","","","","","","","","","","","","","","","","","","","","",""
"","do_trial","274","1127518","0.0-146.0-0.0","645.7000000178814","","","","","","","","50","1,0,0","2","countryside","83","probe-110","0.269549512966306","0.0764383028460247","0.21296630766724903","0","","","","","","","",""
"","html-keyboard-response","275","1128522","0.0-146.0-1.0","null","<p></p>","null","","","","","","","","","","","","","","","","","","","","","","",""
"","do_trial","276","1134104","0.0-147.0-0.0","1039.300000011921","","","","","","","","49","1,0,0","2","countryside","84","probe-139","0.4968415766797451","0.06252936082160472","0.2535265168758349","1","","","","","","","",""
"","html-keyboard-response","277","1135106","0.0-147.0-1.0","null","<p></p>","null","","","","","","","","","","","","","","","","","","","","","","",""
"","do_trial","278","1140220","0.0-148.0-0.0","574.9000000059605","","","","","","","","49","1,0,0","2","countryside","85","probe-114","0.5879921971314704","0.16852415017674602","0.24273915908043453","1","","","","","","","",""
"","html-keyboard-response","279","1141225","0.0-148.0-1.0","null","<p></p>","null","","","","","","","","","","","","","","","","","","","","","","",""
"","do_trial","280","1146563","0.0-149.0-0.0","800.3000000119209","","","","","","","","49","1,0,0","2","countryside","86","probe-100","0.5423473590882827","0.16793794396754458","0.24621723192460823","1","","","","","","","",""
"","html-keyboard-response","281","1147567","0.0-149.0-1.0","null","<p></p>","null","","","","","","","","","","","","","","","","","","","","","","",""
"","do_trial","282","1152447","0.0-150.0-0.0","337.59999999403954","","","","","","","","49","1,0,0","2","countryside","87","probe-49","0.495364583953997","0.15963671474493293","0.34797221540075757","1","","","","","","","",""
"","html-keyboard-response","283","1153451","0.0-150.0-1.0","null","<p></p>","null","","","","","","","","","","","","","","","","","","","","","","",""
"","do_trial","284","1159624","0.0-151.0-0.0","1630.199999988079","","","","","","","","49","0,1,0","2","countryside","88","probe-18","0.5524990042478661","0.062304753832351595","0.2778810542905955","0","","","","","","","",""
"","html-keyboard-response","285","1160627","0.0-151.0-1.0","null","<p></p>","null","","","","","","","","","","","","","","","","","","","","","","",""
"","do_trial","286","1165854","0.0-152.0-0.0","684.3000000119209","","","","","","","","50","0,0,0","2","countryside","89","probe-10","0.6374149371187804","0.10443399145144128","0.2745494183659313","0","","","","","","","",""
"","html-keyboard-response","287","1166858","0.0-152.0-1.0","null","<p></p>","null","","","","","","","","","","","","","","","","","","","","","","",""
"","do_trial","288","1171989","0.0-153.0-0.0","589.7999999821186","","","","","","","","51","1,0,0","2","countryside","90","probe-67","0.6834789103264928","0.06590192011386713","0.30086421676355707","0","","","","","","","",""
"","html-keyboard-response","289","1172995","0.0-153.0-1.0","null","<p></p>","null","","","","","","","","","","","","","","","","","","","","","","",""
"","do_trial","290","1178021","0.0-154.0-0.0","484.40000000596046","","","","","","","","51","0,0,0","2","countryside","91","probe-153","0.6261298061051893","0.2972365440370154","0.41917947583412174","0","","","","","","","",""
"","html-keyboard-response","291","1179025","0.0-154.0-1.0","null","<p></p>","null","","","","","","","","","","","","","","","","","","","","","","",""
"","do_trial","292","1184174","0.0-155.0-0.0","606.6999999880791","","","","","","","","49","1,0,0","2","countryside","92","probe-168","0.6520894829055882","0.3165701577969481","0.46709502883850434","1","","","","","","","",""
"","html-keyboard-response","293","1185177","0.0-155.0-1.0","null","<p></p>","null","","","","","","","","","","","","","","","","","","","","","","",""
"","do_trial","294","1190242","0.0-156.0-0.0","525.2999999821186","","","","","","","","49","1,1,1","2","countryside","93","probe-28","0.6147450555329881","0.3135832266427248","0.32414890794256823","1","","","","","","","",""
"","html-keyboard-response","295","1191246","0.0-156.0-1.0","null","<p></p>","null","","","","","","","","","","","","","","","","","","","","","","",""
"","do_trial","296","1196351","0.0-157.0-0.0","561.9000000059605","","","","","","","","49","1,1,0","2","countryside","94","probe-47","0.6301338028319462","0.16368095457640358","0.2553118593286879","1","","","","","","","",""
"","html-keyboard-response","297","1197354","0.0-157.0-1.0","null","<p></p>","null","","","","","","","","","","","","","","","","","","","","","","",""
"","do_trial","298","1202353","0.0-158.0-0.0","461.09999999403954","","","","","","","","49","1,0,1","2","countryside","95","probe-219","0.624909812669193","0.28707376093973247","0.10783589934755128","1","","","","","","","",""
"","html-keyboard-response","299","1203356","0.0-158.0-1.0","null","<p></p>","null","","","","","","","","","","","","","","","","","","","","","","",""
"","do_trial","300","1208716","0.0-159.0-0.0","818.3999999761581","","","","","","","","49","1,0,0","2","countryside","96","probe-195","0.5290683000579738","0.27636859638367495","0.18901081188080365","1","","","","","","","",""
"","html-keyboard-response","301","1209719","0.0-159.0-1.0","null","<p></p>","null","","","","","","","","","","","","","","","","","","","","","","",""
"","do_trial","302","1214602","0.0-160.0-0.0","343.40000000596046","","","","","","","","49","1,0,0","2","countryside","97","probe-09","0.4643169985746779","0.18225764411822712","0.2627199688308728","1","","","","","","","",""
"","html-keyboard-response","303","1215605","0.0-160.0-1.0","null","<p></p>","null","","","","","","","","","","","","","","","","","","","","","","",""
"","do_trial","304","1220893","0.0-161.0-0.0","745.0999999940395","","","","","","","","49","1,0,0","2","countryside","98","probe-170","0.581327990854586","0.3036878222969242","0.23362852339214954","1","","","","","","","",""
"","html-keyboard-response","305","1221896","0.0-161.0-1.0","null","<p></p>","null","","","","","","","","","","","","","","","","","","","","","","",""
"","do_trial","306","1226996","0.0-162.0-0.0","557.0999999940395","","","","","","","","49","0,0,0","2","countryside","99","probe-206","0.5293005036534634","0.12970095663455458","0.2982336111951292","0","","","","","","","",""
"","html-keyboard-response","307","1227999","0.0-162.0-1.0","null","<p></p>","null","","","","","","","","","","","","","","","","","","","","","","",""
"","do_trial","308","1233076","0.0-163.0-0.0","535.2999999821186","","","","","","","","51","1,1,0","2","countryside","100","probe-73","0.5347511818458067","0.15894391332261534","0.3690059485676953","0","","","","","","","",""
"","html-keyboard-response","309","1234077","0.0-163.0-1.0","null","<p></p>","null","","","","","","","","","","","","","","","","","","","","","","",""
"","do_trial","310","1239031","0.0-164.0-0.0","415.2999999821186","","","","","","","","50","1,0,0","2","countryside","101","probe-07","0.5443350286478483","0.21667007294533988","0.16919812423578173","0","","","","","","","",""
"","html-keyboard-response","311","1240038","0.0-164.0-1.0","null","<p></p>","null","","","","","","","","","","","","","","","","","","","","","","",""
"","do_trial","312","1245114","0.0-165.0-0.0","535.7000000178814","","","","","","","","51","1,0,0","2","countryside","102","probe-54","0.49592913968100816","0.29914892793669656","0.27695432675480935","0","","","","","","","",""
"","html-keyboard-response","313","1246118","0.0-165.0-1.0","null","<p></p>","null","","","","","","","","","","","","","","","","","","","","","","",""
"","do_trial","314","1251166","0.0-166.0-0.0","510.19999998807907","","","","","","","","51","1,1,0","2","countryside","103","probe-143","0.541472502915501","0.34159765279007537","0.22152688817201763","0","","","","","","","",""
"","html-keyboard-response","315","1252169","0.0-166.0-1.0","null","<p></p>","null","","","","","","","","","","","","","","","","","","","","","","",""
"","do_trial","316","1257040","0.0-167.0-0.0","330","","","","","","","","50","1,0,0","2","countryside","104","probe-51","0.5015189804222476","0.23242962853671928","0.1636978802199213","0","","","","","","","",""
"","html-keyboard-response","317","1258044","0.0-167.0-1.0","null","<p></p>","null","","","","","","","","","","","","","","","","","","","","","","",""
"","do_trial","318","1262946","0.0-168.0-0.0","360.2000000178814","","","","","","","","49","0,0,0","2","countryside","105","probe-127","0.4732534119322734","0.22242364989222957","0.1880741386833089","0","","","","","","","",""
"","html-keyboard-response","319","1263950","0.0-168.0-1.0","null","<p></p>","null","","","","","","","","","","","","","","","","","","","","","","",""
"","do_trial","320","1269187","0.0-169.0-0.0","693.9000000059605","","","","","","","","50","1,0,1","2","countryside","106","probe-182","0.5784757410619114","0.11241837843105092","0.20806079335815608","0","","","","","","","",""
"","html-keyboard-response","321","1270191","0.0-169.0-1.0","null","<p></p>","null","","","","","","","","","","","","","","","","","","","","","","",""
"","do_trial","322","1275126","0.0-170.0-0.0","397","","","","","","","","49","0,0,0","2","countryside","107","probe-91","0.6645494339800829","0.14932330731314544","0.19625846329931027","0","","","","","","","",""
"","html-keyboard-response","323","1276129","0.0-170.0-1.0","null","<p></p>","null","","","","","","","","","","","","","","","","","","","","","","",""
"","do_trial","324","1281032","0.0-171.0-0.0","362.40000000596046","","","","","","","","51","0,1,0","2","countryside","108","probe-163","0.6736137943011703","0.3145920545105676","0.14314199511927897","0","","","","","","","",""
"","html-keyboard-response","325","1282036","0.0-171.0-1.0","null","<p></p>","null","","","","","","","","","","","","","","","","","","","","","","",""
"","do_trial","326","1287313","0.0-172.0-0.0","735.3000000119209","","","","","","","","50","1,0,1","2","countryside","109","probe-76","0.5599092514678256","0.19545681793959474","0.19418964344628464","0","","","","","","","",""
"","html-keyboard-response","327","1288317","0.0-172.0-1.0","null","<p></p>","null","","","","","","","","","","","","","","","","","","","","","","",""
"","do_bye","328","1289826","0.0-173.0-0.0","null","","","","","","","","null","","","","","","","","","","","","","","","","",""
"","do_travel","329","1295828","0.0-174.0-0.0","null","","","","","","","","null","","","","","","","","","","","","","","","","",""
"","do_welcome","330","1297336","0.0-174.0-1.0","null","","","","","","","","null","","","","","","","","","","","","","","","","",""
"","do_trial","331","1304418","0.0-175.0-0.0","2539.2000000178814","","","","","","","","49","1,0,0","3","city","110","probe-212","1","0.144339232680405","0.26896360201238934","1","","","","","","","",""
"","html-keyboard-response","332","1305422","0.0-175.0-1.0","null","<p></p>","null","","","","","","","","","","","","","","","","","","","","","","",""
"","do_trial","333","1310345","0.0-176.0-0.0","380.19999998807907","","","","","","","","49","1,0,0","3","city","111","probe-179","1","0.10652205099261658","0.38022551855984676","1","","","","","","","",""
"","html-keyboard-response","334","1311349","0.0-176.0-1.0","null","<p></p>","null","","","","","","","","","","","","","","","","","","","","","","",""
"","do_trial","335","1316591","0.0-177.0-0.0","701.2000000178814","","","","","","","","49","1,0,0","3","city","112","probe-08","0.8083070376060854","0.11369324390639701","0.2256089426703541","1","","","","","","","",""
"","html-keyboard-response","336","1317597","0.0-177.0-1.0","null","<p></p>","null","","","","","","","","","","","","","","","","","","","","","","",""
"","do_trial","337","1322613","0.0-178.0-0.0","473.89999997615814","","","","","","","","49","1,0,0","3","city","113","probe-56","0.7853537428763548","0.39816061258991414","0.1851277157176493","1","","","","","","","",""
"","html-keyboard-response","338","1323617","0.0-178.0-1.0","null","<p></p>","null","","","","","","","","","","","","","","","","","","","","","","",""
"","do_trial","339","1328665","0.0-179.0-0.0","505.89999997615814","","","","","","","","49","1,0,0","3","city","114","probe-71","0.6155090980399479","0.2646177603690756","0.20483369261055168","1","","","","","","","",""
"","html-keyboard-response","340","1329668","0.0-179.0-1.0","null","<p></p>","null","","","","","","","","","","","","","","","","","","","","","","",""
"","do_trial","341","1334824","0.0-180.0-0.0","612.6000000238419","","","","","","","","49","0,1,1","3","city","115","probe-194","0.5037571392380774","0.1569259902429545","0.28993024421324093","0","","","","","","","",""
"","html-keyboard-response","342","1335827","0.0-180.0-1.0","null","<p></p>","null","","","","","","","","","","","","","","","","","","","","","","",""
"","do_trial","343","1340952","0.0-181.0-0.0","583.5","","","","","","","","50","1,1,0","3","city","116","probe-97","0.5734870516997651","0.17353444643215515","0.2691340876357004","1","","","","","","","",""
"","html-keyboard-response","344","1341956","0.0-181.0-1.0","null","<p></p>","null","","","","","","","","","","","","","","","","","","","","","","",""
"","do_trial","345","1347190","0.0-182.0-0.0","693.5999999940395","","","","","","","","50","1,0,0","3","city","117","probe-23","0.685666443465106","0.23410625409264513","0.22606197781431214","0","","","","","","","",""
"","html-keyboard-response","346","1348194","0.0-182.0-1.0","null","<p></p>","null","","","","","","","","","","","","","","","","","","","","","","",""
"","do_trial","347","1353264","0.0-183.0-0.0","527.5","","","","","","","","51","1,0,1","3","city","118","probe-199","0.6314256356862396","0.23200743057491835","0.2776018430597812","1","","","","","","","",""
"","html-keyboard-response","348","1354266","0.0-183.0-1.0","null","<p></p>","null","","","","","","","","","","","","","","","","","","","","","","",""
"","do_trial","349","1359758","0.0-184.0-0.0","951.0999999940395","","","","","","","","51","1,1,0","3","city","119","probe-157","0.6217539706238295","0.381160511513202","0.3105127429404857","0","","","","","","","",""
"","html-keyboard-response","350","1360761","0.0-184.0-1.0","null","<p></p>","null","","","","","","","","","","","","","","","","","","","","","","",""
"","do_trial","351","1365659","0.0-185.0-0.0","359.10000002384186","","","","","","","","49","0,1,1","3","city","120","probe-166","0.7023525773889371","0.3691773757277299","0.34352970950559814","0","","","","","","","",""
"","html-keyboard-response","352","1366665","0.0-185.0-1.0","null","<p></p>","null","","","","","","","","","","","","","","","","","","","","","","",""
"","do_trial","353","1371564","0.0-186.0-0.0","358.5","","","","","","","","49","1,1,0","3","city","121","probe-82","0.6367420711265852","0.4208809099338147","0.34899691491482737","1","","","","","","","",""
"","html-keyboard-response","354","1372569","0.0-186.0-1.0","null","<p></p>","null","","","","","","","","","","","","","","","","","","","","","","",""
"","do_trial","355","1377515","0.0-187.0-0.0","407.59999999403954","","","","","","","","49","1,0,1","3","city","122","probe-176","0.43539488389054337","0.469522273257682","0.5447428545419881","1","","","","","","","",""
"","html-keyboard-response","356","1378518","0.0-187.0-1.0","null","<p></p>","null","","","","","","","","","","","","","","","","","","","","","","",""
"","do_trial","357","1383436","0.0-188.0-0.0","376.5","","","","","","","","49","1,0,1","3","city","123","probe-42","0.26501669048217724","0.5261836878865135","0.46332747260616375","1","","","","","","","",""
"","html-keyboard-response","358","1384440","0.0-188.0-1.0","null","<p></p>","null","","","","","","","","","","","","","","","","","","","","","","",""
"","do_trial","359","1389348","0.0-189.0-0.0","367.69999998807907","","","","","","","","49","0,1,0","3","city","124","probe-131","0.1273306438560018","0.7087364067432536","0.3105845589665265","0","","","","","","","",""
"","html-keyboard-response","360","1390353","0.0-189.0-1.0","null","<p></p>","null","","","","","","","","","","","","","","","","","","","","","","",""
"","do_trial","361","1395278","0.0-190.0-0.0","381.5","","","","","","","","49","0,1,0","3","city","125","probe-196","0.15155343073589142","0.7081547764658548","0.28868899392117586","0","","","","","","","",""
"","html-keyboard-response","362","1396281","0.0-190.0-1.0","null","<p></p>","null","","","","","","","","","","","","","","","","","","","","","","",""
"","do_trial","363","1401157","0.0-191.0-0.0","333.39999997615814","","","","","","","","50","0,1,0","3","city","126","probe-24","0.0707470297407339","0.6407360591574214","0.370184672964999","1","","","","","","","",""
"","html-keyboard-response","364","1402159","0.0-191.0-1.0","null","<p></p>","null","","","","","","","","","","","","","","","","","","","","","","",""
"","do_trial","365","1407203","0.0-192.0-0.0","505.80000001192093","","","","","","","","50","0,0,0","3","city","127","probe-58","0.12064441533776128","0.6000569046567246","0.2688944043681103","0","","","","","","","",""
"","html-keyboard-response","366","1408206","0.0-192.0-1.0","null","<p></p>","null","","","","","","","","","","","","","","","","","","","","","","",""
"","do_trial","367","1413314","0.0-193.0-0.0","568.9000000059605","","","","","","","","50","1,1,0","3","city","128","probe-45","0.1310644245593284","0.4850637642872952","0.33049183030883866","1","","","","","","","",""
"","html-keyboard-response","368","1414317","0.0-193.0-1.0","null","<p></p>","null","","","","","","","","","","","","","","","","","","","","","","",""
"","do_trial","369","1419730","0.0-194.0-0.0","873.0999999940395","","","","","","","","50","0,1,0","3","city","129","probe-224","0.05531633364958376","0.6364541825507591","0.22269297038171773","1","","","","","","","",""
"","html-keyboard-response","370","1420734","0.0-194.0-1.0","null","<p></p>","null","","","","","","","","","","","","","","","","","","","","","","",""
"","do_trial","371","1426304","0.0-195.0-0.0","1032.300000011921","","","","","","","","50","0,1,0","3","city","130","probe-198","0.0662480424576728","0.6955047051995729","0.3304100316550936","1","","","","","","","",""
"","html-keyboard-response","372","1427307","0.0-195.0-1.0","null","<p></p>","null","","","","","","","","","","","","","","","","","","","","","","",""
"","do_trial","373","1432231","0.0-196.0-0.0","385.7000000178814","","","","","","","","50","0,1,1","3","city","131","probe-202","0.1800475724628688","0.7198365626213622","0.49827653115428505","1","","","","","","","",""
"","html-keyboard-response","374","1433235","0.0-196.0-1.0","null","<p></p>","null","","","","","","","","","","","","","","","","","","","","","","",""
"","do_trial","375","1438269","0.0-197.0-0.0","491.60000002384186","","","","","","","","50","0,1,0","3","city","132","probe-85","0.10299592305397087","0.6136825307134706","0.3216069877844035","1","","","","","","","",""
"","html-keyboard-response","376","1439272","0.0-197.0-1.0","null","<p></p>","null","","","","","","","","","","","","","","","","","","","","","","",""
"","do_trial","377","1444124","0.0-198.0-0.0","309.5","","","","","","","","50","0,1,0","3","city","133","probe-89","0.06601929486599253","0.6577928939704755","0.3528778246733316","1","","","","","","","",""
"","html-keyboard-response","378","1445128","0.0-198.0-1.0","null","<p></p>","null","","","","","","","","","","","","","","","","","","","","","","",""
"","do_trial","379","1450211","0.0-199.0-0.0","541.9000000059605","","","","","","","","50","1,1,0","3","city","134","probe-37","0.14263127080032348","0.47461722415042523","0.28415373383001724","1","","","","","","","",""
"","html-keyboard-response","380","1451217","0.0-199.0-1.0","null","<p></p>","null","","","","","","","","","","","","","","","","","","","","","","",""
"","do_trial","381","1456210","0.0-200.0-0.0","451.30000001192093","","","","","","","","50","0,1,1","3","city","135","probe-83","0.07818769016156421","0.5709292336981944","0.2277277278842724","1","","","","","","","",""
"","html-keyboard-response","382","1457214","0.0-200.0-1.0","null","<p></p>","null","","","","","","","","","","","","","","","","","","","","","","",""
"","do_trial","383","1462448","0.0-201.0-0.0","694.5999999940395","","","","","","","","50","0,1,0","3","city","136","probe-26","0.07872205952568152","0.6429865986298664","0.2185676360895425","1","","","","","","","",""
"","html-keyboard-response","384","1463454","0.0-201.0-1.0","null","<p></p>","null","","","","","","","","","","","","","","","","","","","","","","",""
"","do_trial","385","1468385","0.0-202.0-0.0","389.69999998807907","","","","","","","","50","0,1,1","3","city","137","probe-06","0.14620163614871853","0.7039101048498528","0.303643554806174","1","","","","","","","",""
"","html-keyboard-response","386","1469389","0.0-202.0-1.0","null","<p></p>","null","","","","","","","","","","","","","","","","","","","","","","",""
"","do_trial","387","1474876","0.0-203.0-0.0","944.5","","","","","","","","50","0,1,0","3","city","138","probe-33","0.10675878346003223","0.7393174685709925","0.10043433165765737","1","","","","","","","",""
"","html-keyboard-response","388","1475879","0.0-203.0-1.0","null","<p></p>","null","","","","","","","","","","","","","","","","","","","","","","",""
"","do_trial","389","1481038","0.0-204.0-0.0","620.8999999761581","","","","","","","","50","0,1,0","3","city","139","probe-21","0.22399678985621868","0.8572772602711372","0.07508301304531206","1","","","","","","","",""
"","html-keyboard-response","390","1482042","0.0-204.0-1.0","null","<p></p>","null","","","","","","","","","","","","","","","","","","","","","","",""
"","do_trial","391","1487047","0.0-205.0-0.0","465.7000000178814","","","","","","","","50","0,0,1","3","city","140","probe-207","0.17196733591887062","0.783122403450907","0.11722390796629775","0","","","","","","","",""
"","html-keyboard-response","392","1488051","0.0-205.0-1.0","null","<p></p>","null","","","","","","","","","","","","","","","","","","","","","","",""
"","do_trial","393","1493335","0.0-206.0-0.0","743.9000000059605","","","","","","","","50","0,1,0","3","city","141","probe-68","0.196017679446216","0.7494363088302503","0.3073620502805733","1","","","","","","","",""
"","html-keyboard-response","394","1494339","0.0-206.0-1.0","null","<p></p>","null","","","","","","","","","","","","","","","","","","","","","","",""
"","do_trial","395","1499538","0.0-207.0-0.0","656","","","","","","","","50","0,1,0","3","city","142","probe-15","0.20048571009519658","0.5679438647798031","0.23170333269976773","1","","","","","","","",""
"","html-keyboard-response","396","1500542","0.0-207.0-1.0","null","<p></p>","null","","","","","","","","","","","","","","","","","","","","","","",""
"","do_trial","397","1506377","0.0-208.0-0.0","1291.699999988079","","","","","","","","50","0,1,0","3","city","143","probe-66","0.2249667524450289","0.5020048967369725","0.30664357633328326","1","","","","","","","",""
"","html-keyboard-response","398","1507381","0.0-208.0-1.0","null","<p></p>","null","","","","","","","","","","","","","","","","","","","","","","",""
"","do_trial","399","1513694","0.0-209.0-0.0","1773.5","","","","","","","","50","1,1,0","3","city","144","probe-151","0.29566908374087564","0.6413319210766354","0.24079094396022846","1","","","","","","","",""
"","html-keyboard-response","400","1514700","0.0-209.0-1.0","null","<p></p>","null","","","","","","","","","","","","","","","","","","","","","","",""
"","do_trial","401","1520136","0.0-210.0-0.0","896","","","","","","","","50","0,0,1","3","city","145","probe-14","0.08972346528372267","0.6504551864361636","0.33527367923576284","0","","","","","","","",""
"","html-keyboard-response","402","1521141","0.0-210.0-1.0","null","<p></p>","null","","","","","","","","","","","","","","","","","","","","","","",""
"","do_trial","403","1526032","0.0-211.0-0.0","347.69999998807907","","","","","","","","50","0,1,0","3","city","146","probe-120","0.06704925028539162","0.6299702322486561","0.27376991465549105","1","","","","","","","",""
"","html-keyboard-response","404","1527038","0.0-211.0-1.0","null","<p></p>","null","","","","","","","","","","","","","","","","","","","","","","",""
"","do_trial","405","1532246","0.0-212.0-0.0","667.5999999940395","","","","","","","","50","0,1,0","3","city","147","probe-145","0.06313455379962082","0.6169113451206917","0.27409346272651763","1","","","","","","","",""
"","html-keyboard-response","406","1533252","0.0-212.0-1.0","null","<p></p>","null","","","","","","","","","","","","","","","","","","","","","","",""
"","do_trial","407","1538469","0.0-213.0-0.0","677.7999999821186","","","","","","","","50","1,1,0","3","city","148","probe-115","0.10789179700700834","0.48798095007964154","0.24330295090739973","1","","","","","","","",""
"","html-keyboard-response","408","1539471","0.0-213.0-1.0","null","<p></p>","null","","","","","","","","","","","","","","","","","","","","","","",""
"","do_trial","409","1545252","0.0-214.0-0.0","1242.199999988079","","","","","","","","50","1,1,0","3","city","149","probe-141","0.1782331014323177","0.6928570366727027","0.22433948565854012","1","","","","","","","",""
"","html-keyboard-response","410","1546255","0.0-214.0-1.0","null","<p></p>","null","","","","","","","","","","","","","","","","","","","","","","",""
"","do_bye","411","1547763","0.0-215.0-0.0","null","","","","","","","","null","","","","","","","","","","","","","","","","",""
"","do_travel","412","1553765","0.0-216.0-0.0","null","","","","","","","","null","","","","","","","","","","","","","","","","",""
"","do_welcome","413","1555270","0.0-216.0-1.0","null","","","","","","","","null","","","","","","","","","","","","","","","","",""
"","do_trial","414","1561318","0.0-217.0-0.0","null","","","","","","","","null","1,1,1","4","forest","150","probe-136","0.1768372578373915","1","0.1962476235694509","","","","","","","","",""
"","html-keyboard-response","415","1562321","0.0-217.0-1.0","null","<p></p>","null","","","","","","","","","","","","","","","","","","","","","","",""
"","do_trial","416","1567205","0.0-218.0-0.0","343.09999999403954","","","","","","","","49","0,1,1","4","forest","151","probe-133","0.10187218197633531","1","0.21366089202595726","0","","","","","","","",""
"","html-keyboard-response","417","1568208","0.0-218.0-1.0","null","<p></p>","null","","","","","","","","","","","","","","","","","","","","","","",""
"","do_trial","418","1573454","0.0-219.0-0.0","703.4000000059605","","","","","","","","51","0,1,0","4","forest","152","probe-172","0.11435546652454415","0.7647230759318795","0.24156103790893801","0","","","","","","","",""
"","html-keyboard-response","419","1574458","0.0-219.0-1.0","null","<p></p>","null","","","","","","","","","","","","","","","","","","","","","","",""
"","do_trial","420","1579330","0.0-220.0-0.0","334.19999998807907","","","","","","","","51","0,1,0","4","forest","153","probe-161","0.05321692733990004","0.5389518351186133","0.25122744180194334","0","","","","","","","",""
"","html-keyboard-response","421","1580333","0.0-220.0-1.0","null","<p></p>","null","","","","","","","","","","","","","","","","","","","","","","",""
"","do_trial","422","1585417","0.0-221.0-0.0","546.7000000178814","","","","","","","","51","0,1,0","4","forest","154","probe-156","0.08255455231010499","0.5643708292136772","0.26675587915932797","0","","","","","","","",""
"","html-keyboard-response","423","1586420","0.0-221.0-1.0","null","<p></p>","null","","","","","","","","","","","","","","","","","","","","","","",""
"","do_trial","424","1591365","0.0-222.0-0.0","403.7999999821186","","","","","","","","50","0,1,0","4","forest","155","probe-171","0.15815726089674384","0.550288828667876","0.2366844779125052","1","","","","","","","",""
"","html-keyboard-response","425","1592369","0.0-222.0-1.0","null","<p></p>","null","","","","","","","","","","","","","","","","","","","","","","",""
"","do_trial","426","1597528","0.0-223.0-0.0","618.9000000059605","","","","","","","","50","0,1,0","4","forest","156","probe-64","0.17188028926698962","0.7329301929604498","0.27646887927988334","1","","","","","","","",""
"","html-keyboard-response","427","1598530","0.0-223.0-1.0","null","<p></p>","null","","","","","","","","","","","","","","","","","","","","","","",""
"","do_trial","428","1603566","0.0-224.0-0.0","493.60000002384186","","","","","","","","50","0,0,0","4","forest","157","probe-228","0.12985692013383116","0.6667170444538445","0.23769514466066816","0","","","","","","","",""
"","html-keyboard-response","429","1604568","0.0-224.0-1.0","null","<p></p>","null","","","","","","","","","","","","","","","","","","","","","","",""
"","do_trial","430","1609553","0.0-225.0-0.0","447.5","","","","","","","","50","0,0,0","4","forest","158","probe-128","0.15236228530686888","0.627756312323912","0.3381008689273924","0","","","","","","","",""
"","html-keyboard-response","431","1610559","0.0-225.0-1.0","null","<p></p>","null","","","","","","","","","","","","","","","","","","","","","","",""
"","do_trial","432","1615672","0.0-226.0-0.0","575.6999999880791","","","","","","","","49","0,0,0","4","forest","159","probe-87","0.13586847053562986","0.5925594844682156","0.260714476777721","0","","","","","","","",""
"","html-keyboard-response","433","1616676","0.0-226.0-1.0","null","<p></p>","null","","","","","","","","","","","","","","","","","","","","","","",""
"","do_trial","434","1621643","0.0-227.0-0.0","425.69999998807907","","","","","","","","49","0,1,0","4","forest","160","probe-70","0.05079939176687567","0.776700190695653","0.3402998305328734","0","","","","","","","",""
"","html-keyboard-response","435","1622647","0.0-227.0-1.0","null","<p></p>","null","","","","","","","","","","","","","","","","","","","","","","",""
"","do_trial","436","1627517","0.0-228.0-0.0","328","","","","","","","","49","1,0,1","4","forest","161","probe-39","0.17962661382791598","0.7834310629841049","0.3317948587508333","1","","","","","","","",""
"","html-keyboard-response","437","1628521","0.0-228.0-1.0","null","<p></p>","null","","","","","","","","","","","","","","","","","","","","","","",""
"","do_trial","438","1633442","0.0-229.0-0.0","380.10000002384186","","","","","","","","49","0,0,1","4","forest","162","probe-65","0.08233554963405716","0.4368144124895117","0.45159818340508556","0","","","","","","","",""
"","html-keyboard-response","439","1634446","0.0-229.0-1.0","null","<p></p>","null","","","","","","","","","","","","","","","","","","","","","","",""
"","do_trial","440","1639372","0.0-230.0-0.0","384.09999999403954","","","","","","","","49","0,0,0","4","forest","163","probe-225","0.11444245296854559","0.37043855360634653","0.5799744616610102","0","","","","","","","",""
"","html-keyboard-response","441","1640375","0.0-230.0-1.0","null","<p></p>","null","","","","","","","","","","","","","","","","","","","","","","",""
"","do_trial","442","1645346","0.0-231.0-0.0","428.69999998807907","","","","","","","","50","0,0,1","4","forest","164","probe-189","0.18686431122522074","0.37588557849825677","0.5811575385818738","0","","","","","","","",""
"","html-keyboard-response","443","1646351","0.0-231.0-1.0","null","<p></p>","null","","","","","","","","","","","","","","","","","","","","","","",""
"","do_trial","444","1651433","0.0-232.0-0.0","542.2000000178814","","","","","","","","51","0,1,0","4","forest","165","probe-50","0.07311881230477063","0.2501070296906936","0.6780253371109689","0","","","","","","","",""
"","html-keyboard-response","445","1652437","0.0-232.0-1.0","null","<p></p>","null","","","","","","","","","","","","","","","","","","","","","","",""
"","do_trial","446","1657495","0.0-233.0-0.0","518.9000000059605","","","","","","","","50","0,0,1","4","forest","166","probe-167","0.12265048914609449","0.10659417834537518","0.5312520030677458","0","","","","","","","",""
"","html-keyboard-response","447","1658498","0.0-233.0-1.0","null","<p></p>","null","","","","","","","","","","","","","","","","","","","","","","",""
"","do_trial","448","1663632","0.0-234.0-0.0","593.3999999761581","","","","","","","","50","0,0,1","4","forest","167","probe-208","0.11370533519592702","0.09128544856652589","0.6393633519709401","0","","","","","","","",""
"","html-keyboard-response","449","1664636","0.0-234.0-1.0","null","<p></p>","null","","","","","","","","","","","","","","","","","","","","","","",""
"","do_trial","450","1670059","0.0-235.0-0.0","880","","","","","","","","50","0,1,1","4","forest","168","probe-53","0.11843622377894894","0.2684818030250295","0.6655574289620074","1","","","","","","","",""
"","html-keyboard-response","451","1671061","0.0-235.0-1.0","null","<p></p>","null","","","","","","","","","","","","","","","","","","","","","","",""
"","do_trial","452","1676060","0.0-236.0-0.0","455.7999999821186","","","","","","","","50","0,0,1","4","forest","169","probe-191","0.25485929893303416","0.226138348808164","0.6624960959418132","0","","","","","","","",""
"","html-keyboard-response","453","1677063","0.0-236.0-1.0","null","<p></p>","null","","","","","","","","","","","","","","","","","","","","","","",""
"","do_trial","454","1682056","0.0-237.0-0.0","450.5","","","","","","","","50","1,1,0","4","forest","170","probe-177","0.2926234171736993","0.3133662142516556","0.639611424047011","1","","","","","","","",""
"","html-keyboard-response","455","1683058","0.0-237.0-1.0","null","<p></p>","null","","","","","","","","","","","","","","","","","","","","","","",""
"","do_trial","456","1688488","0.0-238.0-0.0","825.9000000059605","","","","","","","","50","0,0,1","4","forest","171","probe-190","0.10474653775331891","0.3458310250064307","0.7371224568089126","0","","","","","","","",""
"","html-keyboard-response","457","1689492","0.0-238.0-1.0","null","<p></p>","null","","","","","","","","","","","","","","","","","","","","","","",""
"","do_trial","458","1694343","0.0-239.0-0.0","310.19999998807907","","","","","","","","49","0,1,1","4","forest","172","probe-77","0.05239554101645526","0.41756262697636476","0.504809250299547","0","","","","","","","",""
"","html-keyboard-response","459","1695348","0.0-239.0-1.0","null","<p></p>","null","","","","","","","","","","","","","","","","","","","","","","",""
"","do_trial","460","1700558","0.0-240.0-0.0","673.0999999940395","","","","","","","","49","0,1,0","4","forest","173","probe-158","0.09709311767658982","0.3241019733691986","0.5269976588510531","0","","","","","","","",""
"","html-keyboard-response","461","1701562","0.0-240.0-1.0","null","<p></p>","null","","","","","","","","","","","","","","","","","","","","","","",""
"","do_trial","462","1706549","0.0-241.0-0.0","444.30000001192093","","","","","","","","50","0,0,1","4","forest","174","probe-201","0.1138486822921371","0.27762152544510343","0.7128402513318044","0","","","","","","","",""
"","html-keyboard-response","463","1707556","0.0-241.0-1.0","null","<p></p>","null","","","","","","","","","","","","","","","","","","","","","","",""
"","do_trial","464","1712801","0.0-242.0-0.0","703","","","","","","","","49","0,0,0","4","forest","175","probe-20","0.13423483423987617","0.19825191747755233","0.5716246254284449","0","","","","","","","",""
"","html-keyboard-response","465","1713808","0.0-242.0-1.0","null","<p></p>","null","","","","","","","","","","","","","","","","","","","","","","",""
"","do_trial","466","1718744","0.0-243.0-0.0","394.2000000178814","","","","","","","","50","0,0,1","4","forest","176","probe-185","0.16740867337911944","0.14603933140924144","0.62951900879025","0","","","","","","","",""
"","html-keyboard-response","467","1719748","0.0-243.0-1.0","null","<p></p>","null","","","","","","","","","","","","","","","","","","","","","","",""
"","do_trial","468","1724702","0.0-244.0-0.0","414.19999998807907","","","","","","","","51","0,0,1","4","forest","177","probe-98","0.0737090818232181","0.09249700886497501","0.6659343330615427","1","","","","","","","",""
"","html-keyboard-response","469","1725706","0.0-244.0-1.0","null","<p></p>","null","","","","","","","","","","","","","","","","","","","","","","",""
"","do_trial","470","1730582","0.0-245.0-0.0","337","","","","","","","","51","0,0,0","4","forest","178","probe-117","0.22135702925982167","0.13537563971603414","0.658014809459564","0","","","","","","","",""
"","html-keyboard-response","471","1731586","0.0-245.0-1.0","null","<p></p>","null","","","","","","","","","","","","","","","","","","","","","","",""
