"success","trial_type","trial_index","time_elapsed","internal_node_id","interactions","blur_events","focus_events","fullscreenenter_events","fullscreenexit_events","rt","stimulus","key_press","subject_id","participant_id","age","gender","prompt","response","choice_outcomes","context_n","context_img_id","trial_n","probe_img_id","pR_red","pR_white","pR_black","outcome","contextArray_ind","validImageProbes","invalidImageProbes","pRew_Red","pRew_White","pRew_Black","availableForMemProbe","choice_blocks"
"true","fullscreen","0","2871","0.0-0.0","""event"",""trial"",""time""
""fullscreenenter"",""0"",""1936""
","
","
","""event"",""trial"",""time""
""fullscreenenter"",""0"",""1936""
","
","","","","","","","","","","","","","","","","","","","","","","","","","",""
"","pavlovia","1","2877","0.0-1.0","""event"",""trial"",""time""
""fullscreenenter"",""0"",""1936""
","
","
","""event"",""trial"",""time""
""fullscreenenter"",""0"",""1936""
","
","","","","","","","","","","","","","","","","","","","","","","","","","",""
"","instruc1","2","48022","0.0-2.0","""event"",""trial"",""time""
""fullscreenenter"",""0"",""1936""
","
","
","""event"",""trial"",""time""
""fullscreenenter"",""0"",""1936""
","
","null","run_exp/static/audio/clip_1_welcome.m4a","null","1144","1249","16","Female","<div class='center'><p>Welcome! This is the first part of the study. It will last ~30 minutes. In part 1 and part 2 of the study, you are the head captain of a pirate ship traveling around the world to different islands. You will play a few different games throughout these two parts. Here is an overview of them:</p><br><p>Part 1 (today)</p><p>1. Instructions, practice game, and quiz</p><p>2. Pick a pirate game on 6 different islands</p><br><p>Part 2 (tomorrow)</p><p>3. Pick a pirate game and memory game</p><p>4. Where did you see this ship? </p></div>","","","","","","","","","","","","","","","","","",""
"","html-keyboard-response","3","48861","0.0-3.0","""event"",""trial"",""time""
""fullscreenenter"",""0"",""1936""
","
","
","""event"",""trial"",""time""
""fullscreenenter"",""0"",""1936""
","
","837.3999999910593","<div class='center'><p>Welcome! This is the first part of the study. It will last ~30 minutes. In part 1 and part 2 of the study, you are the head captain of a pirate ship traveling around the world to different islands. You will play a few different games throughout these two parts. Here is an overview of them:</p><br><p>Part 1 (today)</p><p>1. Instructions, practice game, and quiz</p><p>2. Pick a pirate game on 6 different islands</p><br><p>Part 2 (tomorrow)</p><p>3. Pick a pirate game and memory game</p><p>4. Where did you see this ship? </p><p><b>[Press the space bar to continue]</b></p></div>","32","","","","","","","","","","","","","","","","","","","","","","",""
"","instruc2","4","54187","0.0-4.0","""event"",""trial"",""time""
""fullscreenenter"",""0"",""1936""
","
","
","""event"",""trial"",""time""
""fullscreenenter"",""0"",""1936""
","
","null","run_exp/static/audio/clip_2_different_places.m4a","null","","","","","<div class='center'><p>Today, you’ll visit these 6 islands on your journey. You'll be able to see these islands from your ship.</p><p><img src='run_exp/static/images/contexts/all_contexts.png' height='500'></p></div>","","","","","","","","","","","","","","","","","",""
"","html-keyboard-response","5","55553","0.0-5.0","""event"",""trial"",""time""
""fullscreenenter"",""0"",""1936""
","
","
","""event"",""trial"",""time""
""fullscreenenter"",""0"",""1936""
","
","1365","<div class='center'><p>Today, you’ll visit these 6 islands on your journey. You'll be able to see these islands from your ship.</p><p><img src='run_exp/static/images/contexts/all_contexts.png' height='500'></p><p><b>[Press the space bar to continue]</b></p></div>","32","","","","","","","","","","","","","","","","","","","","","","",""
"","instruc3","6","65259","0.0-6.0","""event"",""trial"",""time""
""fullscreenenter"",""0"",""1936""
","
","
","""event"",""trial"",""time""
""fullscreenenter"",""0"",""1936""
","
","null","run_exp/static/audio/clip_3_goal_of_game_1.m4a","null","","","","","<div class='center'><p> The pirates on your ship will rob other ships as they leave the island.</p> These ships have just sold their goods to the islanders, so they will be filled with lots and lots of gold.</p><p><img src='run_exp/static/images/tutorial/ship_center.png' height='400'></p></div>","","","","","","","","","","","","","","","","","",""
"","html-keyboard-response","7","68390","0.0-7.0","""event"",""trial"",""time""
""fullscreenenter"",""0"",""1936""
","
","
","""event"",""trial"",""time""
""fullscreenenter"",""0"",""1936""
","
","3129.5","<div class='center'><p> The pirates on your ship will rob other ships as they leave the island.</p> These ships have just sold their goods to the islanders, so they will be filled with lots and lots of gold.</p><p><img src='run_exp/static/images/tutorial/ship_center.png' height='400'></p><p><b>[Press the space bar to continue]</b></p></div>","32","","","","","","","","","","","","","","","","","","","","","","",""
"","instruc4","8","96427","0.0-8.0","""event"",""trial"",""time""
""fullscreenenter"",""0"",""1936""
","
","
","""event"",""trial"",""time""
""fullscreenenter"",""0"",""1936""
","
","null","run_exp/static/audio/clip_4_goal_of_game_2.m4a","null","","","","","<div class='center'><p>As the head captain, you do not have to rob any ships yourself. Another pirate will be doing the robbing for you. First, you will choose a pirate to rob the next ship.</p><p><img src='run_exp/static/images/tutorial/pirates_all_crop.png' height='200'></p><p>Then, you'll see if the pirate successfully robbed the ship of their gold. If they were successful, then you'll get a stack of gold coins like this:</p><p><img src='run_exp/static/images/tutorial/reward.png' height='150'></p><p> If they were <b>not</b> successful, then you'll get no gold coins, and you'll see a big red x like this: </p><p><img src='run_exp/static/images/tutorial/reward_no.png' height='150'></p><p> How much bonus money you make is based on how many gold coins you collect.</p><div>","","","","","","","","","","","","","","","","","",""
"","html-keyboard-response","9","98270","0.0-9.0","""event"",""trial"",""time""
""fullscreenenter"",""0"",""1936""
","
","
","""event"",""trial"",""time""
""fullscreenenter"",""0"",""1936""
","
","1841.800000011921","<div class='center'><p>As the head captain, you do not have to rob any ships yourself. Another pirate will be doing the robbing for you. First, you will choose a pirate to rob the next ship.</p><p><img src='run_exp/static/images/tutorial/pirates_all_crop.png' height='200'></p><p>Then, you'll see if the pirate successfully robbed the ship of their gold. If they were successful, then you'll get a stack of gold coins like this:</p><p><img src='run_exp/static/images/tutorial/reward.png' height='150'></p><p> If they were <b>not</b> successful, then you'll get no gold coins, and you'll see a big red x like this: </p><p><img src='run_exp/static/images/tutorial/reward_no.png' height='150'></p><p> How much bonus money you make is based on how many gold coins you collect.</p<p><b>[Press the space bar to continue]</b></p></div>","32","","","","","","","","","","","","","","","","","","","","","","",""
"","instruc5","10","119510","0.0-10.0","""event"",""trial"",""time""
""fullscreenenter"",""0"",""1936""
","
","
","""event"",""trial"",""time""
""fullscreenenter"",""0"",""1936""
","
","21237.89999999106","run_exp/static/audio/clip_5_probabilistic.m4a","49","","","","","<div class='center'><p>Even the most skilled pirate can not rob EVERY ship.</p><p> Some ships will have very strong protections against pirate attacks.</p><p> Blue beard, here, is very, very good at robbing ships, but he won't be successful every time he tries to rob one.</p><p> You can press the <b>‘1’</b> key on the keyboard to choose him.</p><p> Try choosing him 10 times to see how often he succeeds at robbing a ship. </p><p><img src='run_exp/static/images/tutorial/blue.png' height='500'></p></div>","","","","","","","","","","","","","","","","","",""
"","html-keyboard-response","11","121012","0.0-11.0","""event"",""trial"",""time""
""fullscreenenter"",""0"",""1936""
","
","
","""event"",""trial"",""time""
""fullscreenenter"",""0"",""1936""
","
","null","<div class='center'><p><img src='run_exp/static/images/tutorial/blue_win.png' height='500'></p></div>","null","","","","","","","","","","","","","","","","","","","","","","",""
"","html-keyboard-response","12","122134","0.0-12.0","""event"",""trial"",""time""
""fullscreenenter"",""0"",""1936""
","
","
","""event"",""trial"",""time""
""fullscreenenter"",""0"",""1936""
","
","1121.2999999970198","<div class='center'><img src='run_exp/static/images/tutorial/blue.png' height='500'></p></div>","49","","","","","","","","","","","","","","","","","","","","","","",""
"","html-keyboard-response","13","123636","0.0-13.0","""event"",""trial"",""time""
""fullscreenenter"",""0"",""1936""
","
","
","""event"",""trial"",""time""
""fullscreenenter"",""0"",""1936""
","
","null","<div class='center'><p><img src='run_exp/static/images/tutorial/blue_win.png' height='500'></p></div>","null","","","","","","","","","","","","","","","","","","","","","","",""
"","html-keyboard-response","14","124168","0.0-14.0","""event"",""trial"",""time""
""fullscreenenter"",""0"",""1936""
","
","
","""event"",""trial"",""time""
""fullscreenenter"",""0"",""1936""
","
","531.7999999970198","<div class='center'><img src='run_exp/static/images/tutorial/blue.png' height='500'></p></div>","49","","","","","","","","","","","","","","","","","","","","","","",""
"","html-keyboard-response","15","125670","0.0-15.0","""event"",""trial"",""time""
""fullscreenenter"",""0"",""1936""
","
","
","""event"",""trial"",""time""
""fullscreenenter"",""0"",""1936""
","
","null","<div class='center'><p><img src='run_exp/static/images/tutorial/blue_win.png' height='500'></p></div>","null","","","","","","","","","","","","","","","","","","","","","","",""
"","html-keyboard-response","16","126023","0.0-16.0","""event"",""trial"",""time""
""fullscreenenter"",""0"",""1936""
","
","
","""event"",""trial"",""time""
""fullscreenenter"",""0"",""1936""
","
","352.20000000298023","<div class='center'><img src='run_exp/static/images/tutorial/blue.png' height='500'></p></div>","49","","","","","","","","","","","","","","","","","","","","","","",""
"","html-keyboard-response","17","127525","0.0-17.0","""event"",""trial"",""time""
""fullscreenenter"",""0"",""1936""
","
","
","""event"",""trial"",""time""
""fullscreenenter"",""0"",""1936""
","
","null","<div class='center'><p><img src='run_exp/static/images/tutorial/blue_no_win.png' height='500'></p></div>","null","","","","","","","","","","","","","","","","","","","","","","",""
"","html-keyboard-response","18","127536","0.0-18.0","""event"",""trial"",""time""
""fullscreenenter"",""0"",""1936""
","
","
","""event"",""trial"",""time""
""fullscreenenter"",""0"",""1936""
","
","10.400000005960464","<div class='center'><img src='run_exp/static/images/tutorial/blue.png' height='500'></p></div>","49","","","","","","","","","","","","","","","","","","","","","","",""
"","html-keyboard-response","19","129037","0.0-19.0","""event"",""trial"",""time""
""fullscreenenter"",""0"",""1936""
","
","
","""event"",""trial"",""time""
""fullscreenenter"",""0"",""1936""
","
","null","<div class='center'><p><img src='run_exp/static/images/tutorial/blue_win.png' height='500'></p></div>","null","","","","","","","","","","","","","","","","","","","","","","",""
"","html-keyboard-response","20","129052","0.0-20.0","""event"",""trial"",""time""
""fullscreenenter"",""0"",""1936""
","
","
","""event"",""trial"",""time""
""fullscreenenter"",""0"",""1936""
","
","13.799999997019768","<div class='center'><img src='run_exp/static/images/tutorial/blue.png' height='500'></p></div>","49","","","","","","","","","","","","","","","","","","","","","","",""
"","html-keyboard-response","21","130554","0.0-21.0","""event"",""trial"",""time""
""fullscreenenter"",""0"",""1936""
","
","
","""event"",""trial"",""time""
""fullscreenenter"",""0"",""1936""
","
","null","<div class='center'><p><img src='run_exp/static/images/tutorial/blue_win.png' height='500'></p></div>","null","","","","","","","","","","","","","","","","","","","","","","",""
"","html-keyboard-response","22","130918","0.0-22.0","""event"",""trial"",""time""
""fullscreenenter"",""0"",""1936""
","
","
","""event"",""trial"",""time""
""fullscreenenter"",""0"",""1936""
","
","363.59999999403954","<div class='center'><img src='run_exp/static/images/tutorial/blue.png' height='500'></p></div>","49","","","","","","","","","","","","","","","","","","","","","","",""
"","html-keyboard-response","23","132420","0.0-23.0","""event"",""trial"",""time""
""fullscreenenter"",""0"",""1936""
","
","
","""event"",""trial"",""time""
""fullscreenenter"",""0"",""1936""
","
","null","<div class='center'><p><img src='run_exp/static/images/tutorial/blue_win.png' height='500'></p></div>","null","","","","","","","","","","","","","","","","","","","","","","",""
"","html-keyboard-response","24","133045","0.0-24.0","""event"",""trial"",""time""
""fullscreenenter"",""0"",""1936""
","
","
","""event"",""trial"",""time""
""fullscreenenter"",""0"",""1936""
","
","624","<div class='center'><img src='run_exp/static/images/tutorial/blue.png' height='500'></p></div>","49","","","","","","","","","","","","","","","","","","","","","","",""
"","html-keyboard-response","25","134547","0.0-25.0","""event"",""trial"",""time""
""fullscreenenter"",""0"",""1936""
","
","
","""event"",""trial"",""time""
""fullscreenenter"",""0"",""1936""
","
","null","<div class='center'><p><img src='run_exp/static/images/tutorial/blue_no_win.png' height='500'></p></div>","null","","","","","","","","","","","","","","","","","","","","","","",""
"","html-keyboard-response","26","134956","0.0-26.0","""event"",""trial"",""time""
""fullscreenenter"",""0"",""1936""
","
","
","""event"",""trial"",""time""
""fullscreenenter"",""0"",""1936""
","
","408.20000000298023","<div class='center'><img src='run_exp/static/images/tutorial/blue.png' height='500'></p></div>","49","","","","","","","","","","","","","","","","","","","","","","",""
"","html-keyboard-response","27","136458","0.0-27.0","""event"",""trial"",""time""
""fullscreenenter"",""0"",""1936""
","
","
","""event"",""trial"",""time""
""fullscreenenter"",""0"",""1936""
","
","null","<div class='center'><p><img src='run_exp/static/images/tutorial/blue_win.png' height='500'></p></div>","null","","","","","","","","","","","","","","","","","","","","","","",""
"","html-keyboard-response","28","136856","0.0-28.0","""event"",""trial"",""time""
""fullscreenenter"",""0"",""1936""
","
","
","""event"",""trial"",""time""
""fullscreenenter"",""0"",""1936""
","
","397.29999999701977","<div class='center'><img src='run_exp/static/images/tutorial/blue.png' height='500'></p></div>","49","","","","","","","","","","","","","","","","","","","","","","",""
"","html-keyboard-response","29","138357","0.0-29.0","""event"",""trial"",""time""
""fullscreenenter"",""0"",""1936""
","
","
","""event"",""trial"",""time""
""fullscreenenter"",""0"",""1936""
","
","null","<div class='center'><p><img src='run_exp/static/images/tutorial/blue_win.png' height='500'></p></div>","null","","","","","","","","","","","","","","","","","","","","","","",""
"","instruc6","30","143782","0.0-30.0","""event"",""trial"",""time""
""fullscreenenter"",""0"",""1936""
","
","
","""event"",""trial"",""time""
""fullscreenenter"",""0"",""1936""
","
","null","run_exp/static/audio/clip_6_blue_beard_outcome.m4a","null","","","","","<div class='center'><p> See, he succeeded in robbing the ships most of the time but not every time. </p></div>","","","","","","","","","","","","","","","","","",""
"","html-keyboard-response","31","145097","0.0-31.0","""event"",""trial"",""time""
""fullscreenenter"",""0"",""1936""
","
","
","""event"",""trial"",""time""
""fullscreenenter"",""0"",""1936""
","
","1314.5999999940395","<div class='center'><p> See, he succeeded in robbing the ships most of the time but not every time. </p><p><b>[Press the space bar to continue]</b></p></div>","32","","","","","","","","","","","","","","","","","","","","","","",""
"","audio-keyboard-response","32","153184","0.0-32.0","""event"",""trial"",""time""
""fullscreenenter"",""0"",""1936""
","
","
","""event"",""trial"",""time""
""fullscreenenter"",""0"",""1936""
","
","8086.20000000298","run_exp/static/audio/clip_7_pick_pirate.m4a","49","","","","","","","","","","","","","","","","","","","","","","",""
"","audio-keyboard-response","33","155922","0.0-33.0-0.0","""event"",""trial"",""time""
""fullscreenenter"",""0"",""1936""
","
","
","""event"",""trial"",""time""
""fullscreenenter"",""0"",""1936""
","
","2735.199999988079","run_exp/static/audio/clip_8_chosen_pirate_win.m4a","32","","","","","","","","","","","","","","","","","","","","","","",""
"","audio-keyboard-response","34","157203","0.0-33.0-1.0","""event"",""trial"",""time""
""fullscreenenter"",""0"",""1936""
","
","
","""event"",""trial"",""time""
""fullscreenenter"",""0"",""1936""
","
","1280.7999999970198","run_exp/static/audio/clip_9_pick_a_pirate_again.m4a","50","","","","","","","","","","","","","","","","","","","","","","",""
"","audio-keyboard-response","35","158263","0.0-34.0-0.0","""event"",""trial"",""time""
""fullscreenenter"",""0"",""1936""
","
","
","""event"",""trial"",""time""
""fullscreenenter"",""0"",""1936""
","
","1058.4000000059605","run_exp/static/audio/clip_10_chosen_pirate_loss.m4a","32","","","","","","","","","","","","","","","","","","","","","","",""
"","instruc9","36","163772","0.0-35.0-0.0","""event"",""trial"",""time""
""fullscreenenter"",""0"",""1936""
","
","
","""event"",""trial"",""time""
""fullscreenenter"",""0"",""1936""
","
","null","run_exp/static/audio/clip_11_time_out.m4a","null","","","","","<div class='center'><p>If you don’t make your choice fast enough, you’ll have to wait a few seconds before you can make another one. </p><p><img src='run_exp/static/images/miscellaneous/hurry_up.png' height='500'></p></div>","","","","","","","","","","","","","","","","","",""
"","html-keyboard-response","37","164707","0.0-35.0-1.0","""event"",""trial"",""time""
""fullscreenenter"",""0"",""1936""
","
","
","""event"",""trial"",""time""
""fullscreenenter"",""0"",""1936""
","
","933.7999999970198","<div class='center'><p>If you don’t make your choice fast enough, you’ll have to wait a few seconds before you can make another one. </p><p><img src='run_exp/static/images/miscellaneous/hurry_up.png' height='500'></p><p><b>[Press the space bar to continue]</b></p></div>","32","","","","","","","","","","","","","","","","","","","","","","",""
"","instruc10","38","203836","0.0-35.0-2.0","""event"",""trial"",""time""
""fullscreenenter"",""0"",""1936""
","
","
","""event"",""trial"",""time""
""fullscreenenter"",""0"",""1936""
","
","null","run_exp/static/audio/clip_12_probe.m4a","null","","","","","<div class='center'><p>Once you've chosen a pirate, you’ll be shown the ship they are robbing. You will never rob the same ship twice. Ships can be told apart from one another by the image on them. These are the goods that they sell. See, this ship has a travel mug on it. </p><p> You’ll have to remember which island you saw each ship on. You will win more gold coins and hence more bonus money if you remember correctly! To help you remember, you can imagine a story. For example, here, you could imagine a mug full of water in the desert. Or, as another example, if on the forest island, your pirate robbed a ship with an apple on it, you could imagine an apple falling from a tree in the forest. </p><p><img src='run_exp/static/images/tutorial/example_probe.png' height='500'></p></div>","","","","","","","","","","","","","","","","","",""
"","html-keyboard-response","39","205431","0.0-35.0-3.0","""event"",""trial"",""time""
""fullscreenenter"",""0"",""1936""
","
","
","""event"",""trial"",""time""
""fullscreenenter"",""0"",""1936""
","
","1593.7000000029802","<div class='center'><p>Once you've chosen a pirate, you’ll be shown the ship they are robbing. You will never rob the same ship twice. Ships can be told apart from one another by the image on them. These are the goods that they sell. See, this ship has a travel mug on it. </p><p> You’ll have to remember which island you saw each ship on. You will win more gold coins and hence more bonus money if you remember correctly! To help you remember, you can imagine a story. For example, here, you could imagine a mug full of water in the desert. Or, as another example, if on the forest island, your pirate robbed a ship with an apple on it, you could imagine an apple falling from a tree in the forest. </p><p><img src='run_exp/static/images/tutorial/example_probe.png' height='500'></p><p><b>[Press the space bar to continue]</b></p></div>","32","","","","","","","","","","","","","","","","","","","","","","",""
"","instruc11","40","221841","0.0-35.0-4.0","""event"",""trial"",""time""
""fullscreenenter"",""0"",""1936""
","
","
","""event"",""trial"",""time""
""fullscreenenter"",""0"",""1936""
","
","null","run_exp/static/audio/clip_13_changepoint.m4a","null","","","","","<div class='center'><p>How successful a pirate is at robbing ships will depend on the island you’re on.</p><p> A pirate may have visited this island many times before and gained a lot of practice robbing ships there.</p><p>So, they’re more likely to be successful than a pirate who has never visited the island before.</p></div>","","","","","","","","","","","","","","","","","",""
"","html-keyboard-response","41","228636","0.0-35.0-5.0","""event"",""trial"",""time""
""fullscreenenter"",""0"",""1936""
","
","
","""event"",""trial"",""time""
""fullscreenenter"",""0"",""1936""
","
","6793.20000000298","<div class='center'><p>How successful a pirate is at robbing ships will depend on the island you’re on.</p><p> A pirate may have visited this island many times before and gained a lot of practice robbing ships there.</p><p>So, they’re more likely to be successful than a pirate who has never visited the island before.</p><p><b>[Press the space bar to continue]</b></p></div>","32","","","","","","","","","","","","","","","","","","","","","","",""
"","instruc12","42","269735","0.0-35.0-6.0","""event"",""trial"",""time""
""fullscreenenter"",""0"",""1936""
","
","
","""event"",""trial"",""time""
""fullscreenenter"",""0"",""1936""
","
","null","run_exp/static/audio/clip_14_drift.m4a","null","","","","","<div class='center'><p>How successful a pirate is at robbing ships can also change over the time spent on the island. </p><p> Ships may hear from islanders about the pirates coming and will improve their protections against the attack. This may make it harder to rob them.</p><p> Ships may also become lazy and weaken the strength of their protections. This may make it easier to rob them.</p><br><p>Things are always changing on the high seas! So, try your best to pay attention!</p><p><img src='run_exp/static/images/tutorial/contingency.png' height='500'></p></div>","","","","","","","","","","","","","","","","","",""
"","html-keyboard-response","43","290143","0.0-35.0-7.0","""event"",""trial"",""time""
""fullscreenenter"",""0"",""1936""
","
","
","""event"",""trial"",""time""
""fullscreenenter"",""0"",""1936""
","
","20405.5","<div class='center'><p>How successful a pirate is at robbing ships can also change over the time spent on the island. </p><p> Ships may hear from islanders about the pirates coming and will improve their protections against the attack. This may make it harder to rob them.</p><p> Ships may also become lazy and weaken the strength of their protections. This may make it easier to rob them.</p><br><p>Things are always changing on the high seas! So, try your best to pay attention!</p><p><img src='run_exp/static/images/tutorial/contingency.png' height='500'></p><p><b>[Press the space bar to continue]</b></p></div>","32","","","","","","","","","","","","","","","","","","","","","","",""
"","instruc13","44","325378","0.0-35.0-8.0","""event"",""trial"",""time""
""fullscreenenter"",""0"",""1936""
","
","
","""event"",""trial"",""time""
""fullscreenenter"",""0"",""1936""
","
","null","run_exp/static/audio/clip_15_summary.m4a","null","","","","","<div class='center'><p>Let's go over the instructions quickly again. You have two important things to do: </p><b><p> 1. Pick the pirate who is the best at robbing ships on the current island. </p></b><b><p> 2. Remember on which island a ship was robbed.</p> </b><p>The amount of bonus money you can win depends on both.</p><p><br><p>Let’s try a practice game. The game will start by showing you the pirates. First, pick a pirate using the <b> 1, 2, 3 </b> keys on your keyboard. When you are shown a ship, try to remember which island you’re on by making up a story.</p><p>This is just a practice game, so you’re not playing for money. </p><p> Good luck! This game will be very difficult but try your best!</p></div>","","","","","","","","","","","","","","","","","",""
"","html-keyboard-response","45","326257","0.0-35.0-9.0","""event"",""trial"",""time""
""fullscreenenter"",""0"",""1936""
","
","
","""event"",""trial"",""time""
""fullscreenenter"",""0"",""1936""
","
","877.4000000059605","<div class='center'><p>Let's go over the instructions quickly again. You have two important things to do: </p><b><p> 1. Pick the pirate who is the best at robbing ships on the current island. </p></b><b><p> 2. Remember on which island a ship was robbed.</p> </b><p>The amount of bonus money you can win depends on both.</p><p><br><p>Let’s try a practice game. The game will start by showing you the pirates. First, pick a pirate using the <b> 1, 2, 3 </b> keys on your keyboard. When you are shown a ship, try to remember which island you’re on by making up a story.</p><p>This is just a practice game, so you’re not playing for money. </p><p> Good luck! This game will be very difficult but try your best!</p><p><b>[Press the space bar to continue]</b></p></div>","32","","","","","","","","","","","","","","","","","","","","","","",""
"","do_welcome","46","330267","0.0-35.0-10.0","""event"",""trial"",""time""
""fullscreenenter"",""0"",""1936""
","
","
","""event"",""trial"",""time""
""fullscreenenter"",""0"",""1936""
","
","null","","","","","","","","null","","","","","","","","","","","","","","","","",""
"","do_trial","47","336436","0.0-35.0-11.0","""event"",""trial"",""time""
""fullscreenenter"",""0"",""1936""
","
","
","""event"",""trial"",""time""
""fullscreenenter"",""0"",""1936""
","
","1663.3999999910593","","","","","","","","49","1,0,0","","","","","","","","","","","","","","","",""
"","html-keyboard-response","48","337439","0.0-36.0-0.0","""event"",""trial"",""time""
""fullscreenenter"",""0"",""1936""
","
","
","""event"",""trial"",""time""
""fullscreenenter"",""0"",""1936""
","
","null","<p></p>","null","","","","","","","","","","","","","","","","","","","","","","",""
"","do_trial","49","343180","0.0-36.0-1.0","""event"",""trial"",""time""
""fullscreenenter"",""0"",""1936""
","
","
","""event"",""trial"",""time""
""fullscreenenter"",""0"",""1936""
","
","1234.8999999910593","","","","","","","","49","1,1,0","","","","","","","","","","","","","","","",""
"","html-keyboard-response","50","344182","0.0-37.0-0.0","""event"",""trial"",""time""
""fullscreenenter"",""0"",""1936""
","
","
","""event"",""trial"",""time""
""fullscreenenter"",""0"",""1936""
","
","null","<p></p>","null","","","","","","","","","","","","","","","","","","","","","","",""
"","do_trial","51","349979","0.0-37.0-1.0","""event"",""trial"",""time""
""fullscreenenter"",""0"",""1936""
","
","
","""event"",""trial"",""time""
""fullscreenenter"",""0"",""1936""
","
","1287.5","","","","","","","","49","1,0,1","","","","","","","","","","","","","","","",""
"","html-keyboard-response","52","350981","0.0-38.0-0.0","""event"",""trial"",""time""
""fullscreenenter"",""0"",""1936""
","
","
","""event"",""trial"",""time""
""fullscreenenter"",""0"",""1936""
","
","null","<p></p>","null","","","","","","","","","","","","","","","","","","","","","","",""
"","do_trial","53","356912","0.0-38.0-1.0","""event"",""trial"",""time""
""fullscreenenter"",""0"",""1936""
","
","
","""event"",""trial"",""time""
""fullscreenenter"",""0"",""1936""
","
","1422.2999999970198","","","","","","","","49","0,1,0","","","","","","","","","","","","","","","",""
"","html-keyboard-response","54","357914","0.0-39.0-0.0","""event"",""trial"",""time""
""fullscreenenter"",""0"",""1936""
","
","
","""event"",""trial"",""time""
""fullscreenenter"",""0"",""1936""
","
","null","<p></p>","null","","","","","","","","","","","","","","","","","","","","","","",""
"","do_trial","55","363006","0.0-39.0-1.0","""event"",""trial"",""time""
""fullscreenenter"",""0"",""1936""
","
","
","""event"",""trial"",""time""
""fullscreenenter"",""0"",""1936""
","
","583.2999999970198","","","","","","","","49","1,0,0","","","","","","","","","","","","","","","",""
"","do_bye","56","364513","0.0-40.0-0.0","""event"",""trial"",""time""
""fullscreenenter"",""0"",""1936""
","
","
","""event"",""trial"",""time""
""fullscreenenter"",""0"",""1936""
","
","null","","","","","","","","null","","","","","","","","","","","","","","","","",""
"","do_travel","57","373518","0.0-40.0-1.0","""event"",""trial"",""time""
""fullscreenenter"",""0"",""1936""
","
","
","""event"",""trial"",""time""
""fullscreenenter"",""0"",""1936""
","
","null","","","","","","","","null","","","","","","","","","","","","","","","","",""
"","do_welcome","58","377526","0.0-40.0-2.0","""event"",""trial"",""time""
""fullscreenenter"",""0"",""1936""
","
","
","""event"",""trial"",""time""
""fullscreenenter"",""0"",""1936""
","
","null","","","","","","","","null","","","","","","","","","","","","","","","","",""
"","do_trial","59","383293","0.0-40.0-3.0","""event"",""trial"",""time""
""fullscreenenter"",""0"",""1936""
","
","
","""event"",""trial"",""time""
""fullscreenenter"",""0"",""1936""
","
","1261.1000000089407","","","","","","","","49","1,0,0","","","","","","","","","","","","","","","",""
"","html-keyboard-response","60","384294","0.0-41.0-0.0","""event"",""trial"",""time""
""fullscreenenter"",""0"",""1936""
","
","
","""event"",""trial"",""time""
""fullscreenenter"",""0"",""1936""
","
","null","<p></p>","null","","","","","","","","","","","","","","","","","","","","","","",""
"","do_trial","61","389179","0.0-41.0-1.0","""event"",""trial"",""time""
""fullscreenenter"",""0"",""1936""
","
","
","""event"",""trial"",""time""
""fullscreenenter"",""0"",""1936""
","
","379.5","","","","","","","","49","1,0,1","","","","","","","","","","","","","","","",""
"","html-keyboard-response","62","390182","0.0-42.0-0.0","""event"",""trial"",""time""
""fullscreenenter"",""0"",""1936""
","
","
","""event"",""trial"",""time""
""fullscreenenter"",""0"",""1936""
","
","null","<p></p>","null","","","","","","","","","","","","","","","","","","","","","","",""
"","do_trial","63","394746","0.0-42.0-1.0","""event"",""trial"",""time""
""fullscreenenter"",""0"",""1936""
","
","
","""event"",""trial"",""time""
""fullscreenenter"",""0"",""1936""
","
","55.099999994039536","","","","","","","","49","1,1,0","","","","","","","","","","","","","","","",""
"","html-keyboard-response","64","395748","0.0-43.0-0.0","""event"",""trial"",""time""
""fullscreenenter"",""0"",""1936""
","
","
","""event"",""trial"",""time""
""fullscreenenter"",""0"",""1936""
","
","null","<p></p>","null","","","","","","","","","","","","","","","","","","","","","","",""
"","do_trial","65","401179","0.0-43.0-1.0","""event"",""trial"",""time""
""fullscreenenter"",""0"",""1936""
","
","
","""event"",""trial"",""time""
""fullscreenenter"",""0"",""1936""
","
","921.7000000029802","","","","","","","","49","0,0,1","","","","","","","","","","","","","","","",""
"","html-keyboard-response","66","402181","0.0-44.0-0.0","""event"",""trial"",""time""
""fullscreenenter"",""0"",""1936""
","
","
","""event"",""trial"",""time""
""fullscreenenter"",""0"",""1936""
","
","null","<p></p>","null","","","","","","","","","","","","","","","","","","","","","","",""
"","do_trial","67","407660","0.0-44.0-1.0","""event"",""trial"",""time""
""fullscreenenter"",""0"",""1936""
","
","
","""event"",""trial"",""time""
""fullscreenenter"",""0"",""1936""
","
","964","","","","","","","","49","1,0,1","","","","","","","","","","","","","","","",""
"","html-keyboard-response","68","410177","0.0-45.0-0.0","""event"",""trial"",""time""
""fullscreenenter"",""0"",""1936""
","
","
","""event"",""trial"",""time""
""fullscreenenter"",""0"",""1936""
","
","2514.5","<div class='center'><p><img src='run_exp/static/images/tutorial/prac_best_pirate.png'  height='500'></p></div>","49","","","","","","","","","","","","","","","","","","","","","","",""
"","html-keyboard-response","69","412033","0.0-46.0-0.0","""event"",""trial"",""time""
""fullscreenenter"",""0"",""1936""
","
","
","""event"",""trial"",""time""
""fullscreenenter"",""0"",""1936""
","
","1854.8999999910593","<div class='center'><p>That's correct! Red beard was the best.</p><p><b>[Press the space bar to continue]</b></p></div>","32","","","","","","","","","","","","","","","","","","","","","","",""
"","html-keyboard-response","70","416683","0.0-46.0-1.0","""event"",""trial"",""time""
""fullscreenenter"",""0"",""1936""
","
","
","""event"",""trial"",""time""
""fullscreenenter"",""0"",""1936""
","
","4648.399999991059","<div class='center'><p><img src='run_exp/static/images/tutorial/prac_source.png'  height='500'></p></div>","50","","","","","","","","","","","","","","","","","","","","","","",""
"","html-keyboard-response","71","417755","0.0-47.0-0.0","""event"",""trial"",""time""
""fullscreenenter"",""0"",""1936""
","
","
","""event"",""trial"",""time""
""fullscreenenter"",""0"",""1936""
","
","1070.4000000059605","<div class='center'><p>That's correct! You saw this ship on the cavern island.</p><p><b>[Press the space bar to continue]</b></p></div>","32","","","","","","","","","","","","","","","","","","","","","","",""
"","quiz_beginning","72","429003","0.0-47.0-1.0","""event"",""trial"",""time""
""fullscreenenter"",""0"",""1936""
","
","
","""event"",""trial"",""time""
""fullscreenenter"",""0"",""1936""
","
","null","run_exp/static/audio/clip_16_quiz_intro.m4a","null","","","","","<div class='center'><p>Good job on the practice game! Now, you will be asked some true or false questions to make sure you really understand the rules of the game.</p><p> Press <b>'1'</b> on the keyboard for true and press <b>'2'</b> for false.</p></div>","","","","","","","","","","","","","","","","","",""
"","audio-keyboard-response","73","435978","0.0-47.0-2.0","""event"",""trial"",""time""
""fullscreenenter"",""0"",""1936""
","
","
","""event"",""trial"",""time""
""fullscreenenter"",""0"",""1936""
","
","6974.0999999940395","run_exp/static/audio/clip_17_q1.m4a","49","","","","","","","","","","","","","","","","","","","","","","",""
"","correct","74","438389","0.0-48.0-0.0","""event"",""trial"",""time""
""fullscreenenter"",""0"",""1936""
","
","
","""event"",""trial"",""time""
""fullscreenenter"",""0"",""1936""
","
","null","run_exp/static/audio/clip_18_correct.m4a","null","","","","","<div class='center'><p>That's correct!</p></div>","","","","","","","","","","","","","","","","","",""
"","html-keyboard-response","75","439317","0.0-48.0-1.0","""event"",""trial"",""time""
""fullscreenenter"",""0"",""1936""
","
","
","""event"",""trial"",""time""
""fullscreenenter"",""0"",""1936""
","
","927.2000000029802","<div class='center'><p>That's correct!</p><p><b>[Press the space bar to continue]</b></p></div>","32","","","","","","","","","","","","","","","","","","","","","","",""
"","audio-keyboard-response","76","444041","0.0-48.0-2.0","""event"",""trial"",""time""
""fullscreenenter"",""0"",""1936""
","
","
","""event"",""trial"",""time""
""fullscreenenter"",""0"",""1936""
","
","4723.5","run_exp/static/audio/clip_20_q2.m4a","50","","","","","","","","","","","","","","","","","","","","","","",""
"","correct","77","446453","0.0-49.0-0.0","""event"",""trial"",""time""
""fullscreenenter"",""0"",""1936""
","
","
","""event"",""trial"",""time""
""fullscreenenter"",""0"",""1936""
","
","null","run_exp/static/audio/clip_18_correct.m4a","null","","","","","<div class='center'><p>That's correct!</p></div>","","","","","","","","","","","","","","","","","",""
"","html-keyboard-response","78","447334","0.0-49.0-1.0","""event"",""trial"",""time""
""fullscreenenter"",""0"",""1936""
","
","
","""event"",""trial"",""time""
""fullscreenenter"",""0"",""1936""
","
","880","<div class='center'><p>That's correct!</p><p><b>[Press the space bar to continue]</b></p></div>","32","","","","","","","","","","","","","","","","","","","","","","",""
"","audio-keyboard-response","79","449995","0.0-49.0-2.0","""event"",""trial"",""time""
""fullscreenenter"",""0"",""1936""
","
","
","""event"",""trial"",""time""
""fullscreenenter"",""0"",""1936""
","
","2660.5","run_exp/static/audio/clip_22_q3.m4a","50","","","","","","","","","","","","","","","","","","","","","","",""
"","correct","80","452405","0.0-50.0-0.0","""event"",""trial"",""time""
""fullscreenenter"",""0"",""1936""
","
","
","""event"",""trial"",""time""
""fullscreenenter"",""0"",""1936""
","
","null","run_exp/static/audio/clip_18_correct.m4a","null","","","","","<div class='center'><p>That's correct!</p></div>","","","","","","","","","","","","","","","","","",""
"","html-keyboard-response","81","452924","0.0-50.0-1.0","""event"",""trial"",""time""
""fullscreenenter"",""0"",""1936""
","
","
","""event"",""trial"",""time""
""fullscreenenter"",""0"",""1936""
","
","518.5","<div class='center'><p>That's correct!</p><p><b>[Press the space bar to continue]</b></p></div>","32","","","","","","","","","","","","","","","","","","","","","","",""
"","audio-keyboard-response","82","455103","0.0-50.0-2.0","""event"",""trial"",""time""
""fullscreenenter"",""0"",""1936""
","
","
","""event"",""trial"",""time""
""fullscreenenter"",""0"",""1936""
","
","2178.199999988079","run_exp/static/audio/clip_24_q4.m4a","49","","","","","","","","","","","","","","","","","","","","","","",""
"","correct","83","457568","0.0-51.0-0.0","""event"",""trial"",""time""
""fullscreenenter"",""0"",""1936""
","
","
","""event"",""trial"",""time""
""fullscreenenter"",""0"",""1936""
","
","null","run_exp/static/audio/clip_18_correct.m4a","null","","","","","<div class='center'><p>That's correct!</p></div>","","","","","","","","","","","","","","","","","",""
"","html-keyboard-response","84","458509","0.0-51.0-1.0","""event"",""trial"",""time""
""fullscreenenter"",""0"",""1936""
","
","
","""event"",""trial"",""time""
""fullscreenenter"",""0"",""1936""
","
","939.8000000119209","<div class='center'><p>That's correct!</p><p><b>[Press the space bar to continue]</b></p></div>","32","","","","","","","","","","","","","","","","","","","","","","",""
"","q_all_corr","85","466998","0.0-52.0-0.0","""event"",""trial"",""time""
""fullscreenenter"",""0"",""1936""
","
","
","""event"",""trial"",""time""
""fullscreenenter"",""0"",""1936""
","
","null","run_exp/static/audio/clip_27_quiz_all_correct.m4a","null","","","","","<div class='center'><p>Good job! You’re now ready to move on to the real game! Remember this game will be difficult but don't get discouraged and try your best!</p></div>","","","","","","","","","","","","","","","","","",""
"","html-keyboard-response","86","467933","0.0-52.0-1.0","""event"",""trial"",""time""
""fullscreenenter"",""0"",""1936""
","
","
","""event"",""trial"",""time""
""fullscreenenter"",""0"",""1936""
","
","934.7000000029802","<div class='center'><p>Good job! You’re now ready to move on to the real game! Remember this game will be difficult but don't get discouraged and try your best!</p><p><b>[Press the space bar to continue]</b></p></div>","32","","","","","","","","","","","","","","","","","","","","","","",""
"","do_welcome","87","471940","0.0-53.0-0.0","""event"",""trial"",""time""
""fullscreenenter"",""0"",""1936""
","
","
","""event"",""trial"",""time""
""fullscreenenter"",""0"",""1936""
","
","null","","","","","","","","null","","","","","","","","","","","","","","","","",""
"","do_trial","88","477580","0.0-54.0-0.0","""event"",""trial"",""time""
""fullscreenenter"",""0"",""1936""
","
","
","""event"",""trial"",""time""
""fullscreenenter"",""0"",""1936""
","
","1090.2000000029802","","","","","","","","49","0,1,0","0","coast","0","probe-53","0.6","0.3","0.1","0","","","","","","","",""
"","html-keyboard-response","89","478582","0.0-54.0-1.0","""event"",""trial"",""time""
""fullscreenenter"",""0"",""1936""
","
","
","""event"",""trial"",""time""
""fullscreenenter"",""0"",""1936""
","
","null","<p></p>","null","","","","","","","","","","","","","","","","","","","","","","",""
"","do_trial","90","484064","0.0-55.0-0.0","""event"",""trial"",""time""
""fullscreenenter"",""0"",""1936""
","
","
","""event"",""trial"",""time""
""fullscreenenter"",""0"",""1936""
","
","935.7000000029802","","","","","","","","50","0,0,0","0","coast","1","probe-166","0.5706280370314312","0.319369495207579","0.09374010621672872","0","","","","","","","",""
"","html-keyboard-response","91","485067","0.0-55.0-1.0","""event"",""trial"",""time""
""fullscreenenter"",""0"",""1936""
","
","
","""event"",""trial"",""time""
""fullscreenenter"",""0"",""1936""
","
","null","<p></p>","null","","","","","","","","","","","","","","","","","","","","","","",""
"","do_trial","92","490398","0.0-56.0-0.0","""event"",""trial"",""time""
""fullscreenenter"",""0"",""1936""
","
","
","""event"",""trial"",""time""
""fullscreenenter"",""0"",""1936""
","
","781.0999999940395","","","","","","","","51","0,0,0","0","coast","2","probe-222","0.5493206976492574","0.3083763665941284","0.09830239846111967","0","","","","","","","",""
"","html-keyboard-response","93","491401","0.0-56.0-1.0","""event"",""trial"",""time""
""fullscreenenter"",""0"",""1936""
","
","
","""event"",""trial"",""time""
""fullscreenenter"",""0"",""1936""
","
","null","<p></p>","null","","","","","","","","","","","","","","","","","","","","","","",""
"","do_trial","94","496932","0.0-57.0-0.0","""event"",""trial"",""time""
""fullscreenenter"",""0"",""1936""
","
","
","""event"",""trial"",""time""
""fullscreenenter"",""0"",""1936""
","
","980.5","","","","","","","","49","1,0,0","0","coast","3","probe-22","0.6029325815033473","0.2578614662126129","0.14311445936504882","1","","","","","","","",""
"","html-keyboard-response","95","497933","0.0-57.0-1.0","""event"",""trial"",""time""
""fullscreenenter"",""0"",""1936""
","
","
","""event"",""trial"",""time""
""fullscreenenter"",""0"",""1936""
","
","null","<p></p>","null","","","","","","","","","","","","","","","","","","","","","","",""
"","do_trial","96","503538","0.0-58.0-0.0","""event"",""trial"",""time""
""fullscreenenter"",""0"",""1936""
","
","
","""event"",""trial"",""time""
""fullscreenenter"",""0"",""1936""
","
","1054.7000000029802","","","","","","","","49","1,1,0","0","coast","4","probe-18","0.6817924699721459","0.321477090288834","0.06554676689877072","1","","","","","","","",""
"","html-keyboard-response","97","504541","0.0-58.0-1.0","""event"",""trial"",""time""
""fullscreenenter"",""0"",""1936""
","
","
","""event"",""trial"",""time""
""fullscreenenter"",""0"",""1936""
","
","null","<p></p>","null","","","","","","","","","","","","","","","","","","","","","","",""
"","do_trial","98","509829","0.0-59.0-0.0","""event"",""trial"",""time""
""fullscreenenter"",""0"",""1936""
","
","
","""event"",""trial"",""time""
""fullscreenenter"",""0"",""1936""
","
","738.1999999880791","","","","","","","","49","0,0,0","0","coast","5","probe-173","0.5743224032069643","0.2542848740357413","0.060206339166462154","0","","","","","","","",""
"","html-keyboard-response","99","510831","0.0-59.0-1.0","""event"",""trial"",""time""
""fullscreenenter"",""0"",""1936""
","
","
","""event"",""trial"",""time""
""fullscreenenter"",""0"",""1936""
","
","null","<p></p>","null","","","","","","","","","","","","","","","","","","","","","","",""
"","do_trial","100","515741","0.0-60.0-0.0","""event"",""trial"",""time""
""fullscreenenter"",""0"",""1936""
","
","
","""event"",""trial"",""time""
""fullscreenenter"",""0"",""1936""
","
","360.20000000298023","","","","","","","","49","0,0,0","0","coast","6","probe-46","0.6801826039554407","0.2226645954029893","0.0714186170176078","0","","","","","","","",""
"","html-keyboard-response","101","516742","0.0-60.0-1.0","""event"",""trial"",""time""
""fullscreenenter"",""0"",""1936""
","
","
","""event"",""trial"",""time""
""fullscreenenter"",""0"",""1936""
","
","null","<p></p>","null","","","","","","","","","","","","","","","","","","","","","","",""
"","do_trial","102","522345","0.0-61.0-0.0","""event"",""trial"",""time""
""fullscreenenter"",""0"",""1936""
","
","
","""event"",""trial"",""time""
""fullscreenenter"",""0"",""1936""
","
","1051.5","","","","","","","","50","1,1,0","0","coast","7","probe-97","0.584582512198565","0.07946867364905963","0.11132988498774755","1","","","","","","","",""
"","html-keyboard-response","103","523347","0.0-61.0-1.0","""event"",""trial"",""time""
""fullscreenenter"",""0"",""1936""
","
","
","""event"",""trial"",""time""
""fullscreenenter"",""0"",""1936""
","
","null","<p></p>","null","","","","","","","","","","","","","","","","","","","","","","",""
"","do_trial","104","528590","0.0-62.0-0.0","""event"",""trial"",""time""
""fullscreenenter"",""0"",""1936""
","
","
","""event"",""trial"",""time""
""fullscreenenter"",""0"",""1936""
","
","693.0999999940395","","","","","","","","50","1,0,0","0","coast","8","probe-115","0.5832976443722837","0.13934186765737214","0.05535097090709575","0","","","","","","","",""
"","html-keyboard-response","105","529593","0.0-62.0-1.0","""event"",""trial"",""time""
""fullscreenenter"",""0"",""1936""
","
","
","""event"",""trial"",""time""
""fullscreenenter"",""0"",""1936""
","
","null","<p></p>","null","","","","","","","","","","","","","","","","","","","","","","",""
"","do_trial","106","535057","0.0-63.0-0.0","""event"",""trial"",""time""
""fullscreenenter"",""0"",""1936""
","
","
","""event"",""trial"",""time""
""fullscreenenter"",""0"",""1936""
","
","914.1000000089407","","","","","","","","50","1,0,0","0","coast","9","probe-151","0.5509794087345837","0.2719159212474008","0.0678614561487649","0","","","","","","","",""
"","html-keyboard-response","107","536059","0.0-63.0-1.0","""event"",""trial"",""time""
""fullscreenenter"",""0"",""1936""
","
","
","""event"",""trial"",""time""
""fullscreenenter"",""0"",""1936""
","
","null","<p></p>","null","","","","","","","","","","","","","","","","","","","","","","",""
"","do_trial","108","540983","0.0-64.0-0.0","""event"",""trial"",""time""
""fullscreenenter"",""0"",""1936""
","
","
","""event"",""trial"",""time""
""fullscreenenter"",""0"",""1936""
","
","373.1000000089407","","","","","","","","51","1,0,0","0","coast","10","probe-147","0.7293591088630401","0.2357649659024203","0.05169649874980852","0","","","","","","","",""
"","html-keyboard-response","109","541985","0.0-64.0-1.0","""event"",""trial"",""time""
""fullscreenenter"",""0"",""1936""
","
","
","""event"",""trial"",""time""
""fullscreenenter"",""0"",""1936""
","
","null","<p></p>","null","","","","","","","","","","","","","","","","","","","","","","",""
"","do_trial","110","546909","0.0-65.0-0.0","""event"",""trial"",""time""
""fullscreenenter"",""0"",""1936""
","
","
","""event"",""trial"",""time""
""fullscreenenter"",""0"",""1936""
","
","372.6000000089407","","","","","","","","49","1,0,0","0","coast","11","probe-131","0.49865489356414316","0.13861972367285863","0.18101999628273105","1","","","","","","","",""
"","html-keyboard-response","111","547911","0.0-65.0-1.0","""event"",""trial"",""time""
""fullscreenenter"",""0"",""1936""
","
","
","""event"",""trial"",""time""
""fullscreenenter"",""0"",""1936""
","
","null","<p></p>","null","","","","","","","","","","","","","","","","","","","","","","",""
"","do_trial","112","553160","0.0-66.0-0.0","""event"",""trial"",""time""
""fullscreenenter"",""0"",""1936""
","
","
","""event"",""trial"",""time""
""fullscreenenter"",""0"",""1936""
","
","699.0999999940395","","","","","","","","49","1,0,0","0","coast","12","probe-207","0.6597966344583938","0.21575248375793887","0.2388076652779323","1","","","","","","","",""
"","html-keyboard-response","113","554162","0.0-66.0-1.0","""event"",""trial"",""time""
""fullscreenenter"",""0"",""1936""
","
","
","""event"",""trial"",""time""
""fullscreenenter"",""0"",""1936""
","
","null","<p></p>","null","","","","","","","","","","","","","","","","","","","","","","",""
"","do_trial","114","559420","0.0-67.0-0.0","""event"",""trial"",""time""
""fullscreenenter"",""0"",""1936""
","
","
","""event"",""trial"",""time""
""fullscreenenter"",""0"",""1936""
","
","707.4000000059605","","","","","","","","49","1,0,0","0","coast","13","probe-145","0.7251624163374845","0.2977190086724474","0.21180697588263564","1","","","","","","","",""
"","html-keyboard-response","115","560421","0.0-67.0-1.0","""event"",""trial"",""time""
""fullscreenenter"",""0"",""1936""
","
","
","""event"",""trial"",""time""
""fullscreenenter"",""0"",""1936""
","
","null","<p></p>","null","","","","","","","","","","","","","","","","","","","","","","",""
"","do_trial","116","565409","0.0-68.0-0.0","""event"",""trial"",""time""
""fullscreenenter"",""0"",""1936""
","
","
","""event"",""trial"",""time""
""fullscreenenter"",""0"",""1936""
","
","436.40000000596046","","","","","","","","49","0,0,0","0","coast","14","probe-155","0.650616941643359","0.2859683732461543","0.22795077761078972","0","","","","","","","",""
"","html-keyboard-response","117","566411","0.0-68.0-1.0","""event"",""trial"",""time""
""fullscreenenter"",""0"",""1936""
","
","
","""event"",""trial"",""time""
""fullscreenenter"",""0"",""1936""
","
","null","<p></p>","null","","","","","","","","","","","","","","","","","","","","","","",""
"","do_trial","118","571279","0.0-69.0-0.0","""event"",""trial"",""time""
""fullscreenenter"",""0"",""1936""
","
","
","""event"",""trial"",""time""
""fullscreenenter"",""0"",""1936""
","
","317.70000000298023","","","","","","","","49","0,1,0","0","coast","15","probe-169","0.7440907440509732","0.22997791817598512","0.05314513244064731","0","","","","","","","",""
"","html-keyboard-response","119","572281","0.0-69.0-1.0","""event"",""trial"",""time""
""fullscreenenter"",""0"",""1936""
","
","
","""event"",""trial"",""time""
""fullscreenenter"",""0"",""1936""
","
","null","<p></p>","null","","","","","","","","","","","","","","","","","","","","","","",""
"","do_trial","120","578333","0.0-70.0-0.0","""event"",""trial"",""time""
""fullscreenenter"",""0"",""1936""
","
","
","""event"",""trial"",""time""
""fullscreenenter"",""0"",""1936""
","
","null","","","","","","","","null","1,1,0","0","coast","16","probe-200","0.6820754911106773","0.3078621986401685","0.10650671987416187","","","","","","","","",""
"","html-keyboard-response","121","579335","0.0-70.0-1.0","""event"",""trial"",""time""
""fullscreenenter"",""0"",""1936""
","
","
","""event"",""trial"",""time""
""fullscreenenter"",""0"",""1936""
","
","null","<p></p>","null","","","","","","","","","","","","","","","","","","","","","","",""
"","do_trial","122","584816","0.0-71.0-0.0","""event"",""trial"",""time""
""fullscreenenter"",""0"",""1936""
","
","
","""event"",""trial"",""time""
""fullscreenenter"",""0"",""1936""
","
","931.5","","","","","","","","49","0,1,0","0","coast","17","probe-213","0.5761772094463743","0.18800300461764294","0.2293157323707029","0","","","","","","","",""
"","html-keyboard-response","123","585818","0.0-71.0-1.0","""event"",""trial"",""time""
""fullscreenenter"",""0"",""1936""
","
","
","""event"",""trial"",""time""
""fullscreenenter"",""0"",""1936""
","
","null","<p></p>","null","","","","","","","","","","","","","","","","","","","","","","",""
"","do_trial","124","591108","0.0-72.0-0.0","""event"",""trial"",""time""
""fullscreenenter"",""0"",""1936""
","
","
","""event"",""trial"",""time""
""fullscreenenter"",""0"",""1936""
","
","738.3999999910593","","","","","","","","49","0,0,1","0","coast","18","probe-116","0.5362987241730466","0.26727363748188454","0.23155902521897248","0","","","","","","","",""
"","html-keyboard-response","125","592110","0.0-72.0-1.0","""event"",""trial"",""time""
""fullscreenenter"",""0"",""1936""
","
","
","""event"",""trial"",""time""
""fullscreenenter"",""0"",""1936""
","
","null","<p></p>","null","","","","","","","","","","","","","","","","","","","","","","",""
"","do_trial","126","597576","0.0-73.0-0.0","""event"",""trial"",""time""
""fullscreenenter"",""0"",""1936""
","
","
","""event"",""trial"",""time""
""fullscreenenter"",""0"",""1936""
","
","911.6000000089407","","","","","","","","50","0,1,0","0","coast","19","probe-210","0.5411810896462378","0.3019529184746802","0.1016214391204284","1","","","","","","","",""
"","html-keyboard-response","127","598577","0.0-73.0-1.0","""event"",""trial"",""time""
""fullscreenenter"",""0"",""1936""
","
","
","""event"",""trial"",""time""
""fullscreenenter"",""0"",""1936""
","
","null","<p></p>","null","","","","","","","","","","","","","","","","","","","","","","",""
"","do_trial","128","603449","0.0-74.0-0.0","""event"",""trial"",""time""
""fullscreenenter"",""0"",""1936""
","
","
","""event"",""trial"",""time""
""fullscreenenter"",""0"",""1936""
","
","327","","","","","","","","50","1,1,0","0","coast","20","probe-41","0.5331995577775469","0.12997130089968356","0.1378631280916053","1","","","","","","","",""
"","html-keyboard-response","129","604451","0.0-74.0-1.0","""event"",""trial"",""time""
""fullscreenenter"",""0"",""1936""
","
","
","""event"",""trial"",""time""
""fullscreenenter"",""0"",""1936""
","
","null","<p></p>","null","","","","","","","","","","","","","","","","","","","","","","",""
"","do_trial","130","609705","0.0-75.0-0.0","""event"",""trial"",""time""
""fullscreenenter"",""0"",""1936""
","
","
","""event"",""trial"",""time""
""fullscreenenter"",""0"",""1936""
","
","704.0999999940395","","","","","","","","50","0,0,0","0","coast","21","probe-61","0.4455386708688146","0.20526774376021503","0.10491573254488593","0","","","","","","","",""
"","html-keyboard-response","131","610707","0.0-75.0-1.0","""event"",""trial"",""time""
""fullscreenenter"",""0"",""1936""
","
","
","""event"",""trial"",""time""
""fullscreenenter"",""0"",""1936""
","
","null","<p></p>","null","","","","","","","","","","","","","","","","","","","","","","",""
"","do_trial","132","616071","0.0-76.0-0.0","""event"",""trial"",""time""
""fullscreenenter"",""0"",""1936""
","
","
","""event"",""trial"",""time""
""fullscreenenter"",""0"",""1936""
","
","814.6999999880791","","","","","","","","50","1,0,0","0","coast","22","probe-31","0.5807517342066517","0.33326224537703897","0.13579419272263563","0","","","","","","","",""
"","html-keyboard-response","133","617073","0.0-76.0-1.0","""event"",""trial"",""time""
""fullscreenenter"",""0"",""1936""
","
","
","""event"",""trial"",""time""
""fullscreenenter"",""0"",""1936""
","
","null","<p></p>","null","","","","","","","","","","","","","","","","","","","","","","",""
"","do_trial","134","622095","0.0-77.0-0.0","""event"",""trial"",""time""
""fullscreenenter"",""0"",""1936""
","
","
","""event"",""trial"",""time""
""fullscreenenter"",""0"",""1936""
","
","472.09999999403954","","","","","","","","49","0,0,1","0","coast","23","probe-20","0.6707625909194925","0.21827274143479994","0.18593076632088618","0","","","","","","","",""
"","html-keyboard-response","135","623098","0.0-77.0-1.0","""event"",""trial"",""time""
""fullscreenenter"",""0"",""1936""
","
","
","""event"",""trial"",""time""
""fullscreenenter"",""0"",""1936""
","
","null","<p></p>","null","","","","","","","","","","","","","","","","","","","","","","",""
"","do_trial","136","627953","0.0-78.0-0.0","""event"",""trial"",""time""
""fullscreenenter"",""0"",""1936""
","
","
","""event"",""trial"",""time""
""fullscreenenter"",""0"",""1936""
","
","305.30000001192093","","","","","","","","51","1,0,0","0","coast","24","probe-58","0.6582206124370135","0.13000359387341054","0.131072711443156","0","","","","","","","",""
"","html-keyboard-response","137","628955","0.0-78.0-1.0","""event"",""trial"",""time""
""fullscreenenter"",""0"",""1936""
","
","
","""event"",""trial"",""time""
""fullscreenenter"",""0"",""1936""
","
","null","<p></p>","null","","","","","","","","","","","","","","","","","","","","","","",""
"","do_trial","138","634313","0.0-79.0-0.0","""event"",""trial"",""time""
""fullscreenenter"",""0"",""1936""
","
","
","""event"",""trial"",""time""
""fullscreenenter"",""0"",""1936""
","
","808.4000000059605","","","","","","","","50","1,0,0","0","coast","25","probe-227","0.6558114208730269","0.09814692859643982","0.17477643617900218","0","","","","","","","",""
"","html-keyboard-response","139","635316","0.0-79.0-1.0","""event"",""trial"",""time""
""fullscreenenter"",""0"",""1936""
","
","
","""event"",""trial"",""time""
""fullscreenenter"",""0"",""1936""
","
","null","<p></p>","null","","","","","","","","","","","","","","","","","","","","","","",""
"","do_trial","140","640172","0.0-80.0-0.0","""event"",""trial"",""time""
""fullscreenenter"",""0"",""1936""
","
","
","""event"",""trial"",""time""
""fullscreenenter"",""0"",""1936""
","
","303.70000000298023","","","","","","","","49","1,0,0","0","coast","26","probe-64","0.6183043110696594","0.1342154447163359","0.08889394715876017","1","","","","","","","",""
"","html-keyboard-response","141","641175","0.0-80.0-1.0","""event"",""trial"",""time""
""fullscreenenter"",""0"",""1936""
","
","
","""event"",""trial"",""time""
""fullscreenenter"",""0"",""1936""
","
","null","<p></p>","null","","","","","","","","","","","","","","","","","","","","","","",""
"","do_trial","142","645972","0.0-81.0-0.0","""event"",""trial"",""time""
""fullscreenenter"",""0"",""1936""
","
","
","""event"",""trial"",""time""
""fullscreenenter"",""0"",""1936""
","
","244.8999999910593","","","","","","","","49","1,0,0","0","coast","27","probe-165","0.6591151613917913","0.19711734303782366","0.1004148235685997","1","","","","","","","",""
"","html-keyboard-response","143","646974","0.0-81.0-1.0","""event"",""trial"",""time""
""fullscreenenter"",""0"",""1936""
","
","
","""event"",""trial"",""time""
""fullscreenenter"",""0"",""1936""
","
","null","<p></p>","null","","","","","","","","","","","","","","","","","","","","","","",""
"","do_trial","144","651689","0.0-82.0-0.0","""event"",""trial"",""time""
""fullscreenenter"",""0"",""1936""
","
","
","""event"",""trial"",""time""
""fullscreenenter"",""0"",""1936""
","
","164.29999999701977","","","","","","","","49","1,0,0","0","coast","28","probe-160","0.5118349107414651","0.20367198131178058","0.0780747653350653","1","","","","","","","",""
"","html-keyboard-response","145","652692","0.0-82.0-1.0","""event"",""trial"",""time""
""fullscreenenter"",""0"",""1936""
","
","
","""event"",""trial"",""time""
""fullscreenenter"",""0"",""1936""
","
","null","<p></p>","null","","","","","","","","","","","","","","","","","","","","","","",""
"","do_trial","146","657568","0.0-83.0-0.0","""event"",""trial"",""time""
""fullscreenenter"",""0"",""1936""
","
","
","""event"",""trial"",""time""
""fullscreenenter"",""0"",""1936""
","
","327","","","","","","","","49","1,0,0","0","coast","29","probe-171","0.6786652785722607","0.23040470218200185","0.14376370609239958","1","","","","","","","",""
"","html-keyboard-response","147","658570","0.0-83.0-1.0","""event"",""trial"",""time""
""fullscreenenter"",""0"",""1936""
","
","
","""event"",""trial"",""time""
""fullscreenenter"",""0"",""1936""
","
","null","<p></p>","null","","","","","","","","","","","","","","","","","","","","","","",""
"","do_bye","148","660079","0.0-84.0-0.0","""event"",""trial"",""time""
""fullscreenenter"",""0"",""1936""
","
","
","""event"",""trial"",""time""
""fullscreenenter"",""0"",""1936""
","
","null","","","","","","","","null","","","","","","","","","","","","","","","","",""
"","break","149","661941","0.0-84.0-1.0","""event"",""trial"",""time""
""fullscreenenter"",""0"",""1936""
","
","
","""event"",""trial"",""time""
""fullscreenenter"",""0"",""1936""
","
","1861.2999999970198","<div class='center'><p>Time to take a quick break! You have 2 minutes to rest, but you can move on sooner if you'd like.</p><p> Press the <b>space bar</b> to continue.</p></div>","32","","","","","","","","","","","","","","","","","","","","","","",""
"","do_travel","150","670945","0.0-85.0-0.0","""event"",""trial"",""time""
""fullscreenenter"",""0"",""1936""
","
","
","""event"",""trial"",""time""
""fullscreenenter"",""0"",""1936""
","
","null","","","","","","","","null","","","","","","","","","","","","","","","","",""
"","do_welcome","151","674952","0.0-85.0-1.0","""event"",""trial"",""time""
""fullscreenenter"",""0"",""1936""
","
","
","""event"",""trial"",""time""
""fullscreenenter"",""0"",""1936""
","
","null","","","","","","","","null","","","","","","","","","","","","","","","","",""
"","do_trial","152","681216","0.0-86.0-0.0","""event"",""trial"",""time""
""fullscreenenter"",""0"",""1936""
","
","
","""event"",""trial"",""time""
""fullscreenenter"",""0"",""1936""
","
","1717","","","","","","","","49","1,1,0","1","highway","30","probe-223","1","0.4249200458528003","0.05282994712999772","1","","","","","","","",""
"","html-keyboard-response","153","682217","0.0-86.0-1.0","""event"",""trial"",""time""
""fullscreenenter"",""0"",""1936""
","
","
","""event"",""trial"",""time""
""fullscreenenter"",""0"",""1936""
","
","null","<p></p>","null","","","","","","","","","","","","","","","","","","","","","","",""
"","do_trial","154","687102","0.0-87.0-0.0","""event"",""trial"",""time""
""fullscreenenter"",""0"",""1936""
","
","
","""event"",""trial"",""time""
""fullscreenenter"",""0"",""1936""
","
","334.6000000089407","","","","","","","","49","1,1,0","1","highway","31","probe-158","1","0.4013490080024814","0.11533956532686","1","","","","","","","",""
"","html-keyboard-response","155","688104","0.0-87.0-1.0","""event"",""trial"",""time""
""fullscreenenter"",""0"",""1936""
","
","
","""event"",""trial"",""time""
""fullscreenenter"",""0"",""1936""
","
","null","<p></p>","null","","","","","","","","","","","","","","","","","","","","","","",""
"","do_trial","156","692992","0.0-88.0-0.0","""event"",""trial"",""time""
""fullscreenenter"",""0"",""1936""
","
","
","""event"",""trial"",""time""
""fullscreenenter"",""0"",""1936""
","
","336.90000000596046","","","","","","","","49","1,0,0","1","highway","32","probe-43","1","0.2557247604549699","0.1566507141717161","1","","","","","","","",""
"","html-keyboard-response","157","693993","0.0-88.0-1.0","""event"",""trial"",""time""
""fullscreenenter"",""0"",""1936""
","
","
","""event"",""trial"",""time""
""fullscreenenter"",""0"",""1936""
","
","null","<p></p>","null","","","","","","","","","","","","","","","","","","","","","","",""
"","do_trial","158","699071","0.0-89.0-0.0","""event"",""trial"",""time""
""fullscreenenter"",""0"",""1936""
","
","
","""event"",""trial"",""time""
""fullscreenenter"",""0"",""1936""
","
","529.1000000089407","","","","","","","","49","0,0,1","1","highway","33","probe-81","0.8657453707827582","0.2823927454214071","0.31735549902932997","0","","","","","","","",""
"","html-keyboard-response","159","700072","0.0-89.0-1.0","""event"",""trial"",""time""
""fullscreenenter"",""0"",""1936""
","
","
","""event"",""trial"",""time""
""fullscreenenter"",""0"",""1936""
","
","null","<p></p>","null","","","","","","","","","","","","","","","","","","","","","","",""
"","do_trial","160","704912","0.0-90.0-0.0","""event"",""trial"",""time""
""fullscreenenter"",""0"",""1936""
","
","
","""event"",""trial"",""time""
""fullscreenenter"",""0"",""1936""
","
","288.29999999701977","","","","","","","","49","1,0,1","1","highway","34","probe-10","0.8642681737205848","0.2850643782217865","0.2704378394144419","1","","","","","","","",""
"","html-keyboard-response","161","705914","0.0-90.0-1.0","""event"",""trial"",""time""
""fullscreenenter"",""0"",""1936""
","
","
","""event"",""trial"",""time""
""fullscreenenter"",""0"",""1936""
","
","null","<p></p>","null","","","","","","","","","","","","","","","","","","","","","","",""
"","do_trial","162","710730","0.0-91.0-0.0","""event"",""trial"",""time""
""fullscreenenter"",""0"",""1936""
","
","
","""event"",""trial"",""time""
""fullscreenenter"",""0"",""1936""
","
","265.8999999910593","","","","","","","","49","1,1,0","1","highway","35","probe-197","0.6307750370750449","0.41428532461586576","0.16683624796698215","1","","","","","","","",""
"","html-keyboard-response","163","711732","0.0-91.0-1.0","""event"",""trial"",""time""
""fullscreenenter"",""0"",""1936""
","
","
","""event"",""trial"",""time""
""fullscreenenter"",""0"",""1936""
","
","null","<p></p>","null","","","","","","","","","","","","","","","","","","","","","","",""
"","do_trial","164","716596","0.0-92.0-0.0","""event"",""trial"",""time""
""fullscreenenter"",""0"",""1936""
","
","
","""event"",""trial"",""time""
""fullscreenenter"",""0"",""1936""
","
","313.20000000298023","","","","","","","","49","0,0,0","1","highway","36","probe-90","0.49037411984589013","0.4089510574566239","0.32031753614849867","0","","","","","","","",""
"","html-keyboard-response","165","717598","0.0-92.0-1.0","""event"",""trial"",""time""
""fullscreenenter"",""0"",""1936""
","
","
","""event"",""trial"",""time""
""fullscreenenter"",""0"",""1936""
","
","null","<p></p>","null","","","","","","","","","","","","","","","","","","","","","","",""
"","do_trial","166","722853","0.0-93.0-0.0","""event"",""trial"",""time""
""fullscreenenter"",""0"",""1936""
","
","
","""event"",""trial"",""time""
""fullscreenenter"",""0"",""1936""
","
","705.1000000089407","","","","","","","","49","1,1,0","1","highway","37","probe-15","0.49132019351651623","0.2862690109519236","0.2922178851358498","1","","","","","","","",""
"","html-keyboard-response","167","723855","0.0-93.0-1.0","""event"",""trial"",""time""
""fullscreenenter"",""0"",""1936""
","
","
","""event"",""trial"",""time""
""fullscreenenter"",""0"",""1936""
","
","null","<p></p>","null","","","","","","","","","","","","","","","","","","","","","","",""
"","do_trial","168","728752","0.0-94.0-0.0","""event"",""trial"",""time""
""fullscreenenter"",""0"",""1936""
","
","
","""event"",""trial"",""time""
""fullscreenenter"",""0"",""1936""
","
","346.20000000298023","","","","","","","","49","1,0,1","1","highway","38","probe-39","0.5575348223027868","0.3465845724929196","0.30017351525675895","1","","","","","","","",""
"","html-keyboard-response","169","729755","0.0-94.0-1.0","""event"",""trial"",""time""
""fullscreenenter"",""0"",""1936""
","
","
","""event"",""trial"",""time""
""fullscreenenter"",""0"",""1936""
","
","null","<p></p>","null","","","","","","","","","","","","","","","","","","","","","","",""
"","do_trial","170","734731","0.0-95.0-0.0","""event"",""trial"",""time""
""fullscreenenter"",""0"",""1936""
","
","
","""event"",""trial"",""time""
""fullscreenenter"",""0"",""1936""
","
","420","","","","","","","","49","1,0,0","1","highway","39","probe-77","0.6482078598391093","0.3115323176302232","0.18180671531741294","1","","","","","","","",""
"","html-keyboard-response","171","735733","0.0-95.0-1.0","""event"",""trial"",""time""
""fullscreenenter"",""0"",""1936""
","
","
","""event"",""trial"",""time""
""fullscreenenter"",""0"",""1936""
","
","null","<p></p>","null","","","","","","","","","","","","","","","","","","","","","","",""
"","do_trial","172","740761","0.0-96.0-0.0","""event"",""trial"",""time""
""fullscreenenter"",""0"",""1936""
","
","
","""event"",""trial"",""time""
""fullscreenenter"",""0"",""1936""
","
","477.5","","","","","","","","49","1,0,0","1","highway","40","probe-96","0.6260917910297407","0.36816882929336836","0.20841232026856818","1","","","","","","","",""
"","html-keyboard-response","173","741763","0.0-96.0-1.0","""event"",""trial"",""time""
""fullscreenenter"",""0"",""1936""
","
","
","""event"",""trial"",""time""
""fullscreenenter"",""0"",""1936""
","
","null","<p></p>","null","","","","","","","","","","","","","","","","","","","","","","",""
"","do_trial","174","746632","0.0-97.0-0.0","""event"",""trial"",""time""
""fullscreenenter"",""0"",""1936""
","
","
","""event"",""trial"",""time""
""fullscreenenter"",""0"",""1936""
","
","319.5","","","","","","","","49","1,1,0","1","highway","41","probe-220","0.5157061563264271","0.32399218335411434","0.15045868873086726","1","","","","","","","",""
"","html-keyboard-response","175","747634","0.0-97.0-1.0","""event"",""trial"",""time""
""fullscreenenter"",""0"",""1936""
","
","
","""event"",""trial"",""time""
""fullscreenenter"",""0"",""1936""
","
","null","<p></p>","null","","","","","","","","","","","","","","","","","","","","","","",""
"","do_trial","176","752895","0.0-98.0-0.0","""event"",""trial"",""time""
""fullscreenenter"",""0"",""1936""
","
","
","""event"",""trial"",""time""
""fullscreenenter"",""0"",""1936""
","
","710.5","","","","","","","","49","1,0,0","1","highway","42","probe-37","0.4066116124930196","0.2701293646664417","0.0647636008182352","1","","","","","","","",""
"","html-keyboard-response","177","753898","0.0-98.0-1.0","""event"",""trial"",""time""
""fullscreenenter"",""0"",""1936""
","
","
","""event"",""trial"",""time""
""fullscreenenter"",""0"",""1936""
","
","null","<p></p>","null","","","","","","","","","","","","","","","","","","","","","","",""
"","do_trial","178","759280","0.0-99.0-0.0","""event"",""trial"",""time""
""fullscreenenter"",""0"",""1936""
","
","
","""event"",""trial"",""time""
""fullscreenenter"",""0"",""1936""
","
","831.3999999910593","","","","","","","","49","0,0,0","1","highway","43","probe-91","0.26279020384564933","0.46235678713719447","0.11792005774788752","0","","","","","","","",""
"","html-keyboard-response","179","760286","0.0-99.0-1.0","""event"",""trial"",""time""
""fullscreenenter"",""0"",""1936""
","
","
","""event"",""trial"",""time""
""fullscreenenter"",""0"",""1936""
","
","null","<p></p>","null","","","","","","","","","","","","","","","","","","","","","","",""
"","do_trial","180","764976","0.0-100.0-0.0","""event"",""trial"",""time""
""fullscreenenter"",""0"",""1936""
","
","
","""event"",""trial"",""time""
""fullscreenenter"",""0"",""1936""
","
","134.20000000298023","","","","","","","","49","1,0,0","1","highway","44","probe-01","0.15170347754405528","0.4639995496346009","0.07947193752767095","1","","","","","","","",""
"","html-keyboard-response","181","765979","0.0-100.0-1.0","""event"",""trial"",""time""
""fullscreenenter"",""0"",""1936""
","
","
","""event"",""trial"",""time""
""fullscreenenter"",""0"",""1936""
","
","null","<p></p>","null","","","","","","","","","","","","","","","","","","","","","","",""
"","do_trial","182","771085","0.0-101.0-0.0","""event"",""trial"",""time""
""fullscreenenter"",""0"",""1936""
","
","
","""event"",""trial"",""time""
""fullscreenenter"",""0"",""1936""
","
","556.1000000089407","","","","","","","","49","1,1,0","1","highway","45","probe-95","0.0896878032290122","0.4966600334809884","0.08594334695630133","1","","","","","","","",""
"","html-keyboard-response","183","772087","0.0-101.0-1.0","""event"",""trial"",""time""
""fullscreenenter"",""0"",""1936""
","
","
","""event"",""trial"",""time""
""fullscreenenter"",""0"",""1936""
","
","null","<p></p>","null","","","","","","","","","","","","","","","","","","","","","","",""
"","do_trial","184","776640","0.0-102.0-0.0","""event"",""trial"",""time""
""fullscreenenter"",""0"",""1936""
","
","
","""event"",""trial"",""time""
""fullscreenenter"",""0"",""1936""
","
","0.20000000298023224","","","","","","","","49","0,1,1","1","highway","46","probe-59","0.16919461480518325","0.4445971480603799","0.240129574640005","0","","","","","","","",""
"","html-keyboard-response","185","777647","0.0-102.0-1.0","""event"",""trial"",""time""
""fullscreenenter"",""0"",""1936""
","
","
","""event"",""trial"",""time""
""fullscreenenter"",""0"",""1936""
","
","null","<p></p>","null","","","","","","","","","","","","","","","","","","","","","","",""
"","do_trial","186","782565","0.0-103.0-0.0","""event"",""trial"",""time""
""fullscreenenter"",""0"",""1936""
","
","
","""event"",""trial"",""time""
""fullscreenenter"",""0"",""1936""
","
","368.3999999910593","","","","","","","","49","0,0,0","1","highway","47","probe-167","0.2004346237306588","0.3746302822725558","0.11084074212454013","0","","","","","","","",""
"","html-keyboard-response","187","783567","0.0-103.0-1.0","""event"",""trial"",""time""
""fullscreenenter"",""0"",""1936""
","
","
","""event"",""trial"",""time""
""fullscreenenter"",""0"",""1936""
","
","null","<p></p>","null","","","","","","","","","","","","","","","","","","","","","","",""
"","do_trial","188","788661","0.0-104.0-0.0","""event"",""trial"",""time""
""fullscreenenter"",""0"",""1936""
","
","
","""event"",""trial"",""time""
""fullscreenenter"",""0"",""1936""
","
","544.1999999880791","","","","","","","","49","0,0,0","1","highway","48","probe-150","0.34217515093636314","0.3523583460128402","0.058252430500055505","0","","","","","","","",""
"","html-keyboard-response","189","789663","0.0-104.0-1.0","""event"",""trial"",""time""
""fullscreenenter"",""0"",""1936""
","
","
","""event"",""trial"",""time""
""fullscreenenter"",""0"",""1936""
","
","null","<p></p>","null","","","","","","","","","","","","","","","","","","","","","","",""
"","do_trial","190","794671","0.0-105.0-0.0","""event"",""trial"",""time""
""fullscreenenter"",""0"",""1936""
","
","
","""event"",""trial"",""time""
""fullscreenenter"",""0"",""1936""
","
","455.20000000298023","","","","","","","","49","1,0,0","1","highway","49","probe-164","0.28882401528500257","0.4196187495702808","0.11966094340839625","1","","","","","","","",""
"","html-keyboard-response","191","795673","0.0-105.0-1.0","""event"",""trial"",""time""
""fullscreenenter"",""0"",""1936""
","
","
","""event"",""trial"",""time""
""fullscreenenter"",""0"",""1936""
","
","null","<p></p>","null","","","","","","","","","","","","","","","","","","","","","","",""
"","do_trial","192","800857","0.0-106.0-0.0","""event"",""trial"",""time""
""fullscreenenter"",""0"",""1936""
","
","
","""event"",""trial"",""time""
""fullscreenenter"",""0"",""1936""
","
","633.9000000059605","","","","","","","","49","0,0,0","1","highway","50","probe-134","0.24874720260097316","0.42047216965608564","0.12617118032403657","0","","","","","","","",""
"","html-keyboard-response","193","801859","0.0-106.0-1.0","""event"",""trial"",""time""
""fullscreenenter"",""0"",""1936""
","
","
","""event"",""trial"",""time""
""fullscreenenter"",""0"",""1936""
","
","null","<p></p>","null","","","","","","","","","","","","","","","","","","","","","","",""
"","do_trial","194","806763","0.0-107.0-0.0","""event"",""trial"",""time""
""fullscreenenter"",""0"",""1936""
","
","
","""event"",""trial"",""time""
""fullscreenenter"",""0"",""1936""
","
","353.90000000596046","","","","","","","","49","0,1,0","1","highway","51","probe-119","0.08869394009925091","0.5345551773301381","0.18885006185680603","0","","","","","","","",""
"","html-keyboard-response","195","807764","0.0-107.0-1.0","""event"",""trial"",""time""
""fullscreenenter"",""0"",""1936""
","
","
","""event"",""trial"",""time""
""fullscreenenter"",""0"",""1936""
","
","null","<p></p>","null","","","","","","","","","","","","","","","","","","","","","","",""
"","do_trial","196","812726","0.0-108.0-0.0","""event"",""trial"",""time""
""fullscreenenter"",""0"",""1936""
","
","
","""event"",""trial"",""time""
""fullscreenenter"",""0"",""1936""
","
","411.6000000089407","","","","","","","","49","0,1,0","1","highway","52","probe-110","0.2582221457189623","0.5760469343186533","0.26047645250521945","0","","","","","","","",""
"","html-keyboard-response","197","813728","0.0-108.0-1.0","""event"",""trial"",""time""
""fullscreenenter"",""0"",""1936""
","
","
","""event"",""trial"",""time""
""fullscreenenter"",""0"",""1936""
","
","null","<p></p>","null","","","","","","","","","","","","","","","","","","","","","","",""
"","do_trial","198","818596","0.0-109.0-0.0","""event"",""trial"",""time""
""fullscreenenter"",""0"",""1936""
","
","
","""event"",""trial"",""time""
""fullscreenenter"",""0"",""1936""
","
","317.09999999403954","","","","","","","","50","1,1,0","1","highway","53","probe-44","0.30258430717341983","0.645135723925135","0.07701082781152511","1","","","","","","","",""
"","html-keyboard-response","199","819598","0.0-109.0-1.0","""event"",""trial"",""time""
""fullscreenenter"",""0"",""1936""
","
","
","""event"",""trial"",""time""
""fullscreenenter"",""0"",""1936""
","
","null","<p></p>","null","","","","","","","","","","","","","","","","","","","","","","",""
"","do_trial","200","824434","0.0-110.0-0.0","""event"",""trial"",""time""
""fullscreenenter"",""0"",""1936""
","
","
","""event"",""trial"",""time""
""fullscreenenter"",""0"",""1936""
","
","283.3999999910593","","","","","","","","50","0,1,0","1","highway","54","probe-48","0.2246391880737168","0.7187425059539772","0.13685913003223996","1","","","","","","","",""
"","html-keyboard-response","201","825440","0.0-110.0-1.0","""event"",""trial"",""time""
""fullscreenenter"",""0"",""1936""
","
","
","""event"",""trial"",""time""
""fullscreenenter"",""0"",""1936""
","
","null","<p></p>","null","","","","","","","","","","","","","","","","","","","","","","",""
"","do_trial","202","830301","0.0-111.0-0.0","""event"",""trial"",""time""
""fullscreenenter"",""0"",""1936""
","
","
","""event"",""trial"",""time""
""fullscreenenter"",""0"",""1936""
","
","310.09999999403954","","","","","","","","50","0,1,0","1","highway","55","probe-174","0.18002304833712876","0.7181961874433412","0.10721027720908799","1","","","","","","","",""
"","html-keyboard-response","203","831304","0.0-111.0-1.0","""event"",""trial"",""time""
""fullscreenenter"",""0"",""1936""
","
","
","""event"",""trial"",""time""
""fullscreenenter"",""0"",""1936""
","
","null","<p></p>","null","","","","","","","","","","","","","","","","","","","","","","",""
"","do_trial","204","836162","0.0-112.0-0.0","""event"",""trial"",""time""
""fullscreenenter"",""0"",""1936""
","
","
","""event"",""trial"",""time""
""fullscreenenter"",""0"",""1936""
","
","307.5","","","","","","","","50","0,0,1","1","highway","56","probe-209","0.1952177569770611","0.6838935564214558","0.16495641039769424","0","","","","","","","",""
"","html-keyboard-response","205","837164","0.0-112.0-1.0","""event"",""trial"",""time""
""fullscreenenter"",""0"",""1936""
","
","
","""event"",""trial"",""time""
""fullscreenenter"",""0"",""1936""
","
","null","<p></p>","null","","","","","","","","","","","","","","","","","","","","","","",""
"","do_trial","206","842046","0.0-113.0-0.0","""event"",""trial"",""time""
""fullscreenenter"",""0"",""1936""
","
","
","""event"",""trial"",""time""
""fullscreenenter"",""0"",""1936""
","
","329.79999999701977","","","","","","","","50","1,0,0","1","highway","57","probe-32","0.17137559782748793","0.6609062683566086","0.19421814496743314","0","","","","","","","",""
"","html-keyboard-response","207","843048","0.0-113.0-1.0","""event"",""trial"",""time""
""fullscreenenter"",""0"",""1936""
","
","
","""event"",""trial"",""time""
""fullscreenenter"",""0"",""1936""
","
","null","<p></p>","null","","","","","","","","","","","","","","","","","","","","","","",""
"","do_trial","208","847816","0.0-114.0-0.0","""event"",""trial"",""time""
""fullscreenenter"",""0"",""1936""
","
","
","""event"",""trial"",""time""
""fullscreenenter"",""0"",""1936""
","
","218","","","","","","","","50","0,1,0","1","highway","58","probe-08","0.11310028494562381","0.6292598180002323","0.24447162873079745","1","","","","","","","",""
"","html-keyboard-response","209","848819","0.0-114.0-1.0","""event"",""trial"",""time""
""fullscreenenter"",""0"",""1936""
","
","
","""event"",""trial"",""time""
""fullscreenenter"",""0"",""1936""
","
","null","<p></p>","null","","","","","","","","","","","","","","","","","","","","","","",""
"","do_trial","210","853788","0.0-115.0-0.0","""event"",""trial"",""time""
""fullscreenenter"",""0"",""1936""
","
","
","""event"",""trial"",""time""
""fullscreenenter"",""0"",""1936""
","
","418.6000000089407","","","","","","","","51","0,0,0","1","highway","59","probe-136","0.37136043166958543","0.657181159534688","0.269635276746978","0","","","","","","","",""
"","html-keyboard-response","211","854791","0.0-115.0-1.0","""event"",""trial"",""time""
""fullscreenenter"",""0"",""1936""
","
","
","""event"",""trial"",""time""
""fullscreenenter"",""0"",""1936""
","
","null","<p></p>","null","","","","","","","","","","","","","","","","","","","","","","",""
"","do_trial","212","859599","0.0-116.0-0.0","""event"",""trial"",""time""
""fullscreenenter"",""0"",""1936""
","
","
","""event"",""trial"",""time""
""fullscreenenter"",""0"",""1936""
","
","257.8999999910593","","","","","","","","50","0,1,0","1","highway","60","probe-172","0.41480854746365786","0.6207214383333453","0.09501784764646783","1","","","","","","","",""
"","html-keyboard-response","213","860602","0.0-116.0-1.0","""event"",""trial"",""time""
""fullscreenenter"",""0"",""1936""
","
","
","""event"",""trial"",""time""
""fullscreenenter"",""0"",""1936""
","
","null","<p></p>","null","","","","","","","","","","","","","","","","","","","","","","",""
"","do_trial","214","865409","0.0-117.0-0.0","""event"",""trial"",""time""
""fullscreenenter"",""0"",""1936""
","
","
","""event"",""trial"",""time""
""fullscreenenter"",""0"",""1936""
","
","256.3999999910593","","","","","","","","50","0,1,0","1","highway","61","probe-16","0.35793061607873855","0.7245220060812324","0.13869202505201358","1","","","","","","","",""
"","html-keyboard-response","215","866411","0.0-117.0-1.0","""event"",""trial"",""time""
""fullscreenenter"",""0"",""1936""
","
","
","""event"",""trial"",""time""
""fullscreenenter"",""0"",""1936""
","
","null","<p></p>","null","","","","","","","","","","","","","","","","","","","","","","",""
"","do_trial","216","871276","0.0-118.0-0.0","""event"",""trial"",""time""
""fullscreenenter"",""0"",""1936""
","
","
","""event"",""trial"",""time""
""fullscreenenter"",""0"",""1936""
","
","314.90000000596046","","","","","","","","50","1,1,0","1","highway","62","probe-112","0.3128913716904546","0.7889426741225097","0.10584993072760832","1","","","","","","","",""
"","html-keyboard-response","217","872278","0.0-118.0-1.0","""event"",""trial"",""time""
""fullscreenenter"",""0"",""1936""
","
","
","""event"",""trial"",""time""
""fullscreenenter"",""0"",""1936""
","
","null","<p></p>","null","","","","","","","","","","","","","","","","","","","","","","",""
"","do_trial","218","877156","0.0-119.0-0.0","""event"",""trial"",""time""
""fullscreenenter"",""0"",""1936""
","
","
","""event"",""trial"",""time""
""fullscreenenter"",""0"",""1936""
","
","327.3999999910593","","","","","","","","50","1,0,0","1","highway","63","probe-87","0.3198207614530785","0.6473999416281154","0.11783191013546279","0","","","","","","","",""
"","html-keyboard-response","219","878158","0.0-119.0-1.0","""event"",""trial"",""time""
""fullscreenenter"",""0"",""1936""
","
","
","""event"",""trial"",""time""
""fullscreenenter"",""0"",""1936""
","
","null","<p></p>","null","","","","","","","","","","","","","","","","","","","","","","",""
"","do_trial","220","882931","0.0-120.0-0.0","""event"",""trial"",""time""
""fullscreenenter"",""0"",""1936""
","
","
","""event"",""trial"",""time""
""fullscreenenter"",""0"",""1936""
","
","223.30000001192093","","","","","","","","50","0,1,0","1","highway","64","probe-143","0.3046225711987732","0.6616416650583861","0.20358964525877205","1","","","","","","","",""
"","html-keyboard-response","221","883933","0.0-120.0-1.0","""event"",""trial"",""time""
""fullscreenenter"",""0"",""1936""
","
","
","""event"",""trial"",""time""
""fullscreenenter"",""0"",""1936""
","
","null","<p></p>","null","","","","","","","","","","","","","","","","","","","","","","",""
"","do_trial","222","888840","0.0-121.0-0.0","""event"",""trial"",""time""
""fullscreenenter"",""0"",""1936""
","
","
","""event"",""trial"",""time""
""fullscreenenter"",""0"",""1936""
","
","355.1000000089407","","","","","","","","50","1,0,0","1","highway","65","probe-198","0.24111197271297372","0.7053215058228333","0.19130137302085928","0","","","","","","","",""
"","html-keyboard-response","223","889843","0.0-121.0-1.0","""event"",""trial"",""time""
""fullscreenenter"",""0"",""1936""
","
","
","""event"",""trial"",""time""
""fullscreenenter"",""0"",""1936""
","
","null","<p></p>","null","","","","","","","","","","","","","","","","","","","","","","",""
"","do_trial","224","894710","0.0-122.0-0.0","""event"",""trial"",""time""
""fullscreenenter"",""0"",""1936""
","
","
","""event"",""trial"",""time""
""fullscreenenter"",""0"",""1936""
","
","316.70000000298023","","","","","","","","50","1,1,0","1","highway","66","probe-156","0.17771232285386915","0.7066631116012516","0.0702313368696617","1","","","","","","","",""
"","html-keyboard-response","225","895712","0.0-122.0-1.0","""event"",""trial"",""time""
""fullscreenenter"",""0"",""1936""
","
","
","""event"",""trial"",""time""
""fullscreenenter"",""0"",""1936""
","
","null","<p></p>","null","","","","","","","","","","","","","","","","","","","","","","",""
"","do_trial","226","900558","0.0-123.0-0.0","""event"",""trial"",""time""
""fullscreenenter"",""0"",""1936""
","
","
","""event"",""trial"",""time""
""fullscreenenter"",""0"",""1936""
","
","295.70000000298023","","","","","","","","49","1,0,0","1","highway","67","probe-38","0.24423087345865352","0.6636425094408577","0.22487523039249283","1","","","","","","","",""
"","html-keyboard-response","227","901560","0.0-123.0-1.0","""event"",""trial"",""time""
""fullscreenenter"",""0"",""1936""
","
","
","""event"",""trial"",""time""
""fullscreenenter"",""0"",""1936""
","
","null","<p></p>","null","","","","","","","","","","","","","","","","","","","","","","",""
"","do_trial","228","906470","0.0-124.0-0.0","""event"",""trial"",""time""
""fullscreenenter"",""0"",""1936""
","
","
","""event"",""trial"",""time""
""fullscreenenter"",""0"",""1936""
","
","359.79999999701977","","","","","","","","49","0,1,0","1","highway","68","probe-184","0.2734907012473882","0.6347501833588813","0.10042173888011678","0","","","","","","","",""
"","html-keyboard-response","229","907473","0.0-124.0-1.0","""event"",""trial"",""time""
""fullscreenenter"",""0"",""1936""
","
","
","""event"",""trial"",""time""
""fullscreenenter"",""0"",""1936""
","
","null","<p></p>","null","","","","","","","","","","","","","","","","","","","","","","",""
"","do_trial","230","912265","0.0-125.0-0.0","""event"",""trial"",""time""
""fullscreenenter"",""0"",""1936""
","
","
","""event"",""trial"",""time""
""fullscreenenter"",""0"",""1936""
","
","241.90000000596046","","","","","","","","49","0,1,0","1","highway","69","probe-62","0.24763749825036122","0.5646507102300274","0.08129834324311354","0","","","","","","","",""
"","html-keyboard-response","231","913266","0.0-125.0-1.0","""event"",""trial"",""time""
""fullscreenenter"",""0"",""1936""
","
","
","""event"",""trial"",""time""
""fullscreenenter"",""0"",""1936""
","
","null","<p></p>","null","","","","","","","","","","","","","","","","","","","","","","",""
"","do_bye","232","914771","0.0-126.0-0.0","""event"",""trial"",""time""
""fullscreenenter"",""0"",""1936""
","
","
","""event"",""trial"",""time""
""fullscreenenter"",""0"",""1936""
","
","null","","","","","","","","null","","","","","","","","","","","","","","","","",""
"","break","233","916070","0.0-126.0-1.0","""event"",""trial"",""time""
""fullscreenenter"",""0"",""1936""
","
","
","""event"",""trial"",""time""
""fullscreenenter"",""0"",""1936""
","
","1297.0999999940395","<div class='center'><p>Time to take a quick break! You have 2 minutes to rest, but you can move on sooner if you'd like.</p><p> Press the <b>space bar</b> to continue.</p></div>","32","","","","","","","","","","","","","","","","","","","","","","",""
"","do_travel","234","925073","0.0-127.0-0.0","""event"",""trial"",""time""
""fullscreenenter"",""0"",""1936""
","
","
","""event"",""trial"",""time""
""fullscreenenter"",""0"",""1936""
","
","null","","","","","","","","null","","","","","","","","","","","","","","","","",""
"","do_welcome","235","929080","0.0-127.0-1.0","""event"",""trial"",""time""
""fullscreenenter"",""0"",""1936""
","
","
","""event"",""trial"",""time""
""fullscreenenter"",""0"",""1936""
","
","null","","","","","","","","null","","","","","","","","","","","","","","","","",""
"","do_trial","236","934817","0.0-128.0-0.0","""event"",""trial"",""time""
""fullscreenenter"",""0"",""1936""
","
","
","""event"",""trial"",""time""
""fullscreenenter"",""0"",""1936""
","
","1189.8999999910593","","","","","","","","49","0,1,0","2","mountain","70","probe-175","0.24481744737507824","1","0.06542214899961668","0","","","","","","","",""
"","html-keyboard-response","237","935819","0.0-128.0-1.0","""event"",""trial"",""time""
""fullscreenenter"",""0"",""1936""
","
","
","""event"",""trial"",""time""
""fullscreenenter"",""0"",""1936""
","
","null","<p></p>","null","","","","","","","","","","","","","","","","","","","","","","",""
"","do_trial","238","940701","0.0-129.0-0.0","""event"",""trial"",""time""
""fullscreenenter"",""0"",""1936""
","
","
","""event"",""trial"",""time""
""fullscreenenter"",""0"",""1936""
","
","335","","","","","","","","50","1,1,0","2","mountain","71","probe-191","0.20175885863628523","1","0.16487929077368954","1","","","","","","","",""
"","html-keyboard-response","239","941704","0.0-129.0-1.0","""event"",""trial"",""time""
""fullscreenenter"",""0"",""1936""
","
","
","""event"",""trial"",""time""
""fullscreenenter"",""0"",""1936""
","
","null","<p></p>","null","","","","","","","","","","","","","","","","","","","","","","",""
"","do_trial","240","946620","0.0-130.0-0.0","""event"",""trial"",""time""
""fullscreenenter"",""0"",""1936""
","
","
","""event"",""trial"",""time""
""fullscreenenter"",""0"",""1936""
","
","366.3999999910593","","","","","","","","50","1,0,0","2","mountain","72","probe-215","0.2210113120438966","0.941659355010938","0.12072150550171289","0","","","","","","","",""
"","html-keyboard-response","241","947622","0.0-130.0-1.0","""event"",""trial"",""time""
""fullscreenenter"",""0"",""1936""
","
","
","""event"",""trial"",""time""
""fullscreenenter"",""0"",""1936""
","
","null","<p></p>","null","","","","","","","","","","","","","","","","","","","","","","",""
"","do_trial","242","952451","0.0-131.0-0.0","""event"",""trial"",""time""
""fullscreenenter"",""0"",""1936""
","
","
","""event"",""trial"",""time""
""fullscreenenter"",""0"",""1936""
","
","281.20000000298023","","","","","","","","50","0,0,0","2","mountain","73","probe-194","0.3368667865747203","0.7687260620477906","0.09637456354357594","0","","","","","","","",""
"","html-keyboard-response","243","953453","0.0-131.0-1.0","""event"",""trial"",""time""
""fullscreenenter"",""0"",""1936""
","
","
","""event"",""trial"",""time""
""fullscreenenter"",""0"",""1936""
","
","null","<p></p>","null","","","","","","","","","","","","","","","","","","","","","","",""
"","do_trial","244","958254","0.0-132.0-0.0","""event"",""trial"",""time""
""fullscreenenter"",""0"",""1936""
","
","
","""event"",""trial"",""time""
""fullscreenenter"",""0"",""1936""
","
","249.8999999910593","","","","","","","","51","1,1,0","2","mountain","74","probe-126","0.4298795760429042","0.7514136863265698","0.13329477625820502","0","","","","","","","",""
"","html-keyboard-response","245","959257","0.0-132.0-1.0","""event"",""trial"",""time""
""fullscreenenter"",""0"",""1936""
","
","
","""event"",""trial"",""time""
""fullscreenenter"",""0"",""1936""
","
","null","<p></p>","null","","","","","","","","","","","","","","","","","","","","","","",""
"","do_trial","246","964083","0.0-133.0-0.0","""event"",""trial"",""time""
""fullscreenenter"",""0"",""1936""
","
","
","""event"",""trial"",""time""
""fullscreenenter"",""0"",""1936""
","
","278.6000000089407","","","","","","","","51","0,0,0","2","mountain","75","probe-100","0.3986721740312769","0.6239882392937529","0.29409562080540225","0","","","","","","","",""
"","html-keyboard-response","247","965088","0.0-133.0-1.0","""event"",""trial"",""time""
""fullscreenenter"",""0"",""1936""
","
","
","""event"",""trial"",""time""
""fullscreenenter"",""0"",""1936""
","
","null","<p></p>","null","","","","","","","","","","","","","","","","","","","","","","",""
"","do_trial","248","969927","0.0-134.0-0.0","""event"",""trial"",""time""
""fullscreenenter"",""0"",""1936""
","
","
","""event"",""trial"",""time""
""fullscreenenter"",""0"",""1936""
","
","291.20000000298023","","","","","","","","49","0,0,0","2","mountain","76","probe-40","0.2430769197570899","0.5385883216752804","0.13213594481234553","0","","","","","","","",""
"","html-keyboard-response","249","970930","0.0-134.0-1.0","""event"",""trial"",""time""
""fullscreenenter"",""0"",""1936""
","
","
","""event"",""trial"",""time""
""fullscreenenter"",""0"",""1936""
","
","null","<p></p>","null","","","","","","","","","","","","","","","","","","","","","","",""
"","do_trial","250","975883","0.0-135.0-0.0","""event"",""trial"",""time""
""fullscreenenter"",""0"",""1936""
","
","
","""event"",""trial"",""time""
""fullscreenenter"",""0"",""1936""
","
","403.29999999701977","","","","","","","","50","0,0,1","2","mountain","77","probe-03","0.14768275197096836","0.58792295695271","0.16444156772220372","0","","","","","","","",""
"","html-keyboard-response","251","976890","0.0-135.0-1.0","""event"",""trial"",""time""
""fullscreenenter"",""0"",""1936""
","
","
","""event"",""trial"",""time""
""fullscreenenter"",""0"",""1936""
","
","null","<p></p>","null","","","","","","","","","","","","","","","","","","","","","","",""
"","do_trial","252","981891","0.0-136.0-0.0","""event"",""trial"",""time""
""fullscreenenter"",""0"",""1936""
","
","
","""event"",""trial"",""time""
""fullscreenenter"",""0"",""1936""
","
","451.29999999701977","","","","","","","","49","0,0,0","2","mountain","78","probe-146","0.2782457704938504","0.5483893576006102","0.18634163068408208","0","","","","","","","",""
"","html-keyboard-response","253","982895","0.0-136.0-1.0","""event"",""trial"",""time""
""fullscreenenter"",""0"",""1936""
","
","
","""event"",""trial"",""time""
""fullscreenenter"",""0"",""1936""
","
","null","<p></p>","null","","","","","","","","","","","","","","","","","","","","","","",""
"","do_trial","254","987772","0.0-137.0-0.0","""event"",""trial"",""time""
""fullscreenenter"",""0"",""1936""
","
","
","""event"",""trial"",""time""
""fullscreenenter"",""0"",""1936""
","
","330.5","","","","","","","","50","1,0,0","2","mountain","79","probe-75","0.1883130554824964","0.4333295078151481","0.23995574545884593","0","","","","","","","",""
"","html-keyboard-response","255","988774","0.0-137.0-1.0","""event"",""trial"",""time""
""fullscreenenter"",""0"",""1936""
","
","
","""event"",""trial"",""time""
""fullscreenenter"",""0"",""1936""
","
","null","<p></p>","null","","","","","","","","","","","","","","","","","","","","","","",""
"","do_trial","256","993605","0.0-138.0-0.0","""event"",""trial"",""time""
""fullscreenenter"",""0"",""1936""
","
","
","""event"",""trial"",""time""
""fullscreenenter"",""0"",""1936""
","
","280.59999999403954","","","","","","","","50","1,0,0","2","mountain","80","probe-148","0.30665936282697986","0.3963488506862952","0.24990933043291796","0","","","","","","","",""
"","html-keyboard-response","257","994607","0.0-138.0-1.0","""event"",""trial"",""time""
""fullscreenenter"",""0"",""1936""
","
","
","""event"",""trial"",""time""
""fullscreenenter"",""0"",""1936""
","
","null","<p></p>","null","","","","","","","","","","","","","","","","","","","","","","",""
"","do_trial","258","999472","0.0-139.0-0.0","""event"",""trial"",""time""
""fullscreenenter"",""0"",""1936""
","
","
","""event"",""trial"",""time""
""fullscreenenter"",""0"",""1936""
","
","311.6000000089407","","","","","","","","50","0,1,1","2","mountain","81","probe-51","0.31680971048207274","0.5284672987643432","0.2570092339762782","1","","","","","","","",""
"","html-keyboard-response","259","1000473","0.0-139.0-1.0","""event"",""trial"",""time""
""fullscreenenter"",""0"",""1936""
","
","
","""event"",""trial"",""time""
""fullscreenenter"",""0"",""1936""
","
","null","<p></p>","null","","","","","","","","","","","","","","","","","","","","","","",""
"","do_trial","260","1005320","0.0-140.0-0.0","""event"",""trial"",""time""
""fullscreenenter"",""0"",""1936""
","
","
","""event"",""trial"",""time""
""fullscreenenter"",""0"",""1936""
","
","293","","","","","","","","51","0,1,1","2","mountain","82","probe-203","0.24307793981483908","0.49565647523534323","0.3882307566424787","1","","","","","","","",""
"","html-keyboard-response","261","1006322","0.0-140.0-1.0","""event"",""trial"",""time""
""fullscreenenter"",""0"",""1936""
","
","
","""event"",""trial"",""time""
""fullscreenenter"",""0"",""1936""
","
