"success","trial_type","trial_index","time_elapsed","internal_node_id","rt","stimulus","key_press","subject_id","response","choice_outcomes","context_n","context_img_id","trial_n","probe_img_id","pR_red","pR_white","pR_black","outcome","contextArray_ind","validImageProbes","invalidImageProbes","pRew_Red","pRew_White","pRew_Black","availableForMemProbe","choice_blocks"
"true","fullscreen","0","17110","0.0-0.0","","","","","","","","","","","","","","","","","","","","","",""
"","pavlovia","1","17114","0.0-1.0","","","","","","","","","","","","","","","","","","","","","",""
"","html-keyboard-response","2","30075","0.0-2.0","12960.10000000149","<div class='center'><p>Welcome! This is the first day of the experiment which will last ~30 minutes. In this experiment, you are the head captain of a pirate ship traveling around the world to different places. You will complete several different tasks during this experiment. Here is an overview of these tasks:</p><br><p>Day 1</p><p>1. Tutorial and quiz</p><p>2. Pick a pirate game in 6 different places</p><br><p>Day 2</p><p>3. Pick a pirate game and memory game</p><p>4. Final questions and payment</p><br><p>If you complete the entire experiment, you will receive $15 and a possible bonus payment.</p><p><b>[Press the space bar to begin the tutorial]</b></p></div>","32","614fa5614fcc70a595204146","","","","","","","","","","","","","","","","","",""
"","html-keyboard-response","3","40603","0.0-3.0","10526.099999997765","<div class='center'><p>You’ll stop at these 6 islands on your journey. You'll be able to see them in the distance from your ship.</p><p><img src='run_exp/static/images/contexts/all_contexts.png' height='500'></p><p><b>[Press the space bar to continue]</b></p></div>","32","","","","","","","","","","","","","","","","","","",""
"","html-keyboard-response","4","56642","0.0-4.0","16037.300000000745","<div class='center'><p> The pirates on your ship will rob other ships as they leave island</p> These ships have just sold their things to the people living on the island, so they will have lots and lots of gold on them.</p><p><img src='run_exp/static/images/tutorial/ship_center.png' height='400'></p><p><b>[Press the space bar to continue]</b></p></div>","32","","","","","","","","","","","","","","","","","","",""
"","html-keyboard-response","5","66911","0.0-5.0","10267.89999999851","<div class='center'><p>As the head captain, you do not have to rob any ships yourself.</p><p>Another pirate will be doing the robbing for you. </p><p><img src='run_exp/static/images/tutorial/pirates_all_crop.png' height='200'></p><p>If they could rob the ship, then you will get a stack of gold coins like this:</p><p><img src='run_exp/static/images/tutorial/reward.png' height='150'></p><p> If they couldn't rob the ship, then you will get no gold coins and you'll see a big red x like this: </p><p><img src='run_exp/static/images/tutorial/reward_no.png' height='150'></p><p> How much bonus money you make is based on how many gold coins you collect.</p><p><b>[Press the space bar to continue]</b></p><div>","32","","","","","","","","","","","","","","","","","","",""
"","html-keyboard-response","6","81119","0.0-6.0","14206","<div class='center'><p>Even the most skilled pirate can not rob EVERY ship.</p><p> Some ships will have very strong defenses against pirate attacks.</p><p> For example, blue beard, here, is very, very good at robbing ships.</p><p> You can press the <b>‘1’</b> button on the keyboard to choose him.</p><p> Try choosing him 10 times to see how often he can rob a ship. </p><p><img src='run_exp/static/images/tutorial/blue.png' height='500'></p></div>","49","","","","","","","","","","","","","","","","","","",""
"","html-keyboard-response","7","82632","0.0-7.0","null","<div class='center'><p><img src='run_exp/static/images/tutorial/blue_win.png' height='500'></p></div>","null","","","","","","","","","","","","","","","","","","",""
"","html-keyboard-response","8","82837","0.0-8.0","204.5","<div class='center'><img src='run_exp/static/images/tutorial/blue.png' height='500'></p></div>","49","","","","","","","","","","","","","","","","","","",""
"","html-keyboard-response","9","84344","0.0-9.0","null","<div class='center'><p><img src='run_exp/static/images/tutorial/blue_win.png' height='500'></p></div>","null","","","","","","","","","","","","","","","","","","",""
"","html-keyboard-response","10","85072","0.0-10.0","726.9000000022352","<div class='center'><img src='run_exp/static/images/tutorial/blue.png' height='500'></p></div>","49","","","","","","","","","","","","","","","","","","",""
"","html-keyboard-response","11","86574","0.0-11.0","null","<div class='center'><p><img src='run_exp/static/images/tutorial/blue_win.png' height='500'></p></div>","null","","","","","","","","","","","","","","","","","","",""
"","html-keyboard-response","12","86852","0.0-12.0","276.80000000074506","<div class='center'><img src='run_exp/static/images/tutorial/blue.png' height='500'></p></div>","49","","","","","","","","","","","","","","","","","","",""
"","html-keyboard-response","13","88359","0.0-13.0","null","<div class='center'><p><img src='run_exp/static/images/tutorial/blue_no_win.png' height='500'></p></div>","null","","","","","","","","","","","","","","","","","","",""
"","html-keyboard-response","14","88714","0.0-14.0","353.1000000014901","<div class='center'><img src='run_exp/static/images/tutorial/blue.png' height='500'></p></div>","49","","","","","","","","","","","","","","","","","","",""
"","html-keyboard-response","15","90218","0.0-15.0","null","<div class='center'><p><img src='run_exp/static/images/tutorial/blue_win.png' height='500'></p></div>","null","","","","","","","","","","","","","","","","","","",""
"","html-keyboard-response","16","90396","0.0-16.0","176","<div class='center'><img src='run_exp/static/images/tutorial/blue.png' height='500'></p></div>","49","","","","","","","","","","","","","","","","","","",""
"","html-keyboard-response","17","91897","0.0-17.0","null","<div class='center'><p><img src='run_exp/static/images/tutorial/blue_win.png' height='500'></p></div>","null","","","","","","","","","","","","","","","","","","",""
"","html-keyboard-response","18","92155","0.0-18.0","257","<div class='center'><img src='run_exp/static/images/tutorial/blue.png' height='500'></p></div>","49","","","","","","","","","","","","","","","","","","",""
"","html-keyboard-response","19","93662","0.0-19.0","null","<div class='center'><p><img src='run_exp/static/images/tutorial/blue_win.png' height='500'></p></div>","null","","","","","","","","","","","","","","","","","","",""
"","html-keyboard-response","20","93894","0.0-20.0","230.90000000223517","<div class='center'><img src='run_exp/static/images/tutorial/blue.png' height='500'></p></div>","49","","","","","","","","","","","","","","","","","","",""
"","html-keyboard-response","21","95401","0.0-21.0","null","<div class='center'><p><img src='run_exp/static/images/tutorial/blue_no_win.png' height='500'></p></div>","null","","","","","","","","","","","","","","","","","","",""
"","html-keyboard-response","22","95673","0.0-22.0","271.5","<div class='center'><img src='run_exp/static/images/tutorial/blue.png' height='500'></p></div>","49","","","","","","","","","","","","","","","","","","",""
"","html-keyboard-response","23","97181","0.0-23.0","null","<div class='center'><p><img src='run_exp/static/images/tutorial/blue_win.png' height='500'></p></div>","null","","","","","","","","","","","","","","","","","","",""
"","html-keyboard-response","24","97484","0.0-24.0","301.69999999925494","<div class='center'><img src='run_exp/static/images/tutorial/blue.png' height='500'></p></div>","49","","","","","","","","","","","","","","","","","","",""
"","html-keyboard-response","25","98995","0.0-25.0","null","<div class='center'><p><img src='run_exp/static/images/tutorial/blue_win.png' height='500'></p></div>","null","","","","","","","","","","","","","","","","","","",""
"","html-keyboard-response","26","101982","0.0-26.0","2986.60000000149","<div class='center'><p> See, he could rob the ships most of the time but not every time. </p><p><b>[Press the space bar to continue]</b></p></div>","32","","","","","","","","","","","","","","","","","","",""
"","html-keyboard-response","27","111158","0.0-27.0","9175.10000000149","<div class='center'><p>You will get to choose which of three pirates you want to rob the next ship. <p>Press the <b>‘1’</b> button on your keyboard to pick the pirate with the red beard.</p><p> Press <b>‘2’</b> to pick the pirate with the white beard.</p><p> Press <b>‘3’</b> to pick the pirate with the black beard.</p><p>Try picking a pirate now!</p><p><img src='run_exp/static/images/tutorial/all_pirates.png' height='500'></p></div>","50","","","","","","","","","","","","","","","","","","",""
"","html-keyboard-response","28","113225","0.0-28.0-0.0","2065.199999999255","<div class='center'><p>This pirate could rob the ship!</p><p><img src='run_exp/static/images/tutorial/white_win.png' height='500'></p><p><b>[Press the space bar to continue]</b></p></div>","32","","","","","","","","","","","","","","","","","","",""
"","html-keyboard-response","29","114713","0.0-28.0-1.0","1500.3999999985099","<div class='center'><p>Now try choosing another</p><p><img src='run_exp/static/images/tutorial/all_pirates.png' height='500'></p></div>","49","","","","","","","","","","","","","","","","","","",""
"","html-keyboard-response","30","115914","0.0-29.0-0.0","1199.2999999970198","<div class='center'><p>This pirate could not rob the ship.</p><p><img src='run_exp/static/images/tutorial/red_no_win.png' height='500'></p><p><b>[Press the space bar to continue]</b></p></div>","32","","","","","","","","","","","","","","","","","","",""
"","html-keyboard-response","31","124914","0.0-30.0-0.0","8999.400000002235","<div class='center'><p>If you don’t make your choice fast enough, you’ll have to wait a few seconds before you can make another one. </p><p>You can’t collect more gold coins. You just have to sit and wait.</p><p><img src='run_exp/static/images/miscellaneous/hurry_up.png' height='500'></p><p><b>[Press the space bar to continue]</b></p></div>","32","","","","","","","","","","","","","","","","","","",""
"","html-keyboard-response","32","193283","0.0-30.0-1.0","68360.19999999925","<div class='center'><p>Once you choose a pirate, you’ll be shown the ship they are robbing.</p><p>You will never rob the same ship twice.</p><p>Ships can be told apart from one another by the image on them.</p><p> Every time you see a ship, you will have to remember on which island you saw it.</p><p> Remembering correctly will help you win more bonus money!</p><p>A helpful strategy is to try to come up with a story of the object on the ship interacting with the current island scene.</p><p> For example, here, you could imagine a mug full of water in the desert. </p><p>For a ship with an apple on it on the forest island, you could imagine an apple falling from a tree in the forest.</p><p><img src='run_exp/static/images/tutorial/example_probe.png' height='500'></p><p><b>[Press the space bar to continue]</b></p></div>","32","","","","","","","","","","","","","","","","","","",""
"","html-keyboard-response","33","198321","0.0-30.0-2.0","5037.699999999255","<div class='center'><p>How good a pirate is at robbing ships will depend on the current island.</p><p> A pirate may have visited the island many times before and gained a lot of practice robbing ships there.</p><p>So, they're more likely to bring back gold coins than a pirate who has never visited this island before. </p><p><b>[Press the space bar to continue]</b></p></div>","32","","","","","","","","","","","","","","","","","","",""
"","html-keyboard-response","34","206627","0.0-30.0-3.0","8304.300000000745","<div class='center'><p>How good a pirate is at robbing ships can also change over the time spent on the island<p> Ships may hear from islanders about the pirates coming and will improve their protection against the attack. This may make it harder to rob them.</p><p> Ships may also become lazy and lower their protection. This may make it easier to rob them.</p><br><p>Things are always changing on the high seas! So, try your best to pay attention!</p><p><img src='run_exp/static/images/tutorial/contingency.png' height='500'></p><p><b>[Press the space bar to continue]</b></p></div>","32","","","","","","","","","","","","","","","","","","",""
"","html-keyboard-response","35","232608","0.0-30.0-4.0","25980.5","<div class='center'><p>Let's go over the instructions quickly again.You have two important things to do: </p><b><p> 1. Pick the pirate who is the best at robbing ships on the current island.</p></b><b><p> 2. Remember on which island a ship was robbed.</p> </b><p>How much bonus money you make is based on both. </p><br><p>Let’s try a practice game. The game will start by showing you the pirates. First pick a pirate using the <b> 1, 2, 3 </b> buttons on your keyboard. When you are shown a ship, try to remember the island you’re on by making up a story.</p><p> You only have 3 seconds to pick a pirate, so please make a choice quickly! If you are too slow, you’ll have to wait a bit during the time out.</p><p> Don’t feel rushed, but please do try to make a choice every time.</p><p>This is just a practice game, so you’re not playing for money. </p><p> Good luck, remember press <b>'1'</b> to choose red beard, <b>'2'</b> to choose white beard, and <b>'3'</b> to choose black beard</p><p><b>[Press the space bar to begin the practice game]</b></p></div>","32","","","","","","","","","","","","","","","","","","",""
"","do_welcome","36","234113","0.0-30.0-5.0","null","","","","null","","","","","","","","","","","","","","","","",""
"","do_trial","37","240469","0.0-30.0-6.0","1848","","","","50","1,0,0","","","","","","","","","","","","","","","",""
"","html-keyboard-response","38","241472","0.0-31.0-0.0","null","<p></p>","null","","","","","","","","","","","","","","","","","","",""
"","do_trial","39","247895","0.0-31.0-1.0","1903.5","","","","49","1,1,0","","","","","","","","","","","","","","","",""
"","html-keyboard-response","40","248905","0.0-32.0-0.0","null","<p></p>","null","","","","","","","","","","","","","","","","","","",""
"","do_trial","41","255005","0.0-32.0-1.0","1584.1000000014901","","","","50","1,0,1","","","","","","","","","","","","","","","",""
"","html-keyboard-response","42","256008","0.0-33.0-0.0","null","<p></p>","null","","","","","","","","","","","","","","","","","","",""
"","do_trial","43","261186","0.0-33.0-1.0","663.3999999985099","","","","51","0,1,0","","","","","","","","","","","","","","","",""
"","html-keyboard-response","44","262197","0.0-34.0-0.0","null","<p></p>","null","","","","","","","","","","","","","","","","","","",""
"","do_trial","45","267311","0.0-34.0-1.0","579.7999999970198","","","","49","1,0,0","","","","","","","","","","","","","","","",""
"","do_bye","46","268823","0.0-35.0-0.0","null","","","","null","","","","","","","","","","","","","","","","",""
"","do_travel","47","274836","0.0-35.0-1.0","null","","","","null","","","","","","","","","","","","","","","","",""
"","do_welcome","48","276349","0.0-35.0-2.0","null","","","","null","","","","","","","","","","","","","","","","",""
"","do_trial","49","282903","0.0-35.0-3.0","2033.1000000014901","","","","49","1,0,0","","","","","","","","","","","","","","","",""
"","html-keyboard-response","50","283908","0.0-36.0-0.0","null","<p></p>","null","","","","","","","","","","","","","","","","","","",""
"","do_trial","51","290082","0.0-36.0-1.0","1666.1000000014901","","","","49","1,0,1","","","","","","","","","","","","","","","",""
"","html-keyboard-response","52","291092","0.0-37.0-0.0","null","<p></p>","null","","","","","","","","","","","","","","","","","","",""
"","do_trial","53","296524","0.0-37.0-1.0","914.8999999985099","","","","49","1,1,0","","","","","","","","","","","","","","","",""
"","html-keyboard-response","54","297538","0.0-38.0-0.0","null","<p></p>","null","","","","","","","","","","","","","","","","","","",""
"","do_trial","55","303352","0.0-38.0-1.0","1305","","","","49","0,0,1","","","","","","","","","","","","","","","",""
"","html-keyboard-response","56","304355","0.0-39.0-0.0","null","<p></p>","null","","","","","","","","","","","","","","","","","","",""
"","do_trial","57","310701","0.0-39.0-1.0","1841.5","","","","49","1,0,1","","","","","","","","","","","","","","","",""
"","html-keyboard-response","58","313306","0.0-40.0-0.0","2603.39999999851","<div class='center'><p><img src='run_exp/static/images/tutorial/prac_best_pirate.png'  height='500'></p></div>","49","","","","","","","","","","","","","","","","","","",""
"","html-keyboard-response","59","315600","0.0-41.0-0.0","2293","<div class='center'><p>That's correct! Red beard was the best.</p><p><b>[Press the space bar to continue]</b></p></div>","32","","","","","","","","","","","","","","","","","","",""
"","html-keyboard-response","60","317998","0.0-41.0-1.0","2396","<div class='center'><p><img src='run_exp/static/images/tutorial/prac_source.png'  height='500'></p></div>","50","","","","","","","","","","","","","","","","","","",""
"","html-keyboard-response","61","319239","0.0-42.0-0.0","1240.5","<div class='center'><p>That's correct! You saw this ship on the cavern island.</p><p><b>[Press the space bar to continue]</b></p></div>","32","","","","","","","","","","","","","","","","","","",""
"","html-keyboard-response","62","326634","0.0-42.0-1.0","7394.70000000298","<div class='center'><p>Good job on the practice game! Now, you will be asked you some true or false questions to make sure you really understand the rules of the game.</p><p> Press <b>'1'</b> on the keyboard for true and press <b>'2'</b> for false.</p><p><b>[Press the space bar to begin the quiz]</b></p></div>","32","","","","","","","","","","","","","","","","","","",""
"","html-keyboard-response","63","330669","0.0-42.0-2.0","4034.199999999255","<div class='center'><p>You win bonus money by making choices as fast as possible.</p><p>Press 1 for true and press  2 for false.</p></div>","50","","","","","","","","","","","","","","","","","","",""
"","html-keyboard-response","64","331774","0.0-43.0-0.0","1103.8999999985099","<div class='center'><p>That's correct!</p> <p><b>[press the space bar to continue with the quiz]</b></p></div>","32","","","","","","","","","","","","","","","","","","",""
"","html-keyboard-response","65","337019","0.0-43.0-1.0","5243.900000002235","<div class='center'><p>You press the <b>‘3’</b> button on the keyboard to choose the red bearded pirate. </p><p>Press 1 for true and press  2 for false.</p></div>","50","","","","","","","","","","","","","","","","","","",""
"","html-keyboard-response","66","337882","0.0-44.0-0.0","861.7999999970198","<div class='center'><p>That's correct!</p> <p><b>[press the space bar to continue with the quiz]</b></p></div>","32","","","","","","","","","","","","","","","","","","",""
"","html-keyboard-response","67","343081","0.0-44.0-1.0","5198.300000000745","<div class='center'><p>The pirate who is the best at robbing ships on the first island will be the best on every other island.</p><p>Press 1 for true and press  2 for false.</p></div>","50","","","","","","","","","","","","","","","","","","",""
"","html-keyboard-response","68","343824","0.0-45.0-0.0","742.6999999992549","<div class='center'><p>That's correct!</p> <p><b>[press the space bar to continue with the quiz]</b></p></div>","32","","","","","","","","","","","","","","","","","","",""
"","html-keyboard-response","69","346881","0.0-45.0-1.0","3056.300000000745","<div class='center'><p>You should remember the island where a pirate robbed a ship.</p><p>Press 1 for true and press  2 for false.</p></div>","49","","","","","","","","","","","","","","","","","","",""
"","html-keyboard-response","70","347440","0.0-46.0-0.0","553.5","<div class='center'><p>That's correct!</p> <p><b>[press the space bar to continue with the quiz]</b></p></div>","32","","","","","","","","","","","","","","","","","","",""
"","html-keyboard-response","71","349009","0.0-47.0-0.0","1568","<div class='center'><p>Good job! You’re now ready to move on to the real game!</p> <p><br>[press the space bar to begin!]</br></p></div>","32","","","","","","","","","","","","","","","","","","",""
"","do_welcome","72","350525","0.0-48.0-0.0","null","","","","null","","","","","","","","","","","","","","","","",""
"","do_trial","73","356552","0.0-49.0-0.0","1475.300000000745","","","","49","1,0,0","0","coast","0","probe-99","0.6","0.3","0.1","1","","","","","","","",""
"","html-keyboard-response","74","357566","0.0-49.0-1.0","null","<p></p>","null","","","","","","","","","","","","","","","","","","",""
"","do_trial","75","363310","0.0-50.0-0.0","1202.699999999255","","","","49","1,1,0","0","coast","1","probe-82","0.7113449120757918","0.2225772962462495","0.07472131957828294","1","","","","","","","",""
"","html-keyboard-response","76","364323","0.0-50.0-1.0","null","<p></p>","null","","","","","","","","","","","","","","","","","","",""
"","do_trial","77","370324","0.0-51.0-0.0","1457.4000000022352","","","","49","1,0,0","0","coast","2","probe-32","0.5898194658941669","0.3714018825021194","0.21110335062627827","1","","","","","","","",""
"","html-keyboard-response","78","371336","0.0-51.0-1.0","null","<p></p>","null","","","","","","","","","","","","","","","","","","",""
"","do_trial","79","376542","0.0-52.0-0.0","654","","","","49","1,0,0","0","coast","3","probe-80","0.7291184988897342","0.4664379659095478","0.1646298311779949","1","","","","","","","",""
"","html-keyboard-response","80","377550","0.0-52.0-1.0","null","<p></p>","null","","","","","","","","","","","","","","","","","","",""
"","do_trial","81","382689","0.0-53.0-0.0","597.6000000014901","","","","49","1,0,0","0","coast","4","probe-107","0.7260584674494202","0.31544021572087416","0.06061495851683159","1","","","","","","","",""
"","html-keyboard-response","82","383702","0.0-53.0-1.0","null","<p></p>","null","","","","","","","","","","","","","","","","","","",""
"","do_trial","83","389161","0.0-54.0-0.0","925.1999999992549","","","","49","1,1,0","0","coast","5","probe-36","0.7872703959506256","0.2076802408880315","0.060018391446594266","1","","","","","","","",""
"","html-keyboard-response","84","390172","0.0-54.0-1.0","null","<p></p>","null","","","","","","","","","","","","","","","","","","",""
"","do_trial","85","395419","0.0-55.0-0.0","704.3999999985099","","","","49","1,0,0","0","coast","6","probe-169","0.6947343656398556","0.2839997770155797","0.1738642265359052","1","","","","","","","",""
"","html-keyboard-response","86","396431","0.0-55.0-1.0","null","<p></p>","null","","","","","","","","","","","","","","","","","","",""
"","do_trial","87","402156","0.0-56.0-0.0","1195","","","","49","1,0,0","0","coast","7","probe-112","0.5764573472331631","0.20014571564658895","0.2386647651116598","1","","","","","","","",""
"","html-keyboard-response","88","403163","0.0-56.0-1.0","null","<p></p>","null","","","","","","","","","","","","","","","","","","",""
"","do_trial","89","408307","0.0-57.0-0.0","613.5","","","","49","0,0,0","0","coast","8","probe-37","0.709287948510236","0.16962402260052528","0.17901831014632813","0","","","","","","","",""
"","html-keyboard-response","90","409319","0.0-57.0-1.0","null","<p></p>","null","","","","","","","","","","","","","","","","","","",""
"","do_trial","91","415369","0.0-58.0-0.0","null","","","","null","0,0,1","0","coast","9","probe-203","0.5435894075564983","0.42971887476683196","0.20534025740044004","","","","","","","","",""
"","html-keyboard-response","92","416383","0.0-58.0-1.0","null","<p></p>","null","","","","","","","","","","","","","","","","","","",""
"","do_trial","93","421973","0.0-59.0-0.0","1054.5","","","","50","0,0,1","0","coast","10","probe-183","0.5936206261017037","0.5217411524991286","0.10067365848205255","0","","","","","","","",""
"","html-keyboard-response","94","422975","0.0-59.0-1.0","null","<p></p>","null","","","","","","","","","","","","","","","","","","",""
"","do_trial","95","430482","0.0-60.0-0.0","2974.800000000745","","","","49","0,1,0","0","coast","11","probe-77","0.5258477566334328","0.5182948497005611","0.06583243890779873","0","","","","","","","",""
"","html-keyboard-response","96","431496","0.0-60.0-1.0","null","<p></p>","null","","","","","","","","","","","","","","","","","","",""
"","do_trial","97","436472","0.0-61.0-0.0","439.3999999985099","","","","50","1,0,0","0","coast","12","probe-51","0.5972493635324899","0.36086442277327346","0.1976002016025362","0","","","","","","","",""
"","html-keyboard-response","98","437485","0.0-61.0-1.0","null","<p></p>","null","","","","","","","","","","","","","","","","","","",""
"","do_trial","99","442239","0.0-62.0-0.0","219.69999999925494","","","","51","0,0,1","0","coast","13","probe-158","0.6697721440699514","0.31975994446927586","0.07530814396603681","1","","","","","","","",""
"","html-keyboard-response","100","443251","0.0-62.0-1.0","null","<p></p>","null","","","","","","","","","","","","","","","","","","",""
"","do_trial","101","449479","0.0-63.0-0.0","1694.1000000014901","","","","51","0,1,0","0","coast","14","probe-197","0.6782948554039493","0.4273986735411311","0.17559710199381307","0","","","","","","","",""
"","html-keyboard-response","102","450489","0.0-63.0-1.0","null","<p></p>","null","","","","","","","","","","","","","","","","","","",""
"","do_trial","103","455539","0.0-64.0-0.0","506.9000000022352","","","","49","1,0,0","0","coast","15","probe-121","0.7024817680160784","0.42317113331898215","0.20717624319701908","1","","","","","","","",""
"","html-keyboard-response","104","456548","0.0-64.0-1.0","null","<p></p>","null","","","","","","","","","","","","","","","","","","",""
"","do_trial","105","461709","0.0-65.0-0.0","613.9000000022352","","","","49","0,0,0","0","coast","16","probe-114","0.5907025914307726","0.34263179600379207","0.09792495979769861","0","","","","","","","",""
"","html-keyboard-response","106","462728","0.0-65.0-1.0","null","<p></p>","null","","","","","","","","","","","","","","","","","","",""
"","do_trial","107","467548","0.0-66.0-0.0","278","","","","49","1,0,0","0","coast","17","probe-03","0.5415679650040527","0.19418461377600568","0.13101862728612854","1","","","","","","","",""
"","html-keyboard-response","108","468559","0.0-66.0-1.0","null","<p></p>","null","","","","","","","","","","","","","","","","","","",""
"","do_trial","109","473496","0.0-67.0-0.0","394.1000000014901","","","","51","0,0,0","0","coast","18","probe-140","0.6264503825679112","0.27891440064671996","0.18658587991410983","0","","","","","","","",""
"","html-keyboard-response","110","474500","0.0-67.0-1.0","null","<p></p>","null","","","","","","","","","","","","","","","","","","",""
"","do_trial","111","479493","0.0-68.0-0.0","454.5","","","","49","0,0,0","0","coast","19","probe-54","0.5145021650672122","0.33942437897492744","0.1061652614547765","0","","","","","","","",""
"","html-keyboard-response","112","480502","0.0-68.0-1.0","null","<p></p>","null","","","","","","","","","","","","","","","","","","",""
"","do_trial","113","485525","0.0-69.0-0.0","489.1000000014901","","","","49","0,1,0","0","coast","20","probe-64","0.6324955835310967","0.38489167394728796","0.10904760644280703","0","","","","","","","",""
"","html-keyboard-response","114","486530","0.0-69.0-1.0","null","<p></p>","null","","","","","","","","","","","","","","","","","","",""
"","do_trial","115","491415","0.0-70.0-0.0","345.69999999925494","","","","50","1,1,0","0","coast","21","probe-138","0.6616658995916593","0.27463746390667093","0.09980784199877533","1","","","","","","","",""
"","html-keyboard-response","116","492435","0.0-70.0-1.0","null","<p></p>","null","","","","","","","","","","","","","","","","","","",""
"","do_trial","117","497285","0.0-71.0-0.0","318","","","","50","1,0,0","0","coast","22","probe-191","0.6773837664660589","0.19423487547412444","0.15043123864547467","0","","","","","","","",""
"","html-keyboard-response","118","498288","0.0-71.0-1.0","null","<p></p>","null","","","","","","","","","","","","","","","","","","",""
"","do_trial","119","502912","0.0-72.0-0.0","82.89999999850988","","","","51","1,0,0","0","coast","23","probe-195","0.6720693846333063","0.32065816927140645","0.19367682699662678","0","","","","","","","",""
"","html-keyboard-response","120","503926","0.0-72.0-1.0","null","<p></p>","null","","","","","","","","","","","","","","","","","","",""
"","do_trial","121","509008","0.0-73.0-0.0","548.1999999992549","","","","49","1,1,0","0","coast","24","probe-148","0.6864844061906353","0.3635953697245433","0.29633044029275774","1","","","","","","","",""
"","html-keyboard-response","122","510014","0.0-73.0-1.0","null","<p></p>","null","","","","","","","","","","","","","","","","","","",""
"","do_trial","123","516127","0.0-74.0-0.0","1580.4000000022352","","","","49","0,0,0","0","coast","25","probe-201","0.7157096536943351","0.21300611781599088","0.21219849596926219","0","","","","","","","",""
"","html-keyboard-response","124","517132","0.0-74.0-1.0","null","<p></p>","null","","","","","","","","","","","","","","","","","","",""
"","do_trial","125","523441","0.0-75.0-0.0","1773.5","","","","49","0,0,0","0","coast","26","probe-59","0.6208754769490759","0.2548734014006917","0.31311225843374757","0","","","","","","","",""
"","html-keyboard-response","126","524454","0.0-75.0-1.0","null","<p></p>","null","","","","","","","","","","","","","","","","","","",""
"","do_trial","127","529331","0.0-76.0-0.0","341.5","","","","50","0,0,0","0","coast","27","probe-180","0.7575846662521255","0.20073924644566027","0.31093091750332735","0","","","","","","","",""
"","html-keyboard-response","128","530347","0.0-76.0-1.0","null","<p></p>","null","","","","","","","","","","","","","","","","","","",""
"","do_trial","129","535405","0.0-77.0-0.0","525","","","","49","0,0,0","0","coast","28","probe-67","0.6425812484852556","0.18118789105241737","0.26501055754811764","0","","","","","","","",""
"","html-keyboard-response","130","536414","0.0-77.0-1.0","null","<p></p>","null","","","","","","","","","","","","","","","","","","",""
"","do_trial","131","541268","0.0-78.0-0.0","315.4000000022352","","","","49","1,0,0","0","coast","29","probe-162","0.6785611608435105","0.15828639790232954","0.17447386011532084","1","","","","","","","",""
"","html-keyboard-response","132","542281","0.0-78.0-1.0","null","<p></p>","null","","","","","","","","","","","","","","","","","","",""
"","do_bye","133","543800","0.0-79.0-0.0","null","","","","null","","","","","","","","","","","","","","","","",""
"","do_travel","134","549804","0.0-80.0-0.0","null","","","","null","","","","","","","","","","","","","","","","",""
"","do_welcome","135","551322","0.0-80.0-1.0","null","","","","null","","","","","","","","","","","","","","","","",""
"","do_trial","136","557295","0.0-81.0-0.0","1442.2000000029802","","","","50","1,0,1","1","city","30","probe-209","1","0.27273802818642456","0.24636359374191322","0","","","","","","","",""
"","html-keyboard-response","137","558301","0.0-81.0-1.0","null","<p></p>","null","","","","","","","","","","","","","","","","","","",""
"","do_trial","138","563204","0.0-82.0-0.0","359.9000000022352","","","","49","1,0,0","1","city","31","probe-33","1","0.1780780798009764","0.1660277570929286","1","","","","","","","",""
"","html-keyboard-response","139","564218","0.0-82.0-1.0","null","<p></p>","null","","","","","","","","","","","","","","","","","","",""
"","do_trial","140","569008","0.0-83.0-0.0","259.80000000074506","","","","49","1,1,0","1","city","32","probe-227","1","0.4362934626422262","0.19840899523289884","1","","","","","","","",""
"","html-keyboard-response","141","570028","0.0-83.0-1.0","null","<p></p>","null","","","","","","","","","","","","","","","","","","",""
"","do_trial","142","574944","0.0-84.0-0.0","381.3999999985099","","","","49","0,0,1","1","city","33","probe-04","0.7797315743686178","0.43059969340537524","0.05313629754538928","0","","","","","","","",""
"","html-keyboard-response","143","575950","0.0-84.0-1.0","null","<p></p>","null","","","","","","","","","","","","","","","","","","",""
"","do_trial","144","580762","0.0-85.0-0.0","273.5","","","","49","1,0,0","1","city","34","probe-75","0.7464265034025054","0.3345836026091281","0.05205997291539536","1","","","","","","","",""
"","html-keyboard-response","145","581774","0.0-85.0-1.0","null","<p></p>","null","","","","","","","","","","","","","","","","","","",""
"","do_trial","146","586483","0.0-86.0-0.0","174","","","","49","1,0,0","1","city","35","probe-65","0.7339130128751452","0.33655050752852733","0.10283098014302228","1","","","","","","","",""
"","html-keyboard-response","147","587486","0.0-86.0-1.0","null","<p></p>","null","","","","","","","","","","","","","","","","","","",""
"","do_trial","148","592253","0.0-87.0-0.0","227.59999999776483","","","","49","1,1,0","1","city","36","probe-225","0.6507674477735431","0.21957119682746346","0.07773879305127246","1","","","","","","","",""
"","html-keyboard-response","149","593266","0.0-87.0-1.0","null","<p></p>","null","","","","","","","","","","","","","","","","","","",""
"","do_trial","150","598110","0.0-88.0-0.0","305.3999999985099","","","","49","0,0,0","1","city","37","probe-149","0.6930703715785502","0.2372928616893597","0.10070636357238451","0","","","","","","","",""
"","html-keyboard-response","151","599117","0.0-88.0-1.0","null","<p></p>","null","","","","","","","","","","","","","","","","","","",""
"","do_trial","152","603957","0.0-89.0-0.0","295.80000000074506","","","","49","1,0,0","1","city","38","probe-122","0.754285722831632","0.23565211319186447","0.22307798044037377","1","","","","","","","",""
"","html-keyboard-response","153","604978","0.0-89.0-1.0","null","<p></p>","null","","","","","","","","","","","","","","","","","","",""
"","do_trial","154","609711","0.0-90.0-0.0","199.09999999776483","","","","49","0,0,0","1","city","39","probe-71","0.6504279151100448","0.38934981981350875","0.19243405502488714","0","","","","","","","",""
"","html-keyboard-response","155","610724","0.0-90.0-1.0","null","<p></p>","null","","","","","","","","","","","","","","","","","","",""
"","do_trial","156","616185","0.0-91.0-0.0","916.7999999970198","","","","49","1,1,0","1","city","40","probe-113","0.7295758564240503","0.4154494287179839","0.25409106819825367","1","","","","","","","",""
"","html-keyboard-response","157","617200","0.0-91.0-1.0","null","<p></p>","null","","","","","","","","","","","","","","","","","","",""
"","do_trial","158","622785","0.0-92.0-0.0","1046.9000000022352","","","","49","1,1,1","1","city","41","probe-151","0.7953027433655601","0.4894867855272114","0.240723070088715","1","","","","","","","",""
"","html-keyboard-response","159","623787","0.0-92.0-1.0","null","<p></p>","null","","","","","","","","","","","","","","","","","","",""
"","do_trial","160","628688","0.0-93.0-0.0","360","","","","49","1,0,1","1","city","42","probe-215","0.5653686824690256","0.24277716111603967","0.33843226798884607","1","","","","","","","",""
"","html-keyboard-response","161","629690","0.0-93.0-1.0","null","<p></p>","null","","","","","","","","","","","","","","","","","","",""
"","do_trial","162","635021","0.0-94.0-0.0","791.1999999992549","","","","49","0,1,0","1","city","43","probe-205","0.44856655034615034","0.11533111003918332","0.35198635258272265","0","","","","","","","",""
"","html-keyboard-response","163","636025","0.0-94.0-1.0","null","<p></p>","null","","","","","","","","","","","","","","","","","","",""
"","do_trial","164","642151","0.0-95.0-0.0","1594.699999999255","","","","49","0,1,1","1","city","44","probe-168","0.35005752571503373","0.06366108302447289","0.3558172711215836","0","","","","","","","",""
"","html-keyboard-response","165","643162","0.0-95.0-1.0","null","<p></p>","null","","","","","","","","","","","","","","","","","","",""
"","do_trial","166","648464","0.0-96.0-0.0","761.3000000007451","","","","49","1,0,0","1","city","45","probe-130","0.47986114794850254","0.1472650474323214","0.4619281719814036","1","","","","","","","",""
"","html-keyboard-response","167","649477","0.0-96.0-1.0","null","<p></p>","null","","","","","","","","","","","","","","","","","","",""
"","do_trial","168","655959","0.0-97.0-0.0","1937.3999999985099","","","","49","0,0,1","1","city","46","probe-119","0.37210173345662995","0.2277890053232712","0.6165862852611361","0","","","","","","","",""
"","html-keyboard-response","169","656961","0.0-97.0-1.0","null","<p></p>","null","","","","","","","","","","","","","","","","","","",""
"","do_trial","170","663001","0.0-98.0-0.0","null","","","","null","0,0,0","1","city","47","probe-76","0.22671444770244353","0.1530260182415114","0.5239632695291683","","","","","","","","",""
"","html-keyboard-response","171","664003","0.0-98.0-1.0","null","<p></p>","null","","","","","","","","","","","","","","","","","","",""
"","do_trial","172","668963","0.0-99.0-0.0","415.30000000074506","","","","50","1,0,1","1","city","48","probe-17","0.3462484915761199","0.20842664019367171","0.6162315573393865","0","","","","","","","",""
"","html-keyboard-response","173","669972","0.0-99.0-1.0","null","<p></p>","null","","","","","","","","","","","","","","","","","","",""
"","do_trial","174","676020","0.0-100.0-0.0","null","","","","null","0,0,1","1","city","49","probe-126","0.3575972671388169","0.08027105265889846","0.5898113887849341","","","","","","","","",""
"","html-keyboard-response","175","677025","0.0-100.0-1.0","null","<p></p>","null","","","","","","","","","","","","","","","","","","",""
"","do_trial","176","681932","0.0-101.0-0.0","365.5999999977648","","","","49","1,0,1","1","city","50","probe-136","0.3640266190996694","0.18217740715653277","0.7025664705297036","1","","","","","","","",""
"","html-keyboard-response","177","682948","0.0-101.0-1.0","null","<p></p>","null","","","","","","","","","","","","","","","","","","",""
"","do_trial","178","690434","0.0-102.0-0.0","2942.199999999255","","","","49","1,1,1","1","city","51","probe-62","0.45156708157925785","0.1002845923882601","0.5632093368569097","1","","","","","","","",""
"","html-keyboard-response","179","691439","0.0-102.0-1.0","null","<p></p>","null","","","","","","","","","","","","","","","","","","",""
"","do_trial","180","697375","0.0-103.0-0.0","1388.699999999255","","","","49","0,0,1","1","city","52","probe-19","0.4454984054022493","0.11064749180288834","0.5903911321317699","0","","","","","","","",""
"","html-keyboard-response","181","698390","0.0-103.0-1.0","null","<p></p>","null","","","","","","","","","","","","","","","","","","",""
"","do_trial","182","704438","0.0-104.0-0.0","null","","","","null","0,0,1","1","city","53","probe-164","0.4341033467384698","0.10523598049626172","0.6294901229714297","","","","","","","","",""
"","html-keyboard-response","183","705445","0.0-104.0-1.0","null","<p></p>","null","","","","","","","","","","","","","","","","","","",""
"","do_trial","184","710972","0.0-105.0-0.0","992.6000000014901","","","","51","1,0,1","1","city","54","probe-129","0.640909597471159","0.056899210426476485","0.6001083101125486","1","","","","","","","",""
"","html-keyboard-response","185","711984","0.0-105.0-1.0","null","<p></p>","null","","","","","","","","","","","","","","","","","","",""
"","do_trial","186","717467","0.0-106.0-0.0","940.2999999970198","","","","51","0,0,1","1","city","55","probe-39","0.5170085877193599","0.05421400184963914","0.5040446723685493","1","","","","","","","",""
"","html-keyboard-response","187","718478","0.0-106.0-1.0","null","<p></p>","null","","","","","","","","","","","","","","","","","","",""
"","do_trial","188","723321","0.0-107.0-0.0","295.8999999985099","","","","51","1,0,0","1","city","56","probe-155","0.46760495812614833","0.09622722236941698","0.5499643463834","0","","","","","","","",""
"","html-keyboard-response","189","724331","0.0-107.0-1.0","null","<p></p>","null","","","","","","","","","","","","","","","","","","",""
"","do_trial","190","729190","0.0-108.0-0.0","313.6000000014901","","","","51","0,0,1","1","city","57","probe-124","0.426831768506495","0.09736491282737703","0.677944173594483","1","","","","","","","",""
"","html-keyboard-response","191","730201","0.0-108.0-1.0","null","<p></p>","null","","","","","","","","","","","","","","","","","","",""
"","do_trial","192","737179","0.0-109.0-0.0","2447","","","","51","0,0,0","1","city","58","probe-57","0.39840303413865696","0.054683859947233036","0.4652390964730375","0","","","","","","","",""
"","html-keyboard-response","193","738194","0.0-109.0-1.0","null","<p></p>","null","","","","","","","","","","","","","","","","","","",""
"","do_trial","194","742936","0.0-110.0-0.0","212.39999999850988","","","","49","0,0,1","1","city","59","probe-184","0.40074732423910425","0.18318945318338423","0.5982145769909167","0","","","","","","","",""
"","html-keyboard-response","195","743951","0.0-110.0-1.0","null","<p></p>","null","","","","","","","","","","","","","","","","","","",""
"","do_trial","196","749010","0.0-111.0-0.0","520.6000000014901","","","","50","0,0,1","1","city","60","probe-159","0.2973147442734706","0.14838777230391614","0.5388002254056197","0","","","","","","","",""
"","html-keyboard-response","197","750025","0.0-111.0-1.0","null","<p></p>","null","","","","","","","","","","","","","","","","","","",""
"","do_trial","198","754696","0.0-112.0-0.0","128.5","","","","49","0,0,1","1","city","61","probe-171","0.3171863825213688","0.11169874503957347","0.516179575901828","0","","","","","","","",""
"","html-keyboard-response","199","755705","0.0-112.0-1.0","null","<p></p>","null","","","","","","","","","","","","","","","","","","",""
"","do_trial","200","763192","0.0-113.0-0.0","2944","","","","50","0,0,1","1","city","62","probe-108","0.37417444334822125","0.2238068534089158","0.5326638622896513","0","","","","","","","",""
"","html-keyboard-response","201","764207","0.0-113.0-1.0","null","<p></p>","null","","","","","","","","","","","","","","","","","","",""
"","do_trial","202","770250","0.0-114.0-0.0","null","","","","null","0,0,1","1","city","63","probe-01","0.18668494257470458","0.18777023723170128","0.6207955787765687","","","","","","","","",""
"","html-keyboard-response","203","771260","0.0-114.0-1.0","null","<p></p>","null","","","","","","","","","","","","","","","","","","",""
"","do_trial","204","775911","0.0-115.0-0.0","111.09999999776483","","","","49","0,0,0","1","city","64","probe-20","0.24264178191865862","0.15175912946299633","0.6061768968051691","0","","","","","","","",""
"","html-keyboard-response","205","776922","0.0-115.0-1.0","null","<p></p>","null","","","","","","","","","","","","","","","","","","",""
"","do_trial","206","782276","0.0-116.0-0.0","819.1000000014901","","","","50","1,0,1","1","city","65","probe-214","0.21852856333257642","0.12019707983012703","0.6812397620154376","0","","","","","","","",""
"","html-keyboard-response","207","783290","0.0-116.0-1.0","null","<p></p>","null","","","","","","","","","","","","","","","","","","",""
"","do_trial","208","788254","0.0-117.0-0.0","421.19999999925494","","","","49","1,1,1","1","city","66","probe-05","0.23552136989688385","0.10215906770442285","0.6194531150984403","1","","","","","","","",""
"","html-keyboard-response","209","789264","0.0-117.0-1.0","null","<p></p>","null","","","","","","","","","","","","","","","","","","",""
"","do_trial","210","794522","0.0-118.0-0.0","712.8999999985099","","","","51","0,0,0","1","city","67","probe-160","0.21291030820500878","0.14944506237490898","0.5379331117690556","0","","","","","","","",""
"","html-keyboard-response","211","795534","0.0-118.0-1.0","null","<p></p>","null","","","","","","","","","","","","","","","","","","",""
"","do_trial","212","801691","0.0-119.0-0.0","1623","","","","49","0,1,1","1","city","68","probe-55","0.13228713374946274","0.2883963071771979","0.6452997609537038","0","","","","","","","",""
"","html-keyboard-response","213","802704","0.0-119.0-1.0","null","<p></p>","null","","","","","","","","","","","","","","","","","","",""
"","do_trial","214","807516","0.0-120.0-0.0","282.9000000022352","","","","50","0,1,1","1","city","69","probe-78","0.1718100117511904","0.2515271881603563","0.5183976633164474","1","","","","","","","",""
"","html-keyboard-response","215","808529","0.0-120.0-1.0","null","<p></p>","null","","","","","","","","","","","","","","","","","","",""
"","do_bye","216","810044","0.0-121.0-0.0","null","","","","null","","","","","","","","","","","","","","","","",""
"","do_travel","217","816048","0.0-122.0-0.0","null","","","","null","","","","","","","","","","","","","","","","",""
"","do_welcome","218","817551","0.0-122.0-1.0","null","","","","null","","","","","","","","","","","","","","","","",""
"","do_trial","219","823596","0.0-123.0-0.0","1501.9000000022352","","","","49","0,0,1","2","countryside","70","probe-173","0.15503532926511246","0.2298876830675965","1","0","","","","","","","",""
"","html-keyboard-response","220","824607","0.0-123.0-1.0","null","<p></p>","null","","","","","","","","","","","","","","","","","","",""
"","do_trial","221","829292","0.0-124.0-0.0","153.5","","","","50","1,0,1","2","countryside","71","probe-79","0.20798766667371626","0.3615301471100796","1","0","","","","","","","",""
"","html-keyboard-response","222","830302","0.0-124.0-1.0","null","<p></p>","null","","","","","","","","","","","","","","","","","","",""
"","do_trial","223","835052","0.0-125.0-0.0","219.09999999776483","","","","51","0,0,1","2","countryside","72","probe-211","0.28002282746721757","0.2991355168013376","0.7985631354992324","1","","","","","","","",""
"","html-keyboard-response","224","836066","0.0-125.0-1.0","null","<p></p>","null","","","","","","","","","","","","","","","","","","",""
"","do_trial","225","840727","0.0-126.0-0.0","127.29999999701977","","","","51","1,0,0","2","countryside","73","probe-172","0.2890665775596169","0.274221430799384","0.6650266070989903","0","","","","","","","",""
"","html-keyboard-response","226","841741","0.0-126.0-1.0","null","<p></p>","null","","","","","","","","","","","","","","","","","","",""
"","do_trial","227","846285","0.0-127.0-0.0","0.10000000149011612","","","","51","1,0,1","2","countryside","74","probe-132","0.24108690763251972","0.13469659790888763","0.5967460525347243","1","","","","","","","",""
"","html-keyboard-response","228","847299","0.0-127.0-1.0","null","<p></p>","null","","","","","","","","","","","","","","","","","","",""
"","do_trial","229","852102","0.0-128.0-0.0","254.29999999701977","","","","51","0,0,1","2","countryside","75","probe-141","0.2190514535171664","0.22228638300308348","0.61565371383293","1","","","","","","","",""
"","html-keyboard-response","230","853108","0.0-128.0-1.0","null","<p></p>","null","","","","","","","","","","","","","","","","","","",""
"","do_trial","231","857741","0.0-129.0-0.0","101.59999999776483","","","","51","1,0,1","2","countryside","76","probe-106","0.446450792940973","0.15292822367314463","0.7017351138087413","1","","","","","","","",""
"","html-keyboard-response","232","858750","0.0-129.0-1.0","null","<p></p>","null","","","","","","","","","","","","","","","","","","",""
"","do_trial","233","863333","0.0-130.0-0.0","38.399999998509884","","","","51","0,0,1","2","countryside","77","probe-02","0.41106080583291255","0.11299194577458099","0.6780553139233279","1","","","","","","","",""
"","html-keyboard-response","234","864343","0.0-130.0-1.0","null","<p></p>","null","","","","","","","","","","","","","","","","","","",""
"","do_trial","235","869133","0.0-131.0-0.0","247.80000000074506","","","","51","1,0,0","2","countryside","78","probe-92","0.3342007623834985","0.11417384528128112","0.6662483009574411","0","","","","","","","",""
"","html-keyboard-response","236","870136","0.0-131.0-1.0","null","<p></p>","null","","","","","","","","","","","","","","","","","","",""
"","do_trial","237","874994","0.0-132.0-0.0","322.5","","","","51","0,1,1","2","countryside","79","probe-101","0.36637716593810893","0.14426690135517947","0.506116063734031","1","","","","","","","",""
"","html-keyboard-response","238","876014","0.0-132.0-1.0","null","<p></p>","null","","","","","","","","","","","","","","","","","","",""
"","do_trial","239","881015","0.0-133.0-0.0","460.30000000074506","","","","51","0,1,1","2","countryside","80","probe-116","0.34038711336870264","0.2777400767055807","0.5287892838701435","1","","","","","","","",""
"","html-keyboard-response","240","882024","0.0-133.0-1.0","null","<p></p>","null","","","","","","","","","","","","","","","","","","",""
"","do_trial","241","886814","0.0-134.0-0.0","245.29999999701977","","","","51","0,0,0","2","countryside","81","probe-70","0.41369533248558277","0.3103956126708968","0.5479072631760641","0","","","","","","","",""
"","html-keyboard-response","242","887835","0.0-134.0-1.0","null","<p></p>","null","","","","","","","","","","","","","","","","","","",""
"","do_trial","243","892515","0.0-135.0-0.0","146.39999999850988","","","","51","1,0,1","2","countryside","82","probe-188","0.4800416638952939","0.18056565836280813","0.5152645006794012","1","","","","","","","",""
"","html-keyboard-response","244","893520","0.0-135.0-1.0","null","<p></p>","null","","","","","","","","","","","","","","","","","","",""
"","do_trial","245","899217","0.0-136.0-0.0","1163.199999999255","","","","51","1,0,0","2","countryside","83","probe-41","0.7198237118204","0.15326496603206208","0.4559985647594238","0","","","","","","","",""
"","html-keyboard-response","246","900223","0.0-136.0-1.0","null","<p></p>","null","","","","","","","","","","","","","","","","","","",""
"","do_trial","247","905913","0.0-137.0-0.0","1155.5","","","","51","0,0,0","2","countryside","84","probe-146","0.6221878928193852","0.17194049377018694","0.3163640153296791","0","","","","","","","",""
"","html-keyboard-response","248","906923","0.0-137.0-1.0","null","<p></p>","null","","","","","","","","","","","","","","","","","","",""
"","do_trial","249","911981","0.0-138.0-0.0","526.6999999992549","","","","51","0,0,0","2","countryside","85","probe-95","0.7708137133564951","0.12701411124181258","0.32675446574705136","0","","","","","","","",""
"","html-keyboard-response","250","912985","0.0-138.0-1.0","null","<p></p>","null","","","","","","","","","","","","","","","","","","",""
"","do_trial","251","917558","0.0-139.0-0.0","41","","","","50","0,0,0","2","countryside","86","probe-153","0.7294086406235839","0.12196580044434818","0.44946582907592003","0","","","","","","","",""
"","html-keyboard-response","252","918566","0.0-139.0-1.0","null","<p></p>","null","","","","","","","","","","","","","","","","","","",""
"","do_trial","253","923307","0.0-140.0-0.0","205","","","","50","1,1,1","2","countryside","87","probe-49","0.6041063655702283","0.18613980534530541","0.44564890174270494","1","","","","","","","",""
"","html-keyboard-response","254","924324","0.0-140.0-1.0","null","<p></p>","null","","","","","","","","","","","","","","","","","","",""
"","do_trial","255","929113","0.0-141.0-0.0","251.10000000149012","","","","50","0,0,0","2","countryside","88","probe-120","0.7040123154651007","0.13967845142648228","0.524844672721631","0","","","","","","","",""
"","html-keyboard-response","256","930129","0.0-141.0-1.0","null","<p></p>","null","","","","","","","","","","","","","","","","","","",""
"","do_trial","257","934921","0.0-142.0-0.0","257.80000000074506","","","","49","0,0,1","2","countryside","89","probe-35","0.6891293057390132","0.19768011070613248","0.4977401108513632","0","","","","","","","",""
"","html-keyboard-response","258","935930","0.0-142.0-1.0","null","<p></p>","null","","","","","","","","","","","","","","","","","","",""
"","do_trial","259","940569","0.0-143.0-0.0","104.80000000074506","","","","49","1,0,0","2","countryside","90","probe-186","0.6608747892402644","0.15332117813057675","0.45831228527509943","1","","","","","","","",""
"","html-keyboard-response","260","941577","0.0-143.0-1.0","null","<p></p>","null","","","","","","","","","","","","","","","","","","",""
"","do_trial","261","946321","0.0-144.0-0.0","207.19999999925494","","","","49","1,0,0","2","countryside","91","probe-143","0.6418181520645988","0.1201307438954956","0.403831613226136","1","","","","","","","",""
"","html-keyboard-response","262","947337","0.0-144.0-1.0","null","<p></p>","null","","","","","","","","","","","","","","","","","","",""
"","do_trial","263","951892","0.0-145.0-0.0","25","","","","49","1,0,0","2","countryside","92","probe-193","0.6602746069729397","0.13651520507417497","0.41308563679854743","1","","","","","","","",""
"","html-keyboard-response","264","952907","0.0-145.0-1.0","null","<p></p>","null","","","","","","","","","","","","","","","","","","",""
"","do_trial","265","957782","0.0-146.0-0.0","332.3999999985099","","","","49","1,0,0","2","countryside","93","probe-144","0.5476586121988684","0.1054909396748256","0.3423710842303171","1","","","","","","","",""
"","html-keyboard-response","266","958786","0.0-146.0-1.0","null","<p></p>","null","","","","","","","","","","","","","","","","","","",""
"","do_trial","267","963711","0.0-147.0-0.0","392.30000000074506","","","","49","1,1,0","2","countryside","94","probe-38","0.5710798662303457","0.10166456726388941","0.3312424008665024","1","","","","","","","",""
"","html-keyboard-response","268","964721","0.0-147.0-1.0","null","<p></p>","null","","","","","","","","","","","","","","","","","","",""
"","do_trial","269","969536","0.0-148.0-0.0","273.5999999977648","","","","49","1,0,0","2","countryside","95","probe-170","0.5991686049477538","0.09778282238073974","0.22529654924307918","1","","","","","","","",""
"","html-keyboard-response","270","970548","0.0-148.0-1.0","null","<p></p>","null","","","","","","","","","","","","","","","","","","",""
"","do_trial","271","975324","0.0-149.0-0.0","235.90000000223517","","","","49","1,0,0","2","countryside","96","probe-230","0.6373957134004907","0.17431775522241055","0.39867304485283533","1","","","","","","","",""
"","html-keyboard-response","272","976334","0.0-149.0-1.0","null","<p></p>","null","","","","","","","","","","","","","","","","","","",""
"","do_trial","273","981124","0.0-150.0-0.0","250","","","","49","1,0,0","2","countryside","97","probe-109","0.7473411338926116","0.05936398728411101","0.25725496128015557","1","","","","","","","",""
"","html-keyboard-response","274","982130","0.0-150.0-1.0","null","<p></p>","null","","","","","","","","","","","","","","","","","","",""
"","do_trial","275","987196","0.0-151.0-0.0","536","","","","49","0,0,0","2","countryside","98","probe-14","0.5881898423751681","0.10273228545545635","0.3480496585538648","0","","","","","","","",""
"","html-keyboard-response","276","988198","0.0-151.0-1.0","null","<p></p>","null","","","","","","","","","","","","","","","","","","",""
"","do_trial","277","993204","0.0-152.0-0.0","462.1000000014901","","","","49","0,0,1","2","countryside","99","probe-134","0.5508815351518282","0.22753988317835","0.3936472897968985","0","","","","","","","",""
"","html-keyboard-response","278","994207","0.0-152.0-1.0","null","<p></p>","null","","","","","","","","","","","","","","","","","","",""
"","do_trial","279","999077","0.0-153.0-0.0","333.8999999985099","","","","49","0,1,0","2","countryside","100","probe-218","0.5470427420293618","0.35236444441316894","0.4616178298076982","0","","","","","","","",""
"","html-keyboard-response","280","1000081","0.0-153.0-1.0","null","<p></p>","null","","","","","","","","","","","","","","","","","","",""
"","do_trial","281","1004967","0.0-154.0-0.0","346.19999999925494","","","","50","0,0,1","2","countryside","101","probe-24","0.5633928080692397","0.1399867990003115","0.19445826193486507","0","","","","","","","",""
"","html-keyboard-response","282","1005972","0.0-154.0-1.0","null","<p></p>","null","","","","","","","","","","","","","","","","","","",""
"","do_trial","283","1010637","0.0-155.0-0.0","122.19999999925494","","","","51","1,0,0","2","countryside","102","probe-224","0.6216375989391331","0.1861100767540261","0.1037517517907682","0","","","","","","","",""
"","html-keyboard-response","284","1011645","0.0-155.0-1.0","null","<p></p>","null","","","","","","","","","","","","","","","","","","",""
"","do_trial","285","1016429","0.0-156.0-0.0","250.5","","","","51","1,0,0","2","countryside","103","probe-16","0.7116708015276808","0.1131227119635676","0.19513624309393465","0","","","","","","","",""
"","html-keyboard-response","286","1017434","0.0-156.0-1.0","null","<p></p>","null","","","","","","","","","","","","","","","","","","",""
"","do_trial","287","1022263","0.0-157.0-0.0","295","","","","49","1,0,0","2","countryside","104","probe-145","0.6649993673231545","0.15241840794639752","0.16641490238402887","1","","","","","","","",""
"","html-keyboard-response","288","1023266","0.0-157.0-1.0","null","<p></p>","null","","","","","","","","","","","","","","","","","","",""
"","do_trial","289","1027938","0.0-158.0-0.0","143","","","","49","1,0,1","2","countryside","105","probe-104","0.6076752948143216","0.20074054349812895","0.3881757714991994","1","","","","","","","",""
"","html-keyboard-response","290","1028943","0.0-158.0-1.0","null","<p></p>","null","","","","","","","","","","","","","","","","","","",""
"","do_trial","291","1034799","0.0-159.0-0.0","1312.6000000014901","","","","49","0,0,0","2","countryside","106","probe-46","0.5759232380774586","0.1351088974160165","0.36551977542080166","0","","","","","","","",""
"","html-keyboard-response","292","1035807","0.0-159.0-1.0","null","<p></p>","null","","","","","","","","","","","","","","","","","","",""
"","do_trial","293","1040836","0.0-160.0-0.0","485.0999999977648","","","","49","0,0,1","2","countryside","107","probe-86","0.7109920197036085","0.11966778816173637","0.3272268135828306","0","","","","","","","",""
"","html-keyboard-response","294","1041851","0.0-160.0-1.0","null","<p></p>","null","","","","","","","","","","","","","","","","","","",""
"","do_trial","295","1047712","0.0-161.0-0.0","1321.699999999255","","","","51","1,0,0","2","countryside","108","probe-48","0.7773805693131912","0.23209187598266157","0.24045751305734056","0","","","","","","","",""
"","html-keyboard-response","296","1048727","0.0-161.0-1.0","null","<p></p>","null","","","","","","","","","","","","","","","","","","",""
"","do_trial","297","1053566","0.0-162.0-0.0","307.80000000074506","","","","49","0,0,0","2","countryside","109","probe-125","0.5873324899166288","0.19790181133013737","0.2742264417993186","0","","","","","","","",""
"","html-keyboard-response","298","1054568","0.0-162.0-1.0","null","<p></p>","null","","","","","","","","","","","","","","","","","","",""
"","do_bye","299","1056081","0.0-163.0-0.0","null","","","","null","","","","","","","","","","","","","","","","",""
"","do_travel","300","1062091","0.0-164.0-0.0","null","","","","null","","","","","","","","","","","","","","","","",""
"","do_welcome","301","1063611","0.0-164.0-1.0","null","","","","null","","","","","","","","","","","","","","","","",""
"","do_trial","302","1069133","0.0-165.0-0.0","988.8000000007451","","","","50","1,1,0","3","forest","110","probe-98","1","0.059616648642435134","0.23317556358115682","1","","","","","","","",""
"","html-keyboard-response","303","1070150","0.0-165.0-1.0","null","<p></p>","null","","","","","","","","","","","","","","","","","","",""
"","do_trial","304","1074782","0.0-166.0-0.0","102.39999999850988","","","","50","1,0,0","3","forest","111","probe-103","1","0.16152718373366173","0.32203743886487074","0","","","","","","","",""
"","html-keyboard-response","305","1075795","0.0-166.0-1.0","null","<p></p>","null","","","","","","","","","","","","","","","","","","",""
"","do_trial","306","1080415","0.0-167.0-0.0","77.69999999925494","","","","50","1,0,0","3","forest","112","probe-52","0.7160642211845684","0.2111737400943874","0.33635670980252996","0","","","","","","","",""
"","html-keyboard-response","307","1081429","0.0-167.0-1.0","null","<p></p>","null","","","","","","","","","","","","","","","","","","",""
"","do_trial","308","1086045","0.0-168.0-0.0","82.5","","","","50","0,0,0","3","forest","113","probe-127","0.5626715889254524","0.14554046539907947","0.2980161551129878","0","","","","","","","",""
"","html-keyboard-response","309","1087056","0.0-168.0-1.0","null","<p></p>","null","","","","","","","","","","","","","","","","","","",""
"","do_trial","310","1091936","0.0-169.0-0.0","351","","","","51","0,0,0","3","forest","114","probe-152","0.570495088050791","0.10325906689792864","0.24718174350527317","0","","","","","","","",""
"","html-keyboard-response","311","1092939","0.0-169.0-1.0","null","<p></p>","null","","","","","","","","","","","","","","","","","","",""
"","do_trial","312","1098975","0.0-170.0-0.0","null","","","","null","0,0,1","3","forest","115","probe-100","0.5557810532238263","0.13493328719461262","0.39590122397163785","","","","","","","","",""
"","html-keyboard-response","313","1099988","0.0-170.0-1.0","null","<p></p>","null","","","","","","","","","","","","","","","","","","",""
"","do_trial","314","1104852","0.0-171.0-0.0","331.8999999985099","","","","51","1,1,1","3","forest","116","probe-28","0.5522589276037185","0.10141566998346183","0.4232675141347649","1","","","","","","","",""
"","html-keyboard-response","315","1105868","0.0-171.0-1.0","null","<p></p>","null","","","","","","","","","","","","","","","","","","",""
"","do_trial","316","1110672","0.0-172.0-0.0","270.6000000014901","","","","51","1,0,1","3","forest","117","probe-45","0.6017583245855493","0.0921851163237813","0.27406919685544684","1","","","","","","","",""
"","html-keyboard-response","317","1111682","0.0-172.0-1.0","null","<p></p>","null","","","","","","","","","","","","","","","","","","",""
"","do_trial","318","1116455","0.0-173.0-0.0","237.20000000298023","","","","51","1,0,0","3","forest","118","probe-60","0.4761910523367688","0.19749662239330568","0.19520077310180955","0","","","","","","","",""
"","html-keyboard-response","319","1117462","0.0-173.0-1.0","null","<p></p>","null","","","","","","","","","","","","","","","","","","",""
"","do_trial","320","1124170","0.0-174.0-0.0","2178.2999999970198","","","","51","0,1,0","3","forest","119","probe-50","0.41227111160617297","0.16451487158919573","0.28726787640432766","0","","","","","","","",""
"","html-keyboard-response","321","1125184","0.0-174.0-1.0","null","<p></p>","null","","","","","","","","","","","","","","","","","","",""
"","do_trial","322","1130121","0.0-175.0-0.0","393.69999999925494","","","","49","0,0,1","3","forest","120","probe-206","0.37235662791244684","0.06611858386553841","0.3341800103139562","0","","","","","","","",""
"","html-keyboard-response","323","1131136","0.0-175.0-1.0","null","<p></p>","null","","","","","","","","","","","","","","","","","","",""
"","do_trial","324","1137169","0.0-176.0-0.0","null","","","","null","0,0,0","3","forest","121","probe-212","0.3132583683898091","0.24650741798476994","0.28433745461606885","","","","","","","","",""
"","html-keyboard-response","325","1138180","0.0-176.0-1.0","null","<p></p>","null","","","","","","","","","","","","","","","","","","",""
"","do_trial","326","1144160","0.0-177.0-0.0","1447","","","","49","0,0,0","3","forest","122","probe-72","0.148946394757487","0.23123029125235472","0.3157614035227988","0","","","","","","","",""
"","html-keyboard-response","327","1145180","0.0-177.0-1.0","null","<p></p>","null","","","","","","","","","","","","","","","","","","",""
"","do_trial","328","1151474","0.0-178.0-0.0","1753.7000000029802","","","","49","0,0,1","3","forest","123","probe-181","0.05849982299842948","0.13879892345294087","0.3389349516287533","0","","","","","","","",""
"","html-keyboard-response","329","1152491","0.0-178.0-1.0","null","<p></p>","null","","","","","","","","","","","","","","","","","","",""
"","do_trial","330","1158188","0.0-179.0-0.0","1161.6000000014901","","","","50","0,1,0","3","forest","124","probe-68","0.1567132426644799","0.12571734728525882","0.46835047493452814","1","","","","","","","",""
"","html-keyboard-response","331","1159193","0.0-179.0-1.0","null","<p></p>","null","","","","","","","","","","","","","","","","","","",""
"","do_trial","332","1165330","0.0-180.0-0.0","1604","","","","50","0,0,0","3","forest","125","probe-31","0.17209518123097609","0.23750371150312766","0.4767723631955403","0","","","","","","","",""
"","html-keyboard-response","333","1166339","0.0-180.0-1.0","null","<p></p>","null","","","","","","","","","","","","","","","","","","",""
"","do_trial","334","1173109","0.0-181.0-0.0","2241.800000000745","","","","50","0,1,1","3","forest","126","probe-23","0.13785683684922087","0.27494660143134847","0.5876770985798296","1","","","","","","","",""
"","html-keyboard-response","335","1174124","0.0-181.0-1.0","null","<p></p>","null","","","","","","","","","","","","","","","","","","",""
"","do_trial","336","1179596","0.0-182.0-0.0","937.6999999992549","","","","50","1,1,0","3","forest","127","probe-128","0.26930994339917663","0.4305280583845294","0.5655632933862755","1","","","","","","","",""
"","html-keyboard-response","337","1180598","0.0-182.0-1.0","null","<p></p>","null","","","","","","","","","","","","","","","","","","",""
"","do_trial","338","1186716","0.0-183.0-0.0","1581.5","","","","50","0,0,1","3","forest","128","probe-139","0.11327344158222143","0.2925258185076811","0.47996580418710627","0","","","","","","","",""
"","html-keyboard-response","339","1187724","0.0-183.0-1.0","null","<p></p>","null","","","","","","","","","","","","","","","","","","",""
"","do_trial","340","1193767","0.0-184.0-0.0","null","","","","null","0,0,0","3","forest","129","probe-73","0.23203171171462353","0.2718404383226121","0.5126416147351456","","","","","","","","",""
"","html-keyboard-response","341","1194772","0.0-184.0-1.0","null","<p></p>","null","","","","","","","","","","","","","","","","","","",""
"","do_trial","342","1200618","0.0-185.0-0.0","1301.2999999970198","","","","50","0,0,0","3","forest","130","probe-117","0.2286745020619767","0.27347397781972316","0.6077399199283205","0","","","","","","","",""
"","html-keyboard-response","343","1201620","0.0-185.0-1.0","null","<p></p>","null","","","","","","","","","","","","","","","","","","",""
"","do_trial","344","1206154","0.0-186.0-0.0","0.10000000149011612","","","","49","0,0,0","3","forest","131","probe-175","0.27103603743526644","0.2771146479615659","0.5509430804109586","0","","","","","","","",""
"","html-keyboard-response","345","1207171","0.0-186.0-1.0","null","<p></p>","null","","","","","","","","","","","","","","","","","","",""
"","do_trial","346","1212106","0.0-187.0-0.0","391.30000000074506","","","","51","0,1,0","3","forest","132","probe-102","0.07440053984414657","0.278069220281156","0.6157760627675932","0","","","","","","","",""
"","html-keyboard-response","347","1213121","0.0-187.0-1.0","null","<p></p>","null","","","","","","","","","","","","","","","","","","",""
"","do_trial","348","1219205","0.0-188.0-0.0","1546.8999999985099","","","","51","0,0,1","3","forest","133","probe-74","0.09064971905573603","0.341673914420832","0.5359590758740221","1","","","","","","","",""
"","html-keyboard-response","349","1220220","0.0-188.0-1.0","null","<p></p>","null","","","","","","","","","","","","","","","","","","",""
"","do_trial","350","1224991","0.0-189.0-0.0","236.69999999925494","","","","51","0,0,0","3","forest","134","probe-11","0.1852787158917146","0.35812937203898776","0.4919833451100169","0","","","","","","","",""
"","html-keyboard-response","351","1226001","0.0-189.0-1.0","null","<p></p>","null","","","","","","","","","","","","","","","","","","",""
"","do_trial","352","1231771","0.0-190.0-0.0","1227.2000000029802","","","","51","0,0,1","3","forest","135","probe-10","0.1211422866854475","0.40538125674998216","0.5633543722946723","1","","","","","","","",""
"","html-keyboard-response","353","1232779","0.0-190.0-1.0","null","<p></p>","null","","","","","","","","","","","","","","","","","","",""
"","do_trial","354","1238025","0.0-191.0-0.0","716.3000000007451","","","","51","0,0,0","3","forest","136","probe-154","0.08221140369575576","0.3451710003531001","0.5886369899206665","0","","","","","","","",""
"","html-keyboard-response","355","1239035","0.0-191.0-1.0","null","<p></p>","null","","","","","","","","","","","","","","","","","","",""
"","do_trial","356","1243844","0.0-192.0-0.0","280","","","","50","0,1,1","3","forest","137","probe-190","0.09384397184677656","0.284428333047914","0.47362555599041145","1","","","","","","","",""
"","html-keyboard-response","357","1244849","0.0-192.0-1.0","null","<p></p>","null","","","","","","","","","","","","","","","","","","",""
"","do_trial","358","1249653","0.0-193.0-0.0","261.80000000074506","","","","50","0,1,0","3","forest","138","probe-83","0.07982364710619728","0.19477713429584917","0.4890446819235969","1","","","","","","","",""
"","html-keyboard-response","359","1250658","0.0-193.0-1.0","null","<p></p>","null","","","","","","","","","","","","","","","","","","",""
"","do_trial","360","1255469","0.0-194.0-0.0","268.1000000014901","","","","49","0,0,0","3","forest","139","probe-200","0.10347937274678043","0.20757195485987393","0.36879951183529125","0","","","","","","","",""
"","html-keyboard-response","361","1256475","0.0-194.0-1.0","null","<p></p>","null","","","","","","","","","","","","","","","","","","",""
"","do_trial","362","1261158","0.0-195.0-0.0","152.60000000149012","","","","50","0,0,0","3","forest","140","probe-63","0.07127304275029984","0.2722075772298368","0.34234898254948803","0","","","","","","","",""
"","html-keyboard-response","363","1262163","0.0-195.0-1.0","null","<p></p>","null","","","","","","","","","","","","","","","","","","",""
"","do_trial","364","1266753","0.0-196.0-0.0","57.30000000074506","","","","51","0,0,0","3","forest","141","probe-105","0.050367358976861204","0.2533480343655109","0.4296594491216557","0","","","","","","","",""
"","html-keyboard-response","365","1267762","0.0-196.0-1.0","null","<p></p>","null","","","","","","","","","","","","","","","","","","",""
"","do_trial","366","1272298","0.0-197.0-0.0","0.19999999925494194","","","","49","0,1,0","3","forest","142","probe-178","0.07593817384118294","0.4465643334237746","0.4491267273101802","0","","","","","","","",""
"","html-keyboard-response","367","1273307","0.0-197.0-1.0","null","<p></p>","null","","","","","","","","","","","","","","","","","","",""
"","do_trial","368","1277910","0.0-198.0-0.0","73.5","","","","50","0,0,1","3","forest","143","probe-182","0.06889700984391894","0.3138156424772793","0.4926789334155512","0","","","","","","","",""
"","html-keyboard-response","369","1278918","0.0-198.0-1.0","null","<p></p>","null","","","","","","","","","","","","","","","","","","",""
"","do_trial","370","1283756","0.0-199.0-0.0","299.5","","","","50","0,0,0","3","forest","144","probe-66","0.15420494195676895","0.23664463204108238","0.3865717476632893","0","","","","","","","",""
"","html-keyboard-response","371","1284762","0.0-199.0-1.0","null","<p></p>","null","","","","","","","","","","","","","","","","","","",""
"","do_trial","372","1289642","0.0-200.0-0.0","342.19999999925494","","","","50","0,0,0","3","forest","145","probe-161","0.09246946629078646","0.23089263320681824","0.5819058616225207","0","","","","","","","",""
"","html-keyboard-response","373","1290649","0.0-200.0-1.0","null","<p></p>","null","","","","","","","","","","","","","","","","","","",""
"","do_trial","374","1296584","0.0-201.0-0.0","1406.199999999255","","","","50","0,0,0","3","forest","146","probe-135","0.06608377838701943","0.25397962630756765","0.619263574838443","0","","","","","","","",""
"","html-keyboard-response","375","1297592","0.0-201.0-1.0","null","<p></p>","null","","","","","","","","","","","","","","","","","","",""
"","do_trial","376","1303426","0.0-202.0-0.0","1292.7000000029802","","","","50","0,0,0","3","forest","147","probe-94","0.14072034126080799","0.13658218731760435","0.6096031155950664","0","","","","","","","",""
"","html-keyboard-response","377","1304442","0.0-202.0-1.0","null","<p></p>","null","","","","","","","","","","","","","","","","","","",""
"","do_trial","378","1310191","0.0-203.0-0.0","1219.6000000014901","","","","50","0,0,0","3","forest","148","probe-29","0.13516174840903317","0.3270880431111243","0.7116218774145368","0","","","","","","","",""
"","html-keyboard-response","379","1311205","0.0-203.0-1.0","null","<p></p>","null","","","","","","","","","","","","","","","","","","",""
"","do_trial","380","1317255","0.0-204.0-0.0","null","","","","null","0,0,1","3","forest","149","probe-137","0.09038855862297375","0.28768216562117366","0.6532606300950932","","","","","","","","",""
"","html-keyboard-response","381","1318267","0.0-204.0-1.0","null","<p></p>","null","","","","","","","","","","","","","","","","","","",""
"","do_bye","382","1319785","0.0-205.0-0.0","null","","","","null","","","","","","","","","","","","","","","","",""
"","do_travel","383","1325792","0.0-206.0-0.0","null","","","","null","","","","","","","","","","","","","","","","",""
"","do_welcome","384","1327311","0.0-206.0-1.0","null","","","","null","","","","","","","","","","","","","","","","",""
"","do_trial","385","1333361","0.0-207.0-0.0","null","","","","null","0,0,1","4","mountain","150","probe-165","0.06153517420946583","0.41003473226309844","1","","","","","","","","",""
"","html-keyboard-response","386","1334365","0.0-207.0-1.0","null","<p></p>","null","","","","","","","","","","","","","","","","","","",""
"","do_trial","387","1339241","0.0-208.0-0.0","341.80000000074506","","","","51","0,1,1","4","mountain","151","probe-142","0.08797606888297929","0.4294235392279627","1","1","","","","","","","",""
"","html-keyboard-response","388","1340249","0.0-208.0-1.0","null","<p></p>","null","","","","","","","","","","","","","","","","","","",""
"","do_trial","389","1345828","0.0-209.0-0.0","1031.5","","","","51","0,0,1","4","mountain","152","probe-196","0.09699924749032077","0.270553045993314","0.8422312249822886","1","","","","","","","",""
"","html-keyboard-response","390","1346843","0.0-209.0-1.0","null","<p></p>","null","","","","","","","","","","","","","","","","","","",""
"","do_trial","391","1351812","0.0-210.0-0.0","431.8999999985099","","","","51","0,0,0","4","mountain","153","probe-131","0.09570385006978054","0.267901199620218","0.7573310128841856","0","","","","","","","",""
"","html-keyboard-response","392","1352817","0.0-210.0-1.0","null","<p></p>","null","","","","","","","","","","","","","","","","","","",""
"","do_trial","393","1357721","0.0-211.0-0.0","371.0999999977648","","","","49","0,0,1","4","mountain","154","probe-123","0.08315652487560286","0.13932302923445888","0.7502497064260331","0","","","","","","","",""
"","html-keyboard-response","394","1358727","0.0-211.0-1.0","null","<p></p>","null","","","","","","","","","","","","","","","","","","",""
"","do_trial","395","1363636","0.0-212.0-0.0","377.6000000014901","","","","49","0,1,0","4","mountain","155","probe-43","0.1772203714853743","0.2979081573343257","0.6026791092607063","0","","","","","","","",""
"","html-keyboard-response","396","1364643","0.0-212.0-1.0","null","<p></p>","null","","","","","","","","","","","","","","","","","","",""
"","do_trial","397","1369234","0.0-213.0-0.0","54.400000002235174","","","","50","0,0,0","4","mountain","156","probe-133","0.1797839445793141","0.26106189232337684","0.5847153505459459","0","","","","","","","",""
"","html-keyboard-response","398","1370252","0.0-213.0-1.0","null","<p></p>","null","","","","","","","","","","","","","","","","","","",""
"","do_trial","399","1375079","0.0-214.0-0.0","291.3999999985099","","","","50","0,0,1","4","mountain","157","probe-42","0.13904353526632743","0.29272803210665155","0.5475189077916109","0","","","","","","","",""
"","html-keyboard-response","400","1376094","0.0-214.0-1.0","null","<p></p>","null","","","","","","","","","","","","","","","","","","",""
"","do_trial","401","1381015","0.0-215.0-0.0","390.8999999985099","","","","51","0,0,1","4","mountain","158","probe-08","0.2719107397882636","0.18746949599251372","0.5869376250249418","1","","","","","","","",""
"","html-keyboard-response","402","1382018","0.0-215.0-1.0","null","<p></p>","null","","","","","","","","","","","","","","","","","","",""
"","do_trial","403","1387071","0.0-216.0-0.0","512.4000000022352","","","","51","0,0,0","4","mountain","159","probe-150","0.217404672519977","0.29294536114890096","0.7000502802252035","0","","","","","","","",""
"","html-keyboard-response","404","1388088","0.0-216.0-1.0","null","<p></p>","null","","","","","","","","","","","","","","","","","","",""
"","do_trial","405","1392871","0.0-217.0-0.0","244.10000000149012","","","","51","0,1,1","4","mountain","160","probe-27","0.1273819488791092","0.22474966248104072","0.6778582700125488","1","","","","","","","",""
"","html-keyboard-response","406","1393885","0.0-217.0-1.0","null","<p></p>","null","","","","","","","","","","","","","","","","","","",""
"","do_trial","407","1398996","0.0-218.0-0.0","567.3999999985099","","","","51","0,0,1","4","mountain","161","probe-69","0.18332845888984536","0.32717038493673484","0.6592326640166162","1","","","","","","","",""
"","html-keyboard-response","408","1400006","0.0-218.0-1.0","null","<p></p>","null","","","","","","","","","","","","","","","","","","",""
"","do_trial","409","1404831","0.0-219.0-0.0","294","","","","51","0,1,1","4","mountain","162","probe-166","0.11139092371220591","0.4310194477857574","0.5697282127634535","1","","","","","","","",""
"","html-keyboard-response","410","1405841","0.0-219.0-1.0","null","<p></p>","null","","","","","","","","","","","","","","","","","","",""
"","do_trial","411","1410724","0.0-220.0-0.0","348.0999999977648","","","","51","0,0,0","4","mountain","163","probe-22","0.20303888806124093","0.5006646131136208","0.4913050511299662","0","","","","","","","",""
"","html-keyboard-response","412","1411733","0.0-220.0-1.0","null","<p></p>","null","","","","","","","","","","","","","","","","","","",""
"","do_trial","413","1416598","0.0-221.0-0.0","325.30000000074506","","","","51","0,1,0","4","mountain","164","probe-25","0.19590431842248174","0.4407944092225128","0.42331914660138936","0","","","","","","","",""
"","html-keyboard-response","414","1417608","0.0-221.0-1.0","null","<p></p>","null","","","","","","","","","","","","","","","","","","",""
"","do_trial","415","1422387","0.0-222.0-0.0","237.10000000149012","","","","49","0,0,0","4","mountain","165","probe-187","0.11639243219347706","0.6773233201570823","0.3742164643991584","0","","","","","","","",""
"","html-keyboard-response","416","1423392","0.0-222.0-1.0","null","<p></p>","null","","","","","","","","","","","","","","","","","","",""
"","do_trial","417","1428022","0.0-223.0-0.0","88","","","","51","0,1,1","4","mountain","166","probe-88","0.08798363611346866","0.7438803454191456","0.4148182153404359","1","","","","","","","",""
"","html-keyboard-response","418","1429031","0.0-223.0-1.0","null","<p></p>","null","","","","","","","","","","","","","","","","","","",""
"","do_trial","419","1433755","0.0-224.0-0.0","192.30000000074506","","","","51","0,1,0","4","mountain","167","probe-221","0.07210868114362358","0.7897243585839828","0.25718742399224837","0","","","","","","","",""
"","html-keyboard-response","420","1434767","0.0-224.0-1.0","null","<p></p>","null","","","","","","","","","","","","","","","","","","",""
"","do_trial","421","1439597","0.0-225.0-0.0","297.8999999985099","","","","51","0,1,1","4","mountain","168","probe-199","0.28927450650344777","0.603152501318859","0.340319585501553","1","","","","","","","",""
"","html-keyboard-response","422","1440601","0.0-225.0-1.0","null","<p></p>","null","","","","","","","","","","","","","","","","","","",""
"","do_trial","423","1446396","0.0-226.0-0.0","1254.3999999985099","","","","51","1,1,0","4","mountain","169","probe-87","0.23995131658505872","0.5014748476819608","0.3796960256294636","0","","","","","","","",""
"","html-keyboard-response","424","1447407","0.0-226.0-1.0","null","<p></p>","null","","","","","","","","","","","","","","","","","","",""
"","do_trial","425","1452239","0.0-227.0-0.0","286.70000000298023","","","","51","0,0,0","4","mountain","170","probe-81","0.164902297114532","0.569990584726227","0.37196748414204733","0","","","","","","","",""
"","html-keyboard-response","426","1453253","0.0-227.0-1.0","null","<p></p>","null","","","","","","","","","","","","","","","","","","",""
"","do_trial","427","1459651","0.0-228.0-0.0","1851","","","","51","0,1,1","4","mountain","171","probe-163","0.07333144473884871","0.74844697334557","0.276723303490835","1","","","","","","","",""
"","html-keyboard-response","428","1460662","0.0-228.0-1.0","null","<p></p>","null","","","","","","","","","","","","","","","","","","",""
"","do_trial","429","1466500","0.0-229.0-0.0","1287.300000000745","","","","51","0,0,1","4","mountain","172","probe-217","0.06849446123872588","0.5294111896391603","0.33157304720132724","1","","","","","","","",""
"","html-keyboard-response","430","1467513","0.0-229.0-1.0","null","<p></p>","null","","","","","","","","","","","","","","","","","","",""
"","do_trial","431","1474231","0.0-230.0-0.0","2180.89999999851","","","","51","0,1,0","4","mountain","173","probe-194","0.07611797454721725","0.44858648811400875","0.3689897798877903","0","","","","","","","",""
"","html-keyboard-response","432","1475248","0.0-230.0-1.0","null","<p></p>","null","","","","","","","","","","","","","","","","","","",""
"","do_trial","433","1480616","0.0-231.0-0.0","825.0999999977648","","","","51","0,1,1","4","mountain","174","probe-111","0.05889357304393444","0.6127969640686006","0.23967832108962683","1","","","","","","","",""
"","html-keyboard-response","434","1481619","0.0-231.0-1.0","null","<p></p>","null","","","","","","","","","","","","","","","","","","",""
"","do_trial","435","1487853","0.0-232.0-0.0","1697.6000000014901","","","","51","0,0,0","4","mountain","175","probe-177","0.17939308333313966","0.48546843330334793","0.1750598026533647","0","","","","","","","",""
"","html-keyboard-response","436","1488867","0.0-232.0-1.0","null","<p></p>","null","","","","","","","","","","","","","","","","","","",""
"","do_trial","437","1494362","0.0-233.0-0.0","965.5","","","","51","0,1,0","4","mountain","176","probe-56","0.15621933795331663","0.5208925959315139","0.18474534245692875","0","","","","","","","",""
"","html-keyboard-response","438","1495369","0.0-233.0-1.0","null","<p></p>","null","","","","","","","","","","","","","","","","","","",""
"","do_trial","439","1502282","0.0-234.0-0.0","2373.300000000745","","","","51","0,0,1","4","mountain","177","probe-18","0.09117231511017107","0.6378898859555642","0.2839475338260653","1","","","","","","","",""
"","html-keyboard-response","440","1503287","0.0-234.0-1.0","null","<p></p>","null","","","","","","","","","","","","","","","","","","",""
"","do_trial","441","1509329","0.0-235.0-0.0","null","","","","null","0,1,0","4","mountain","178","probe-21","0.0935928417389705","0.6073946262957813","0.31822550923243603","","","","","","","","",""
"","html-keyboard-response","442","1510343","0.0-235.0-1.0","null","<p></p>","null","","","","","","","","","","","","","","","","","","",""
"","do_trial","443","1515293","0.0-236.0-0.0","419.8999999985099","","","","51","0,1,0","4","mountain","179","probe-09","0.12654549166098655","0.47236377881999714","0.2789998525617257","0","","","","","","","",""
"","html-keyboard-response","444","1516298","0.0-236.0-1.0","null","<p></p>","null","","","","","","","","","","","","","","","","","","",""
"","do_trial","445","1522065","0.0-237.0-0.0","1237.800000000745","","","","51","0,0,0","4","mountain","180","probe-06","0.17154238887623785","0.5797395040460451","0.30662434379516457","0","","","","","","","",""
"","html-keyboard-response","446","1523070","0.0-237.0-1.0","null","<p></p>","null","","","","","","","","","","","","","","","","","","",""
"","do_trial","447","1528217","0.0-238.0-0.0","602.1999999992549","","","","51","0,0,0","4","mountain","181","probe-115","0.10557969258913939","0.5473522747397119","0.23718057466680786","0","","","","","","","",""
"","html-keyboard-response","448","1529227","0.0-238.0-1.0","null","<p></p>","null","","","","","","","","","","","","","","","","","","",""
"","do_trial","449","1534461","0.0-239.0-0.0","696.3000000007451","","","","50","0,0,0","4","mountain","182","probe-26","0.05131195326918248","0.5155874509175631","0.1234525711456385","0","","","","","","","",""
"","html-keyboard-response","450","1535476","0.0-239.0-1.0","null","<p></p>","null","","","","","","","","","","","","","","","","","","",""
"","do_trial","451","1540255","0.0-240.0-0.0","240.10000000149012","","","","49","0,1,0","4","mountain","183","probe-223","0.08189337671354924","0.48554407847633807","0.07077251998895533","0","","","","","","","",""
"","html-keyboard-response","452","1541259","0.0-240.0-1.0","null","<p></p>","null","","","","","","","","","","","","","","","","","","",""
"","do_trial","453","1546995","0.0-241.0-0.0","1191.800000000745","","","","51","0,0,0","4","mountain","184","probe-176","0.05916146585211483","0.5512738441894074","0.0801036652213563","0","","","","","","","",""
"","html-keyboard-response","454","1548008","0.0-241.0-1.0","null","<p></p>","null","","","","","","","","","","","","","","","","","","",""
"","do_trial","455","1553239","0.0-242.0-0.0","693.6999999992549","","","","51","1,0,0","4","mountain","185","probe-229","0.0653718564559582","0.5476863818809596","0.1302674850263229","0","","","","","","","",""
"","html-keyboard-response","456","1554252","0.0-242.0-1.0","null","<p></p>","null","","","","","","","","","","","","","","","","","","",""
"","do_trial","457","1559421","0.0-243.0-0.0","626","","","","51","0,1,0","4","mountain","186","probe-44","0.13596832258315097","0.660609203433172","0.20923969577090315","0","","","","","","","",""
"","html-keyboard-response","458","1560435","0.0-243.0-1.0","null","<p></p>","null","","","","","","","","","","","","","","","","","","",""
"","do_trial","459","1566596","0.0-244.0-0.0","1627.1000000014901","","","","49","0,1,0","4","mountain","187","probe-220","0.07669023253086073","0.6578700699784769","0.05774738089025025","0","","","","","","","",""
"","html-keyboard-response","460","1567602","0.0-244.0-1.0","null","<p></p>","null","","","","","","","","","","","","","","","","","","",""
"","do_trial","461","1572821","0.0-245.0-0.0","680.2999999970198","","","","50","0,0,1","4","mountain","188","probe-15","0.11219866635903479","0.5129512889068232","0.23296614471527122","0","","","","","","","",""
"","html-keyboard-response","462","1573836","0.0-245.0-1.0","null","<p></p>","null","","","","","","","","","","","","","","","","","","",""
"","do_trial","463","1579873","0.0-246.0-0.0","1492.9000000022352","","","","51","1,0,0","4","mountain","189","probe-213","0.2017386419045328","0.598347630226954","0.15855726380389226","0","","","","","","","",""
"","html-keyboard-response","464","1580880","0.0-246.0-1.0","null","<p></p>","null","","","","","","","","","","","","","","","","","","",""
"","do_bye","465","1582398","0.0-247.0-0.0","null","","","","null","","","","","","","","","","","","","","","","",""
"","do_travel","466","1588408","0.0-248.0-0.0","null","","","","null","","","","","","","","","","","","","","","","",""
"","do_welcome","467","1589926","0.0-248.0-1.0","null","","","","null","","","","","","","","","","","","","","","","",""
"","do_trial","468","1596137","0.0-249.0-0.0","1674","","","","50","0,1,0","5","highway","190","probe-47","0.2623997816935289","1","0.26095877783572685","1","","","","","","","",""
"","html-keyboard-response","469","1597155","0.0-249.0-1.0","null","<p></p>","null","","","","","","","","","","","","","","","","","","",""
"","do_trial","470","1601814","0.0-250.0-0.0","121","","","","50","0,1,0","5","highway","191","probe-207","0.10064536825599545","1","0.2838251292952118","1","","","","","","","",""
"","html-keyboard-response","471","1602831","0.0-250.0-1.0","null","<p></p>","null","","","","","","","","","","","","","","","","","","",""
"","do_trial","472","1608168","0.0-251.0-0.0","796","","","","50","0,0,0","5","highway","192","probe-96","0.2141525427969905","0.8597550010261833","0.28479864624648793","0","","","","","","","",""
"","html-keyboard-response","473","1609174","0.0-251.0-1.0","null","<p></p>","null","","","","","","","","","","","","","","","","","","",""
"","do_trial","474","1614424","0.0-252.0-0.0","705.8000000007451","","","","50","0,1,0","5","highway","193","probe-93","0.20493752012751557","0.7549853858010388","0.21088420264656083","1","","","","","","","",""
"","html-keyboard-response","475","1615440","0.0-252.0-1.0","null","<p></p>","null","","","","","","","","","","","","","","","","","","",""
"","do_trial","476","1622299","0.0-253.0-0.0","2315.699999999255","","","","50","1,0,1","5","highway","194","probe-07","0.1970722114007172","0.7234082957883051","0.24592524481053907","0","","","","","","","",""
"","html-keyboard-response","477","1623306","0.0-253.0-1.0","null","<p></p>","null","","","","","","","","","","","","","","","","","","",""
"","do_trial","478","1629107","0.0-254.0-0.0","1261.5","","","","50","1,1,0","5","highway","195","probe-90","0.07764527969665162","0.5534010177318924","0.4320666056909299","1","","","","","","","",""
"","html-keyboard-response","479","1630112","0.0-254.0-1.0","null","<p></p>","null","","","","","","","","","","","","","","","","","","",""
"","do_trial","480","1635717","0.0-255.0-0.0","1073.7999999970198","","","","50","0,1,1","5","highway","196","probe-157","0.06565029183999069","0.6439193694376668","0.553517602496848","1","","","","","","","",""
"","html-keyboard-response","481","1636727","0.0-255.0-1.0","null","<p></p>","null","","","","","","","","","","","","","","","","","","",""
"","do_trial","482","1641589","0.0-256.0-0.0","323.3999999985099","","","","50","0,1,0","5","highway","197","probe-118","0.057294458443954394","0.6124601779813531","0.6437760079268648","1","","","","","","","",""
"","html-keyboard-response","483","1642601","0.0-256.0-1.0","null","<p></p>","null","","","","","","","","","","","","","","","","","","",""
"","do_trial","484","1647870","0.0-257.0-0.0","726.5999999977648","","","","50","0,0,1","5","highway","198","probe-167","0.06069443801064112","0.7608584107903681","0.4091253973909849","0","","","","","","","",""
"","html-keyboard-response","485","1648875","0.0-257.0-1.0","null","<p></p>","null","","","","","","","","","","","","","","","","","","",""
"","do_trial","486","1653923","0.0-258.0-0.0","509.80000000074506","","","","50","0,1,0","5","highway","199","probe-147","0.06194141214718585","0.8561050392427051","0.3284511774879983","1","","","","","","","",""
"","html-keyboard-response","487","1654934","0.0-258.0-1.0","null","<p></p>","null","","","","","","","","","","","","","","","","","","",""
"","do_trial","488","1659795","0.0-259.0-0.0","320.69999999925494","","","","50","0,1,1","5","highway","200","probe-222","0.1382211590351293","0.8422883145444581","0.4495063234525326","1","","","","","","","",""
"","html-keyboard-response","489","1660803","0.0-259.0-1.0","null","<p></p>","null","","","","","","","","","","","","","","","","","","",""
"","do_trial","490","1665842","0.0-260.0-0.0","504.5","","","","50","0,1,0","5","highway","201","probe-189","0.10274545625076784","0.6833833717401335","0.4294484873623789","1","","","","","","","",""
"","html-keyboard-response","491","1666845","0.0-260.0-1.0","null","<p></p>","null","","","","","","","","","","","","","","","","","","",""
"","do_trial","492","1671893","0.0-261.0-0.0","508.80000000074506","","","","50","0,0,0","5","highway","202","probe-208","0.3917823125129145","0.4404510457004739","0.2990219524617579","0","","","","","","","",""
"","html-keyboard-response","493","1672900","0.0-261.0-1.0","null","<p></p>","null","","","","","","","","","","","","","","","","","","",""
"","do_trial","494","1678508","0.0-262.0-0.0","1064.3999999985099","","","","50","0,1,0","5","highway","203","probe-219","0.6800727345995793","0.2440151655878192","0.22318152764397448","1","","","","","","","",""
"","html-keyboard-response","495","1679515","0.0-262.0-1.0","null","<p></p>","null","","","","","","","","","","","","","","","","","","",""
"","do_trial","496","1685919","0.0-263.0-0.0","1863.6000000014901","","","","50","1,0,1","5","highway","204","probe-97","0.49386889781878557","0.05611139257179504","0.34975308120723375","0","","","","","","","",""
"","html-keyboard-response","497","1686937","0.0-263.0-1.0","null","<p></p>","null","","","","","","","","","","","","","","","","","","",""
"","do_trial","498","1692182","0.0-264.0-0.0","707.6999999992549","","","","50","1,0,0","5","highway","205","probe-110","0.434487395610646","0.0540971103480117","0.3758329818188607","0","","","","","","","",""
"","html-keyboard-response","499","1693191","0.0-264.0-1.0","null","<p></p>","null","","","","","","","","","","","","","","","","","","",""
"","do_trial","500","1698071","0.0-265.0-0.0","340.30000000074506","","","","50","0,0,0","5","highway","206","probe-85","0.31796798191771647","0.14411584844544587","0.3738659774891974","0","","","","","","","",""
"","html-keyboard-response","501","1699076","0.0-265.0-1.0","null","<p></p>","null","","","","","","","","","","","","","","","","","","",""
"","do_trial","502","1704913","0.0-266.0-0.0","1302.800000000745","","","","50","1,1,0","5","highway","207","probe-34","0.5385419235973329","0.0518408088592079","0.31594536455159566","1","","","","","","","",""
"","html-keyboard-response","503","1705926","0.0-266.0-1.0","null","<p></p>","null","","","","","","","","","","","","","","","","","","",""
"","do_trial","504","1711564","0.0-267.0-0.0","1109.699999999255","","","","50","0,0,0","5","highway","208","probe-210","0.5043031980598967","0.20470713868133147","0.2639000473071648","0","","","","","","","",""
"","html-keyboard-response","505","1712567","0.0-267.0-1.0","null","<p></p>","null","","","","","","","","","","","","","","","","","","",""
"","do_trial","506","1718943","0.0-268.0-0.0","1838.9000000022352","","","","50","0,0,0","5","highway","209","probe-13","0.6135659308592015","0.09618238568016022","0.27708777469079277","0","","","","","","","",""
"","html-keyboard-response","507","1719952","0.0-268.0-1.0","null","<p></p>","null","","","","","","","","","","","","","","","","","","",""
"","do_trial","508","1726319","0.0-269.0-0.0","1826.699999999255","","","","50","1,0,1","5","highway","210","probe-12","0.5925868946582366","0.05001992143225069","0.24214921702699144","0","","","","","","","",""
"","html-keyboard-response","509","1727335","0.0-269.0-1.0","null","<p></p>","null","","","","","","","","","","","","","","","","","","",""
"","do_trial","510","1732870","0.0-270.0-0.0","993.7999999970198","","","","50","1,0,0","5","highway","211","probe-204","0.5187512312473542","0.056351624574147746","0.2996867936985086","0","","","","","","","",""
"","html-keyboard-response","511","1733876","0.0-270.0-1.0","null","<p></p>","null","","","","","","","","","","","","","","","","","","",""
"","do_trial","512","1739697","0.0-271.0-0.0","1288.800000000745","","","","50","0,0,0","5","highway","212","probe-202","0.6090547708028573","0.23867249785049816","0.38242049952195223","0","","","","","","","",""
"","html-keyboard-response","513","1740713","0.0-271.0-1.0","null","<p></p>","null","","","","","","","","","","","","","","","","","","",""
"","do_trial","514","1746976","0.0-272.0-0.0","1731.1000000014901","","","","50","0,1,1","5","highway","213","probe-216","0.6505163364220983","0.29667625673894876","0.33042994645423357","1","","","","","","","",""
"","html-keyboard-response","515","1747988","0.0-272.0-1.0","null","<p></p>","null","","","","","","","","","","","","","","","","","","",""
"","do_trial","516","1754263","0.0-273.0-0.0","1741.199999999255","","","","50","1,0,0","5","highway","214","probe-192","0.6875548938473506","0.05035374532274254","0.18955499964831493","0","","","","","","","",""
"","html-keyboard-response","517","1755276","0.0-273.0-1.0","null","<p></p>","null","","","","","","","","","","","","","","","","","","",""
"","do_trial","518","1760579","0.0-274.0-0.0","770.8000000007451","","","","50","1,0,0","5","highway","215","probe-156","0.7351780593076533","0.09539455860598917","0.25028670901418965","0","","","","","","","",""
"","html-keyboard-response","519","1761589","0.0-274.0-1.0","null","<p></p>","null","","","","","","","","","","","","","","","","","","",""
"","do_trial","520","1767140","0.0-275.0-0.0","1017.3999999985099","","","","49","1,0,0","5","highway","216","probe-91","0.7489190203185185","0.1462541678659746","0.23007874580470158","1","","","","","","","",""
"","html-keyboard-response","521","1768153","0.0-275.0-1.0","null","<p></p>","null","","","","","","","","","","","","","","","","","","",""
"","do_trial","522","1774609","0.0-276.0-0.0","1914.5","","","","50","1,0,1","5","highway","217","probe-53","0.6200295082895549","0.059884856920309065","0.26461195066432397","0","","","","","","","",""
"","html-keyboard-response","523","1775621","0.0-276.0-1.0","null","<p></p>","null","","","","","","","","","","","","","","","","","","",""
"","do_trial","524","1781391","0.0-277.0-0.0","1225.8999999985099","","","","50","1,1,1","5","highway","218","probe-30","0.6111866579128055","0.19694871112818427","0.3248255761837989","1","","","","","","","",""
"","html-keyboard-response","525","1782394","0.0-277.0-1.0","null","<p></p>","null","","","","","","","","","","","","","","","","","","",""
"","do_trial","526","1788444","0.0-278.0-0.0","null","","","","null","1,0,0","5","highway","219","probe-185","0.7259362156806637","0.13367320023133533","0.29336420936005625","","","","","","","","",""
"","html-keyboard-response","527","1789452","0.0-278.0-1.0","null","<p></p>","null","","","","","","","","","","","","","","","","","","",""
"","do_trial","528","1794508","0.0-279.0-0.0","516.3000000007451","","","","50","1,0,1","5","highway","220","probe-226","0.5006286278214167","0.12949590820497675","0.2836570400190003","0","","","","","","","",""
"","html-keyboard-response","529","1795512","0.0-279.0-1.0","null","<p></p>","null","","","","","","","","","","","","","","","","","","",""
"","do_trial","530","1800276","0.0-280.0-0.0","218.80000000074506","","","","50","0,0,0","5","highway","221","probe-40","0.5195958451733288","0.053199033068168006","0.3530201680526966","0","","","","","","","",""
"","html-keyboard-response","531","1801279","0.0-280.0-1.0","null","<p></p>","null","","","","","","","","","","","","","","","","","","",""
