success,trial_type,trial_index,time_elapsed,internal_node_id,interactions,blur_events,focus_events,fullscreenenter_events,fullscreenexit_events,rt,stimulus,key_press,subject_id,participant_id,age,gender,prompt,response,choice_outcomes,context_n,context_img_id,trial_n,probe_img_id,pR_red,pR_white,pR_black,outcome,contextArray_ind,validImageProbes,invalidImageProbes,pRew_Red,pRew_White,pRew_Black,availableForMemProbe,choice_blocks
TRUE,fullscreen,0,3532,0.0-0.0,"""event"",""trial"",""time""
""fullscreenenter"",""0"",""2614""
","
","
","""event"",""trial"",""time""
""fullscreenenter"",""0"",""2614""
","
",,,,,,,,,,,,,,,,,,,,,,,,,,
,pavlovia,1,3535,0.0-1.0,"""event"",""trial"",""time""
""fullscreenenter"",""0"",""2614""
","
","
","""event"",""trial"",""time""
""fullscreenenter"",""0"",""2614""
","
",,,,,,,,,,,,,,,,,,,,,,,,,,
,instruc1,2,48879,0.0-2.0,"""event"",""trial"",""time""
""fullscreenenter"",""0"",""2614""
","
","
","""event"",""trial"",""time""
""fullscreenenter"",""0"",""2614""
","
",null,run_exp/static/audio/clip_1_welcome.m4a,null,255,774,12,Female,"<div class='center'><p>Welcome! This is the first part of the study. It will last ~30 minutes. In part 1 and part 2 of the study, you are the head captain of a pirate ship traveling around the world to different islands. You will play a few different games throughout these two parts. Here is an overview of them:</p><br><p>Part 1 (today)</p><p>1. Instructions, practice game, and quiz</p><p>2. Pick a pirate game on 6 different islands</p><br><p>Part 2 (tomorrow)</p><p>3. Pick a pirate game and memory game</p><p>4. Where did you see this ship? </p></div>",,,,,,,,,,,,,,,,,,
,html-keyboard-response,3,50698,0.0-3.0,"""event"",""trial"",""time""
""fullscreenenter"",""0"",""2614""
","
","
","""event"",""trial"",""time""
""fullscreenenter"",""0"",""2614""
","
",1817.9,"<div class='center'><p>Welcome! This is the first part of the study. It will last ~30 minutes. In part 1 and part 2 of the study, you are the head captain of a pirate ship traveling around the world to different islands. You will play a few different games throughout these two parts. Here is an overview of them:</p><br><p>Part 1 (today)</p><p>1. Instructions, practice game, and quiz</p><p>2. Pick a pirate game on 6 different islands</p><br><p>Part 2 (tomorrow)</p><p>3. Pick a pirate game and memory game</p><p>4. Where did you see this ship? </p><p><b>[Press the space bar to continue]</b></p></div>",32,,,,,,,,,,,,,,,,,,,,,,,
,instruc2,4,56007,0.0-4.0,"""event"",""trial"",""time""
""fullscreenenter"",""0"",""2614""
","
","
","""event"",""trial"",""time""
""fullscreenenter"",""0"",""2614""
","
",null,run_exp/static/audio/clip_2_different_places.m4a,null,,,,,"<div class='center'><p>Today, you’ll visit these 6 islands on your journey. You'll be able to see these islands from your ship.</p><p><img src='run_exp/static/images/contexts/all_contexts.png' height='500'></p></div>",,,,,,,,,,,,,,,,,,
,html-keyboard-response,5,57821,0.0-5.0,"""event"",""trial"",""time""
""fullscreenenter"",""0"",""2614""
","
","
","""event"",""trial"",""time""
""fullscreenenter"",""0"",""2614""
","
",1813.9,"<div class='center'><p>Today, you’ll visit these 6 islands on your journey. You'll be able to see these islands from your ship.</p><p><img src='run_exp/static/images/contexts/all_contexts.png' height='500'></p><p><b>[Press the space bar to continue]</b></p></div>",32,,,,,,,,,,,,,,,,,,,,,,,
,instruc3,6,67524,0.0-6.0,"""event"",""trial"",""time""
""fullscreenenter"",""0"",""2614""
","
","
","""event"",""trial"",""time""
""fullscreenenter"",""0"",""2614""
","
",null,run_exp/static/audio/clip_3_goal_of_game_1.m4a,null,,,,,"<div class='center'><p> The pirates on your ship will rob other ships as they leave the island.</p> These ships have just sold their goods to the islanders, so they will be filled with lots and lots of gold.</p><p><img src='run_exp/static/images/tutorial/ship_center.png' height='400'></p></div>",,,,,,,,,,,,,,,,,,
,html-keyboard-response,7,69060,0.0-7.0,"""event"",""trial"",""time""
""fullscreenenter"",""0"",""2614""
","
","
","""event"",""trial"",""time""
""fullscreenenter"",""0"",""2614""
","
",1529.4,"<div class='center'><p> The pirates on your ship will rob other ships as they leave the island.</p> These ships have just sold their goods to the islanders, so they will be filled with lots and lots of gold.</p><p><img src='run_exp/static/images/tutorial/ship_center.png' height='400'></p><p><b>[Press the space bar to continue]</b></p></div>",32,,,,,,,,,,,,,,,,,,,,,,,
,instruc4,8,97059,0.0-8.0,"""event"",""trial"",""time""
""fullscreenenter"",""0"",""2614""
","
","
","""event"",""trial"",""time""
""fullscreenenter"",""0"",""2614""
","
",null,run_exp/static/audio/clip_4_goal_of_game_2.m4a,null,,,,,"<div class='center'><p>As the head captain, you do not have to rob any ships yourself. Another pirate will be doing the robbing for you. First, you will choose a pirate to rob the next ship.</p><p><img src='run_exp/static/images/tutorial/pirates_all_crop.png' height='200'></p><p>Then, you'll see if the pirate successfully robbed the ship of their gold. If they were successful, then you'll get a stack of gold coins like this:</p><p><img src='run_exp/static/images/tutorial/reward.png' height='150'></p><p> If they were <b>not</b> successful, then you'll get no gold coins, and you'll see a big red x like this: </p><p><img src='run_exp/static/images/tutorial/reward_no.png' height='150'></p><p> How much bonus money you make is based on how many gold coins you collect.</p><div>",,,,,,,,,,,,,,,,,,
,html-keyboard-response,9,97850,0.0-9.0,"""event"",""trial"",""time""
""fullscreenenter"",""0"",""2614""
","
","
","""event"",""trial"",""time""
""fullscreenenter"",""0"",""2614""
","
",789.6,"<div class='center'><p>As the head captain, you do not have to rob any ships yourself. Another pirate will be doing the robbing for you. First, you will choose a pirate to rob the next ship.</p><p><img src='run_exp/static/images/tutorial/pirates_all_crop.png' height='200'></p><p>Then, you'll see if the pirate successfully robbed the ship of their gold. If they were successful, then you'll get a stack of gold coins like this:</p><p><img src='run_exp/static/images/tutorial/reward.png' height='150'></p><p> If they were <b>not</b> successful, then you'll get no gold coins, and you'll see a big red x like this: </p><p><img src='run_exp/static/images/tutorial/reward_no.png' height='150'></p><p> How much bonus money you make is based on how many gold coins you collect.</p<p><b>[Press the space bar to continue]</b></p></div>",32,,,,,,,,,,,,,,,,,,,,,,,
,instruc5,10,120610,0.0-10.0,"""event"",""trial"",""time""
""fullscreenenter"",""0"",""2614""
","
","
","""event"",""trial"",""time""
""fullscreenenter"",""0"",""2614""
","
",22759.1,run_exp/static/audio/clip_5_probabilistic.m4a,49,,,,,"<div class='center'><p>Even the most skilled pirate can not rob EVERY ship.</p><p> Some ships will have very strong protections against pirate attacks.</p><p> Blue beard, here, is very, very good at robbing ships, but he won't be successful every time he tries to rob one.</p><p> You can press the <b>‘1’</b> key on the keyboard to choose him.</p><p> Try choosing him 10 times to see how often he succeeds at robbing a ship. </p><p><img src='run_exp/static/images/tutorial/blue.png' height='500'></p></div>",,,,,,,,,,,,,,,,,,
,html-keyboard-response,11,122113,0.0-11.0,"""event"",""trial"",""time""
""fullscreenenter"",""0"",""2614""
","
","
","""event"",""trial"",""time""
""fullscreenenter"",""0"",""2614""
","
",null,<div class='center'><p><img src='run_exp/static/images/tutorial/blue_win.png' height='500'></p></div>,null,,,,,,,,,,,,,,,,,,,,,,,
,html-keyboard-response,12,122938,0.0-12.0,"""event"",""trial"",""time""
""fullscreenenter"",""0"",""2614""
","
","
","""event"",""trial"",""time""
""fullscreenenter"",""0"",""2614""
","
",824.1,<div class='center'><img src='run_exp/static/images/tutorial/blue.png' height='500'></p></div>,49,,,,,,,,,,,,,,,,,,,,,,,
,html-keyboard-response,13,124439,0.0-13.0,"""event"",""trial"",""time""
""fullscreenenter"",""0"",""2614""
","
","
","""event"",""trial"",""time""
""fullscreenenter"",""0"",""2614""
","
",null,<div class='center'><p><img src='run_exp/static/images/tutorial/blue_win.png' height='500'></p></div>,null,,,,,,,,,,,,,,,,,,,,,,,
,html-keyboard-response,14,124941,0.0-14.0,"""event"",""trial"",""time""
""fullscreenenter"",""0"",""2614""
","
","
","""event"",""trial"",""time""
""fullscreenenter"",""0"",""2614""
","
",501.5,<div class='center'><img src='run_exp/static/images/tutorial/blue.png' height='500'></p></div>,49,,,,,,,,,,,,,,,,,,,,,,,
,html-keyboard-response,15,126447,0.0-15.0,"""event"",""trial"",""time""
""fullscreenenter"",""0"",""2614""
","
","
","""event"",""trial"",""time""
""fullscreenenter"",""0"",""2614""
","
",null,<div class='center'><p><img src='run_exp/static/images/tutorial/blue_win.png' height='500'></p></div>,null,,,,,,,,,,,,,,,,,,,,,,,
,html-keyboard-response,16,126549,0.0-16.0,"""event"",""trial"",""time""
""fullscreenenter"",""0"",""2614""
","
","
","""event"",""trial"",""time""
""fullscreenenter"",""0"",""2614""
","
",102.2,<div class='center'><img src='run_exp/static/images/tutorial/blue.png' height='500'></p></div>,49,,,,,,,,,,,,,,,,,,,,,,,
,html-keyboard-response,17,128055,0.0-17.0,"""event"",""trial"",""time""
""fullscreenenter"",""0"",""2614""
","
","
","""event"",""trial"",""time""
""fullscreenenter"",""0"",""2614""
","
",null,<div class='center'><p><img src='run_exp/static/images/tutorial/blue_no_win.png' height='500'></p></div>,null,,,,,,,,,,,,,,,,,,,,,,,
,html-keyboard-response,18,128417,0.0-18.0,"""event"",""trial"",""time""
""fullscreenenter"",""0"",""2614""
","
","
","""event"",""trial"",""time""
""fullscreenenter"",""0"",""2614""
","
",361.4,<div class='center'><img src='run_exp/static/images/tutorial/blue.png' height='500'></p></div>,49,,,,,,,,,,,,,,,,,,,,,,,
,html-keyboard-response,19,129923,0.0-19.0,"""event"",""trial"",""time""
""fullscreenenter"",""0"",""2614""
","
","
","""event"",""trial"",""time""
""fullscreenenter"",""0"",""2614""
","
",null,<div class='center'><p><img src='run_exp/static/images/tutorial/blue_win.png' height='500'></p></div>,null,,,,,,,,,,,,,,,,,,,,,,,
,html-keyboard-response,20,130318,0.0-20.0,"""event"",""trial"",""time""
""fullscreenenter"",""0"",""2614""
","
","
","""event"",""trial"",""time""
""fullscreenenter"",""0"",""2614""
","
",395,<div class='center'><img src='run_exp/static/images/tutorial/blue.png' height='500'></p></div>,49,,,,,,,,,,,,,,,,,,,,,,,
,html-keyboard-response,21,131824,0.0-21.0,"""event"",""trial"",""time""
""fullscreenenter"",""0"",""2614""
","
","
","""event"",""trial"",""time""
""fullscreenenter"",""0"",""2614""
","
",null,<div class='center'><p><img src='run_exp/static/images/tutorial/blue_win.png' height='500'></p></div>,null,,,,,,,,,,,,,,,,,,,,,,,
,html-keyboard-response,22,132153,0.0-22.0,"""event"",""trial"",""time""
""fullscreenenter"",""0"",""2614""
","
","
","""event"",""trial"",""time""
""fullscreenenter"",""0"",""2614""
","
",328.3,<div class='center'><img src='run_exp/static/images/tutorial/blue.png' height='500'></p></div>,49,,,,,,,,,,,,,,,,,,,,,,,
,html-keyboard-response,23,133657,0.0-23.0,"""event"",""trial"",""time""
""fullscreenenter"",""0"",""2614""
","
","
","""event"",""trial"",""time""
""fullscreenenter"",""0"",""2614""
","
",null,<div class='center'><p><img src='run_exp/static/images/tutorial/blue_win.png' height='500'></p></div>,null,,,,,,,,,,,,,,,,,,,,,,,
,html-keyboard-response,24,134155,0.0-24.0,"""event"",""trial"",""time""
""fullscreenenter"",""0"",""2614""
","
","
","""event"",""trial"",""time""
""fullscreenenter"",""0"",""2614""
","
",498,<div class='center'><img src='run_exp/static/images/tutorial/blue.png' height='500'></p></div>,49,,,,,,,,,,,,,,,,,,,,,,,
,html-keyboard-response,25,135657,0.0-25.0,"""event"",""trial"",""time""
""fullscreenenter"",""0"",""2614""
","
","
","""event"",""trial"",""time""
""fullscreenenter"",""0"",""2614""
","
",null,<div class='center'><p><img src='run_exp/static/images/tutorial/blue_no_win.png' height='500'></p></div>,null,,,,,,,,,,,,,,,,,,,,,,,
,html-keyboard-response,26,135854,0.0-26.0,"""event"",""trial"",""time""
""fullscreenenter"",""0"",""2614""
","
","
","""event"",""trial"",""time""
""fullscreenenter"",""0"",""2614""
","
",196.9,<div class='center'><img src='run_exp/static/images/tutorial/blue.png' height='500'></p></div>,49,,,,,,,,,,,,,,,,,,,,,,,
,html-keyboard-response,27,137359,0.0-27.0,"""event"",""trial"",""time""
""fullscreenenter"",""0"",""2614""
","
","
","""event"",""trial"",""time""
""fullscreenenter"",""0"",""2614""
","
",null,<div class='center'><p><img src='run_exp/static/images/tutorial/blue_win.png' height='500'></p></div>,null,,,,,,,,,,,,,,,,,,,,,,,
,html-keyboard-response,28,137699,0.0-28.0,"""event"",""trial"",""time""
""fullscreenenter"",""0"",""2614""
","
","
","""event"",""trial"",""time""
""fullscreenenter"",""0"",""2614""
","
",339,<div class='center'><img src='run_exp/static/images/tutorial/blue.png' height='500'></p></div>,49,,,,,,,,,,,,,,,,,,,,,,,
,html-keyboard-response,29,139205,0.0-29.0,"""event"",""trial"",""time""
""fullscreenenter"",""0"",""2614""
","
","
","""event"",""trial"",""time""
""fullscreenenter"",""0"",""2614""
","
",null,<div class='center'><p><img src='run_exp/static/images/tutorial/blue_win.png' height='500'></p></div>,null,,,,,,,,,,,,,,,,,,,,,,,
,instruc6,30,144612,0.0-30.0,"""event"",""trial"",""time""
""fullscreenenter"",""0"",""2614""
","
","
","""event"",""trial"",""time""
""fullscreenenter"",""0"",""2614""
","
",null,run_exp/static/audio/clip_6_blue_beard_outcome.m4a,null,,,,,"<div class='center'><p> See, he succeeded in robbing the ships most of the time but not every time. </p></div>",,,,,,,,,,,,,,,,,,
,html-keyboard-response,31,146992,0.0-31.0,"""event"",""trial"",""time""
""fullscreenenter"",""0"",""2614""
","
","
","""event"",""trial"",""time""
""fullscreenenter"",""0"",""2614""
","
",2379.3,"<div class='center'><p> See, he succeeded in robbing the ships most of the time but not every time. </p><p><b>[Press the space bar to continue]</b></p></div>",32,,,,,,,,,,,,,,,,,,,,,,,
,audio-keyboard-response,32,163069,0.0-32.0,"""event"",""trial"",""time""
""fullscreenenter"",""0"",""2614""
","
","
","""event"",""trial"",""time""
""fullscreenenter"",""0"",""2614""
","
",16076.1,run_exp/static/audio/clip_7_pick_pirate.m4a,50,,,,,,,,,,,,,,,,,,,,,,,
,audio-keyboard-response,33,167985,0.0-33.0-0.0,"""event"",""trial"",""time""
""fullscreenenter"",""0"",""2614""
","
","
","""event"",""trial"",""time""
""fullscreenenter"",""0"",""2614""
","
",4914.4,run_exp/static/audio/clip_8_chosen_pirate_win.m4a,32,,,,,,,,,,,,,,,,,,,,,,,
,audio-keyboard-response,34,172901,0.0-33.0-1.0,"""event"",""trial"",""time""
""fullscreenenter"",""0"",""2614""
","
","
","""event"",""trial"",""time""
""fullscreenenter"",""0"",""2614""
","
",4915.4,run_exp/static/audio/clip_9_pick_a_pirate_again.m4a,51,,,,,,,,,,,,,,,,,,,,,,,
,audio-keyboard-response,35,179922,0.0-34.0-0.0,"""event"",""trial"",""time""
""fullscreenenter"",""0"",""2614""
","
","
","""event"",""trial"",""time""
""fullscreenenter"",""0"",""2614""
","
",7019.7,run_exp/static/audio/clip_10_chosen_pirate_loss.m4a,32,,,,,,,,,,,,,,,,,,,,,,,
,instruc9,36,185432,0.0-35.0-0.0,"""event"",""trial"",""time""
""fullscreenenter"",""0"",""2614""
","
","
","""event"",""trial"",""time""
""fullscreenenter"",""0"",""2614""
","
",null,run_exp/static/audio/clip_11_time_out.m4a,null,,,,,"<div class='center'><p>If you don’t make your choice fast enough, you’ll have to wait a few seconds before you can make another one. </p><p><img src='run_exp/static/images/miscellaneous/hurry_up.png' height='500'></p></div>",,,,,,,,,,,,,,,,,,
,html-keyboard-response,37,186774,0.0-35.0-1.0,"""event"",""trial"",""time""
""fullscreenenter"",""0"",""2614""
","
","
","""event"",""trial"",""time""
""fullscreenenter"",""0"",""2614""
","
",1340.6,"<div class='center'><p>If you don’t make your choice fast enough, you’ll have to wait a few seconds before you can make another one. </p><p><img src='run_exp/static/images/miscellaneous/hurry_up.png' height='500'></p><p><b>[Press the space bar to continue]</b></p></div>",32,,,,,,,,,,,,,,,,,,,,,,,
,instruc10,38,225881,0.0-35.0-2.0,"""event"",""trial"",""time""
""fullscreenenter"",""0"",""2614""
","
","
","""event"",""trial"",""time""
""fullscreenenter"",""0"",""2614""
","
",null,run_exp/static/audio/clip_12_probe.m4a,null,,,,,"<div class='center'><p>Once you've chosen a pirate, you’ll be shown the ship they are robbing. You will never rob the same ship twice. Ships can be told apart from one another by the image on them. These are the goods that they sell. See, this ship has a travel mug on it. </p><p> You’ll have to remember which island you saw each ship on. You will win more gold coins and hence more bonus money if you remember correctly! To help you remember, you can imagine a story. For example, here, you could imagine a mug full of water in the desert. Or, as another example, if on the forest island, your pirate robbed a ship with an apple on it, you could imagine an apple falling from a tree in the forest. </p><p><img src='run_exp/static/images/tutorial/example_probe.png' height='500'></p></div>",,,,,,,,,,,,,,,,,,
,html-keyboard-response,39,227624,0.0-35.0-3.0,"""event"",""trial"",""time""
""fullscreenenter"",""0"",""2614""
","
","
","""event"",""trial"",""time""
""fullscreenenter"",""0"",""2614""
","
",1742.1,"<div class='center'><p>Once you've chosen a pirate, you’ll be shown the ship they are robbing. You will never rob the same ship twice. Ships can be told apart from one another by the image on them. These are the goods that they sell. See, this ship has a travel mug on it. </p><p> You’ll have to remember which island you saw each ship on. You will win more gold coins and hence more bonus money if you remember correctly! To help you remember, you can imagine a story. For example, here, you could imagine a mug full of water in the desert. Or, as another example, if on the forest island, your pirate robbed a ship with an apple on it, you could imagine an apple falling from a tree in the forest. </p><p><img src='run_exp/static/images/tutorial/example_probe.png' height='500'></p><p><b>[Press the space bar to continue]</b></p></div>",32,,,,,,,,,,,,,,,,,,,,,,,
,instruc11,40,244039,0.0-35.0-4.0,"""event"",""trial"",""time""
""fullscreenenter"",""0"",""2614""
","
","
","""event"",""trial"",""time""
""fullscreenenter"",""0"",""2614""
","
",null,run_exp/static/audio/clip_13_changepoint.m4a,null,,,,,"<div class='center'><p>How successful a pirate is at robbing ships will depend on the island you’re on.</p><p> A pirate may have visited this island many times before and gained a lot of practice robbing ships there.</p><p>So, they’re more likely to be successful than a pirate who has never visited the island before.</p></div>",,,,,,,,,,,,,,,,,,
,html-keyboard-response,41,244365,0.0-35.0-5.0,"""event"",""trial"",""time""
""fullscreenenter"",""0"",""2614""
","
","
","""event"",""trial"",""time""
""fullscreenenter"",""0"",""2614""
","
",325.7,"<div class='center'><p>How successful a pirate is at robbing ships will depend on the island you’re on.</p><p> A pirate may have visited this island many times before and gained a lot of practice robbing ships there.</p><p>So, they’re more likely to be successful than a pirate who has never visited the island before.</p><p><b>[Press the space bar to continue]</b></p></div>",32,,,,,,,,,,,,,,,,,,,,,,,
,instruc12,42,285463,0.0-35.0-6.0,"""event"",""trial"",""time""
""fullscreenenter"",""0"",""2614""
","
","
","""event"",""trial"",""time""
""fullscreenenter"",""0"",""2614""
","
",null,run_exp/static/audio/clip_14_drift.m4a,null,,,,,"<div class='center'><p>How successful a pirate is at robbing ships can also change over the time spent on the island. </p><p> Ships may hear from islanders about the pirates coming and will improve their protections against the attack. This may make it harder to rob them.</p><p> Ships may also become lazy and weaken the strength of their protections. This may make it easier to rob them.</p><br><p>Things are always changing on the high seas! So, try your best to pay attention!</p><p><img src='run_exp/static/images/tutorial/contingency.png' height='500'></p></div>",,,,,,,,,,,,,,,,,,
,html-keyboard-response,43,288073,0.0-35.0-7.0,"""event"",""trial"",""time""
""fullscreenenter"",""0"",""2614""
","
","
","""event"",""trial"",""time""
""fullscreenenter"",""0"",""2614""
","
",2609.1,"<div class='center'><p>How successful a pirate is at robbing ships can also change over the time spent on the island. </p><p> Ships may hear from islanders about the pirates coming and will improve their protections against the attack. This may make it harder to rob them.</p><p> Ships may also become lazy and weaken the strength of their protections. This may make it easier to rob them.</p><br><p>Things are always changing on the high seas! So, try your best to pay attention!</p><p><img src='run_exp/static/images/tutorial/contingency.png' height='500'></p><p><b>[Press the space bar to continue]</b></p></div>",32,,,,,,,,,,,,,,,,,,,,,,,
,instruc13,44,323264,0.0-35.0-8.0,"""event"",""trial"",""time""
""fullscreenenter"",""0"",""2614""
","
","
","""event"",""trial"",""time""
""fullscreenenter"",""0"",""2614""
","
",null,run_exp/static/audio/clip_15_summary.m4a,null,,,,,"<div class='center'><p>Let's go over the instructions quickly again. You have two important things to do: </p><b><p> 1. Pick the pirate who is the best at robbing ships on the current island. </p></b><b><p> 2. Remember on which island a ship was robbed.</p> </b><p>The amount of bonus money you can win depends on both.</p><p><br><p>Let’s try a practice game. The game will start by showing you the pirates. First, pick a pirate using the <b> 1, 2, 3 </b> keys on your keyboard. When you are shown a ship, try to remember which island you’re on by making up a story.</p><p>This is just a practice game, so you’re not playing for money. </p><p> Good luck! This game will be very difficult but try your best!</p></div>",,,,,,,,,,,,,,,,,,
,html-keyboard-response,45,325898,0.0-35.0-9.0,"""event"",""trial"",""time""
""fullscreenenter"",""0"",""2614""
","
","
","""event"",""trial"",""time""
""fullscreenenter"",""0"",""2614""
","
",2632.8,"<div class='center'><p>Let's go over the instructions quickly again. You have two important things to do: </p><b><p> 1. Pick the pirate who is the best at robbing ships on the current island. </p></b><b><p> 2. Remember on which island a ship was robbed.</p> </b><p>The amount of bonus money you can win depends on both.</p><p><br><p>Let’s try a practice game. The game will start by showing you the pirates. First, pick a pirate using the <b> 1, 2, 3 </b> keys on your keyboard. When you are shown a ship, try to remember which island you’re on by making up a story.</p><p>This is just a practice game, so you’re not playing for money. </p><p> Good luck! This game will be very difficult but try your best!</p><p><b>[Press the space bar to continue]</b></p></div>",32,,,,,,,,,,,,,,,,,,,,,,,
,do_welcome,46,329969,0.0-35.0-10.0,"""event"",""trial"",""time""
""fullscreenenter"",""0"",""2614""
","
","
","""event"",""trial"",""time""
""fullscreenenter"",""0"",""2614""
","
",null,,,,,,,,null,,,,,,,,,,,,,,,,,
,do_trial,47,336227,0.0-35.0-11.0,"""event"",""trial"",""time""
""fullscreenenter"",""0"",""2614""
","
","
","""event"",""trial"",""time""
""fullscreenenter"",""0"",""2614""
","
",1752.5,,,,,,,,49,"1,0,0",,,,,,,,,,,,,,,,
,html-keyboard-response,48,337230,0.0-36.0-0.0,"""event"",""trial"",""time""
""fullscreenenter"",""0"",""2614""
","
","
","""event"",""trial"",""time""
""fullscreenenter"",""0"",""2614""
","
",null,<p></p>,null,,,,,,,,,,,,,,,,,,,,,,,
,do_trial,49,342615,0.0-36.0-1.0,"""event"",""trial"",""time""
""fullscreenenter"",""0"",""2614""
","
","
","""event"",""trial"",""time""
""fullscreenenter"",""0"",""2614""
","
",882.4,,,,,,,,50,"1,1,0",,,,,,,,,,,,,,,,
,html-keyboard-response,50,343620,0.0-37.0-0.0,"""event"",""trial"",""time""
""fullscreenenter"",""0"",""2614""
","
","
","""event"",""trial"",""time""
""fullscreenenter"",""0"",""2614""
","
",null,<p></p>,null,,,,,,,,,,,,,,,,,,,,,,,
,do_trial,51,348201,0.0-37.0-1.0,"""event"",""trial"",""time""
""fullscreenenter"",""0"",""2614""
","
","
","""event"",""trial"",""time""
""fullscreenenter"",""0"",""2614""
","
",72.7,,,,,,,,51,"1,0,1",,,,,,,,,,,,,,,,
,html-keyboard-response,52,349204,0.0-38.0-0.0,"""event"",""trial"",""time""
""fullscreenenter"",""0"",""2614""
","
","
","""event"",""trial"",""time""
""fullscreenenter"",""0"",""2614""
","
",null,<p></p>,null,,,,,,,,,,,,,,,,,,,,,,,
,do_trial,53,354813,0.0-38.0-1.0,"""event"",""trial"",""time""
""fullscreenenter"",""0"",""2614""
","
","
","""event"",""trial"",""time""
""fullscreenenter"",""0"",""2614""
","
",1103.9,,,,,,,,50,"0,1,0",,,,,,,,,,,,,,,,
,html-keyboard-response,54,355816,0.0-39.0-0.0,"""event"",""trial"",""time""
""fullscreenenter"",""0"",""2614""
","
","
","""event"",""trial"",""time""
""fullscreenenter"",""0"",""2614""
","
",null,<p></p>,null,,,,,,,,,,,,,,,,,,,,,,,
,do_trial,55,361213,0.0-39.0-1.0,"""event"",""trial"",""time""
""fullscreenenter"",""0"",""2614""
","
","
","""event"",""trial"",""time""
""fullscreenenter"",""0"",""2614""
","
",892.5,,,,,,,,49,"1,0,0",,,,,,,,,,,,,,,,
,do_bye,56,362716,0.0-40.0-0.0,"""event"",""trial"",""time""
""fullscreenenter"",""0"",""2614""
","
","
","""event"",""trial"",""time""
""fullscreenenter"",""0"",""2614""
","
",null,,,,,,,,null,,,,,,,,,,,,,,,,,
,do_travel,57,371722,0.0-40.0-1.0,"""event"",""trial"",""time""
""fullscreenenter"",""0"",""2614""
","
","
","""event"",""trial"",""time""
""fullscreenenter"",""0"",""2614""
","
",null,,,,,,,,null,,,,,,,,,,,,,,,,,
,do_welcome,58,375725,0.0-40.0-2.0,"""event"",""trial"",""time""
""fullscreenenter"",""0"",""2614""
","
","
","""event"",""trial"",""time""
""fullscreenenter"",""0"",""2614""
","
",null,,,,,,,,null,,,,,,,,,,,,,,,,,
,do_trial,59,382211,0.0-40.0-3.0,"""event"",""trial"",""time""
""fullscreenenter"",""0"",""2614""
","
","
","""event"",""trial"",""time""
""fullscreenenter"",""0"",""2614""
","
",1977.2,,,,,,,,49,"1,0,0",,,,,,,,,,,,,,,,
,html-keyboard-response,60,383213,0.0-41.0-0.0,"""event"",""trial"",""time""
""fullscreenenter"",""0"",""2614""
","
","
","""event"",""trial"",""time""
""fullscreenenter"",""0"",""2614""
","
",null,<p></p>,null,,,,,,,,,,,,,,,,,,,,,,,
,do_trial,61,389388,0.0-41.0-1.0,"""event"",""trial"",""time""
""fullscreenenter"",""0"",""2614""
","
","
","""event"",""trial"",""time""
""fullscreenenter"",""0"",""2614""
","
",1667.6,,,,,,,,51,"1,0,1",,,,,,,,,,,,,,,,
,html-keyboard-response,62,390393,0.0-42.0-0.0,"""event"",""trial"",""time""
""fullscreenenter"",""0"",""2614""
","
","
","""event"",""trial"",""time""
""fullscreenenter"",""0"",""2614""
","
",null,<p></p>,null,,,,,,,,,,,,,,,,,,,,,,,
,do_trial,63,395223,0.0-42.0-1.0,"""event"",""trial"",""time""
""fullscreenenter"",""0"",""2614""
","
","
","""event"",""trial"",""time""
""fullscreenenter"",""0"",""2614""
","
",326.4,,,,,,,,50,"1,1,0",,,,,,,,,,,,,,,,
,html-keyboard-response,64,396226,0.0-43.0-0.0,"""event"",""trial"",""time""
""fullscreenenter"",""0"",""2614""
","
","
","""event"",""trial"",""time""
""fullscreenenter"",""0"",""2614""
","
",null,<p></p>,null,,,,,,,,,,,,,,,,,,,,,,,
,do_trial,65,400770,0.0-43.0-1.0,"""event"",""trial"",""time""
""fullscreenenter"",""0"",""2614""
","
","
","""event"",""trial"",""time""
""fullscreenenter"",""0"",""2614""
","
",40.2,,,,,,,,49,"0,0,1",,,,,,,,,,,,,,,,
,html-keyboard-response,66,401773,0.0-44.0-0.0,"""event"",""trial"",""time""
""fullscreenenter"",""0"",""2614""
","
","
","""event"",""trial"",""time""
""fullscreenenter"",""0"",""2614""
","
",null,<p></p>,null,,,,,,,,,,,,,,,,,,,,,,,
,do_trial,67,407250,0.0-44.0-1.0,"""event"",""trial"",""time""
""fullscreenenter"",""0"",""2614""
","
","
","""event"",""trial"",""time""
""fullscreenenter"",""0"",""2614""
","
",972.8,,,,,,,,50,"1,0,1",,,,,,,,,,,,,,,,
,html-keyboard-response,68,412368,0.0-45.0-0.0,"""event"",""trial"",""time""
""fullscreenenter"",""0"",""2614""
","
","
","""event"",""trial"",""time""
""fullscreenenter"",""0"",""2614""
","
",5116.9,<div class='center'><p><img src='run_exp/static/images/tutorial/prac_best_pirate.png'  height='500'></p></div>,49,,,,,,,,,,,,,,,,,,,,,,,
,html-keyboard-response,69,417263,0.0-46.0-0.0,"""event"",""trial"",""time""
""fullscreenenter"",""0"",""2614""
","
","
","""event"",""trial"",""time""
""fullscreenenter"",""0"",""2614""
","
",4893.9,<div class='center'><p>That's correct! Red beard was the best.</p><p><b>[Press the space bar to continue]</b></p></div>,32,,,,,,,,,,,,,,,,,,,,,,,
,html-keyboard-response,70,423338,0.0-46.0-1.0,"""event"",""trial"",""time""
""fullscreenenter"",""0"",""2614""
","
","
","""event"",""trial"",""time""
""fullscreenenter"",""0"",""2614""
","
",6074.3,<div class='center'><p><img src='run_exp/static/images/tutorial/prac_source.png'  height='500'></p></div>,50,,,,,,,,,,,,,,,,,,,,,,,
,html-keyboard-response,71,429345,0.0-47.0-0.0,"""event"",""trial"",""time""
""fullscreenenter"",""0"",""2614""
","
","
","""event"",""trial"",""time""
""fullscreenenter"",""0"",""2614""
","
",6006.8,<div class='center'><p>That's correct! You saw this ship on the cavern island.</p><p><b>[Press the space bar to continue]</b></p></div>,32,,,,,,,,,,,,,,,,,,,,,,,
,quiz_beginning,72,440738,0.0-47.0-1.0,"""event"",""trial"",""time""
""fullscreenenter"",""0"",""2614""
","
","
","""event"",""trial"",""time""
""fullscreenenter"",""0"",""2614""
","
",null,run_exp/static/audio/clip_16_quiz_intro.m4a,null,,,,,"<div class='center'><p>Good job on the practice game! Now, you will be asked some true or false questions to make sure you really understand the rules of the game.</p><p> Press <b>'1'</b> on the keyboard for true and press <b>'2'</b> for false.</p></div>",,,,,,,,,,,,,,,,,,
,audio-keyboard-response,73,456976,0.0-47.0-2.0,"""event"",""trial"",""time""
""fullscreenenter"",""0"",""2614""
","
","
","""event"",""trial"",""time""
""fullscreenenter"",""0"",""2614""
","
",16236.8,run_exp/static/audio/clip_17_q1.m4a,49,,,,,,,,,,,,,,,,,,,,,,,
,correct,74,459379,0.0-48.0-0.0,"""event"",""trial"",""time""
""fullscreenenter"",""0"",""2614""
","
","
","""event"",""trial"",""time""
""fullscreenenter"",""0"",""2614""
","
",null,run_exp/static/audio/clip_18_correct.m4a,null,,,,,<div class='center'><p>That's correct!</p></div>,,,,,,,,,,,,,,,,,,
,html-keyboard-response,75,462601,0.0-48.0-1.0,"""event"",""trial"",""time""
""fullscreenenter"",""0"",""2614""
","
","
","""event"",""trial"",""time""
""fullscreenenter"",""0"",""2614""
","
",3222.2,<div class='center'><p>That's correct!</p><p><b>[Press the space bar to continue]</b></p></div>,32,,,,,,,,,,,,,,,,,,,,,,,
,audio-keyboard-response,76,471096,0.0-48.0-2.0,"""event"",""trial"",""time""
""fullscreenenter"",""0"",""2614""
","
","
","""event"",""trial"",""time""
""fullscreenenter"",""0"",""2614""
","
",8494.2,run_exp/static/audio/clip_20_q2.m4a,50,,,,,,,,,,,,,,,,,,,,,,,
,correct,77,473496,0.0-49.0-0.0,"""event"",""trial"",""time""
""fullscreenenter"",""0"",""2614""
","
","
","""event"",""trial"",""time""
""fullscreenenter"",""0"",""2614""
","
",null,run_exp/static/audio/clip_18_correct.m4a,null,,,,,<div class='center'><p>That's correct!</p></div>,,,,,,,,,,,,,,,,,,
,html-keyboard-response,78,475517,0.0-49.0-1.0,"""event"",""trial"",""time""
""fullscreenenter"",""0"",""2614""
","
","
","""event"",""trial"",""time""
""fullscreenenter"",""0"",""2614""
","
",2020.6,<div class='center'><p>That's correct!</p><p><b>[Press the space bar to continue]</b></p></div>,32,,,,,,,,,,,,,,,,,,,,,,,
,audio-keyboard-response,79,484529,0.0-49.0-2.0,"""event"",""trial"",""time""
""fullscreenenter"",""0"",""2614""
","
","
","""event"",""trial"",""time""
""fullscreenenter"",""0"",""2614""
","
",9011.4,run_exp/static/audio/clip_22_q3.m4a,49,,,,,,,,,,,,,,,,,,,,,,,
,q3_err,80,491027,0.0-50.0-0.0,"""event"",""trial"",""time""
""fullscreenenter"",""0"",""2614""
","
","
","""event"",""trial"",""time""
""fullscreenenter"",""0"",""2614""
","
",null,run_exp/static/audio/clip_23_wrong_q3.m4a,null,,,,,<div class='center'><p>That’s incorrect. How good a pirate is at robbing ships will change from island to island!</p></div>,,,,,,,,,,,,,,,,,,
,html-keyboard-response,81,493034,0.0-50.0-1.0,"""event"",""trial"",""time""
""fullscreenenter"",""0"",""2614""
","
","
","""event"",""trial"",""time""
""fullscreenenter"",""0"",""2614""
","
",2006.5,<div class='center'><p>That’s incorrect. How good a pirate is at robbing ships will change from island to island!</p><p><b>[Press the space bar to continue]</b></p></div>,32,,,,,,,,,,,,,,,,,,,,,,,
,audio-keyboard-response,82,498851,0.0-50.0-2.0,"""event"",""trial"",""time""
""fullscreenenter"",""0"",""2614""
","
","
","""event"",""trial"",""time""
""fullscreenenter"",""0"",""2614""
","
",5816.6,run_exp/static/audio/clip_24_q4.m4a,49,,,,,,,,,,,,,,,,,,,,,,,
,correct,83,501267,0.0-51.0-0.0,"""event"",""trial"",""time""
""fullscreenenter"",""0"",""2614""
","
","
","""event"",""trial"",""time""
""fullscreenenter"",""0"",""2614""
","
",null,run_exp/static/audio/clip_18_correct.m4a,null,,,,,<div class='center'><p>That's correct!</p></div>,,,,,,,,,,,,,,,,,,
,html-keyboard-response,84,503295,0.0-51.0-1.0,"""event"",""trial"",""time""
""fullscreenenter"",""0"",""2614""
","
","
","""event"",""trial"",""time""
""fullscreenenter"",""0"",""2614""
","
",2027.3,<div class='center'><p>That's correct!</p><p><b>[Press the space bar to continue]</b></p></div>,32,,,,,,,,,,,,,,,,,,,,,,,
,q_all_err,85,509487,0.0-52.0-0.0,"""event"",""trial"",""time""
""fullscreenenter"",""0"",""2614""
","
","
","""event"",""trial"",""time""
""fullscreenenter"",""0"",""2614""
","
",null,run_exp/static/audio/clip_26_quiz_redo.m4a,null,,,,,"<div class='center'><p>Oops, you missed some questions. Now that you’ve heard the correct answers. Try the quiz again! </p></div>",,,,,,,,,,,,,,,,,,
,html-keyboard-response,86,512238,0.0-52.0-1.0,"""event"",""trial"",""time""
""fullscreenenter"",""0"",""2614""
","
","
","""event"",""trial"",""time""
""fullscreenenter"",""0"",""2614""
","
",2751.3,"<div class='center'><p>Oops, you missed some questions. Now that you’ve heard the correct answers. Try the quiz again! </p><p><b>[Press the space bar to continue]</b></p></div>",32,,,,,,,,,,,,,,,,,,,,,,,
,audio-keyboard-response,87,516019,0.0-52.0-2.0,"""event"",""trial"",""time""
""fullscreenenter"",""0"",""2614""
","
","
","""event"",""trial"",""time""
""fullscreenenter"",""0"",""2614""
","
",3779.8,run_exp/static/audio/clip_17_q1.m4a,49,,,,,,,,,,,,,,,,,,,,,,,
,correct,88,518426,0.0-53.0-0.0,"""event"",""trial"",""time""
""fullscreenenter"",""0"",""2614""
","
","
","""event"",""trial"",""time""
""fullscreenenter"",""0"",""2614""
","
",null,run_exp/static/audio/clip_18_correct.m4a,null,,,,,<div class='center'><p>That's correct!</p></div>,,,,,,,,,,,,,,,,,,
,html-keyboard-response,89,520136,0.0-53.0-1.0,"""event"",""trial"",""time""
""fullscreenenter"",""0"",""2614""
","
","
","""event"",""trial"",""time""
""fullscreenenter"",""0"",""2614""
","
",1709.7,<div class='center'><p>That's correct!</p><p><b>[Press the space bar to continue]</b></p></div>,32,,,,,,,,,,,,,,,,,,,,,,,
,audio-keyboard-response,90,528485,0.0-53.0-2.0,"""event"",""trial"",""time""
""fullscreenenter"",""0"",""2614""
","
","
","""event"",""trial"",""time""
""fullscreenenter"",""0"",""2614""
","
",8348.1,run_exp/static/audio/clip_20_q2.m4a,50,,,,,,,,,,,,,,,,,,,,,,,
,correct,91,530895,0.0-54.0-0.0,"""event"",""trial"",""time""
""fullscreenenter"",""0"",""2614""
","
","
","""event"",""trial"",""time""
""fullscreenenter"",""0"",""2614""
","
",null,run_exp/static/audio/clip_18_correct.m4a,null,,,,,<div class='center'><p>That's correct!</p></div>,,,,,,,,,,,,,,,,,,
,html-keyboard-response,92,532568,0.0-54.0-1.0,"""event"",""trial"",""time""
""fullscreenenter"",""0"",""2614""
","
","
","""event"",""trial"",""time""
""fullscreenenter"",""0"",""2614""
","
",1672.7,<div class='center'><p>That's correct!</p><p><b>[Press the space bar to continue]</b></p></div>,32,,,,,,,,,,,,,,,,,,,,,,,
,audio-keyboard-response,93,541490,0.0-54.0-2.0,"""event"",""trial"",""time""
""fullscreenenter"",""0"",""2614""
","
","
","""event"",""trial"",""time""
""fullscreenenter"",""0"",""2614""
","
",8921.5,run_exp/static/audio/clip_22_q3.m4a,50,,,,,,,,,,,,,,,,,,,,,,,
,correct,94,543898,0.0-55.0-0.0,"""event"",""trial"",""time""
""fullscreenenter"",""0"",""2614""
","
","
","""event"",""trial"",""time""
""fullscreenenter"",""0"",""2614""
","
",null,run_exp/static/audio/clip_18_correct.m4a,null,,,,,<div class='center'><p>That's correct!</p></div>,,,,,,,,,,,,,,,,,,
,html-keyboard-response,95,546046,0.0-55.0-1.0,"""event"",""trial"",""time""
""fullscreenenter"",""0"",""2614""
","
","
","""event"",""trial"",""time""
""fullscreenenter"",""0"",""2614""
","
",2148,<div class='center'><p>That's correct!</p><p><b>[Press the space bar to continue]</b></p></div>,32,,,,,,,,,,,,,,,,,,,,,,,
,audio-keyboard-response,96,550996,0.0-55.0-2.0,"""event"",""trial"",""time""
""fullscreenenter"",""0"",""2614""
","
","
","""event"",""trial"",""time""
""fullscreenenter"",""0"",""2614""
","
",4949.6,run_exp/static/audio/clip_24_q4.m4a,49,,,,,,,,,,,,,,,,,,,,,,,
,correct,97,553418,0.0-56.0-0.0,"""event"",""trial"",""time""
""fullscreenenter"",""0"",""2614""
","
","
","""event"",""trial"",""time""
""fullscreenenter"",""0"",""2614""
","
",null,run_exp/static/audio/clip_18_correct.m4a,null,,,,,<div class='center'><p>That's correct!</p></div>,,,,,,,,,,,,,,,,,,
,html-keyboard-response,98,554878,0.0-56.0-1.0,"""event"",""trial"",""time""
""fullscreenenter"",""0"",""2614""
","
","
","""event"",""trial"",""time""
""fullscreenenter"",""0"",""2614""
","
",1459.3,<div class='center'><p>That's correct!</p><p><b>[Press the space bar to continue]</b></p></div>,32,,,,,,,,,,,,,,,,,,,,,,,
,q_all_corr,99,563380,0.0-57.0-0.0,"""event"",""trial"",""time""
""fullscreenenter"",""0"",""2614""
","
","
","""event"",""trial"",""time""
""fullscreenenter"",""0"",""2614""
","
",null,run_exp/static/audio/clip_27_quiz_all_correct.m4a,null,,,,,<div class='center'><p>Good job! You’re now ready to move on to the real game! Remember this game will be difficult but don't get discouraged and try your best!</p></div>,,,,,,,,,,,,,,,,,,
,html-keyboard-response,100,564452,0.0-57.0-1.0,"""event"",""trial"",""time""
""fullscreenenter"",""0"",""2614""
","
","
","""event"",""trial"",""time""
""fullscreenenter"",""0"",""2614""
","
",1071.8,<div class='center'><p>Good job! You’re now ready to move on to the real game! Remember this game will be difficult but don't get discouraged and try your best!</p><p><b>[Press the space bar to continue]</b></p></div>,32,,,,,,,,,,,,,,,,,,,,,,,
,do_welcome,101,568459,0.0-58.0-0.0,"""event"",""trial"",""time""
""fullscreenenter"",""0"",""2614""
","
","
","""event"",""trial"",""time""
""fullscreenenter"",""0"",""2614""
","
",null,,,,,,,,null,,,,,,,,,,,,,,,,,
,do_trial,102,574685,0.0-59.0-0.0,"""event"",""trial"",""time""
""fullscreenenter"",""0"",""2614""
","
","
","""event"",""trial"",""time""
""fullscreenenter"",""0"",""2614""
","
",1687.9,,,,,,,,49,"0,0,0",0,mountain,0,probe-95,0.6,0.3,0.1,0,,,,,,,,
,html-keyboard-response,103,575688,0.0-59.0-1.0,"""event"",""trial"",""time""
""fullscreenenter"",""0"",""2614""
","
","
","""event"",""trial"",""time""
""fullscreenenter"",""0"",""2614""
","
",null,<p></p>,null,,,,,,,,,,,,,,,,,,,,,,,
,do_trial,104,580905,0.0-60.0-0.0,"""event"",""trial"",""time""
""fullscreenenter"",""0"",""2614""
","
","
","""event"",""trial"",""time""
""fullscreenenter"",""0"",""2614""
","
",678.6,,,,,,,,50,"1,0,0",0,mountain,1,probe-11,0.651837835,0.296868015,0.10080394,0,,,,,,,,
,html-keyboard-response,105,581908,0.0-60.0-1.0,"""event"",""trial"",""time""
""fullscreenenter"",""0"",""2614""
","
","
","""event"",""trial"",""time""
""fullscreenenter"",""0"",""2614""
","
",null,<p></p>,null,,,,,,,,,,,,,,,,,,,,,,,
,do_trial,106,587066,0.0-61.0-0.0,"""event"",""trial"",""time""
""fullscreenenter"",""0"",""2614""
","
","
","""event"",""trial"",""time""
""fullscreenenter"",""0"",""2614""
","
",625.3,,,,,,,,51,"0,1,0",0,mountain,2,probe-29,0.490532011,0.399026164,0.14038098,0,,,,,,,,
,html-keyboard-response,107,588069,0.0-61.0-1.0,"""event"",""trial"",""time""
""fullscreenenter"",""0"",""2614""
","
","
","""event"",""trial"",""time""
""fullscreenenter"",""0"",""2614""
","
",null,<p></p>,null,,,,,,,,,,,,,,,,,,,,,,,
,do_trial,108,593495,0.0-62.0-0.0,"""event"",""trial"",""time""
""fullscreenenter"",""0"",""2614""
","
","
","""event"",""trial"",""time""
""fullscreenenter"",""0"",""2614""
","
",888.4,,,,,,,,50,"0,0,1",0,mountain,3,probe-196,0.554161534,0.423717011,0.105069963,0,,,,,,,,
,html-keyboard-response,109,594495,0.0-62.0-1.0,"""event"",""trial"",""time""
""fullscreenenter"",""0"",""2614""
","
","
","""event"",""trial"",""time""
""fullscreenenter"",""0"",""2614""
","
",null,<p></p>,null,,,,,,,,,,,,,,,,,,,,,,,
,do_trial,110,599278,0.0-63.0-0.0,"""event"",""trial"",""time""
""fullscreenenter"",""0"",""2614""
","
","
","""event"",""trial"",""time""
""fullscreenenter"",""0"",""2614""
","
",245.2,,,,,,,,49,"1,1,1",0,mountain,4,probe-188,0.667210575,0.344536618,0.057325993,1,,,,,,,,
,html-keyboard-response,111,600281,0.0-63.0-1.0,"""event"",""trial"",""time""
""fullscreenenter"",""0"",""2614""
","
","
","""event"",""trial"",""time""
""fullscreenenter"",""0"",""2614""
","
",null,<p></p>,null,,,,,,,,,,,,,,,,,,,,,,,
,do_trial,112,606046,0.0-64.0-0.0,"""event"",""trial"",""time""
""fullscreenenter"",""0"",""2614""
","
","
","""event"",""trial"",""time""
""fullscreenenter"",""0"",""2614""
","
",1232.3,,,,,,,,51,"1,0,0",0,mountain,5,probe-187,0.50405008,0.302359564,0.116062591,0,,,,,,,,
,html-keyboard-response,113,607049,0.0-64.0-1.0,"""event"",""trial"",""time""
""fullscreenenter"",""0"",""2614""
","
","
","""event"",""trial"",""time""
""fullscreenenter"",""0"",""2614""
","
",null,<p></p>,null,,,,,,,,,,,,,,,,,,,,,,,
,do_trial,114,611810,0.0-65.0-0.0,"""event"",""trial"",""time""
""fullscreenenter"",""0"",""2614""
","
","
","""event"",""trial"",""time""
""fullscreenenter"",""0"",""2614""
","
",224.3,,,,,,,,50,"1,0,0",0,mountain,6,probe-98,0.611849905,0.206040535,0.068138117,0,,,,,,,,
,html-keyboard-response,115,612812,0.0-65.0-1.0,"""event"",""trial"",""time""
""fullscreenenter"",""0"",""2614""
","
","
","""event"",""trial"",""time""
""fullscreenenter"",""0"",""2614""
","
",null,<p></p>,null,,,,,,,,,,,,,,,,,,,,,,,
,do_trial,116,617930,0.0-66.0-0.0,"""event"",""trial"",""time""
""fullscreenenter"",""0"",""2614""
","
","
","""event"",""trial"",""time""
""fullscreenenter"",""0"",""2614""
","
",580.9,,,,,,,,49,"0,0,0",0,mountain,7,probe-143,0.490547356,0.274976842,0.073459816,0,,,,,,,,
,html-keyboard-response,117,618933,0.0-66.0-1.0,"""event"",""trial"",""time""
""fullscreenenter"",""0"",""2614""
","
","
","""event"",""trial"",""time""
""fullscreenenter"",""0"",""2614""
","
",null,<p></p>,null,,,,,,,,,,,,,,,,,,,,,,,
,do_trial,118,624276,0.0-67.0-0.0,"""event"",""trial"",""time""
""fullscreenenter"",""0"",""2614""
","
","
","""event"",""trial"",""time""
""fullscreenenter"",""0"",""2614""
","
",805.9,,,,,,,,51,"1,0,0",0,mountain,8,probe-178,0.382798875,0.391853223,0.085831829,0,,,,,,,,
,html-keyboard-response,119,625281,0.0-67.0-1.0,"""event"",""trial"",""time""
""fullscreenenter"",""0"",""2614""
","
","
","""event"",""trial"",""time""
""fullscreenenter"",""0"",""2614""
","
",null,<p></p>,null,,,,,,,,,,,,,,,,,,,,,,,
,do_trial,120,630239,0.0-68.0-0.0,"""event"",""trial"",""time""
""fullscreenenter"",""0"",""2614""
","
","
","""event"",""trial"",""time""
""fullscreenenter"",""0"",""2614""
","
",420.3,,,,,,,,50,"1,0,0",0,mountain,9,probe-86,0.461335551,0.337593033,0.059050237,0,,,,,,,,
,html-keyboard-response,121,631242,0.0-68.0-1.0,"""event"",""trial"",""time""
""fullscreenenter"",""0"",""2614""
","
","
","""event"",""trial"",""time""
""fullscreenenter"",""0"",""2614""
","
",null,<p></p>,null,,,,,,,,,,,,,,,,,,,,,,,
,do_trial,122,636365,0.0-69.0-0.0,"""event"",""trial"",""time""
""fullscreenenter"",""0"",""2614""
","
","
","""event"",""trial"",""time""
""fullscreenenter"",""0"",""2614""
","
",563.8,,,,,,,,51,"1,0,0",0,mountain,10,probe-170,0.500404894,0.437768839,0.107675498,0,,,,,,,,
,html-keyboard-response,123,637369,0.0-69.0-1.0,"""event"",""trial"",""time""
""fullscreenenter"",""0"",""2614""
","
","
","""event"",""trial"",""time""
""fullscreenenter"",""0"",""2614""
","
",null,<p></p>,null,,,,,,,,,,,,,,,,,,,,,,,
,do_trial,124,642343,0.0-70.0-0.0,"""event"",""trial"",""time""
""fullscreenenter"",""0"",""2614""
","
","
","""event"",""trial"",""time""
""fullscreenenter"",""0"",""2614""
","
",437.7,,,,,,,,49,"0,0,0",0,mountain,11,probe-216,0.474207875,0.537326409,0.201325147,0,,,,,,,,
,html-keyboard-response,125,643346,0.0-70.0-1.0,"""event"",""trial"",""time""
""fullscreenenter"",""0"",""2614""
","
","
","""event"",""trial"",""time""
""fullscreenenter"",""0"",""2614""
","
",null,<p></p>,null,,,,,,,,,,,,,,,,,,,,,,,
,do_trial,126,648284,0.0-71.0-0.0,"""event"",""trial"",""time""
""fullscreenenter"",""0"",""2614""
","
","
","""event"",""trial"",""time""
""fullscreenenter"",""0"",""2614""
","
",400.9,,,,,,,,49,"0,0,0",0,mountain,12,probe-04,0.45985275,0.4341428,0.262720591,0,,,,,,,,
,html-keyboard-response,127,649287,0.0-71.0-1.0,"""event"",""trial"",""time""
""fullscreenenter"",""0"",""2614""
","
","
","""event"",""trial"",""time""
""fullscreenenter"",""0"",""2614""
","
",null,<p></p>,null,,,,,,,,,,,,,,,,,,,,,,,
,do_trial,128,654053,0.0-72.0-0.0,"""event"",""trial"",""time""
""fullscreenenter"",""0"",""2614""
","
","
","""event"",""trial"",""time""
""fullscreenenter"",""0"",""2614""
","
",231,,,,,,,,50,"0,0,0",0,mountain,13,probe-83,0.444297101,0.258663308,0.12130513,0,,,,,,,,
,html-keyboard-response,129,655056,0.0-72.0-1.0,"""event"",""trial"",""time""
""fullscreenenter"",""0"",""2614""
","
","
","""event"",""trial"",""time""
""fullscreenenter"",""0"",""2614""
","
",null,<p></p>,null,,,,,,,,,,,,,,,,,,,,,,,
,do_trial,130,660107,0.0-73.0-0.0,"""event"",""trial"",""time""
""fullscreenenter"",""0"",""2614""
","
","
","""event"",""trial"",""time""
""fullscreenenter"",""0"",""2614""
","
",515.5,,,,,,,,49,"1,0,0",0,mountain,14,probe-208,0.48965743,0.256233918,0.265661228,1,,,,,,,,
,html-keyboard-response,131,661110,0.0-73.0-1.0,"""event"",""trial"",""time""
""fullscreenenter"",""0"",""2614""
","
","
","""event"",""trial"",""time""
""fullscreenenter"",""0"",""2614""
","
",null,<p></p>,null,,,,,,,,,,,,,,,,,,,,,,,
,do_trial,132,666533,0.0-74.0-0.0,"""event"",""trial"",""time""
""fullscreenenter"",""0"",""2614""
","
","
","""event"",""trial"",""time""
""fullscreenenter"",""0"",""2614""
","
",885.5,,,,,,,,49,"0,1,1",0,mountain,15,probe-51,0.625881016,0.317722178,0.226701707,0,,,,,,,,
,html-keyboard-response,133,667536,0.0-74.0-1.0,"""event"",""trial"",""time""
""fullscreenenter"",""0"",""2614""
","
","
","""event"",""trial"",""time""
""fullscreenenter"",""0"",""2614""
","
",null,<p></p>,null,,,,,,,,,,,,,,,,,,,,,,,
,do_trial,134,672642,0.0-75.0-0.0,"""event"",""trial"",""time""
""fullscreenenter"",""0"",""2614""
","
","
","""event"",""trial"",""time""
""fullscreenenter"",""0"",""2614""
","
",569.3,,,,,,,,50,"1,1,1",0,mountain,16,probe-209,0.572143812,0.341492202,0.224688352,1,,,,,,,,
,html-keyboard-response,135,673645,0.0-75.0-1.0,"""event"",""trial"",""time""
""fullscreenenter"",""0"",""2614""
","
","
","""event"",""trial"",""time""
""fullscreenenter"",""0"",""2614""
","
",null,<p></p>,null,,,,,,,,,,,,,,,,,,,,,,,
,do_trial,136,678365,0.0-76.0-0.0,"""event"",""trial"",""time""
""fullscreenenter"",""0"",""2614""
","
","
","""event"",""trial"",""time""
""fullscreenenter"",""0"",""2614""
","
",185.9,,,,,,,,49,"1,1,1",0,mountain,17,probe-184,0.582884269,0.378422515,0.158697278,1,,,,,,,,
,html-keyboard-response,137,679368,0.0-76.0-1.0,"""event"",""trial"",""time""
""fullscreenenter"",""0"",""2614""
","
","
","""event"",""trial"",""time""
""fullscreenenter"",""0"",""2614""
","
",null,<p></p>,null,,,,,,,,,,,,,,,,,,,,,,,
,do_trial,138,684484,0.0-77.0-0.0,"""event"",""trial"",""time""
""fullscreenenter"",""0"",""2614""
","
","
","""event"",""trial"",""time""
""fullscreenenter"",""0"",""2614""
","
",582.3,,,,,,,,51,"0,0,0",0,mountain,18,probe-202,0.467342933,0.267469079,0.193310182,0,,,,,,,,
,html-keyboard-response,139,685487,0.0-77.0-1.0,"""event"",""trial"",""time""
""fullscreenenter"",""0"",""2614""
","
","
","""event"",""trial"",""time""
""fullscreenenter"",""0"",""2614""
","
",null,<p></p>,null,,,,,,,,,,,,,,,,,,,,,,,
,do_trial,140,690957,0.0-78.0-0.0,"""event"",""trial"",""time""
""fullscreenenter"",""0"",""2614""
","
","
","""event"",""trial"",""time""
""fullscreenenter"",""0"",""2614""
","
",933.4,,,,,,,,50,"0,0,0",0,mountain,19,probe-28,0.460855784,0.207054795,0.127726782,0,,,,,,,,
,html-keyboard-response,141,691959,0.0-78.0-1.0,"""event"",""trial"",""time""
""fullscreenenter"",""0"",""2614""
","
","
","""event"",""trial"",""time""
""fullscreenenter"",""0"",""2614""
","
",null,<p></p>,null,,,,,,,,,,,,,,,,,,,,,,,
,do_trial,142,696864,0.0-79.0-0.0,"""event"",""trial"",""time""
""fullscreenenter"",""0"",""2614""
","
","
","""event"",""trial"",""time""
""fullscreenenter"",""0"",""2614""
","
",366.6,,,,,,,,49,"0,0,0",0,mountain,20,probe-124,0.498959341,0.180725083,0.060007725,0,,,,,,,,
,html-keyboard-response,143,697866,0.0-79.0-1.0,"""event"",""trial"",""time""
""fullscreenenter"",""0"",""2614""
","
","
","""event"",""trial"",""time""
""fullscreenenter"",""0"",""2614""
","
",null,<p></p>,null,,,,,,,,,,,,,,,,,,,,,,,
,do_trial,144,702478,0.0-80.0-0.0,"""event"",""trial"",""time""
""fullscreenenter"",""0"",""2614""
","
","
","""event"",""trial"",""time""
""fullscreenenter"",""0"",""2614""
","
",74.5,,,,,,,,50,"0,0,0",0,mountain,21,probe-110,0.548316924,0.346371035,0.196429365,0,,,,,,,,
,html-keyboard-response,145,703481,0.0-80.0-1.0,"""event"",""trial"",""time""
""fullscreenenter"",""0"",""2614""
","
","
","""event"",""trial"",""time""
""fullscreenenter"",""0"",""2614""
","
",null,<p></p>,null,,,,,,,,,,,,,,,,,,,,,,,
,do_trial,146,708436,0.0-81.0-0.0,"""event"",""trial"",""time""
""fullscreenenter"",""0"",""2614""
","
","
","""event"",""trial"",""time""
""fullscreenenter"",""0"",""2614""
","
",421.9,,,,,,,,49,"1,1,1",0,mountain,22,probe-169,0.761961274,0.26731757,0.19991849,1,,,,,,,,
,html-keyboard-response,147,709439,0.0-81.0-1.0,"""event"",""trial"",""time""
""fullscreenenter"",""0"",""2614""
","
","
","""event"",""trial"",""time""
""fullscreenenter"",""0"",""2614""
","
",null,<p></p>,null,,,,,,,,,,,,,,,,,,,,,,,
,do_trial,148,715113,0.0-82.0-0.0,"""event"",""trial"",""time""
""fullscreenenter"",""0"",""2614""
","
","
","""event"",""trial"",""time""
""fullscreenenter"",""0"",""2614""
","
",1136.6,,,,,,,,50,"0,0,1",0,mountain,23,probe-73,0.645170038,0.34052973,0.221034302,0,,,,,,,,
,html-keyboard-response,149,716116,0.0-82.0-1.0,"""event"",""trial"",""time""
""fullscreenenter"",""0"",""2614""
","
","
","""event"",""trial"",""time""
""fullscreenenter"",""0"",""2614""
","
",null,<p></p>,null,,,,,,,,,,,,,,,,,,,,,,,
,do_trial,150,722381,0.0-83.0-0.0,"""event"",""trial"",""time""
""fullscreenenter"",""0"",""2614""
","
","
","""event"",""trial"",""time""
""fullscreenenter"",""0"",""2614""
","
",1728.2,,,,,,,,49,"1,0,1",0,mountain,24,probe-161,0.669503331,0.29082049,0.127872874,1,,,,,,,,
,html-keyboard-response,151,723384,0.0-83.0-1.0,"""event"",""trial"",""time""
""fullscreenenter"",""0"",""2614""
","
","
","""event"",""trial"",""time""
""fullscreenenter"",""0"",""2614""
","
",null,<p></p>,null,,,,,,,,,,,,,,,,,,,,,,,
,do_trial,152,729150,0.0-84.0-0.0,"""event"",""trial"",""time""
""fullscreenenter"",""0"",""2614""
","
","
","""event"",""trial"",""time""
""fullscreenenter"",""0"",""2614""
","
",1202.7,,,,,,,,49,"1,0,0",0,mountain,25,probe-162,0.568290548,0.333789692,0.109898354,1,,,,,,,,
,html-keyboard-response,153,730155,0.0-84.0-1.0,"""event"",""trial"",""time""
""fullscreenenter"",""0"",""2614""
","
","
","""event"",""trial"",""time""
""fullscreenenter"",""0"",""2614""
","
",null,<p></p>,null,,,,,,,,,,,,,,,,,,,,,,,
,do_trial,154,735128,0.0-85.0-0.0,"""event"",""trial"",""time""
""fullscreenenter"",""0"",""2614""
","
","
","""event"",""trial"",""time""
""fullscreenenter"",""0"",""2614""
","
",434.3,,,,,,,,50,"0,0,1",0,mountain,26,probe-14,0.501700312,0.313111786,0.183950515,0,,,,,,,,
,html-keyboard-response,155,736129,0.0-85.0-1.0,"""event"",""trial"",""time""
""fullscreenenter"",""0"",""2614""
","
","
","""event"",""trial"",""time""
""fullscreenenter"",""0"",""2614""
","
",null,<p></p>,null,,,,,,,,,,,,,,,,,,,,,,,
,do_trial,156,741314,0.0-86.0-0.0,"""event"",""trial"",""time""
""fullscreenenter"",""0"",""2614""
","
","
","""event"",""trial"",""time""
""fullscreenenter"",""0"",""2614""
","
",649,,,,,,,,49,"0,0,0",0,mountain,27,probe-230,0.395355218,0.172914078,0.155917097,0,,,,,,,,
,html-keyboard-response,157,742316,0.0-86.0-1.0,"""event"",""trial"",""time""
""fullscreenenter"",""0"",""2614""
","
","
","""event"",""trial"",""time""
""fullscreenenter"",""0"",""2614""
","
",null,<p></p>,null,,,,,,,,,,,,,,,,,,,,,,,
,do_trial,158,747680,0.0-87.0-0.0,"""event"",""trial"",""time""
""fullscreenenter"",""0"",""2614""
","
","
","""event"",""trial"",""time""
""fullscreenenter"",""0"",""2614""
","
",829.7,,,,,,,,49,"1,0,0",0,mountain,28,probe-130,0.454881981,0.205359654,0.194838682,1,,,,,,,,
,html-keyboard-response,159,748683,0.0-87.0-1.0,"""event"",""trial"",""time""
""fullscreenenter"",""0"",""2614""
","
","
","""event"",""trial"",""time""
""fullscreenenter"",""0"",""2614""
","
",null,<p></p>,null,,,,,,,,,,,,,,,,,,,,,,,
,do_trial,160,754116,0.0-88.0-0.0,"""event"",""trial"",""time""
""fullscreenenter"",""0"",""2614""
","
","
","""event"",""trial"",""time""
""fullscreenenter"",""0"",""2614""
","
",898.7,,,,,,,,50,"0,0,0",0,mountain,29,probe-213,0.519173589,0.298926718,0.114767647,0,,,,,,,,
,html-keyboard-response,161,755117,0.0-88.0-1.0,"""event"",""trial"",""time""
""fullscreenenter"",""0"",""2614""
","
","
","""event"",""trial"",""time""
""fullscreenenter"",""0"",""2614""
","
",null,<p></p>,null,,,,,,,,,,,,,,,,,,,,,,,
,do_bye,162,756624,0.0-89.0-0.0,"""event"",""trial"",""time""
""fullscreenenter"",""0"",""2614""
","
","
","""event"",""trial"",""time""
""fullscreenenter"",""0"",""2614""
","
",null,,,,,,,,null,,,,,,,,,,,,,,,,,
,break,163,761415,0.0-89.0-1.0,"""event"",""trial"",""time""
""fullscreenenter"",""0"",""2614""
","
","
","""event"",""trial"",""time""
""fullscreenenter"",""0"",""2614""
","
",4790.1,"<div class='center'><p>Time to take a quick break! You have 2 minutes to rest, but you can move on sooner if you'd like.</p><p> Press the <b>space bar</b> to continue.</p></div>",32,,,,,,,,,,,,,,,,,,,,,,,
,do_travel,164,770416,0.0-90.0-0.0,"""event"",""trial"",""time""
""fullscreenenter"",""0"",""2614""
","
","
","""event"",""trial"",""time""
""fullscreenenter"",""0"",""2614""
","
",null,,,,,,,,null,,,,,,,,,,,,,,,,,
,do_welcome,165,774424,0.0-90.0-1.0,"""event"",""trial"",""time""
""fullscreenenter"",""0"",""2614""
","
","
","""event"",""trial"",""time""
""fullscreenenter"",""0"",""2614""
","
",null,,,,,,,,null,,,,,,,,,,,,,,,,,
,do_trial,166,781677,0.0-91.0-0.0,"""event"",""trial"",""time""
""fullscreenenter"",""0"",""2614""
","
","
","""event"",""trial"",""time""
""fullscreenenter"",""0"",""2614""
","
",2720.3,,,,,,,,49,"1,0,0",1,countryside,30,probe-198,1,0.236398815,0.054008057,1,,,,,,,,
,html-keyboard-response,167,782679,0.0-91.0-1.0,"""event"",""trial"",""time""
""fullscreenenter"",""0"",""2614""
","
","
","""event"",""trial"",""time""
""fullscreenenter"",""0"",""2614""
","
",null,<p></p>,null,,,,,,,,,,,,,,,,,,,,,,,
,do_trial,168,787696,0.0-92.0-0.0,"""event"",""trial"",""time""
""fullscreenenter"",""0"",""2614""
","
","
","""event"",""trial"",""time""
""fullscreenenter"",""0"",""2614""
","
",482.2,,,,,,,,50,"1,0,0",1,countryside,31,probe-67,1,0.284337988,0.204289894,0,,,,,,,,
,html-keyboard-response,169,788699,0.0-92.0-1.0,"""event"",""trial"",""time""
""fullscreenenter"",""0"",""2614""
","
","
","""event"",""trial"",""time""
""fullscreenenter"",""0"",""2614""
","
",null,<p></p>,null,,,,,,,,,,,,,,,,,,,,,,,
,do_trial,170,794480,0.0-93.0-0.0,"""event"",""trial"",""time""
""fullscreenenter"",""0"",""2614""
","
","
","""event"",""trial"",""time""
""fullscreenenter"",""0"",""2614""
","
",1247.4,,,,,,,,51,"1,0,0",1,countryside,32,probe-66,1,0.340629672,0.230218189,0,,,,,,,,
,html-keyboard-response,171,795483,0.0-93.0-1.0,"""event"",""trial"",""time""
""fullscreenenter"",""0"",""2614""
","
","
","""event"",""trial"",""time""
""fullscreenenter"",""0"",""2614""
","
",null,<p></p>,null,,,,,,,,,,,,,,,,,,,,,,,
,do_trial,172,801426,0.0-94.0-0.0,"""event"",""trial"",""time""
""fullscreenenter"",""0"",""2614""
","
","
","""event"",""trial"",""time""
""fullscreenenter"",""0"",""2614""
","
",1405.9,,,,,,,,49,"1,0,0",1,countryside,33,probe-23,0.905711399,0.255102612,0.078907182,1,,,,,,,,
,html-keyboard-response,173,802429,0.0-94.0-1.0,"""event"",""trial"",""time""
""fullscreenenter"",""0"",""2614""
","
","
","""event"",""trial"",""time""
""fullscreenenter"",""0"",""2614""
","
",null,<p></p>,null,,,,,,,,,,,,,,,,,,,,,,,
,do_trial,174,807468,0.0-95.0-0.0,"""event"",""trial"",""time""
""fullscreenenter"",""0"",""2614""
","
","
","""event"",""trial"",""time""
""fullscreenenter"",""0"",""2614""
","
",501.6,,,,,,,,49,"0,0,0",1,countryside,34,probe-96,0.769824862,0.29810352,0.306739154,0,,,,,,,,
,html-keyboard-response,175,808470,0.0-95.0-1.0,"""event"",""trial"",""time""
""fullscreenenter"",""0"",""2614""
","
","
","""event"",""trial"",""time""
""fullscreenenter"",""0"",""2614""
","
",null,<p></p>,null,,,,,,,,,,,,,,,,,,,,,,,
,do_trial,176,813700,0.0-96.0-0.0,"""event"",""trial"",""time""
""fullscreenenter"",""0"",""2614""
","
","
","""event"",""trial"",""time""
""fullscreenenter"",""0"",""2614""
","
",692.8,,,,,,,,50,"1,0,0",1,countryside,35,probe-108,0.708892706,0.319736351,0.211245583,0,,,,,,,,
,html-keyboard-response,177,814703,0.0-96.0-1.0,"""event"",""trial"",""time""
""fullscreenenter"",""0"",""2614""
","
","
","""event"",""trial"",""time""
""fullscreenenter"",""0"",""2614""
","
",null,<p></p>,null,,,,,,,,,,,,,,,,,,,,,,,
,do_trial,178,819705,0.0-97.0-0.0,"""event"",""trial"",""time""
""fullscreenenter"",""0"",""2614""
","
","
","""event"",""trial"",""time""
""fullscreenenter"",""0"",""2614""
","
",467,,,,,,,,49,"1,1,0",1,countryside,36,probe-65,0.664451021,0.334481943,0.057422367,1,,,,,,,,
,html-keyboard-response,179,820707,0.0-97.0-1.0,"""event"",""trial"",""time""
""fullscreenenter"",""0"",""2614""
","
","
","""event"",""trial"",""time""
""fullscreenenter"",""0"",""2614""
","
",null,<p></p>,null,,,,,,,,,,,,,,,,,,,,,,,
,do_trial,180,827438,0.0-98.0-0.0,"""event"",""trial"",""time""
""fullscreenenter"",""0"",""2614""
","
","
","""event"",""trial"",""time""
""fullscreenenter"",""0"",""2614""
","
",2193.2,,,,,,,,49,"1,0,0",1,countryside,37,probe-164,0.548555908,0.400763873,0.098835434,1,,,,,,,,
,html-keyboard-response,181,828441,0.0-98.0-1.0,"""event"",""trial"",""time""
""fullscreenenter"",""0"",""2614""
","
","
","""event"",""trial"",""time""
""fullscreenenter"",""0"",""2614""
","
",null,<p></p>,null,,,,,,,,,,,,,,,,,,,,,,,
,do_trial,182,834436,0.0-99.0-0.0,"""event"",""trial"",""time""
""fullscreenenter"",""0"",""2614""
","
","
","""event"",""trial"",""time""
""fullscreenenter"",""0"",""2614""
","
",1458.1,,,,,,,,51,"0,0,0",1,countryside,38,probe-104,0.697514096,0.286408368,0.097077559,0,,,,,,,,
,html-keyboard-response,183,835439,0.0-99.0-1.0,"""event"",""trial"",""time""
""fullscreenenter"",""0"",""2614""
","
","
","""event"",""trial"",""time""
""fullscreenenter"",""0"",""2614""
","
",null,<p></p>,null,,,,,,,,,,,,,,,,,,,,,,,
,do_trial,184,840589,0.0-100.0-0.0,"""event"",""trial"",""time""
""fullscreenenter"",""0"",""2614""
","
","
","""event"",""trial"",""time""
""fullscreenenter"",""0"",""2614""
","
",613.1,,,,,,,,50,"0,0,0",1,countryside,39,probe-228,0.694907588,0.185231292,0.261675519,0,,,,,,,,
,html-keyboard-response,185,841592,0.0-100.0-1.0,"""event"",""trial"",""time""
""fullscreenenter"",""0"",""2614""
","
","
","""event"",""trial"",""time""
""fullscreenenter"",""0"",""2614""
","
",null,<p></p>,null,,,,,,,,,,,,,,,,,,,,,,,
,do_trial,186,847295,0.0-101.0-0.0,"""event"",""trial"",""time""
""fullscreenenter"",""0"",""2614""
","
","
","""event"",""trial"",""time""
""fullscreenenter"",""0"",""2614""
","
",1165.3,,,,,,,,49,"1,0,1",1,countryside,40,probe-136,0.675834747,0.197414365,0.255734935,1,,,,,,,,
,html-keyboard-response,187,848297,0.0-101.0-1.0,"""event"",""trial"",""time""
""fullscreenenter"",""0"",""2614""
","
","
","""event"",""trial"",""time""
""fullscreenenter"",""0"",""2614""
","
",null,<p></p>,null,,,,,,,,,,,,,,,,,,,,,,,
,do_trial,188,854288,0.0-102.0-0.0,"""event"",""trial"",""time""
""fullscreenenter"",""0"",""2614""
","
","
","""event"",""trial"",""time""
""fullscreenenter"",""0"",""2614""
","
",1457.8,,,,,,,,49,"0,0,1",1,countryside,41,probe-172,0.672443173,0.072361837,0.259346186,0,,,,,,,,
,html-keyboard-response,189,855290,0.0-102.0-1.0,"""event"",""trial"",""time""
""fullscreenenter"",""0"",""2614""
","
","
","""event"",""trial"",""time""
""fullscreenenter"",""0"",""2614""
","
",null,<p></p>,null,,,,,,,,,,,,,,,,,,,,,,,
,do_trial,190,860634,0.0-103.0-0.0,"""event"",""trial"",""time""
""fullscreenenter"",""0"",""2614""
","
","
","""event"",""trial"",""time""
""fullscreenenter"",""0"",""2614""
","
",808.8,,,,,,,,50,"1,0,0",1,countryside,42,probe-131,0.437948198,0.131059113,0.444496804,0,,,,,,,,
,html-keyboard-response,191,861636,0.0-103.0-1.0,"""event"",""trial"",""time""
""fullscreenenter"",""0"",""2614""
","
","
","""event"",""trial"",""time""
""fullscreenenter"",""0"",""2614""
","
",null,<p></p>,null,,,,,,,,,,,,,,,,,,,,,,,
,do_trial,192,867670,0.0-104.0-0.0,"""event"",""trial"",""time""
""fullscreenenter"",""0"",""2614""
","
","
","""event"",""trial"",""time""
""fullscreenenter"",""0"",""2614""
","
",null,,,,,,,,null,"1,0,1",1,countryside,43,probe-68,0.340164086,0.201213156,0.583046846,,,,,,,,,
,html-keyboard-response,193,868672,0.0-104.0-1.0,"""event"",""trial"",""time""
""fullscreenenter"",""0"",""2614""
","
","
","""event"",""trial"",""time""
""fullscreenenter"",""0"",""2614""
","
",null,<p></p>,null,,,,,,,,,,,,,,,,,,,,,,,
,do_trial,194,873575,0.0-105.0-0.0,"""event"",""trial"",""time""
""fullscreenenter"",""0"",""2614""
","
","
","""event"",""trial"",""time""
""fullscreenenter"",""0"",""2614""
","
",366.6,,,,,,,,50,"0,0,1",1,countryside,44,probe-145,0.319862508,0.245283087,0.566573449,0,,,,,,,,
,html-keyboard-response,195,874578,0.0-105.0-1.0,"""event"",""trial"",""time""
""fullscreenenter"",""0"",""2614""
","
","
","""event"",""trial"",""time""
""fullscreenenter"",""0"",""2614""
","
",null,<p></p>,null,,,,,,,,,,,,,,,,,,,,,,,
,do_trial,196,879457,0.0-106.0-0.0,"""event"",""trial"",""time""
""fullscreenenter"",""0"",""2614""
","
","
","""event"",""trial"",""time""
""fullscreenenter"",""0"",""2614""
","
",344.6,,,,,,,,49,"0,0,0",1,countryside,45,probe-229,0.252148567,0.240024171,0.53986621,0,,,,,,,,
,html-keyboard-response,197,880461,0.0-106.0-1.0,"""event"",""trial"",""time""
""fullscreenenter"",""0"",""2614""
","
","
","""event"",""trial"",""time""
""fullscreenenter"",""0"",""2614""
","
",null,<p></p>,null,,,,,,,,,,,,,,,,,,,,,,,
,do_trial,198,886199,0.0-107.0-0.0,"""event"",""trial"",""time""
""fullscreenenter"",""0"",""2614""
","
","
","""event"",""trial"",""time""
""fullscreenenter"",""0"",""2614""
","
",1200.7,,,,,,,,51,"0,0,0",1,countryside,46,probe-75,0.193469395,0.450744666,0.533820748,0,,,,,,,,
,html-keyboard-response,199,887202,0.0-107.0-1.0,"""event"",""trial"",""time""
""fullscreenenter"",""0"",""2614""
","
","
","""event"",""trial"",""time""
""fullscreenenter"",""0"",""2614""
","
",null,<p></p>,null,,,,,,,,,,,,,,,,,,,,,,,
,do_trial,200,893242,0.0-108.0-0.0,"""event"",""trial"",""time""
""fullscreenenter"",""0"",""2614""
","
","
","""event"",""trial"",""time""
""fullscreenenter"",""0"",""2614""
","
",null,,,,,,,,null,"0,1,0",1,countryside,47,probe-89,0.187629272,0.420603863,0.600217058,,,,,,,,,
,html-keyboard-response,201,894245,0.0-108.0-1.0,"""event"",""trial"",""time""
""fullscreenenter"",""0"",""2614""
","
","
","""event"",""trial"",""time""
""fullscreenenter"",""0"",""2614""
","
",null,<p></p>,null,,,,,,,,,,,,,,,,,,,,,,,
,do_trial,202,899943,0.0-109.0-0.0,"""event"",""trial"",""time""
""fullscreenenter"",""0"",""2614""
","
","
","""event"",""trial"",""time""
""fullscreenenter"",""0"",""2614""
","
",1164.3,,,,,,,,50,"0,0,0",1,countryside,48,probe-211,0.135973315,0.299404775,0.557191898,0,,,,,,,,
,html-keyboard-response,203,900947,0.0-109.0-1.0,"""event"",""trial"",""time""
""fullscreenenter"",""0"",""2614""
","
","
","""event"",""trial"",""time""
""fullscreenenter"",""0"",""2614""
","
",null,<p></p>,null,,,,,,,,,,,,,,,,,,,,,,,
,do_trial,204,905738,0.0-110.0-0.0,"""event"",""trial"",""time""
""fullscreenenter"",""0"",""2614""
","
","
","""event"",""trial"",""time""
""fullscreenenter"",""0"",""2614""
","
",256.9,,,,,,,,49,"0,0,0",1,countryside,49,probe-19,0.06968932,0.279633942,0.669957101,0,,,,,,,,
,html-keyboard-response,205,906741,0.0-110.0-1.0,"""event"",""trial"",""time""
""fullscreenenter"",""0"",""2614""
","
","
","""event"",""trial"",""time""
""fullscreenenter"",""0"",""2614""
","
",null,<p></p>,null,,,,,,,,,,,,,,,,,,,,,,,
,do_trial,206,912783,0.0-111.0-0.0,"""event"",""trial"",""time""
""fullscreenenter"",""0"",""2614""
","
","
","""event"",""trial"",""time""
""fullscreenenter"",""0"",""2614""
","
",null,,,,,,,,null,"0,0,1",1,countryside,50,probe-183,0.06453857,0.28380434,0.582296108,,,,,,,,,
,html-keyboard-response,207,913786,0.0-111.0-1.0,"""event"",""trial"",""time""
""fullscreenenter"",""0"",""2614""
","
","
","""event"",""trial"",""time""
""fullscreenenter"",""0"",""2614""
","
",null,<p></p>,null,,,,,,,,,,,,,,,,,,,,,,,
,do_trial,208,919486,0.0-112.0-0.0,"""event"",""trial"",""time""
""fullscreenenter"",""0"",""2614""
","
","
","""event"",""trial"",""time""
""fullscreenenter"",""0"",""2614""
","
",1165,,,,,,,,51,"0,0,0",1,countryside,51,probe-88,0.099647859,0.376625852,0.577607606,0,,,,,,,,
,html-keyboard-response,209,920488,0.0-112.0-1.0,"""event"",""trial"",""time""
""fullscreenenter"",""0"",""2614""
","
","
","""event"",""trial"",""time""
""fullscreenenter"",""0"",""2614""
","
",null,<p></p>,null,,,,,,,,,,,,,,,,,,,,,,,
,do_trial,210,925605,0.0-113.0-0.0,"""event"",""trial"",""time""
""fullscreenenter"",""0"",""2614""
","
","
","""event"",""trial"",""time""
""fullscreenenter"",""0"",""2614""
","
",583.7,,,,,,,,50,"1,1,1",1,countryside,52,probe-166,0.086048847,0.392266657,0.583399981,1,,,,,,,,
,html-keyboard-response,211,926607,0.0-113.0-1.0,"""event"",""trial"",""time""
""fullscreenenter"",""0"",""2614""
","
","
","""event"",""trial"",""time""
""fullscreenenter"",""0"",""2614""
","
",null,<p></p>,null,,,,,,,,,,,,,,,,,,,,,,,
,do_trial,212,931583,0.0-114.0-0.0,"""event"",""trial"",""time""
""fullscreenenter"",""0"",""2614""
","
","
","""event"",""trial"",""time""
""fullscreenenter"",""0"",""2614""
","
",437.7,,,,,,,,49,"0,1,0",1,countryside,53,probe-50,0.164043495,0.431782096,0.477960235,0,,,,,,,,
,html-keyboard-response,213,932586,0.0-114.0-1.0,"""event"",""trial"",""time""
""fullscreenenter"",""0"",""2614""
","
","
","""event"",""trial"",""time""
""fullscreenenter"",""0"",""2614""
","
",null,<p></p>,null,,,,,,,,,,,,,,,,,,,,,,,
,do_trial,214,937715,0.0-115.0-0.0,"""event"",""trial"",""time""
""fullscreenenter"",""0"",""2614""
","
","
","""event"",""trial"",""time""
""fullscreenenter"",""0"",""2614""
","
",591.4,,,,,,,,50,"0,0,0",1,countryside,54,probe-97,0.169079672,0.307396625,0.447613254,0,,,,,,,,
,html-keyboard-response,215,938718,0.0-115.0-1.0,"""event"",""trial"",""time""
""fullscreenenter"",""0"",""2614""
","
","
","""event"",""trial"",""time""
""fullscreenenter"",""0"",""2614""
","
",null,<p></p>,null,,,,,,,,,,,,,,,,,,,,,,,
,do_trial,216,944160,0.0-116.0-0.0,"""event"",""trial"",""time""
""fullscreenenter"",""0"",""2614""
","
","
","""event"",""trial"",""time""
""fullscreenenter"",""0"",""2614""
","
",905.9,,,,,,,,49,"0,0,0",1,countryside,55,probe-138,0.20106925,0.225424848,0.574896452,0,,,,,,,,
,html-keyboard-response,217,945163,0.0-116.0-1.0,"""event"",""trial"",""time""
""fullscreenenter"",""0"",""2614""
","
","
","""event"",""trial"",""time""
""fullscreenenter"",""0"",""2614""
","
",null,<p></p>,null,,,,,,,,,,,,,,,,,,,,,,,
,do_trial,218,950619,0.0-117.0-0.0,"""event"",""trial"",""time""
""fullscreenenter"",""0"",""2614""
","
","
","""event"",""trial"",""time""
""fullscreenenter"",""0"",""2614""
","
",917.9,,,,,,,,51,"0,0,1",1,countryside,56,probe-80,0.085908278,0.315468126,0.375424164,1,,,,,,,,
,html-keyboard-response,219,951622,0.0-117.0-1.0,"""event"",""trial"",""time""
""fullscreenenter"",""0"",""2614""
","
","
","""event"",""trial"",""time""
""fullscreenenter"",""0"",""2614""
","
",null,<p></p>,null,,,,,,,,,,,,,,,,,,,,,,,
,do_trial,220,957187,0.0-118.0-0.0,"""event"",""trial"",""time""
""fullscreenenter"",""0"",""2614""
","
","
","""event"",""trial"",""time""
""fullscreenenter"",""0"",""2614""
","
",1030.2,,,,,,,,50,"0,0,0",1,countryside,57,probe-33,0.132581703,0.285458819,0.387053774,0,,,,,,,,
,html-keyboard-response,221,958192,0.0-118.0-1.0,"""event"",""trial"",""time""
""fullscreenenter"",""0"",""2614""
","
","
","""event"",""trial"",""time""
""fullscreenenter"",""0"",""2614""
","
",null,<p></p>,null,,,,,,,,,,,,,,,,,,,,,,,
,do_trial,222,963904,0.0-119.0-0.0,"""event"",""trial"",""time""
""fullscreenenter"",""0"",""2614""
","
","
","""event"",""trial"",""time""
""fullscreenenter"",""0"",""2614""
","
",1176.6,,,,,,,,50,"0,0,1",1,countryside,58,probe-141,0.285009354,0.381321549,0.451541823,0,,,,,,,,
,html-keyboard-response,223,964907,0.0-119.0-1.0,"""event"",""trial"",""time""
""fullscreenenter"",""0"",""2614""
","
","
","""event"",""trial"",""time""
""fullscreenenter"",""0"",""2614""
","
",null,<p></p>,null,,,,,,,,,,,,,,,,,,,,,,,
,do_trial,224,970104,0.0-120.0-0.0,"""event"",""trial"",""time""
""fullscreenenter"",""0"",""2614""
","
","
","""event"",""trial"",""time""
""fullscreenenter"",""0"",""2614""
","
",660,,,,,,,,49,"0,1,0",1,countryside,59,probe-27,0.305325449,0.335124033,0.584934491,0,,,,,,,,
,html-keyboard-response,225,971107,0.0-120.0-1.0,"""event"",""trial"",""time""
""fullscreenenter"",""0"",""2614""
","
","
","""event"",""trial"",""time""
""fullscreenenter"",""0"",""2614""
","
",null,<p></p>,null,,,,,,,,,,,,,,,,,,,,,,,
,do_trial,226,976268,0.0-121.0-0.0,"""event"",""trial"",""time""
""fullscreenenter"",""0"",""2614""
","
","
","""event"",""trial"",""time""
""fullscreenenter"",""0"",""2614""
","
",625.7,,,,,,,,50,"1,0,0",1,countryside,60,probe-78,0.244731474,0.360354972,0.516778697,0,,,,,,,,
,html-keyboard-response,227,977270,0.0-121.0-1.0,"""event"",""trial"",""time""
""fullscreenenter"",""0"",""2614""
","
","
","""event"",""trial"",""time""
""fullscreenenter"",""0"",""2614""
","
",null,<p></p>,null,,,,,,,,,,,,,,,,,,,,,,,
,do_trial,228,982959,0.0-122.0-0.0,"""event"",""trial"",""time""
""fullscreenenter"",""0"",""2614""
","
","
","""event"",""trial"",""time""
""fullscreenenter"",""0"",""2614""
","
",1156.7,,,,,,,,51,"1,1,0",1,countryside,61,probe-200,0.173065522,0.424679142,0.482059162,0,,,,,,,,
,html-keyboard-response,229,983965,0.0-122.0-1.0,"""event"",""trial"",""time""
""fullscreenenter"",""0"",""2614""
","
","
","""event"",""trial"",""time""
""fullscreenenter"",""0"",""2614""
","
",null,<p></p>,null,,,,,,,,,,,,,,,,,,,,,,,
,do_trial,230,989400,0.0-123.0-0.0,"""event"",""trial"",""time""
""fullscreenenter"",""0"",""2614""
","
","
","""event"",""trial"",""time""
""fullscreenenter"",""0"",""2614""
","
",897.9,,,,,,,,50,"0,0,1",1,countryside,62,probe-134,0.100609426,0.318850098,0.583832133,0,,,,,,,,
,html-keyboard-response,231,990406,0.0-123.0-1.0,"""event"",""trial"",""time""
""fullscreenenter"",""0"",""2614""
","
","
","""event"",""trial"",""time""
""fullscreenenter"",""0"",""2614""
","
",null,<p></p>,null,,,,,,,,,,,,,,,,,,,,,,,
,do_trial,232,995461,0.0-124.0-0.0,"""event"",""trial"",""time""
""fullscreenenter"",""0"",""2614""
","
","
","""event"",""trial"",""time""
""fullscreenenter"",""0"",""2614""
","
",520.5,,,,,,,,49,"1,1,1",1,countryside,63,probe-60,0.235128216,0.434900638,0.548355538,1,,,,,,,,
,html-keyboard-response,233,996464,0.0-124.0-1.0,"""event"",""trial"",""time""
""fullscreenenter"",""0"",""2614""
","
","
","""event"",""trial"",""time""
""fullscreenenter"",""0"",""2614""
","
",null,<p></p>,null,,,,,,,,,,,,,,,,,,,,,,,
,do_trial,234,1002065,0.0-125.0-0.0,"""event"",""trial"",""time""
""fullscreenenter"",""0"",""2614""
","
","
","""event"",""trial"",""time""
""fullscreenenter"",""0"",""2614""
","
",1066.3,,,,,,,,50,"0,0,0",1,countryside,64,probe-212,0.1173126,0.505289667,0.565488778,0,,,,,,,,
,html-keyboard-response,235,1003068,0.0-125.0-1.0,"""event"",""trial"",""time""
""fullscreenenter"",""0"",""2614""
","
","
","""event"",""trial"",""time""
""fullscreenenter"",""0"",""2614""
","
",null,<p></p>,null,,,,,,,,,,,,,,,,,,,,,,,
,do_trial,236,1008197,0.0-126.0-0.0,"""event"",""trial"",""time""
""fullscreenenter"",""0"",""2614""
","
","
","""event"",""trial"",""time""
""fullscreenenter"",""0"",""2614""
","
",593.9,,,,,,,,49,"0,1,0",1,countryside,65,probe-199,0.051323588,0.375953622,0.616886032,0,,,,,,,,
,html-keyboard-response,237,1009200,0.0-126.0-1.0,"""event"",""trial"",""time""
""fullscreenenter"",""0"",""2614""
","
","
","""event"",""trial"",""time""
""fullscreenenter"",""0"",""2614""
","
",null,<p></p>,null,,,,,,,,,,,,,,,,,,,,,,,
,do_trial,238,1014866,0.0-127.0-0.0,"""event"",""trial"",""time""
""fullscreenenter"",""0"",""2614""
","
","
","""event"",""trial"",""time""
""fullscreenenter"",""0"",""2614""
","
",1133.6,,,,,,,,50,"0,1,1",1,countryside,66,probe-190,0.170698211,0.500648234,0.534863909,1,,,,,,,,
,html-keyboard-response,239,1015868,0.0-127.0-1.0,"""event"",""trial"",""time""
""fullscreenenter"",""0"",""2614""
","
","
","""event"",""trial"",""time""
""fullscreenenter"",""0"",""2614""
","
",null,<p></p>,null,,,,,,,,,,,,,,,,,,,,,,,
,do_trial,240,1020934,0.0-128.0-0.0,"""event"",""trial"",""time""
""fullscreenenter"",""0"",""2614""
","
","
","""event"",""trial"",""time""
""fullscreenenter"",""0"",""2614""
","
",528.4,,,,,,,,51,"0,1,0",1,countryside,67,probe-37,0.12994014,0.40713653,0.545648995,0,,,,,,,,
,html-keyboard-response,241,1021937,0.0-128.0-1.0,"""event"",""trial"",""time""
""fullscreenenter"",""0"",""2614""
","
","
","""event"",""trial"",""time""
""fullscreenenter"",""0"",""2614""
","
",null,<p></p>,null,,,,,,,,,,,,,,,,,,,,,,,
,do_trial,242,1027086,0.0-129.0-0.0,"""event"",""trial"",""time""
""fullscreenenter"",""0"",""2614""
","
","
","""event"",""trial"",""time""
""fullscreenenter"",""0"",""2614""
","
",614.7,,,,,,,,50,"0,0,1",1,countryside,68,probe-93,0.061779586,0.386286665,0.64938584,0,,,,,,,,
,html-keyboard-response,243,1028091,0.0-129.0-1.0,"""event"",""trial"",""time""
""fullscreenenter"",""0"",""2614""
","
","
","""event"",""trial"",""time""
""fullscreenenter"",""0"",""2614""
","
",null,<p></p>,null,,,,,,,,,,,,,,,,,,,,,,,
,do_trial,244,1033018,0.0-130.0-0.0,"""event"",""trial"",""time""
""fullscreenenter"",""0"",""2614""
","
","
","""event"",""trial"",""time""
""fullscreenenter"",""0"",""2614""
","
",390.1,,,,,,,,49,"0,0,0",1,countryside,69,probe-155,0.104274964,0.319720298,0.571281943,0,,,,,,,,
,html-keyboard-response,245,1034021,0.0-130.0-1.0,"""event"",""trial"",""time""
""fullscreenenter"",""0"",""2614""
","
","
","""event"",""trial"",""time""
""fullscreenenter"",""0"",""2614""
","
",null,<p></p>,null,,,,,,,,,,,,,,,,,,,,,,,
,do_bye,246,1035528,0.0-131.0-0.0,"""event"",""trial"",""time""
""fullscreenenter"",""0"",""2614""
","
","
","""event"",""trial"",""time""
""fullscreenenter"",""0"",""2614""
","
",null,,,,,,,,null,,,,,,,,,,,,,,,,,
,break,247,1041765,0.0-131.0-1.0,"""event"",""trial"",""time""
""fullscreenenter"",""0"",""2614""
","
","
","""event"",""trial"",""time""
""fullscreenenter"",""0"",""2614""
","
",6236.3,"<div class='center'><p>Time to take a quick break! You have 2 minutes to rest, but you can move on sooner if you'd like.</p><p> Press the <b>space bar</b> to continue.</p></div>",32,,,,,,,,,,,,,,,,,,,,,,,
,do_travel,248,1050770,0.0-132.0-0.0,"""event"",""trial"",""time""
""fullscreenenter"",""0"",""2614""
","
","
","""event"",""trial"",""time""
""fullscreenenter"",""0"",""2614""
","
",null,,,,,,,,null,,,,,,,,,,,,,,,,,
,do_welcome,249,1054776,0.0-132.0-1.0,"""event"",""trial"",""time""
""fullscreenenter"",""0"",""2614""
","
","
","""event"",""trial"",""time""
""fullscreenenter"",""0"",""2614""
","
",null,,,,,,,,null,,,,,,,,,,,,,,,,,
,do_trial,250,1061693,0.0-133.0-0.0,"""event"",""trial"",""time""
""fullscreenenter"",""0"",""2614""
","
","
","""event"",""trial"",""time""
""fullscreenenter"",""0"",""2614""
","
",2380.4,,,,,,,,50,"0,0,1",2,highway,70,probe-57,0.112679393,0.274102165,1,0,,,,,,,,
,html-keyboard-response,251,1062696,0.0-133.0-1.0,"""event"",""trial"",""time""
""fullscreenenter"",""0"",""2614""
","
","
","""event"",""trial"",""time""
""fullscreenenter"",""0"",""2614""
","
",null,<p></p>,null,,,,,,,,,,,,,,,,,,,,,,,
,do_trial,252,1068332,0.0-134.0-0.0,"""event"",""trial"",""time""
""fullscreenenter"",""0"",""2614""
","
","
","""event"",""trial"",""time""
""fullscreenenter"",""0"",""2614""
","
",1099.6,,,,,,,,51,"1,0,1",2,highway,71,probe-201,0.279799645,0.24397619,1,1,,,,,,,,
,html-keyboard-response,253,1069334,0.0-134.0-1.0,"""event"",""trial"",""time""
""fullscreenenter"",""0"",""2614""
","
","
","""event"",""trial"",""time""
""fullscreenenter"",""0"",""2614""
","
",null,<p></p>,null,,,,,,,,,,,,,,,,,,,,,,,
,do_trial,254,1074228,0.0-135.0-0.0,"""event"",""trial"",""time""
""fullscreenenter"",""0"",""2614""
","
","
","""event"",""trial"",""time""
""fullscreenenter"",""0"",""2614""
","
",356.1,,,,,,,,49,"0,0,1",2,highway,72,probe-224,0.177503423,0.170659394,0.84817289,0,,,,,,,,
,html-keyboard-response,255,1075231,0.0-135.0-1.0,"""event"",""trial"",""time""
""fullscreenenter"",""0"",""2614""
","
","
","""event"",""trial"",""time""
""fullscreenenter"",""0"",""2614""
","
",null,<p></p>,null,,,,,,,,,,,,,,,,,,,,,,,
,do_trial,256,1080258,0.0-136.0-0.0,"""event"",""trial"",""time""
""fullscreenenter"",""0"",""2614""
","
","
","""event"",""trial"",""time""
""fullscreenenter"",""0"",""2614""
","
",490,,,,,,,,50,"0,0,1",2,highway,73,probe-157,0.109344248,0.063184511,0.727702723,0,,,,,,,,
,html-keyboard-response,257,1081262,0.0-136.0-1.0,"""event"",""trial"",""time""
""fullscreenenter"",""0"",""2614""
","
","
","""event"",""trial"",""time""
""fullscreenenter"",""0"",""2614""
","
",null,<p></p>,null,,,,,,,,,,,,,,,,,,,,,,,
,do_trial,258,1086671,0.0-137.0-0.0,"""event"",""trial"",""time""
""fullscreenenter"",""0"",""2614""
","
","
","""event"",""trial"",""time""
""fullscreenenter"",""0"",""2614""
","
",869.8,,,,,,,,51,"0,0,1",2,highway,74,probe-76,0.125216652,0.271888622,0.663285605,1,,,,,,,,
,html-keyboard-response,259,1087674,0.0-137.0-1.0,"""event"",""trial"",""time""
""fullscreenenter"",""0"",""2614""
","
","
","""event"",""trial"",""time""
""fullscreenenter"",""0"",""2614""
","
",null,<p></p>,null,,,,,,,,,,,,,,,,,,,,,,,
,do_trial,260,1092899,0.0-138.0-0.0,"""event"",""trial"",""time""
""fullscreenenter"",""0"",""2614""
","
","
","""event"",""trial"",""time""
""fullscreenenter"",""0"",""2614""
","
",692,,,,,,,,50,"0,1,0",2,highway,75,probe-58,0.251227649,0.365342406,0.519598076,1,,,,,,,,
,html-keyboard-response,261,1093902,0.0-138.0-1.0,"""event"",""trial"",""time""
""fullscreenenter"",""0"",""2614""
","
","
","""event"",""trial"",""time""
""fullscreenenter"",""0"",""2614""
","
",null,<p></p>,null,,,,,,,,,,,,,,,,,,,,,,,
,do_trial,262,1098630,0.0-139.0-0.0,"""event"",""trial"",""time""
""fullscreenenter"",""0"",""2614""
","
","
","""event"",""trial"",""time""
""fullscreenenter"",""0"",""2614""
","
",190.5,,,,,,,,51,"1,0,1",2,highway,76,probe-154,0.255898377,0.235671689,0.556748958,1,,,,,,,,
,html-keyboard-response,263,1099633,0.0-139.0-1.0,"""event"",""trial"",""time""
""fullscreenenter"",""0"",""2614""
","
","
","""event"",""trial"",""time""
""fullscreenenter"",""0"",""2614""
","
",null,<p></p>,null,,,,,,,,,,,,,,,,,,,,,,,
,do_trial,264,1104672,0.0-140.0-0.0,"""event"",""trial"",""time""
""fullscreenenter"",""0"",""2614""
","
","
","""event"",""trial"",""time""
""fullscreenenter"",""0"",""2614""
","
",501.5,,,,,,,,50,"0,0,1",2,highway,77,probe-01,0.114791821,0.138517996,0.59952218,0,,,,,,,,
,html-keyboard-response,265,1105674,0.0-140.0-1.0,"""event"",""trial"",""time""
""fullscreenenter"",""0"",""2614""
","
","
","""event"",""trial"",""time""
""fullscreenenter"",""0"",""2614""
","
",null,<p></p>,null,,,,,,,,,,,,,,,,,,,,,,,
,do_trial,266,1110747,0.0-141.0-0.0,"""event"",""trial"",""time""
""fullscreenenter"",""0"",""2614""
","
","
","""event"",""trial"",""time""
""fullscreenenter"",""0"",""2614""
","
",535,,,,,,,,50,"0,0,1",2,highway,78,probe-15,0.094473781,0.167772264,0.6381254,0,,,,,,,,
,html-keyboard-response,267,1111750,0.0-141.0-1.0,"""event"",""trial"",""time""
""fullscreenenter"",""0"",""2614""
","
","
","""event"",""trial"",""time""
""fullscreenenter"",""0"",""2614""
","
",null,<p></p>,null,,,,,,,,,,,,,,,,,,,,,,,
,do_trial,268,1116710,0.0-142.0-0.0,"""event"",""trial"",""time""
""fullscreenenter"",""0"",""2614""
","
","
","""event"",""trial"",""time""
""fullscreenenter"",""0"",""2614""
","
",421.9,,,,,,,,50,"0,0,1",2,highway,79,probe-39,0.059205537,0.234914264,0.478381916,0,,,,,,,,
,html-keyboard-response,269,1117712,0.0-142.0-1.0,"""event"",""trial"",""time""
""fullscreenenter"",""0"",""2614""
","
","
","""event"",""trial"",""time""
""fullscreenenter"",""0"",""2614""
","
",null,<p></p>,null,,,,,,,,,,,,,,,,,,,,,,,
,do_trial,270,1122931,0.0-143.0-0.0,"""event"",""trial"",""time""
""fullscreenenter"",""0"",""2614""
","
","
","""event"",""trial"",""time""
""fullscreenenter"",""0"",""2614""
","
",681.2,,,,,,,,51,"0,0,0",2,highway,80,probe-12,0.088005498,0.18461371,0.380687582,0,,,,,,,,
,html-keyboard-response,271,1123934,0.0-143.0-1.0,"""event"",""trial"",""time""
""fullscreenenter"",""0"",""2614""
","
","
","""event"",""trial"",""time""
""fullscreenenter"",""0"",""2614""
","
",null,<p></p>,null,,,,,,,,,,,,,,,,,,,,,,,
,do_trial,272,1128958,0.0-144.0-0.0,"""event"",""trial"",""time""
""fullscreenenter"",""0"",""2614""
","
","
","""event"",""trial"",""time""
""fullscreenenter"",""0"",""2614""
","
",490.4,,,,,,,,49,"0,0,0",2,highway,81,probe-152,0.182286038,0.256066949,0.203689965,0,,,,,,,,
,html-keyboard-response,273,1129960,0.0-144.0-1.0,"""event"",""trial"",""time""
""fullscreenenter"",""0"",""2614""
","
","
","""event"",""trial"",""time""
""fullscreenenter"",""0"",""2614""
","
",null,<p></p>,null,,,,,,,,,,,,,,,,,,,,,,,
,do_trial,274,1135397,0.0-145.0-0.0,"""event"",""trial"",""time""
""fullscreenenter"",""0"",""2614""
","
","
","""event"",""trial"",""time""
""fullscreenenter"",""0"",""2614""
","
",898.7,,,,,,,,50,"1,0,0",2,highway,82,probe-13,0.11432858,0.303703118,0.214897814,0,,,,,,,,
,html-keyboard-response,275,1136399,0.0-145.0-1.0,"""event"",""trial"",""time""
""fullscreenenter"",""0"",""2614""
","
","
","""event"",""trial"",""time""
""fullscreenenter"",""0"",""2614""
","
",null,<p></p>,null,,,,,,,,,,,,,,,,,,,,,,,
,do_trial,276,1141221,0.0-146.0-0.0,"""event"",""trial"",""time""
""fullscreenenter"",""0"",""2614""
","
","
","""event"",""trial"",""time""
""fullscreenenter"",""0"",""2614""
","
",287.9,,,,,,,,51,"0,0,1",2,highway,83,probe-226,0.078841033,0.342275128,0.196116207,1,,,,,,,,
,html-keyboard-response,277,1142224,0.0-146.0-1.0,"""event"",""trial"",""time""
""fullscreenenter"",""0"",""2614""
","
","
","""event"",""trial"",""time""
""fullscreenenter"",""0"",""2614""
","
",null,<p></p>,null,,,,,,,,,,,,,,,,,,,,,,,
,do_trial,278,1147073,0.0-147.0-0.0,"""event"",""trial"",""time""
""fullscreenenter"",""0"",""2614""
","
","
","""event"",""trial"",""time""
""fullscreenenter"",""0"",""2614""
","
",313.2,,,,,,,,51,"0,0,0",2,highway,84,probe-120,0.165022641,0.468697566,0.189716206,0,,,,,,,,
,html-keyboard-response,279,1148074,0.0-147.0-1.0,"""event"",""trial"",""time""
""fullscreenenter"",""0"",""2614""
","
","
","""event"",""trial"",""time""
""fullscreenenter"",""0"",""2614""
","
",null,<p></p>,null,,,,,,,,,,,,,,,,,,,,,,,
,do_trial,280,1153270,0.0-148.0-0.0,"""event"",""trial"",""time""
""fullscreenenter"",""0"",""2614""
","
","
","""event"",""trial"",""time""
""fullscreenenter"",""0"",""2614""
","
",662.1,,,,,,,,50,"1,0,1",2,highway,85,probe-43,0.230071626,0.511595674,0.252936585,0,,,,,,,,
,html-keyboard-response,281,1154271,0.0-148.0-1.0,"""event"",""trial"",""time""
""fullscreenenter"",""0"",""2614""
","
","
","""event"",""trial"",""time""
""fullscreenenter"",""0"",""2614""
","
",null,<p></p>,null,,,,,,,,,,,,,,,,,,,,,,,
,do_trial,282,1159327,0.0-149.0-0.0,"""event"",""trial"",""time""
""fullscreenenter"",""0"",""2614""
","
","
","""event"",""trial"",""time""
""fullscreenenter"",""0"",""2614""
","
",518,,,,,,,,50,"0,0,1",2,highway,86,probe-117,0.169164545,0.495428357,0.275812442,0,,,,,,,,
,html-keyboard-response,283,1160330,0.0-149.0-1.0,"""event"",""trial"",""time""
""fullscreenenter"",""0"",""2614""
","
","
","""event"",""trial"",""time""
""fullscreenenter"",""0"",""2614""
","
",null,<p></p>,null,,,,,,,,,,,,,,,,,,,,,,,
,do_trial,284,1166232,0.0-150.0-0.0,"""event"",""trial"",""time""
""fullscreenenter"",""0"",""2614""
","
","
","""event"",""trial"",""time""
""fullscreenenter"",""0"",""2614""
","
",1367.6,,,,,,,,49,"0,0,0",2,highway,87,probe-09,0.239878234,0.551135039,0.290831845,0,,,,,,,,
,html-keyboard-response,285,1167234,0.0-150.0-1.0,"""event"",""trial"",""time""
""fullscreenenter"",""0"",""2614""
","
","
","""event"",""trial"",""time""
""fullscreenenter"",""0"",""2614""
","
",null,<p></p>,null,,,,,,,,,,,,,,,,,,,,,,,
,do_trial,286,1173311,0.0-151.0-0.0,"""event"",""trial"",""time""
""fullscreenenter"",""0"",""2614""
","
","
","""event"",""trial"",""time""
""fullscreenenter"",""0"",""2614""
","
",1540,,,,,,,,50,"0,1,0",2,highway,88,probe-129,0.082457948,0.631463499,0.098272634,1,,,,,,,,
,html-keyboard-response,287,1174316,0.0-151.0-1.0,"""event"",""trial"",""time""
""fullscreenenter"",""0"",""2614""
","
","
","""event"",""trial"",""time""
""fullscreenenter"",""0"",""2614""
","
",null,<p></p>,null,,,,,,,,,,,,,,,,,,,,,,,
,do_trial,288,1179651,0.0-152.0-0.0,"""event"",""trial"",""time""
""fullscreenenter"",""0"",""2614""
","
","
","""event"",""trial"",""time""
""fullscreenenter"",""0"",""2614""
","
",802.2,,,,,,,,50,"0,1,0",2,highway,89,probe-214,0.0954599,0.609778899,0.119192335,1,,,,,,,,
,html-keyboard-response,289,1180654,0.0-152.0-1.0,"""event"",""trial"",""time""
""fullscreenenter"",""0"",""2614""
","
","
","""event"",""trial"",""time""
""fullscreenenter"",""0"",""2614""
","
",null,<p></p>,null,,,,,,,,,,,,,,,,,,,,,,,
,do_trial,290,1185652,0.0-153.0-0.0,"""event"",""trial"",""time""
""fullscreenenter"",""0"",""2614""
","
","
","""event"",""trial"",""time""
""fullscreenenter"",""0"",""2614""
","
",460.8,,,,,,,,51,"0,1,0",2,highway,90,probe-94,0.101979428,0.675768893,0.222998871,0,,,,,,,,
,html-keyboard-response,291,1186655,0.0-153.0-1.0,"""event"",""trial"",""time""
""fullscreenenter"",""0"",""2614""
","
","
","""event"",""trial"",""time""
""fullscreenenter"",""0"",""2614""
","
",null,<p></p>,null,,,,,,,,,,,,,,,,,,,,,,,
,do_trial,292,1191714,0.0-154.0-0.0,"""event"",""trial"",""time""
""fullscreenenter"",""0"",""2614""
","
","
","""event"",""trial"",""time""
""fullscreenenter"",""0"",""2614""
","
",524.6,,,,,,,,50,"0,0,0",2,highway,91,probe-71,0.089754353,0.61351297,0.20863136,0,,,,,,,,
,html-keyboard-response,293,1192719,0.0-154.0-1.0,"""event"",""trial"",""time""
""fullscreenenter"",""0"",""2614""
","
","
","""event"",""trial"",""time""
""fullscreenenter"",""0"",""2614""
","
",null,<p></p>,null,,,,,,,,,,,,,,,,,,,,,,,
,do_trial,294,1197714,0.0-155.0-0.0,"""event"",""trial"",""time""
""fullscreenenter"",""0"",""2614""
","
","
","""event"",""trial"",""time""
""fullscreenenter"",""0"",""2614""
","
",456.4,,,,,,,,49,"0,0,0",2,highway,92,probe-217,0.10901361,0.632751841,0.189473618,0,,,,,,,,
,html-keyboard-response,295,1198719,0.0-155.0-1.0,"""event"",""trial"",""time""
""fullscreenenter"",""0"",""2614""
","
","
","""event"",""trial"",""time""
""fullscreenenter"",""0"",""2614""
","
",null,<p></p>,null,,,,,,,,,,,,,,,,,,,,,,,
,do_trial,296,1204758,0.0-156.0-0.0,"""event"",""trial"",""time""
""fullscreenenter"",""0"",""2614""
","
","
","""event"",""trial"",""time""
""fullscreenenter"",""0"",""2614""
","
",null,,,,,,,,null,"0,1,0",2,highway,93,probe-06,0.120506663,0.508153055,0.143396739,,,,,,,,,
,html-keyboard-response,297,1205761,0.0-156.0-1.0,"""event"",""trial"",""time""
""fullscreenenter"",""0"",""2614""
","
","
","""event"",""trial"",""time""
""fullscreenenter"",""0"",""2614""
","
",null,<p></p>,null,,,,,,,,,,,,,,,,,,,,,,,
,do_trial,298,1211143,0.0-157.0-0.0,"""event"",""trial"",""time""
""fullscreenenter"",""0"",""2614""
","
","
","""event"",""trial"",""time""
""fullscreenenter"",""0"",""2614""
","
",847.3,,,,,,,,50,"0,0,0",2,highway,94,probe-177,0.098627312,0.513962354,0.250467482,0,,,,,,,,
,html-keyboard-response,299,1212146,0.0-157.0-1.0,"""event"",""trial"",""time""
""fullscreenenter"",""0"",""2614""
","
","
","""event"",""trial"",""time""
""fullscreenenter"",""0"",""2614""
","
",null,<p></p>,null,,,,,,,,,,,,,,,,,,,,,,,
,do_trial,300,1216961,0.0-158.0-0.0,"""event"",""trial"",""time""
""fullscreenenter"",""0"",""2614""
","
","
","""event"",""trial"",""time""
""fullscreenenter"",""0"",""2614""
","
",279.5,,,,,,,,49,"0,0,0",2,highway,95,probe-180,0.306417906,0.402438232,0.142087286,0,,,,,,,,
,html-keyboard-response,301,1217964,0.0-158.0-1.0,"""event"",""trial"",""time""
""fullscreenenter"",""0"",""2614""
","
","
","""event"",""trial"",""time""
""fullscreenenter"",""0"",""2614""
","
",null,<p></p>,null,,,,,,,,,,,,,,,,,,,,,,,
,do_trial,302,1222722,0.0-159.0-0.0,"""event"",""trial"",""time""
""fullscreenenter"",""0"",""2614""
","
","
","""event"",""trial"",""time""
""fullscreenenter"",""0"",""2614""
","
",221.6,,,,,,,,51,"1,1,0",2,highway,96,probe-207,0.279038384,0.363495446,0.192158543,0,,,,,,,,
,html-keyboard-response,303,1223725,0.0-159.0-1.0,"""event"",""trial"",""time""
""fullscreenenter"",""0"",""2614""
","
","
","""event"",""trial"",""time""
""fullscreenenter"",""0"",""2614""
","
",null,<p></p>,null,,,,,,,,,,,,,,,,,,,,,,,
,do_trial,304,1228322,0.0-160.0-0.0,"""event"",""trial"",""time""
""fullscreenenter"",""0"",""2614""
","
","
","""event"",""trial"",""time""
""fullscreenenter"",""0"",""2614""
","
",62.9,,,,,,,,50,"0,0,0",2,highway,97,probe-158,0.350904738,0.490587183,0.11776231,0,,,,,,,,
,html-keyboard-response,305,1229325,0.0-160.0-1.0,"""event"",""trial"",""time""
""fullscreenenter"",""0"",""2614""
","
","
","""event"",""trial"",""time""
""fullscreenenter"",""0"",""2614""
","
",null,<p></p>,null,,,,,,,,,,,,,,,,,,,,,,,
,do_trial,306,1236570,0.0-161.0-0.0,"""event"",""trial"",""time""
""fullscreenenter"",""0"",""2614""
","
","
","""event"",""trial"",""time""
""fullscreenenter"",""0"",""2614""
","
",2709.5,,,,,,,,49,"0,1,0",2,highway,98,probe-153,0.12994103,0.66775325,0.190892057,0,,,,,,,,
,html-keyboard-response,307,1237573,0.0-161.0-1.0,"""event"",""trial"",""time""
""fullscreenenter"",""0"",""2614""
","
","
","""event"",""trial"",""time""
""fullscreenenter"",""0"",""2614""
","
",null,<p></p>,null,,,,,,,,,,,,,,,,,,,,,,,
,do_trial,308,1242613,0.0-162.0-0.0,"""event"",""trial"",""time""
""fullscreenenter"",""0"",""2614""
","
","
","""event"",""trial"",""time""
""fullscreenenter"",""0"",""2614""
","
",503.3,,,,,,,,51,"0,1,0",2,highway,99,probe-21,0.109007961,0.684976133,0.141080717,0,,,,,,,,
,html-keyboard-response,309,1243614,0.0-162.0-1.0,"""event"",""trial"",""time""
""fullscreenenter"",""0"",""2614""
","
","
","""event"",""trial"",""time""
""fullscreenenter"",""0"",""2614""
","
",null,<p></p>,null,,,,,,,,,,,,,,,,,,,,,,,
,do_trial,310,1249185,0.0-163.0-0.0,"""event"",""trial"",""time""
""fullscreenenter"",""0"",""2614""
","
","
","""event"",""trial"",""time""
""fullscreenenter"",""0"",""2614""
","
",1033,,,,,,,,50,"0,1,0",2,highway,100,probe-148,0.070006487,0.744620602,0.076843179,1,,,,,,,,
,html-keyboard-response,311,1250190,0.0-163.0-1.0,"""event"",""trial"",""time""
""fullscreenenter"",""0"",""2614""
","
","
","""event"",""trial"",""time""
""fullscreenenter"",""0"",""2614""
","
",null,<p></p>,null,,,,,,,,,,,,,,,,,,,,,,,
,do_trial,312,1255799,0.0-164.0-0.0,"""event"",""trial"",""time""
""fullscreenenter"",""0"",""2614""
","
","
","""event"",""trial"",""time""
""fullscreenenter"",""0"",""2614""
","
",1070.5,,,,,,,,50,"1,1,1",2,highway,101,probe-114,0.201023308,0.782285617,0.264861573,1,,,,,,,,
,html-keyboard-response,313,1256802,0.0-164.0-1.0,"""event"",""trial"",""time""
""fullscreenenter"",""0"",""2614""
","
","
","""event"",""trial"",""time""
""fullscreenenter"",""0"",""2614""
","
",null,<p></p>,null,,,,,,,,,,,,,,,,,,,,,,,
,do_trial,314,1261751,0.0-165.0-0.0,"""event"",""trial"",""time""
""fullscreenenter"",""0"",""2614""
","
","
","""event"",""trial"",""time""
""fullscreenenter"",""0"",""2614""
","
",410.6,,,,,,,,49,"0,0,0",2,highway,102,probe-79,0.052924957,0.710611587,0.226706252,0,,,,,,,,
,html-keyboard-response,315,1262755,0.0-165.0-1.0,"""event"",""trial"",""time""
""fullscreenenter"",""0"",""2614""
","
","
","""event"",""trial"",""time""
""fullscreenenter"",""0"",""2614""
","
",null,<p></p>,null,,,,,,,,,,,,,,,,,,,,,,,
,do_trial,316,1267811,0.0-166.0-0.0,"""event"",""trial"",""time""
""fullscreenenter"",""0"",""2614""
","
","
","""event"",""trial"",""time""
""fullscreenenter"",""0"",""2614""
","
",521.9,,,,,,,,51,"0,1,0",2,highway,103,probe-189,0.079369314,0.715981394,0.164559783,0,,,,,,,,
,html-keyboard-response,317,1268813,0.0-166.0-1.0,"""event"",""trial"",""time""
""fullscreenenter"",""0"",""2614""
","
","
","""event"",""trial"",""time""
""fullscreenenter"",""0"",""2614""
","
",null,<p></p>,null,,,,,,,,,,,,,,,,,,,,,,,
,do_trial,318,1273729,0.0-167.0-0.0,"""event"",""trial"",""time""
""fullscreenenter"",""0"",""2614""
","
","
","""event"",""trial"",""time""
""fullscreenenter"",""0"",""2614""
","
",382,,,,,,,,50,"0,1,0",2,highway,104,probe-147,0.110815721,0.750884398,0.156377083,1,,,,,,,,
,html-keyboard-response,319,1274733,0.0-167.0-1.0,"""event"",""trial"",""time""
""fullscreenenter"",""0"",""2614""
","
","
","""event"",""trial"",""time""
""fullscreenenter"",""0"",""2614""
","
",null,<p></p>,null,,,,,,,,,,,,,,,,,,,,,,,
,do_trial,320,1280022,0.0-168.0-0.0,"""event"",""trial"",""time""
""fullscreenenter"",""0"",""2614""
","
","
","""event"",""trial"",""time""
""fullscreenenter"",""0"",""2614""
","
",751.4,,,,,,,,50,"0,0,0",2,highway,105,probe-16,0.112301355,0.719520764,0.142511049,0,,,,,,,,
,html-keyboard-response,321,1281025,0.0-168.0-1.0,"""event"",""trial"",""time""
""fullscreenenter"",""0"",""2614""
","
","
","""event"",""trial"",""time""
""fullscreenenter"",""0"",""2614""
","
",null,<p></p>,null,,,,,,,,,,,,,,,,,,,,,,,
,do_trial,322,1286243,0.0-169.0-0.0,"""event"",""trial"",""time""
""fullscreenenter"",""0"",""2614""
","
","
","""event"",""trial"",""time""
""fullscreenenter"",""0"",""2614""
","
",680.9,,,,,,,,49,"0,1,1",2,highway,106,probe-40,0.078059942,0.647830032,0.176617014,0,,,,,,,,
,html-keyboard-response,323,1287246,0.0-169.0-1.0,"""event"",""trial"",""time""
""fullscreenenter"",""0"",""2614""
","
","
","""event"",""trial"",""time""
""fullscreenenter"",""0"",""2614""
","
",null,<p></p>,null,,,,,,,,,,,,,,,,,,,,,,,
,do_trial,324,1292902,0.0-170.0-0.0,"""event"",""trial"",""time""
""fullscreenenter"",""0"",""2614""
","
","
","""event"",""trial"",""time""
""fullscreenenter"",""0"",""2614""
","
",1119.9,,,,,,,,51,"0,0,1",2,highway,107,probe-151,0.105484192,0.588777129,0.183980297,1,,,,,,,,
,html-keyboard-response,325,1293905,0.0-170.0-1.0,"""event"",""trial"",""time""
""fullscreenenter"",""0"",""2614""
","
","
","""event"",""trial"",""time""
""fullscreenenter"",""0"",""2614""
","
",null,<p></p>,null,,,,,,,,,,,,,,,,,,,,,,,
,do_trial,326,1298731,0.0-171.0-0.0,"""event"",""trial"",""time""
""fullscreenenter"",""0"",""2614""
","
","
","""event"",""trial"",""time""
""fullscreenenter"",""0"",""2614""
","
",288.1,,,,,,,,50,"1,0,0",2,highway,108,probe-150,0.100252592,0.688791825,0.229943532,0,,,,,,,,
,html-keyboard-response,327,1299734,0.0-171.0-1.0,"""event"",""trial"",""time""
""fullscreenenter"",""0"",""2614""
","
","
","""event"",""trial"",""time""
""fullscreenenter"",""0"",""2614""
","
",null,<p></p>,null,,,,,,,,,,,,,,,,,,,,,,,
,do_trial,328,1305131,0.0-172.0-0.0,"""event"",""trial"",""time""
""fullscreenenter"",""0"",""2614""
","
","
","""event"",""trial"",""time""
""fullscreenenter"",""0"",""2614""
","
",861.9,,,,,,,,49,"0,1,0",2,highway,109,probe-182,0.18408684,0.536631762,0.290713928,0,,,,,,,,
,html-keyboard-response,329,1306134,0.0-172.0-1.0,"""event"",""trial"",""time""
""fullscreenenter"",""0"",""2614""
","
","
","""event"",""trial"",""time""
""fullscreenenter"",""0"",""2614""
","
