"success","trial_type","trial_index","time_elapsed","internal_node_id","rt","stimulus","key_press","subject_id","response","choice_outcomes","context_n","context_img_id","trial_n","probe_img_id","pR_red","pR_white","pR_black","outcome","contextArray_ind","validImageProbes","invalidImageProbes","pRew_Red","pRew_White","pRew_Black","availableForMemProbe","choice_blocks"
"true","fullscreen","0","3159","0.0-0.0","","","","","","","","","","","","","","","","","","","","","",""
"","pavlovia","1","3167","0.0-1.0","","","","","","","","","","","","","","","","","","","","","",""
"","html-keyboard-response","2","22068","0.0-2.0","18899.5","<div class='center'><p>Welcome! This is the first day of the experiment which will last ~30 minutes. In this experiment, you are the head captain of a pirate ship traveling around the world to different places. You will complete several different tasks during this experiment. Here is an overview of these tasks:</p><br><p>Day 1</p><p>1. Tutorial and quiz</p><p>2. Pick a pirate game in 6 different places</p><br><p>Day 2</p><p>3. Pick a pirate game and memory game</p><p>4. Final questions and payment</p><br><p>If you complete the entire experiment, you will receive $15 and a possible bonus payment.</p><p><b>[Press the space bar to begin the tutorial]</b></p></div>","32","6110c363d2ac151f55e53e1e","","","","","","","","","","","","","","","","","",""
"","html-keyboard-response","3","28916","0.0-3.0","6846.80000000447","<div class='center'><p>You are the head captain of a pirate ship.</p><p> Your pirates rob other ships as they leave the marketplace port.</p> These ships have just sold all their goods at the marketplace, so they have lots and lots of gold on them.</p><p><img src='run_exp/static/images/ship_center.png' height='400'></p><p><b>[Press the space bar to continue]</b></p></div>","32","","","","","","","","","","","","","","","","","","",""
"","html-keyboard-response","4","39278","0.0-4.0","10360.10000000149","<div class='center'><p>As the head captain, you do not have to rob any ships yourself.</p><p>You get to choose which pirate you want to rob the next ship. </p><p>If they are successful at robbing the ship, then you will get gold coins.</p><p> If they are not successful, then you will get no gold coins.</p><p> The more coins you collect, the more bonus money you will win. So, choose your pirate wisely.</p><p><img src='run_exp/static/images/goal.png' height='400'></p><p><b>[Press the space bar to continue]</b></p><div>","32","","","","","","","","","","","","","","","","","","",""
"","html-keyboard-response","5","49494","0.0-5.0","10214.20000000298","<div class='center'><p>Even the most skilled pirate will not be able to rob EVERY ship.</p><p> Some ships will have very strong defenses against attacks.</p><p> For example, blue beard, here,  is very good at robbing ships.</p><p> You can press the <b>‘1’</b> button on the keyboard to choose him.</p><p> Try choosing him 10 times to see how often he is successful at robbing ships. </p><p><img src='run_exp/static/images/blue.png' height='500'></p></div>","49","","","","","","","","","","","","","","","","","","",""
"","html-keyboard-response","6","50996","0.0-6.0","null","<br><br><br><br><p><img src='run_exp/static/images/blue_win.png' height='500'></p>","null","","","","","","","","","","","","","","","","","","",""
"","html-keyboard-response","7","52292","0.0-7.0","1293.7000000029802","<br><br><br><br><p><img src='run_exp/static/images/blue.png' height='500'></p>","49","","","","","","","","","","","","","","","","","","",""
"","html-keyboard-response","8","53799","0.0-8.0","null","<br><br><br><br><p><img src='run_exp/static/images/blue_win.png' height='500'></p>","null","","","","","","","","","","","","","","","","","","",""
"","html-keyboard-response","9","54108","0.0-9.0","307.59999999403954","<br><br><br><br><p><img src='run_exp/static/images/blue.png' height='500'></p>","49","","","","","","","","","","","","","","","","","","",""
"","html-keyboard-response","10","55612","0.0-10.0","null","<br><br><br><br><p><img src='run_exp/static/images/blue_win.png' height='500'></p>","null","","","","","","","","","","","","","","","","","","",""
"","html-keyboard-response","11","55892","0.0-11.0","278.5","<br><br><br><br><p><img src='run_exp/static/images/blue.png' height='500'></p>","49","","","","","","","","","","","","","","","","","","",""
"","html-keyboard-response","12","57399","0.0-12.0","null","<br><br><br><br><p><img src='run_exp/static/images/blue_no_win.png' height='500'></p>","null","","","","","","","","","","","","","","","","","","",""
"","html-keyboard-response","13","57739","0.0-13.0","339.29999999701977","<br><br><br><br><p><img src='run_exp/static/images/blue.png' height='500'></p>","49","","","","","","","","","","","","","","","","","","",""
"","html-keyboard-response","14","59246","0.0-14.0","null","<br><br><br><br><p><img src='run_exp/static/images/blue_win.png' height='500'></p>","null","","","","","","","","","","","","","","","","","","",""
"","html-keyboard-response","15","59484","0.0-15.0","236.70000000298023","<br><br><br><br><p><img src='run_exp/static/images/blue.png' height='500'></p>","49","","","","","","","","","","","","","","","","","","",""
"","html-keyboard-response","16","60991","0.0-16.0","null","<br><br><br><br><p><img src='run_exp/static/images/blue_win.png' height='500'></p>","null","","","","","","","","","","","","","","","","","","",""
"","html-keyboard-response","17","61085","0.0-17.0","92.69999999552965","<br><br><br><br><p><img src='run_exp/static/images/blue.png' height='500'></p>","49","","","","","","","","","","","","","","","","","","",""
"","html-keyboard-response","18","62592","0.0-18.0","null","<br><br><br><br><p><img src='run_exp/static/images/blue_win.png' height='500'></p>","null","","","","","","","","","","","","","","","","","","",""
"","html-keyboard-response","19","62668","0.0-19.0","74.59999999403954","<br><br><br><br><p><img src='run_exp/static/images/blue.png' height='500'></p>","49","","","","","","","","","","","","","","","","","","",""
"","html-keyboard-response","20","64169","0.0-20.0","null","<br><br><br><br><p><img src='run_exp/static/images/blue_no_win.png' height='500'></p>","null","","","","","","","","","","","","","","","","","","",""
"","html-keyboard-response","21","64756","0.0-21.0","585.1999999955297","<br><br><br><br><p><img src='run_exp/static/images/blue.png' height='500'></p>","49","","","","","","","","","","","","","","","","","","",""
"","html-keyboard-response","22","66259","0.0-22.0","null","<br><br><br><br><p><img src='run_exp/static/images/blue_win.png' height='500'></p>","null","","","","","","","","","","","","","","","","","","",""
"","html-keyboard-response","23","66468","0.0-23.0","206.69999999552965","<br><br><br><br><p><img src='run_exp/static/images/blue.png' height='500'></p>","49","","","","","","","","","","","","","","","","","","",""
"","html-keyboard-response","24","67974","0.0-24.0","null","<br><br><br><br><p><img src='run_exp/static/images/blue_win.png' height='500'></p>","null","","","","","","","","","","","","","","","","","","",""
"","html-keyboard-response","25","70116","0.0-25.0","2140.7000000029802","<div class='center'><p> See, he was successful at robbing the ships most of the time but not every time. </p><p><b>[Press the space bar to continue]</b></p></div>","32","","","","","","","","","","","","","","","","","","",""
"","html-keyboard-response","26","77916","0.0-26.0","7798.5","<div class='center'><p>In the game, you will get to choose which of three pirates you want to rob the next ship. <p>Press the <b>‘1’</b> button on your keyboard to pick the pirate with the red beard.</p><p> Press <b>‘2’</b> to pick the pirate with the white beard.</p><p> Press <b>‘3’</b> to pick the pirate with the black beard.</p><p>Try picking a pirate now!</p><p><img src='run_exp/static/images/all_pirates.png' height='500'></p></div>","50","","","","","","","","","","","","","","","","","","",""
"","html-keyboard-response","27","80683","0.0-27.0-0.0","2764.39999999851","<div class='center'><p>This pirate was successful at robbing the ship!</p><p><img src='run_exp/static/images/white_win.png' height='500'></p><p><b>[Press the space bar to continue]</b></p></div>","32","","","","","","","","","","","","","","","","","","",""
"","html-keyboard-response","28","83283","0.0-27.0-1.0","2598.7000000029802","<div class='center'><p>Now try choosing another</p><p><img src='run_exp/static/images/all_pirates.png' height='500'></p></div>","51","","","","","","","","","","","","","","","","","","",""
"","html-keyboard-response","29","84275","0.0-28.0-0.0","990.3999999985099","<div class='center'><p>This pirate was not successful at robbing the ship!</p><p><img src='run_exp/static/images/black_no_win.png' height='500'></p><p><b>[Press the space bar to continue]</b></p></div>","32","","","","","","","","","","","","","","","","","","",""
"","html-keyboard-response","30","87259","0.0-29.0-0.0","2982.10000000149","<div class='center'><p>You’ll stop at these 6 places on your journey.</p><p><img src='run_exp/static/images/all_contexts.png' height='500'></p><p><b>[Press the space bar to continue]</b></p></div>","32","","","","","","","","","","","","","","","","","","",""
"","html-keyboard-response","31","94228","0.0-29.0-1.0","6968.80000000447","<div class='center'><p>How good a pirate is at robbing ships will depend on the current place.</p><p> Some pirates will have been to the place before, and will have more experience robbing ships there.</p><p>So, they will be more successful at stealing gold and bringing it back to you.</p><p><b>[Press the space bar to continue]</b></p></div>","32","","","","","","","","","","","","","","","","","","",""
"","html-keyboard-response","32","104420","0.0-29.0-2.0","10190.5","<div class='center'><p>How successful a pirate is at robbing ships can also change in a place.<p> Ships may hear about the pirates coming and will improve their defenses. This may make it more difficult to rob them.</p><p> Ships may also grow lazy and lower their defenses. This may make it easier to rob them.</p><br><p>Things are always changing on the high seas! So, try your best to pay attention!</p><p><img src='run_exp/static/images/contingency.png' height='500'></p><p><b>[Press the space bar to continue]</b></p></div>","32","","","","","","","","","","","","","","","","","","",""
"","html-keyboard-response","33","138074","0.0-29.0-3.0","33653.30000000447","<div class='center'><p>Once you choose a pirate to rob a ship, you’ll be shown the ship they are robbing.</p><p>The ship will have a picture of the item they sold at the marketplace.</p><p> Try your best to remember the ship and where you saw the ship.</p><p> You’ll have to remember this for later, and remembering this correctly will help you win more bonus money!</p><p>You can remember the ship by remembering the item they sold at the marketplace</p><p>A helpful strategy is to try to come up with a story of the chosen pirate and ship’s item interacting with the scene.</p><p> For example, a ship might have sold travel mugs and you could imagine red beard walking through the city with a travel mug. </p><p>Or imagine an apple falling from a tree into white beard's hands in the forest.</p><p><img src='run_exp/static/images/example_probe.png' height='500'></p><p><b>[Press the space bar to continue]</b></p></div>","32","","","","","","","","","","","","","","","","","","",""
"","html-keyboard-response","34","144441","0.0-29.0-4.0","6366.5","<div class='center'><p>If you don’t make your choice fast enough, you’ll have to wait a few seconds before you can make another one. </p><p>You can’t win more gold. You just have to sit and wait.</p><p><img src='run_exp/static/images/hurry_up.png' height='500'></p><p><b>[Press the space bar to continue]</b></p></div>","32","","","","","","","","","","","","","","","","","","",""
"","html-keyboard-response","35","176137","0.0-29.0-5.0","31695.69999999553","<div class='center'><p>Again, you have two important things to do: </p><b><p> 1. Pick the pirate who you think will be most successful at robbing the next ship.</p></b><b><p> 2. Remember where a pirate robbed a ship.</p> </b><p>Both are important in determining how much bonus money you’ll win.</p><br><p>Let’s try a practice game. The game will start by showing you the pirates. First pick a pirate using the <b> 1, 2, 3 </b> buttons on your keyboard. When you are shown a ship, try to remember the place you’re in by making up a story.</p><p> You only have 3 seconds to pick a pirate, so please make a choice quickly! If you are too slow, you’ll have to wait a bit during the time out.</p><p> Don’t feel rushed, but please do try to make a choice every time.</p><p>How good a pirate is at robbing a ship will change depending on the place they are in and how good the defenses are of the ship.</p> <p>This is just a practice game, so you’re not playing for money. </p><p>You’ll receive a bag which may or may not contain gold coins.</p><p> In the real game, though, you’ll be able to see whether or not you received the gold coins.</p><p> Good luck, remember press <b>'1'</b> to choose red beard, <b>'2'</b> to choose white beard, and <b>'3'</b> to choose black beard</p><p><b>[Press the space bar to begin the practice game]</b></p></div>","32","","","","","","","","","","","","","","","","","","",""
"","do_trial_prac","36","181559","0.0-29.0-6.0","910.3999999985099","","","","50","","","","","","","","","","","","","","","","",""
"","do_trial_prac","37","187658","0.0-29.0-7.0","1586.1000000014901","","","","51","","","","","","","","","","","","","","","","",""
"","do_trial_prac","38","192955","0.0-29.0-8.0","784.5999999940395","","","","49","","","","","","","","","","","","","","","","",""
"","do_trial_prac","39","198095","0.0-29.0-9.0","630.7000000029802","","","","50","","","","","","","","","","","","","","","","",""
"","do_trial_prac","40","203289","0.0-29.0-10.0","680.8999999985099","","","","51","","","","","","","","","","","","","","","","",""
"","html-keyboard-response","41","208424","0.0-29.0-11.0","5134","<div class='center'><p>Great job on the practice game!</p><p> Now, you will be asked you some true or false questions to make sure you really understand the rules of the game.</p><p> Press <b>'1'</b> on the keyboard for true and press <b>'2'</b> for false.</p><p><b>[Press the space bar to begin the quiz]</b></p></div>","32","","","","","","","","","","","","","","","","","","",""
"","html-keyboard-response","42","214873","0.0-29.0-12.0","6447.9000000059605","<div class='center'><p>You win bonus money by making choices as fast as possible.</p><p>Press 1 for true and press  2 for false.</p></div>","50","","","","","","","","","","","","","","","","","","",""
"","html-keyboard-response","43","216000","0.0-30.0-0.0","1124.8999999985099","<br><br><br><br><p>That's correct!</p> <p><b>[press the space bar to continue with the quiz]</b></p>","32","","","","","","","","","","","","","","","","","","",""
"","html-keyboard-response","44","220560","0.0-30.0-1.0","4559.5","<div class='center'><p>You press the <b>‘3’</b> button on the keyboard to choose the red bearded pirate? </p><p>Press 1 for true and press  2 for false.</p></div>","50","","","","","","","","","","","","","","","","","","",""
"","html-keyboard-response","45","221535","0.0-31.0-0.0","974.1999999955297","<br><br><br><br><p>That's correct!</p> <p><b>[press the space bar to continue with the quiz]</b></p>","32","","","","","","","","","","","","","","","","","","",""
"","html-keyboard-response","46","228840","0.0-31.0-1.0","7304","<div class='center'><p>A pirate will always be equally successful at robbing ships in each place</p><p>Press 1 for true and press  2 for false.</p></div>","49","","","","","","","","","","","","","","","","","","",""
"","html-keyboard-response","47","230454","0.0-32.0-0.0","1612.7000000029802","<br><br><br><br><p>That’s incorrect! Pirates will be successful in different places.!</p><p><b>[press the space bar to continue with the quiz]</b></p>","32","","","","","","","","","","","","","","","","","","",""
"","html-keyboard-response","48","232535","0.0-32.0-1.0","2080.39999999851","<div class='center'><p>You should remember the place where a pirate robbed a ship.</p><p>Press 1 for true and press  2 for false.</p></div>","49","","","","","","","","","","","","","","","","","","",""
"","html-keyboard-response","49","233367","0.0-33.0-0.0","830.1000000014901","<br><br><br><br><p>That's correct!</p> <p><b>[press the space bar to continue with the quiz]</b></p>","32","","","","","","","","","","","","","","","","","","",""
"","html-keyboard-response","50","237720","0.0-34.0-0.0","4351.70000000298","<br><br><br><br><p>Oops, you missed some questions. Now that you’ve heard the correct answers. Try the quiz again! If you fail the quiz too many times, you won’t be able to do the experiment. </p> <p><br>[press the space bar to repeat the quiz]</br></p>","32","","","","","","","","","","","","","","","","","","",""
"","html-keyboard-response","51","239400","0.0-34.0-1.0","1678.8999999985099","<div class='center'><p>You win bonus money by making choices as fast as possible.</p><p>Press 1 for true and press  2 for false.</p></div>","50","","","","","","","","","","","","","","","","","","",""
"","html-keyboard-response","52","239975","0.0-35.0-0.0","574.1000000014901","<br><br><br><br><p>That's correct!</p> <p><b>[press the space bar to continue with the quiz]</b></p>","32","","","","","","","","","","","","","","","","","","",""
"","html-keyboard-response","53","242326","0.0-35.0-1.0","2350.60000000149","<div class='center'><p>You press the <b>‘3’</b> button on the keyboard to choose the red bearded pirate? </p><p>Press 1 for true and press  2 for false.</p></div>","50","","","","","","","","","","","","","","","","","","",""
"","html-keyboard-response","54","242719","0.0-36.0-0.0","391.29999999701977","<br><br><br><br><p>That's correct!</p> <p><b>[press the space bar to continue with the quiz]</b></p>","32","","","","","","","","","","","","","","","","","","",""
"","html-keyboard-response","55","246575","0.0-36.0-1.0","3855.60000000149","<div class='center'><p>A pirate will always be equally successful at robbing ships in each place</p><p>Press 1 for true and press  2 for false.</p></div>","50","","","","","","","","","","","","","","","","","","",""
"","html-keyboard-response","56","247135","0.0-37.0-0.0","558.6000000014901","<br><br><br><br><p>That's correct!</p> <p><b>[press the space bar to continue with the quiz]</b></p>","32","","","","","","","","","","","","","","","","","","",""
"","html-keyboard-response","57","249455","0.0-37.0-1.0","2318.89999999851","<div class='center'><p>You should remember the place where a pirate robbed a ship.</p><p>Press 1 for true and press  2 for false.</p></div>","49","","","","","","","","","","","","","","","","","","",""
"","html-keyboard-response","58","250079","0.0-38.0-0.0","611.6999999955297","<br><br><br><br><p>That's correct!</p> <p><b>[press the space bar to continue with the quiz]</b></p>","32","","","","","","","","","","","","","","","","","","",""
"","html-keyboard-response","59","251175","0.0-39.0-0.0","1095.1000000014901","<br><br><br><br><p>Good job! You’re now ready to move on to the real game!</p> <p><br>[press the space bar to begin!]</br></p>","32","","","","","","","","","","","","","","","","","","",""
"","do_welcome","60","252686","0.0-40.0-0.0","null","","","","null","","","","","","","","","","","","","","","","",""
"","do_trial","61","258217","0.0-41.0-0.0","967.3999999985099","","","","50","1,1,0","0","coast","0","probe-18","1","0.4","0.1","1","","","","","","","",""
"","do_trial","62","264283","0.0-42.0-0.0","null","","","","null","1,1,0","0","coast","1","probe-69","1","0.42014177509054684","0.11650590361622178","","","","","","","","",""
"","do_trial","63","269456","0.0-43.0-0.0","617.3999999985099","","","","51","1,0,1","0","coast","2","probe-02","1","0.3858576733664284","0.1804370976342255","1","","","","","","","",""
"","do_trial","64","274417","0.0-44.0-0.0","407.3999999985099","","","","49","1,0,0","0","coast","3","probe-37","1","0.39404139265581","0.08914567152851152","1","","","","","","","",""
"","do_trial","65","279641","0.0-45.0-0.0","660.7999999970198","","","","50","1,0,0","0","coast","4","probe-22","0.8523838106553268","0.4965077429269746","0.14154316489646734","0","","","","","","","",""
"","do_trial","66","284712","0.0-46.0-0.0","514.5","","","","51","1,0,1","0","coast","5","probe-181","0.7925118064968474","0.55112379893842","0.061594720576225996","1","","","","","","","",""
"","do_trial","67","289740","0.0-47.0-0.0","478.20000000298023","","","","49","1,1,0","0","coast","6","probe-228","0.793762775562693","0.5580643903747596","0.06961737623359912","1","","","","","","","",""
"","do_trial","68","294783","0.0-48.0-0.0","486","","","","50","1,1,1","0","coast","7","probe-195","0.720527952605886","0.5956183823797445","0.1834931133542827","1","","","","","","","",""
"","do_trial","69","300067","0.0-49.0-0.0","730.7000000029802","","","","51","1,0,0","0","coast","8","probe-29","0.7087188728763585","0.6059551517408903","0.24704169595086703","0","","","","","","","",""
"","do_trial","70","304980","0.0-50.0-0.0","354.8999999985099","","","","49","0,0,0","0","coast","9","probe-59","0.7054437889622318","0.5679056813436185","0.135987701275934","0","","","","","","","",""
"","do_trial","71","309948","0.0-51.0-0.0","412.79999999701977","","","","50","1,0,0","0","coast","10","probe-131","0.43720560148947324","0.4230414466304472","0.48612755268055474","0","","","","","","","",""
"","do_trial","72","314872","0.0-52.0-0.0","367.3999999985099","","","","51","0,1,0","0","coast","11","probe-97","0.33138712955282823","0.3014081794191132","0.6146575064695584","0","","","","","","","",""
"","do_trial","73","320036","0.0-53.0-0.0","612.5","","","","50","1,0,1","0","coast","12","probe-153","0.20858403704747763","0.4532974324072944","0.6847993071359427","0","","","","","","","",""
"","do_trial","74","324899","0.0-54.0-0.0","306.1000000014901","","","","50","0,0,1","0","coast","13","probe-57","0.16309479993370046","0.3617702658102393","0.6706669235927276","0","","","","","","","",""
"","do_trial","75","329907","0.0-55.0-0.0","450.40000000596046","","","","49","0,0,1","0","coast","14","probe-211","0.16632790000090597","0.398027607497101","0.6957239757382325","0","","","","","","","",""
"","do_trial","76","334929","0.0-56.0-0.0","460.5","","","","51","0,0,0","0","coast","15","probe-56","0.09529481469171568","0.3968149372784677","0.6086055186134289","0","","","","","","","",""
"","do_trial","77","339806","0.0-57.0-0.0","318.8999999985099","","","","51","0,0,1","0","coast","16","probe-116","0.12154677620141768","0.2950726306071122","0.6724831040341271","1","","","","","","","",""
"","do_trial","78","345206","0.0-58.0-0.0","838.1999999955297","","","","51","0,0,1","0","coast","17","probe-91","0.10314993538037545","0.22995069018973788","0.6152408315774112","1","","","","","","","",""
"","do_trial","79","350290","0.0-59.0-0.0","530.2999999970198","","","","51","0,0,1","0","coast","18","probe-146","0.11778029029177595","0.39135324207597516","0.739297721703464","1","","","","","","","",""
"","do_trial","80","355263","0.0-60.0-0.0","408.40000000596046","","","","51","1,0,1","0","coast","19","probe-64","0.1489241860227661","0.3876785340866454","0.7651347851765475","1","","","","","","","",""
"","do_trial","81","360310","0.0-61.0-0.0","485.19999999552965","","","","51","0,1,1","0","coast","20","probe-127","0.28786558201278867","0.3550881403979264","0.8262017313904625","1","","","","","","","",""
"","do_trial","82","365243","0.0-62.0-0.0","375.3999999985099","","","","51","0,0,1","0","coast","21","probe-199","0.3000478894689603","0.4642930208561935","0.7616917848403881","1","","","","","","","",""
"","do_trial","83","370172","0.0-63.0-0.0","375.3999999985099","","","","51","0,0,1","0","coast","22","probe-96","0.06900485386428529","0.41473230339747846","0.7195120580359864","1","","","","","","","",""
"","do_trial","84","375277","0.0-64.0-0.0","548.9000000059605","","","","51","0,0,0","0","coast","23","probe-118","0.10468190908555852","0.5164821004939956","0.6557628731956411","0","","","","","","","",""
"","do_trial","85","380141","0.0-65.0-0.0","309.1000000014901","","","","51","0,0,1","0","coast","24","probe-136","0.15257406157073664","0.4180224495479577","0.9362237603729932","1","","","","","","","",""
"","do_trial","86","385820","0.0-66.0-0.0","1115.0999999940395","","","","51","0,0,1","0","coast","25","probe-19","0.12166891285222338","0.47365010011155095","0.8534120883748714","1","","","","","","","",""
"","do_trial","87","390800","0.0-67.0-0.0","424.29999999701977","","","","51","0,0,1","0","coast","26","probe-68","0.065409054757602","0.48840392126979615","0.7591749806383846","1","","","","","","","",""
"","do_trial","88","395983","0.0-68.0-0.0","629.1000000014901","","","","51","0,0,0","0","coast","27","probe-17","0.09677038398541851","0.38316614305099683","0.7641970343039777","0","","","","","","","",""
"","do_trial","89","401685","0.0-69.0-0.0","1148.6000000014901","","","","51","0,0,0","0","coast","28","probe-163","0.24528918350380352","0.3204837179767349","0.613934980858129","0","","","","","","","",""
"","do_trial","90","406581","0.0-70.0-0.0","344.40000000596046","","","","51","0,1,1","0","coast","29","probe-98","0.11270920744285096","0.2755133133805531","0.586830371310363","1","","","","","","","",""
"","do_trial","91","411495","0.0-71.0-0.0","356.09999999403954","","","","51","0,1,1","0","coast","30","probe-175","0.09177102905281022","0.40039023715485067","0.6219628739796162","1","","","","","","","",""
"","do_trial","92","416386","0.0-72.0-0.0","338.6000000014901","","","","51","0,0,0","0","coast","31","probe-225","0.1863244361780687","0.3504078642145083","0.674750759254798","0","","","","","","","",""
"","do_trial","93","421309","0.0-73.0-0.0","369.20000000298023","","","","51","0,0,1","0","coast","32","probe-10","0.13769075607107248","0.35892262278117737","0.8215338597081138","1","","","","","","","",""
"","do_trial","94","426298","0.0-74.0-0.0","429.3999999985099","","","","51","0,0,1","0","coast","33","probe-129","0.17778208809956478","0.2555212759773697","0.9123307077457316","1","","","","","","","",""
"","do_trial","95","431200","0.0-75.0-0.0","341.19999999552965","","","","51","0,1,1","0","coast","34","probe-167","0.1144323422498506","0.20837410922795918","0.7924101010995219","1","","","","","","","",""
"","do_trial","96","436041","0.0-76.0-0.0","286.6000000014901","","","","51","0,0,1","0","coast","35","probe-208","0.10033948829869224","0.19341205598347735","0.9383986592769035","1","","","","","","","",""
"","do_trial","97","440907","0.0-77.0-0.0","312.20000000298023","","","","51","0,0,1","0","coast","36","probe-40","0.14798900925908204","0.22117164854512353","0.8813749885281214","1","","","","","","","",""
"","do_trial","98","445804","0.0-78.0-0.0","338.70000000298023","","","","51","0,0,1","0","coast","37","probe-24","0.0532290523484342","0.2572248928761946","0.7495332662775767","1","","","","","","","",""
"","do_trial","99","450850","0.0-79.0-0.0","485.8999999985099","","","","51","0,0,1","0","coast","38","probe-151","0.10627799956125555","0.40422258147015017","0.7212039950648691","1","","","","","","","",""
"","do_trial","100","455955","0.0-80.0-0.0","545.8000000044703","","","","51","0,1,0","0","coast","39","probe-213","0.08707799637319408","0.5497014625556312","0.7141862477948334","0","","","","","","","",""
"","do_bye","101","457467","0.0-81.0-0.0","null","","","","null","","","","","","","","","","","","","","","","",""
"","do_travel","102","463471","0.0-82.0-0.0","null","","","","null","","","","","","","","","","","","","","","","",""
"","do_welcome","103","464981","0.0-82.0-1.0","null","","","","null","","","","","","","","","","","","","","","","",""
"","do_trial","104","470119","0.0-83.0-0.0","585.2000000029802","","","","50","0,0,1","1","mountain","40","probe-62","0.09118103099141625","0.5597699995600127","1","0","","","","","","","",""
"","do_trial","105","475012","0.0-84.0-0.0","336.5","","","","50","0,1,1","1","mountain","41","probe-141","0.07296143703692269","0.5544391132072465","1","1","","","","","","","",""
"","do_trial","106","479882","0.0-85.0-0.0","310.79999999701977","","","","49","0,0,1","1","mountain","42","probe-188","0.08151730480698181","0.42506974521965496","1","0","","","","","","","",""
"","do_trial","107","484760","0.0-86.0-0.0","317.6000000014901","","","","50","0,0,1","1","mountain","43","probe-93","0.1912429247383761","0.22700073719725655","1","0","","","","","","","",""
"","do_trial","108","489519","0.0-87.0-0.0","200.60000000149012","","","","51","0,1,1","1","mountain","44","probe-12","0.16907210028402156","0.5230464730596195","0.9271887781838464","1","","","","","","","",""
"","do_trial","109","494406","0.0-88.0-0.0","331.59999999403954","","","","51","0,1,1","1","mountain","45","probe-94","0.24111897264070048","0.5619163829541971","0.7830839350014308","1","","","","","","","",""
"","do_trial","110","499297","0.0-89.0-0.0","338.29999999701977","","","","51","0,1,1","1","mountain","46","probe-45","0.07198249505611644","0.5088527926551254","0.6791116341774311","1","","","","","","","",""
"","do_trial","111","504907","0.0-90.0-0.0","1047","","","","51","0,1,1","1","mountain","47","probe-177","0.256573652726325","0.5549690192689284","0.6871800829392312","1","","","","","","","",""
"","do_trial","112","510130","0.0-91.0-0.0","668.3999999985099","","","","51","1,1,1","1","mountain","48","probe-101","0.3678473200486903","0.5345041744264376","0.8088757438270662","1","","","","","","","",""
"","do_trial","113","516710","0.0-92.0-0.0","2028.2000000029802","","","","51","1,0,0","1","mountain","49","probe-174","0.22201000508091423","0.3788279663373553","0.8305505413327174","0","","","","","","","",""
"","do_trial","114","523618","0.0-93.0-0.0","2346.8000000044703","","","","51","1,0,1","1","mountain","50","probe-170","0.38191395835572195","0.314025978899171","0.44492826611558906","1","","","","","","","",""
"","do_trial","115","529147","0.0-94.0-0.0","972.3999999985099","","","","51","1,1,0","1","mountain","51","probe-41","0.5048123677340357","0.42263015024631906","0.18757256637505898","0","","","","","","","",""
"","do_trial","116","533724","0.0-95.0-0.0","15.399999998509884","","","","51","0,1,0","1","mountain","52","probe-48","0.7196094374329363","0.4795974953800324","0.05345490235274315","0","","","","","","","",""
"","do_trial","117","538284","0.0-96.0-0.0","0.10000000149011612","","","","51","0,0,1","1","mountain","53","probe-105","0.7350370560033374","0.5236456108088665","0.12574520013512142","1","","","","","","","",""
"","do_trial","118","542961","0.0-97.0-0.0","118.5","","","","51","0,0,0","1","mountain","54","probe-128","0.813185222512736","0.40279786875883633","0.10817465176864108","0","","","","","","","",""
"","do_trial","119","547792","0.0-98.0-0.0","275.5","","","","50","1,1,0","1","mountain","55","probe-87","0.8051240994740385","0.33806744367850255","0.20400089522205406","1","","","","","","","",""
"","do_trial","120","552833","0.0-99.0-0.0","478.90000000596046","","","","50","0,1,1","1","mountain","56","probe-86","0.7724518414829552","0.35325748236342713","0.3070749600184366","1","","","","","","","",""
"","do_trial","121","558261","0.0-100.0-0.0","877.7999999970198","","","","50","1,0,0","1","mountain","57","probe-50","0.7582837118820892","0.25580298803585344","0.13991436962565373","0","","","","","","","",""
"","do_trial","122","562855","0.0-101.0-0.0","26.899999998509884","","","","50","1,0,0","1","mountain","58","probe-58","0.841865381019714","0.27998627147926863","0.10607199448991848","0","","","","","","","",""
"","do_trial","123","567733","0.0-102.0-0.0","320.6000000014901","","","","50","1,0,0","1","mountain","59","probe-187","0.8343731010488946","0.3961142911027988","0.13357602271021332","0","","","","","","","",""
"","do_trial","124","572558","0.0-103.0-0.0","265.19999999552965","","","","49","0,1,0","1","mountain","60","probe-89","0.774987233679326","0.4676526736244377","0.07848144071375909","0","","","","","","","",""
"","do_trial","125","577140","0.0-104.0-0.0","28.80000000447035","","","","51","1,0,0","1","mountain","61","probe-159","0.7700500518754535","0.4354095393370873","0.05812405264215172","0","","","","","","","",""
"","do_trial","126","582016","0.0-105.0-0.0","318","","","","50","1,0,0","1","mountain","62","probe-31","0.753179127642211","0.5242765727169616","0.1787717942177012","0","","","","","","","",""
"","do_trial","127","586853","0.0-106.0-0.0","279","","","","51","1,0,1","1","mountain","63","probe-114","0.8370100505104411","0.5288935347790882","0.22665169998369336","1","","","","","","","",""
"","do_trial","128","592091","0.0-107.0-0.0","686.5","","","","51","1,0,0","1","mountain","64","probe-130","0.771432881485483","0.43618013040454195","0.15657489408230235","0","","","","","","","",""
"","do_trial","129","598824","0.0-108.0-0.0","2172.7999999970198","","","","51","0,1,0","1","mountain","65","probe-238","0.8201899341255486","0.36726577034678975","0.07809555882840473","0","","","","","","","",""
"","do_trial","130","604224","0.0-109.0-0.0","843.2999999970198","","","","51","1,0,0","1","mountain","66","probe-104","0.7967395112453299","0.5348625693984094","0.18322984765361036","0","","","","","","","",""
"","do_trial","131","611192","0.0-110.0-0.0","2407.4000000059605","","","","51","1,0,0","1","mountain","67","probe-193","0.946514202454736","0.4003844082930314","0.09314318813916593","0","","","","","","","",""
"","do_trial","132","616376","0.0-111.0-0.0","624.3999999985099","","","","51","1,1,0","1","mountain","68","probe-52","0.9263990769812562","0.4398715346749865","0.11169569920235337","0","","","","","","","",""
"","do_trial","133","622055","0.0-112.0-0.0","1123.2000000029802","","","","51","1,1,0","1","mountain","69","probe-147","0.9300474686249814","0.49841365776330776","0.07040784860439281","0","","","","","","","",""
"","do_trial","134","627653","0.0-113.0-0.0","1044.4000000059605","","","","51","1,1,0","1","mountain","70","probe-73","0.8905674018249048","0.5347373119175316","0.13548399411143555","0","","","","","","","",""
"","do_trial","135","632433","0.0-114.0-0.0","226.20000000298023","","","","51","0,0,0","1","mountain","71","probe-123","0.8999732753768268","0.6040781040817053","0.12679500422163462","0","","","","","","","",""
"","do_trial","136","638710","0.0-115.0-0.0","1717.4000000059605","","","","51","0,1,0","1","mountain","72","probe-217","0.925739870562116","0.5357686497451568","0.12203329625184198","0","","","","","","","",""
"","do_trial","137","643743","0.0-116.0-0.0","470.29999999701977","","","","51","0,1,0","1","mountain","73","probe-28","0.8371434542059777","0.36005788005320727","0.16002787406610344","0","","","","","","","",""
"","do_trial","138","649366","0.0-117.0-0.0","1070.6000000014901","","","","51","1,1,0","1","mountain","74","probe-182","0.8081762457438916","0.4769773041134734","0.12139007291000396","0","","","","","","","",""
"","do_trial","139","654015","0.0-118.0-0.0","90.60000000149012","","","","51","1,0,0","1","mountain","75","probe-126","0.8409276196869074","0.541149355085332","0.11121277837358756","0","","","","","","","",""
"","do_trial","140","658694","0.0-119.0-0.0","122.30000000447035","","","","51","1,1,0","1","mountain","76","probe-226","0.8156828873042012","0.6084072752938563","0.11821594839071528","0","","","","","","","",""
"","do_trial","141","663534","0.0-120.0-0.0","286.1000000014901","","","","51","0,0,0","1","mountain","77","probe-120","0.9034031546915681","0.4174670516852008","0.11943427984160622","0","","","","","","","",""
"","do_trial","142","669078","0.0-121.0-0.0","984","","","","50","1,1,0","1","mountain","78","probe-124","0.9077985178636014","0.329334076332857","0.07117747270678926","1","","","","","","","",""
"","do_trial","143","676230","0.0-122.0-0.0","2586.2999999970198","","","","50","1,1,1","1","mountain","79","probe-178","0.6812374169417632","0.4499342671650889","0.14165258763453215","1","","","","","","","",""
"","do_bye","144","677741","0.0-123.0-0.0","null","","","","null","","","","","","","","","","","","","","","","",""
"","do_travel","145","683748","0.0-124.0-0.0","null","","","","null","","","","","","","","","","","","","","","","",""
"","do_welcome","146","685259","0.0-124.0-1.0","null","","","","null","","","","","","","","","","","","","","","","",""
"","do_trial","147","690710","0.0-125.0-0.0","889.3000000044703","","","","49","1,0,0","2","forest","80","probe-84","1","0.3778370323060362","0.06930501290466448","1","","","","","","","",""
"","do_trial","148","696232","0.0-126.0-0.0","962.7999999970198","","","","49","1,0,0","2","forest","81","probe-142","1","0.35193961000923835","0.16613777105550262","1","","","","","","","",""
"","do_trial","149","701278","0.0-127.0-0.0","488.30000000447035","","","","49","1,1,0","2","forest","82","probe-30","1","0.3530873589854155","0.27263404258958923","1","","","","","","","",""
"","do_trial","150","705835","0.0-128.0-0.0","0.20000000298023224","","","","49","1,1,0","2","forest","83","probe-148","1","0.34781547877487723","0.27688951842812076","1","","","","","","","",""
"","do_trial","151","710388","0.0-129.0-0.0","0.30000000447034836","","","","49","1,0,0","2","forest","84","probe-92","0.9314703470976369","0.40858691140129483","0.17967368779159149","1","","","","","","","",""
"","do_trial","152","715548","0.0-130.0-0.0","608.3000000044703","","","","49","1,0,1","2","forest","85","probe-110","0.8660099361289246","0.3901829403416385","0.13000534267419547","1","","","","","","","",""
"","do_trial","153","721069","0.0-131.0-0.0","963.3999999985099","","","","49","1,0,1","2","forest","86","probe-200","0.7640097751977796","0.44894042155641517","0.21905404640369275","1","","","","","","","",""
"","do_trial","154","726276","0.0-132.0-0.0","647.5","","","","49","1,1,0","2","forest","87","probe-38","0.7105470490733528","0.4527781065182459","0.22697431595873915","1","","","","","","","",""
"","do_trial","155","731377","0.0-133.0-0.0","542.9000000059605","","","","49","1,0,0","2","forest","88","probe-109","0.8406658456487743","0.24637587558192853","0.09945088713083951","1","","","","","","","",""
"","do_trial","156","736051","0.0-134.0-0.0","119.70000000298023","","","","49","1,0,0","2","forest","89","probe-117","0.8137597520711164","0.32638279535840065","0.11462347433715904","1","","","","","","","",""
"","do_trial","157","742248","0.0-135.0-0.0","1644.6999999955297","","","","49","0,0,0","2","forest","90","probe-215","0.45109778727277383","0.43452770333778856","0.278644696743769","0","","","","","","","",""
"","do_trial","158","748544","0.0-136.0-0.0","1747.1000000014901","","","","49","0,0,1","2","forest","91","probe-75","0.3870298931829271","0.48349849294602126","0.6738913253053275","0","","","","","","","",""
"","do_trial","159","753112","0.0-137.0-0.0","11.799999997019768","","","","49","0,0,0","2","forest","92","probe-74","0.2725906114614657","0.3982921402281126","0.727011574044236","0","","","","","","","",""
"","do_trial","160","757675","0.0-138.0-0.0","0.19999999552965164","","","","49","0,0,1","2","forest","93","probe-42","0.07806331016828605","0.4889470104839016","0.7317776808888341","0","","","","","","","",""
"","do_trial","161","764260","0.0-139.0-0.0","2031","","","","49","0,1,1","2","forest","94","probe-122","0.12120241904551472","0.5488902600135844","0.9459228104079281","0","","","","","","","",""
"","do_trial","162","769115","0.0-140.0-0.0","292.79999999701977","","","","50","0,0,1","2","forest","95","probe-13","0.08653111472120398","0.5256325943570084","0.9009110546181693","0","","","","","","","",""
"","do_trial","163","773810","0.0-141.0-0.0","137.90000000596046","","","","50","0,1,0","2","forest","96","probe-139","0.054414659189731096","0.5327969545984087","0.8980040776707372","1","","","","","","","",""
"","do_trial","164","778879","0.0-142.0-0.0","510.8999999985099","","","","50","0,0,0","2","forest","97","probe-20","0.13674959502391254","0.4188075821783778","0.7453152098459708","0","","","","","","","",""
"","do_trial","165","783670","0.0-143.0-0.0","232.10000000149012","","","","50","0,1,1","2","forest","98","probe-207","0.10615917199191609","0.33861961001618673","0.7496173509051647","1","","","","","","","",""
"","do_trial","166","788427","0.0-144.0-0.0","185.90000000596046","","","","50","1,0,1","2","forest","99","probe-21","0.0902295592537908","0.3060284930033592","0.7779781263319593","0","","","","","","","",""
"","do_trial","167","792986","0.0-145.0-0.0","0.10000000149011612","","","","50","0,0,0","2","forest","100","probe-132","0.05124063007045449","0.24044842011401976","0.7917212300730023","0","","","","","","","",""
"","do_trial","168","797690","0.0-146.0-0.0","139","","","","50","1,0,1","2","forest","101","probe-161","0.13401541671150638","0.21320361511892963","0.733574984166369","0","","","","","","","",""
"","do_trial","169","802256","0.0-147.0-0.0","11.600000001490116","","","","50","0,0,0","2","forest","102","probe-197","0.09058622870782822","0.12772113419068443","0.6783834295885351","0","","","","","","","",""
"","do_trial","170","809139","0.0-148.0-0.0","2316.7999999970198","","","","50","0,1,1","2","forest","103","probe-106","0.08948134624827077","0.3340068281444333","0.7055633812949629","1","","","","","","","",""
"","do_trial","171","815486","0.0-149.0-0.0","1795.6000000014901","","","","50","0,0,1","2","forest","104","probe-125","0.18189872153574765","0.2685549369553687","0.7283466626927297","0","","","","","","","",""
"","do_trial","172","820418","0.0-150.0-0.0","367.8999999985099","","","","50","0,0,1","2","forest","105","probe-209","0.1636711952875426","0.48568054681474904","0.7271293572680142","0","","","","","","","",""
"","do_trial","173","825170","0.0-151.0-0.0","193.5","","","","51","0,0,1","2","forest","106","probe-76","0.09981605921220886","0.4888415593109247","0.8255042137202493","1","","","","","","","",""
"","do_trial","174","830297","0.0-152.0-0.0","568.2000000029802","","","","51","0,0,1","2","forest","107","probe-26","0.07065811117603746","0.5438665953845792","0.8746941746750102","1","","","","","","","",""
"","do_trial","175","834929","0.0-153.0-0.0","66.29999999701977","","","","51","0,0,1","2","forest","108","probe-80","0.10006930197738743","0.39609035200124226","0.867755887791959","1","","","","","","","",""
"","do_trial","176","839623","0.0-154.0-0.0","142.29999999701977","","","","51","0,1,1","2","forest","109","probe-230","0.12955536130575362","0.41251445931540004","0.8988340811059604","1","","","","","","","",""
"","do_trial","177","844598","0.0-155.0-0.0","423.30000000447035","","","","51","0,0,0","2","forest","110","probe-32","0.099478276459206","0.44868600461374886","0.6894365530300611","0","","","","","","","",""
"","do_trial","178","849315","0.0-156.0-0.0","164.19999999552965","","","","51","0,1,1","2","forest","111","probe-180","0.18361305960602956","0.4355917764612462","0.7965072992630837","1","","","","","","","",""
"","do_trial","179","853967","0.0-157.0-0.0","95","","","","51","0,0,1","2","forest","112","probe-202","0.28449709225772585","0.5076390237048125","0.823900100075976","1","","","","","","","",""
"","do_trial","180","858879","0.0-158.0-0.0","354","","","","51","1,1,1","2","forest","113","probe-65","0.19977766030760613","0.5097800339472462","0.7483988081443701","1","","","","","","","",""
"","do_trial","181","863931","0.0-159.0-0.0","501.80000000447035","","","","51","1,1,0","2","forest","114","probe-05","0.3172636160184635","0.5076533616580106","0.7432121972138832","0","","","","","","","",""
"","do_trial","182","870810","0.0-160.0-0.0","2326.8000000044703","","","","51","0,0,1","2","forest","115","probe-185","0.2578324625804074","0.5700946543154081","0.9301385005924675","1","","","","","","","",""
"","do_trial","183","875413","0.0-161.0-0.0","42.399999998509884","","","","51","1,0,1","2","forest","116","probe-36","0.2503633347418384","0.49332324316431575","0.8082741127563058","1","","","","","","","",""
"","do_trial","184","879975","0.0-162.0-0.0","0.20000000298023224","","","","51","0,1,1","2","forest","117","probe-134","0.2120675851368102","0.5897653232293238","0.8964697795609122","1","","","","","","","",""
"","do_trial","185","884573","0.0-163.0-0.0","43.19999999552965","","","","51","0,1,1","2","forest","118","probe-203","0.053958522771249275","0.37159965522305677","0.9292974370708639","1","","","","","","","",""
"","do_trial","186","889134","0.0-164.0-0.0","0.19999999552965164","","","","51","0,0,1","2","forest","119","probe-23","0.0860190146734183","0.387149599487625","0.8310126348603831","1","","","","","","","",""
"","do_bye","187","890643","0.0-165.0-0.0","null","","","","null","","","","","","","","","","","","","","","","",""
"","do_travel","188","896646","0.0-166.0-0.0","null","","","","null","","","","","","","","","","","","","","","","",""
"","do_welcome","189","898152","0.0-166.0-1.0","null","","","","null","","","","","","","","","","","","","","","","",""
"","do_trial","190","904445","0.0-167.0-0.0","1732.6000000014901","","","","51","1,0,1","3","highway","120","probe-107","0.19211140110564742","0.3684043219473998","1","1","","","","","","","",""
"","do_trial","191","910412","0.0-168.0-0.0","1414","","","","51","1,0,1","3","highway","121","probe-237","0.24281740747772607","0.2393089384584043","1","1","","","","","","","",""
"","do_trial","192","914974","0.0-169.0-0.0","0.19999999552965164","","","","51","0,0,1","3","highway","122","probe-15","0.050584307504983085","0.40895217131843714","1","1","","","","","","","",""
"","do_trial","193","919542","0.0-170.0-0.0","15.299999997019768","","","","51","0,0,1","3","highway","123","probe-34","0.1302494286331063","0.5125458185324577","1","1","","","","","","","",""
"","do_trial","194","925594","0.0-171.0-0.0","1492.2000000029802","","","","51","0,0,1","3","highway","124","probe-176","0.1177472387955545","0.5397233005348376","0.8679852459829662","1","","","","","","","",""
"","do_trial","195","931788","0.0-172.0-0.0","1627.7000000029802","","","","51","0,0,1","3","highway","125","probe-166","0.09124918776311423","0.45853918721700226","0.7603255485952787","1","","","","","","","",""
"","do_trial","196","936933","0.0-173.0-0.0","584","","","","51","1,0,1","3","highway","126","probe-11","0.06933959458921247","0.4562829449773931","0.9395251324141995","1","","","","","","","",""
"","do_trial","197","942212","0.0-174.0-0.0","722.2999999970198","","","","51","0,1,1","3","highway","127","probe-156","0.10130628868759983","0.5409145553917771","0.9400953054987912","1","","","","","","","",""
"","do_trial","198","949093","0.0-175.0-0.0","2316.9000000059605","","","","51","0,0,1","3","highway","128","probe-145","0.08268872054627491","0.3664302876723965","0.7983232236412028","1","","","","","","","",""
"","do_trial","199","953959","0.0-176.0-0.0","316.30000000447035","","","","51","1,0,0","3","highway","129","probe-35","0.20754750330553545","0.5015383183709857","0.623031430227055","0","","","","","","","",""
"","do_trial","200","958782","0.0-177.0-0.0","269.90000000596046","","","","51","0,1,1","3","highway","130","probe-100","0.17555192831289587","0.5984048288990867","0.41410617330530614","1","","","","","","","",""
"","do_trial","201","963711","0.0-178.0-0.0","379.20000000298023","","","","51","0,1,1","3","highway","131","probe-81","0.13749236007901006","0.5602706627464672","0.5055367607051479","1","","","","","","","",""
"","do_trial","202","968450","0.0-179.0-0.0","185.10000000149012","","","","51","0,1,0","3","highway","132","probe-67","0.19776739565782236","0.5060648608393771","0.5307393832673726","0","","","","","","","",""
"","do_trial","203","973342","0.0-180.0-0.0","334.69999999552965","","","","51","0,1,0","3","highway","133","probe-06","0.12288647822445907","0.6934677641560144","0.4957868371497801","0","","","","","","","",""
"","do_trial","204","978211","0.0-181.0-0.0","314.3999999985099","","","","50","0,1,0","3","highway","134","probe-111","0.12165781275601865","0.8334837862930254","0.5086281407201249","1","","","","","","","",""
"","do_trial","205","983178","0.0-182.0-0.0","399.5","","","","50","0,1,0","3","highway","135","probe-160","0.06871652819126836","0.8119990367823011","0.5085411032948935","1","","","","","","","",""
"","do_trial","206","988270","0.0-183.0-0.0","537","","","","50","0,1,1","3","highway","136","probe-158","0.10093273191366407","0.8565738681311929","0.3662514560998733","1","","","","","","","",""
"","do_trial","207","992920","0.0-184.0-0.0","92.70000000298023","","","","50","1,1,0","3","highway","137","probe-149","0.13072846213549233","0.7772785334264591","0.4232753480981173","1","","","","","","","",""
"","do_trial","208","998281","0.0-185.0-0.0","807.1999999955297","","","","50","0,1,0","3","highway","138","probe-179","0.1206333710926582","0.667568802619866","0.42960131751447167","1","","","","","","","",""
"","do_trial","209","1002990","0.0-186.0-0.0","147","","","","50","0,1,0","3","highway","139","probe-204","0.17737527398696157","0.821156224972868","0.40909923403766285","1","","","","","","","",""
"","do_trial","210","1008149","0.0-187.0-0.0","601.5","","","","50","0,1,0","3","highway","140","probe-186","0.08716398762640865","0.7781187970580742","0.3815797375117235","1","","","","","","","",""
"","do_trial","211","1012704","0.0-188.0-0.0","0.19999999552965164","","","","50","0,1,0","3","highway","141","probe-79","0.20042561804706588","0.8331361571994842","0.30269190903031823","1","","","","","","","",""
"","do_trial","212","1017968","0.0-189.0-0.0","709.1999999955297","","","","50","0,1,0","3","highway","142","probe-43","0.23230821243102434","0.8989328489275556","0.34822729699707433","1","","","","","","","",""
"","do_trial","213","1022884","0.0-190.0-0.0","356.09999999403954","","","","50","0,1,1","3","highway","143","probe-01","0.10165255743040152","0.7252851257553957","0.28859747354191656","1","","","","","","","",""
"","do_trial","214","1027974","0.0-191.0-0.0","538.4000000059605","","","","50","0,1,0","3","highway","144","probe-168","0.1733479942132321","0.7724830090142727","0.32153508229823674","1","","","","","","","",""
"","do_trial","215","1033128","0.0-192.0-0.0","598.0999999940395","","","","50","0,1,0","3","highway","145","probe-72","0.12266605944998667","0.803982694028286","0.38040002623985664","1","","","","","","","",""
"","do_trial","216","1037687","0.0-193.0-0.0","0.20000000298023224","","","","50","0,1,0","3","highway","146","probe-240","0.08368206470682582","0.7707367385815187","0.37077594669550823","1","","","","","","","",""
"","do_trial","217","1042823","0.0-194.0-0.0","583.1000000014901","","","","50","0,1,0","3","highway","147","probe-78","0.09944318336515584","0.7701198142171056","0.508577688000022","1","","","","","","","",""
"","do_trial","218","1048886","0.0-195.0-0.0","null","","","","null","0,1,0","3","highway","148","probe-102","0.0902955414294499","0.6999634868604449","0.3875165560034461","","","","","","","","",""
"","do_trial","219","1053936","0.0-196.0-0.0","495.3999999985099","","","","50","0,1,1","3","highway","149","probe-214","0.153301013374884","0.8195487690445513","0.24968365166282347","1","","","","","","","",""
"","do_trial","220","1059451","0.0-197.0-0.0","963.8999999985099","","","","50","0,1,0","3","highway","150","probe-143","0.2594547849021408","0.8426833100116236","0.2897784791553929","1","","","","","","","",""
"","do_trial","221","1065969","0.0-198.0-0.0","1962.5","","","","50","0,1,0","3","highway","151","probe-14","0.19994866900562766","0.7271211841522894","0.5053596894157912","1","","","","","","","",""
"","do_trial","222","1070877","0.0-199.0-0.0","355.90000000596046","","","","50","0,0,0","3","highway","152","probe-85","0.2020367432157031","0.6986062710989138","0.4458586343902264","0","","","","","","","",""
"","do_trial","223","1075973","0.0-200.0-0.0","541.7999999970198","","","","50","0,1,0","3","highway","153","probe-221","0.2471916615979894","0.7499314453028711","0.45906269300314173","1","","","","","","","",""
"","do_trial","224","1081123","0.0-201.0-0.0","594.3999999985099","","","","50","0,1,0","3","highway","154","probe-115","0.3443389604787301","0.7208493418552234","0.4757491977590516","1","","","","","","","",""
"","do_trial","225","1086735","0.0-202.0-0.0","1045.7999999970198","","","","50","1,1,1","3","highway","155","probe-234","0.1305691685276272","0.8269335310232019","0.3519428710519285","1","","","","","","","",""
"","do_trial","226","1091497","0.0-203.0-0.0","203.70000000298023","","","","50","0,1,0","3","highway","156","probe-90","0.28592267357712575","0.9420960289657222","0.44682055232418777","1","","","","","","","",""
"","do_trial","227","1096143","0.0-204.0-0.0","86.79999999701977","","","","50","0,0,0","3","highway","157","probe-218","0.2596166869579819","0.7515723696768791","0.4159515153599188","0","","","","","","","",""
"","do_trial","228","1101748","0.0-205.0-0.0","1052","","","","50","0,0,0","3","highway","158","probe-212","0.1936397544730378","0.7046076417996304","0.4544543973836307","0","","","","","","","",""
"","do_trial","229","1106304","0.0-206.0-0.0","0.19999999552965164","","","","50","0,1,0","3","highway","159","probe-138","0.2541268723822108","0.7293302850286396","0.39982748985001465","1","","","","","","","",""
"","do_bye","230","1107814","0.0-207.0-0.0","null","","","","null","","","","","","","","","","","","","","","","",""
"","do_travel","231","1113816","0.0-208.0-0.0","null","","","","null","","","","","","","","","","","","","","","","",""
"","do_welcome","232","1115324","0.0-208.0-1.0","null","","","","null","","","","","","","","","","","","","","","","",""
"","do_trial","233","1120422","0.0-209.0-0.0","533.8000000044703","","","","50","0,1,1","4","city","160","probe-49","0.09133086449272668","1","0.46798817256992103","1","","","","","","","",""
"","do_trial","234","1126074","0.0-210.0-0.0","1098.2000000029802","","","","50","0,1,1","4","city","161","probe-150","0.25484500815089767","1","0.5716153391981353","1","","","","","","","",""
"","do_trial","235","1132058","0.0-211.0-0.0","1430.1999999955297","","","","50","0,1,1","4","city","162","probe-70","0.24240971818238044","1","0.6992511304785619","1","","","","","","","",""
"","do_trial","236","1137078","0.0-212.0-0.0","465.3999999985099","","","","50","0,1,1","4","city","163","probe-66","0.3164758865482258","1","0.6718223118823897","1","","","","","","","",""
"","do_trial","237","1143429","0.0-213.0-0.0","1797.3000000044703","","","","50","0,1,1","4","city","164","probe-236","0.1301242292314923","0.9258253665991998","0.504154058653363","1","","","","","","","",""
"","do_trial","238","1148558","0.0-214.0-0.0","567.7000000029802","","","","50","0,1,1","4","city","165","probe-201","0.05061931673782745","0.9313473289218885","0.5342109357000728","1","","","","","","","",""
"","do_trial","239","1153485","0.0-215.0-0.0","369.69999999552965","","","","50","0,1,1","4","city","166","probe-171","0.055702603389275664","0.8842565136477333","0.4081516641501428","1","","","","","","","",""
"","do_trial","240","1158333","0.0-216.0-0.0","293.30000000447035","","","","50","0,1,1","4","city","167","probe-223","0.06377196942067961","0.8949151775886443","0.5086358072715547","1","","","","","","","",""
"","do_trial","241","1163597","0.0-217.0-0.0","705.3999999985099","","","","50","0,1,0","4","city","168","probe-183","0.05069301154462298","0.8117859052979369","0.3175516072237668","1","","","","","","","",""
"","do_trial","242","1168937","0.0-218.0-0.0","787.1000000014901","","","","50","0,0,1","4","city","169","probe-51","0.12677347460388122","0.7409759941366917","0.4255619602104047","0","","","","","","","",""
"","do_trial","243","1174443","0.0-219.0-0.0","947.6000000014901","","","","50","0,1,0","4","city","170","probe-152","0.10670842361120597","0.5192067159971597","0.551600846500107","1","","","","","","","",""
"","do_trial","244","1180860","0.0-220.0-0.0","1855.5","","","","50","0,1,1","4","city","171","probe-46","0.24204854584322502","0.4494337383372402","0.5971051549750104","1","","","","","","","",""
"","do_trial","245","1186097","0.0-221.0-0.0","682.8000000044703","","","","50","0,0,0","4","city","172","probe-54","0.08098078588027857","0.38745500394773297","0.7270920702339381","0","","","","","","","",""
"","do_trial","246","1191063","0.0-222.0-0.0","407.70000000298023","","","","50","0,1,1","4","city","173","probe-53","0.07826371007693349","0.3730316429102078","0.7993344153368317","1","","","","","","","",""
"","do_trial","247","1196160","0.0-223.0-0.0","545.6999999955297","","","","50","0,1,1","4","city","174","probe-09","0.21121190078112656","0.3259261932852751","0.8950792094362717","1","","","","","","","",""
"","do_trial","248","1201628","0.0-224.0-0.0","914","","","","50","0,0,1","4","city","175","probe-119","0.2036941872499497","0.4385146863648802","0.7817611473396653","0","","","","","","","",""
"","do_trial","249","1206686","0.0-225.0-0.0","505.70000000298023","","","","50","0,0,0","4","city","176","probe-44","0.05345182696249527","0.33056776152585504","0.7079366024968942","0","","","","","","","",""
"","do_trial","250","1211595","0.0-226.0-0.0","349.6000000014901","","","","51","1,0,1","4","city","177","probe-140","0.27030204776849415","0.44831972985478613","0.7693254434809492","1","","","","","","","",""
"","do_trial","251","1216715","0.0-227.0-0.0","564.3999999985099","","","","51","0,1,1","4","city","178","probe-231","0.2915970807264208","0.45534228623001827","0.8688999243181613","1","","","","","","","",""
"","do_trial","252","1222780","0.0-228.0-0.0","null","","","","null","1,1,1","4","city","179","probe-173","0.263509857267244","0.3859180485941147","0.7868620418240323","","","","","","","","",""
"","do_trial","253","1227731","0.0-229.0-0.0","390.69999999552965","","","","51","0,0,1","4","city","180","probe-135","0.23373622302556865","0.22466640927657885","0.8589425559869609","1","","","","","","","",""
"","do_trial","254","1232950","0.0-230.0-0.0","662.6999999955297","","","","51","0,1,0","4","city","181","probe-162","0.3114804880143295","0.28483909147887654","0.7660101509263967","0","","","","","","","",""
"","do_trial","255","1237955","0.0-231.0-0.0","448.8999999985099","","","","51","0,1,1","4","city","182","probe-60","0.18433612657701956","0.2632134374423485","0.7665277105007496","1","","","","","","","",""
"","do_trial","256","1243010","0.0-232.0-0.0","501.3999999985099","","","","51","0,0,1","4","city","183","probe-224","0.24462255689806678","0.32196704512410196","0.7070810606235736","1","","","","","","","",""
"","do_trial","257","1249879","0.0-233.0-0.0","2316.39999999851","","","","51","0,0,1","4","city","184","probe-95","0.24575994132383158","0.3748574212600188","0.6217979300131249","1","","","","","","","",""
"","do_trial","258","1255072","0.0-234.0-0.0","631.8999999985099","","","","51","0,0,1","4","city","185","probe-191","0.3336967235791017","0.28967337387824316","0.5697876908594957","1","","","","","","","",""
"","do_trial","259","1260262","0.0-235.0-0.0","641","","","","51","1,0,1","4","city","186","probe-189","0.27601066376566313","0.26945232215028286","0.6097874580660023","1","","","","","","","",""
"","do_trial","260","1264922","0.0-236.0-0.0","100.39999999850988","","","","51","0,0,1","4","city","187","probe-77","0.32086124452599935","0.35191439073229336","0.7963626829447827","1","","","","","","","",""
"","do_trial","261","1269721","0.0-237.0-0.0","242.89999999850988","","","","51","0,0,1","4","city","188","probe-219","0.2350396487651747","0.30424102485564236","0.8093880680248888","1","","","","","","","",""
"","do_trial","262","1275776","0.0-238.0-0.0","null","","","","null","1,1,1","4","city","189","probe-144","0.252732331916294","0.46053943882967346","0.7485390841053977","","","","","","","","",""
"","do_trial","263","1280332","0.0-239.0-0.0","0.10000000149011612","","","","51","0,0,1","4","city","190","probe-190","0.2500743607650108","0.33963410457201876","0.7387704611413345","1","","","","","","","",""
"","do_trial","264","1285097","0.0-240.0-0.0","208.10000000149012","","","","51","1,0,1","4","city","191","probe-235","0.23503267317828747","0.3961598367923401","0.7912667477933353","1","","","","","","","",""
"","do_trial","265","1289830","0.0-241.0-0.0","179.39999999850988","","","","51","0,0,1","4","city","192","probe-61","0.20499368219042563","0.24336189892181356","0.7297635213969459","1","","","","","","","",""
"","do_trial","266","1294465","0.0-242.0-0.0","78.20000000298023","","","","51","0,0,0","4","city","193","probe-192","0.05338302265218502","0.251396788362101","0.6531853079412787","0","","","","","","","",""
"","do_trial","267","1299225","0.0-243.0-0.0","205.80000000447035","","","","51","0,0,1","4","city","194","probe-157","0.13879744306847555","0.21593163480777366","0.6817381891491605","1","","","","","","","",""
"","do_trial","268","1303944","0.0-244.0-0.0","164.70000000298023","","","","51","0,0,0","4","city","195","probe-169","0.27012040539981447","0.32397024722094303","0.6840705774667285","0","","","","","","","",""
"","do_trial","269","1309423","0.0-245.0-0.0","918.1999999955297","","","","51","0,0,1","4","city","196","probe-165","0.2162814391837874","0.39179776850176956","0.6518663436252257","1","","","","","","","",""
"","do_trial","270","1314526","0.0-246.0-0.0","550.5","","","","51","0,0,1","4","city","197","probe-108","0.0801854094615996","0.23521281416366255","0.7265166054316621","1","","","","","","","",""
"","do_trial","271","1319142","0.0-247.0-0.0","64.80000000447035","","","","51","0,0,0","4","city","198","probe-198","0.18807937171761002","0.32413387925091114","0.7936031758255122","0","","","","","","","",""
"","do_trial","272","1324360","0.0-248.0-0.0","657.6000000014901","","","","51","1,0,0","4","city","199","probe-121","0.12476393316984681","0.30527143941512125","0.7901637526826475","0","","","","","","","",""
"","do_bye","273","1325871","0.0-249.0-0.0","null","","","","null","","","","","","","","","","","","","","","","",""
"","do_travel","274","1331876","0.0-250.0-0.0","null","","","","null","","","","","","","","","","","","","","","","",""
"","do_welcome","275","1333388","0.0-250.0-1.0","null","","","","null","","","","","","","","","","","","","","","","",""
"","do_trial","276","1339701","0.0-251.0-0.0","1757.8000000044703","","","","50","0,1,1","5","countryside","200","probe-03","0.1298431961967653","0.1418938816379224","1","1","","","","","","","",""
"","do_trial","277","1344751","0.0-252.0-0.0","491.8999999985099","","","","50","0,1,1","5","countryside","201","probe-25","0.18079685337843188","0.2714240952224485","1","1","","","","","","","",""
"","do_trial","278","1350519","0.0-253.0-0.0","1212.6999999955297","","","","50","1,0,1","5","countryside","202","probe-154","0.22719228336312852","0.3581738606263553","1","0","","","","","","","",""
"","do_trial","279","1355986","0.0-254.0-0.0","916.2000000029802","","","","50","0,0,1","5","countryside","203","probe-216","0.0953963993421602","0.46933766273361244","1","0","","","","","","","",""
"","do_trial","280","1360899","0.0-255.0-0.0","356.1000000014901","","","","49","0,1,1","5","countryside","204","probe-210","0.05946758563443238","0.5218431180404731","0.9299171120281698","0","","","","","","","",""
"","do_trial","281","1365791","0.0-256.0-0.0","334.70000000298023","","","","49","0,1,0","5","countryside","205","probe-155","0.0783782835493646","0.5854757455749787","0.7653730323222538","0","","","","","","","",""
"","do_trial","282","1370655","0.0-257.0-0.0","303.1000000014901","","","","51","0,1,0","5","countryside","206","probe-08","0.17727531979846065","0.6360995102438097","0.7862844681539636","0","","","","","","","",""
"","do_trial","283","1375442","0.0-258.0-0.0","234.70000000298023","","","","51","0,1,0","5","countryside","207","probe-205","0.10378030554259207","0.554286598787813","0.8147417399209669","0","","","","","","","",""
"","do_trial","284","1380021","0.0-259.0-0.0","18.5","","","","50","1,0,1","5","countryside","208","probe-39","0.09146232421786793","0.4522919550015415","0.7989376400161581","0","","","","","","","",""
"","do_trial","285","1384858","0.0-260.0-0.0","284.8999999985099","","","","49","0,0,0","5","countryside","209","probe-16","0.10486211855698514","0.3652075072155501","0.9210542482638578","0","","","","","","","",""
"","do_trial","286","1390079","0.0-261.0-0.0","657.3999999985099","","","","51","0,1,0","5","countryside","210","probe-47","0.418463755321497","0.3525463506473121","0.6976132856344386","0","","","","","","","",""
"","do_trial","287","1395198","0.0-262.0-0.0","557.7000000029802","","","","49","1,0,1","5","countryside","211","probe-184","0.6759209731529607","0.38386556575013653","0.637041113902862","1","","","","","","","",""
"","do_trial","288","1400166","0.0-263.0-0.0","409.5","","","","49","0,0,1","5","countryside","212","probe-83","0.7140702868545742","0.14790752462601375","0.5451784447301689","0","","","","","","","",""
"","do_trial","289","1405721","0.0-264.0-0.0","1000.2000000029802","","","","49","1,0,1","5","countryside","213","probe-55","0.7475559538489218","0.1782863569712619","0.5502081010322004","1","","","","","","","",""
"","do_trial","290","1411385","0.0-265.0-0.0","1108.8999999985099","","","","49","0,1,0","5","countryside","214","probe-233","0.8728386668802594","0.19882402432931756","0.4887588685367301","0","","","","","","","",""
"","do_trial","291","1416297","0.0-266.0-0.0","360.79999999701977","","","","49","1,0,0","5","countryside","215","probe-113","0.8120050126666898","0.10632088717650799","0.4555313179103454","1","","","","","","","",""
"","do_trial","292","1421634","0.0-267.0-0.0","784.6000000014901","","","","49","1,0,1","5","countryside","216","probe-137","0.9245547783560528","0.08207528030472623","0.6176335562288565","1","","","","","","","",""
"","do_trial","293","1427264","0.0-268.0-0.0","1072.8000000044703","","","","49","1,0,0","5","countryside","217","probe-63","0.7522696304512139","0.16759460321556127","0.5861324244239243","1","","","","","","","",""
"","do_trial","294","1432538","0.0-269.0-0.0","710.7000000029802","","","","49","1,1,0","5","countryside","218","probe-133","0.8206017621562625","0.2402514093786209","0.5915329625707105","1","","","","","","","",""
"","do_trial","295","1437093","0.0-270.0-0.0","0.19999999552965164","","","","49","1,0,1","5","countryside","219","probe-222","0.9107316715706957","0.14643907688978297","0.5395792806794114","1","","","","","","","",""
"","do_trial","296","1442037","0.0-271.0-0.0","381.40000000596046","","","","49","1,0,0","5","countryside","220","probe-227","0.9222505272803252","0.056282761881701705","0.35446487103503516","1","","","","","","","",""
"","do_trial","297","1446712","0.0-272.0-0.0","121.20000000298023","","","","49","1,0,0","5","countryside","221","probe-27","0.8119818599483642","0.1715522168382731","0.4102088110857694","1","","","","","","","",""
"","do_trial","298","1451608","0.0-273.0-0.0","340.29999999701977","","","","49","1,0,0","5","countryside","222","probe-04","0.8719686500003063","0.1331079444205844","0.4421200429870384","1","","","","","","","",""
"","do_trial","299","1457525","0.0-274.0-0.0","1359","","","","49","1,0,0","5","countryside","223","probe-112","0.8556513622230635","0.1562717924730805","0.5304084863473323","1","","","","","","","",""
"","do_trial","300","1462868","0.0-275.0-0.0","788","","","","49","1,0,1","5","countryside","224","probe-239","0.9039495709897156","0.1645956518920792","0.42046169322721","1","","","","","","","",""
"","do_trial","301","1467748","0.0-276.0-0.0","319.29999999701977","","","","49","1,0,1","5","countryside","225","probe-229","0.8864865286180554","0.09889583186587977","0.5552304329940414","1","","","","","","","",""
"","do_trial","302","1472658","0.0-277.0-0.0","357.8999999985099","","","","49","1,0,1","5","countryside","226","probe-103","0.9211473321398664","0.15814720848989314","0.5384859229716954","1","","","","","","","",""
"","do_trial","303","1478722","0.0-278.0-0.0","null","","","","null","1,0,0","5","countryside","227","probe-172","0.9308028942910689","0.11688960731822569","0.3835107264295619","","","","","","","","",""
"","do_trial","304","1483556","0.0-279.0-0.0","276.79999999701977","","","","49","0,0,0","5","countryside","228","probe-99","0.8132763941368221","0.11561588499280813","0.44320310747658803","0","","","","","","","",""
"","do_trial","305","1488114","0.0-280.0-0.0","1.1999999955296516","","","","49","1,1,0","5","countryside","229","probe-206","0.896029577192092","0.10014900754469996","0.39201072010465027","1","","","","","","","",""
"","do_trial","306","1492747","0.0-281.0-0.0","67.70000000298023","","","","49","1,0,0","5","countryside","230","probe-194","0.9166370006035253","0.1492754547830683","0.48906326336762934","1","","","","","","","",""
"","do_trial","307","1497405","0.0-282.0-0.0","104.39999999850988","","","","49","1,0,0","5","countryside","231","probe-196","0.9425098306061227","0.09946755869952217","0.5079892726299926","1","","","","","","","",""
"","do_trial","308","1501958","0.0-283.0-0.0","0.29999999701976776","","","","49","0,0,0","5","countryside","232","probe-33","0.7535267771445018","0.09306147430956378","0.41260593621046227","0","","","","","","","",""
"","do_trial","309","1506633","0.0-284.0-0.0","118.20000000298023","","","","49","1,0,1","5","countryside","233","probe-220","0.8560946333811903","0.08804271588009713","0.43257024351022905","1","","","","","","","",""
"","do_trial","310","1511241","0.0-285.0-0.0","45.20000000298023","","","","49","0,0,0","5","countryside","234","probe-164","0.8560752332713255","0.11518840645320272","0.40845296870525166","0","","","","","","","",""
"","do_trial","311","1516074","0.0-286.0-0.0","273.70000000298023","","","","49","1,0,1","5","countryside","235","probe-82","0.8620592011669144","0.0805481864606918","0.3910420122628945","1","","","","","","","",""
"","do_trial","312","1521115","0.0-287.0-0.0","481.6000000014901","","","","49","1,0,0","5","countryside","236","probe-71","0.7460916006572732","0.08840784878767514","0.47714185636004275","1","","","","","","","",""
"","do_trial","313","1525722","0.0-288.0-0.0","45.19999999552965","","","","49","1,0,0","5","countryside","237","probe-07","0.7466506251850328","0.12146985994890822","0.43663049318617897","1","","","","","","","",""
"","do_trial","314","1530674","0.0-289.0-0.0","395","","","","49","0,0,0","5","countryside","238","probe-88","0.8203029922122137","0.18500596413845302","0.47220155023945304","0","","","","","","","",""
"","do_trial","315","1535579","0.0-290.0-0.0","347.6000000014901","","","","49","1,0,0","5","countryside","239","probe-232","0.7141472413061718","0.0963785876608214","0.3891693815566953","1","","","","","","","",""
"","do_bye","316","1537090","0.0-291.0-0.0","null","","","","null","","","","","","","","","","","","","","","","",""
"","html-keyboard-response","317","1541737","0.0-291.0-1.0","4645.39999999851","<div class='center'>You are all done with the first part of the experiment! Thank you for participating. Tomorrow, you will recieve an invite to participate in the next phase of the experiment which you must complete by the end of the day. <p><b>[Press the space bar to end the experiment]</b></p></div>","32","","","","","","","","","","","","0,2,3,4,5,1","17,68,1,36,21,180,227,194,28,58,130,96,152,56,210,55,115,90,145,63,126,198,95,117,135,18,67,16,162,97,174,224,9,128,166,207,39,23,150,212,61,140,187,92,11,93,44,176,100,173,169,40,47,104,127,86,85,49,57,186,88,158,30,113,129,237,103,192,51,146,72,122,216,27,181,125,225,119,123,177,83,141,29,147,91,109,199,37,108,116,214,74,73,41,121,12,138,19,206,20,131,160,196,105,124,208,75,25,79,229,31,179,201,64,4,184,35,133,202,22,106,236,14,33,175,165,10,155,144,34,99,80,66,5,110,159,157,148,178,203,185,78,42,0,167,71,239,77,101,213,142,13,84,220,114,233,89,217,211,137,48,149,69,65,235,200,170,222,182,50,151,45,53,52,8,118,43,139,230,172,134,161,59,223,94,190,188,76,218,143,189,234,60,191,156,168,164,107,197,120,2,24,153,215,209,154,7,204,38,15,46,183,82,54,232,112,136,62,132,221,226,26,3,111,238,228,102,171,98,205,193,195,32,219,163,81,70,6,87,231","1,2,15,7,8,3,17,11,12,13,4,5,16,10,0,18,6,9,14","1,0.92584549169924,0.8208909850797715,0.8731546793173692,0.8093596110262344,0.7718649921823724,0.825249730931266,0.7543408108083745,0.651049688599616,0.671856665362259,0.4149999883819343,0.3122786417096156,0.23140960174373468,0.2517926478511013,0.15332769965580142,0.2253397416631617,0.1818701271528204,0.06049597901479311,0.10598598153530411,0.11641134791392117,0.16802720385593228,0.33029705064690545,0.2355657155961011,0.24252360241401086,0.3199349517781678,0.19119755796920984,0.23945942153848157,0.21467161208589824,0.12291643047068199,0.12822354028932126,0.17479462016966998,0.09027736456851343,0.1771358770446286,0.10292166351804932,0.08758194995777885,0.21896990091530127,0.23428258751058065,0.05296997388051231,0.1371256829380991,0.1712032431580984,0.058911613021347974,0.11074385781837448,0.10819013830380853,0.16640860097635035,0.19470298589339194,0.37551256672438904,0.4859481775571045,0.47706498116339235,0.38403453091461176,0.49404205789331884,0.6656849160050845,0.5769171070557617,0.41322763998808365,0.36999572826772775,0.38846110370262776,0.3722713267005183,0.5196941144212667,0.44269284908147527,0.36236111520751507,0.3664664800426208,0.2223321648122815,0.30528725073261154,0.2743274858169644,0.29095483695867214,0.26308852217303386,0.4896887441340204,0.44961475658789096,0.3776586401612634,0.3234021878684407,0.27743308967643976,0.3241241602744892,0.33747778712368065,0.32397163716837923,0.3767667283590567,0.3239018564979348,0.325292638669995,0.275938382519215,0.3261855490969344,0.2818488998384994,0.19834331118158965,0.2174526861342085,0.152227481850286,0.23920321787891333,0.31627350159017287,0.3097117523271107,0.34715016957638506,0.4295158478376095,0.4754652001728133,0.5060810174865492,0.44498289577761363,0.42405362078466213,0.49723566465747454,0.5782416140924024,0.5607414369588773,0.4464890376468244,0.5666599168453363,0.35967407394694,0.30614616557782476,0.3625716187249074,0.44281496728966163,0.4846284953052998,0.46969392562150286,0.5342652717442424,0.5680227713007255,0.43437132896659436,0.4378177874849499,0.31588642176331855,0.36327368950142985,0.4198549545064538,0.36743759942207793,0.35245375987443617,0.35759333203977184,0.3395370718932999,0.22679249773442525,0.26746237337404766,0.4452788174381236,0.33080307863183395,0.36126155367306323,0.38245059734658376,0.32706854851476075,0.44545427898507134,0.28806135565255075,0.3621414895620201,0.31430061214803157,0.43918356352591276,0.2589178408315015,0.285909193955264,0.28204597548844035,0.39565796305935563,0.4534890694949619,0.4171903270931018,0.4689348943776123,0.3223171574304184,0.36366624331457437,0.39964143999872376,0.3551323745761994,0.35714014892857515,0.4679971856886223,0.518022989493273,0.7450923838887683,0.7660122977228428,0.7325175589545451,0.7087935548751816,0.7797579058505218,0.7304966510899337,0.8462064357719191,0.9427645283162903,0.9010590645265214,0.9134852343689341,0.8693999874227138,1,0.9244391633099727,0.9458371855248845,0.8997628537572022,0.9246149808542845,0.8828215114291966,0.7470645389266163,0.7018421854403677,0.7791416256315852,0.7929795696106702,0.7346806775977032,0.7764597791209634,0.45603095312718184,0.4411397530635363,0.32529846460518713,0.45305414731290655,0.3886368072428717,0.3254218386888835,0.36476383814221774,0.2648708665528118,0.28715723083368183,0.22701080568413004,0.16741975712171325,0.18130937526990856,0.43352502787106856,0.49513352338137473,0.37856143788317087,0.4550637308194017,0.4691374591478996,0.39056731248873455","0.08716754464586356,0.055510635380434305,0.10931509175840383,0.12146109070046622,0.10604562689967068,0.16126687985354557,0.09725425563745307,0.17350954941161098,0.1127962843884804,0.07784506485647123,0.10126452922475197,0.30977926295584957,0.23098008901368736,0.31415077122740026,0.3987379583400019,0.3280766031453453,0.5137226056812992,0.49809781750306353,0.4644513436463801,0.5121149389080399,0.581750364647544,0.5206415598561491,0.2198523390979616,0.2820740592127517,0.36504068984626814,0.3091576768327765,0.2930778765039,0.31293146134211797,0.4084469744220739,0.31471174762913057,0.42775521100917246,0.40323072915103964,0.4133461060646927,0.4048251600685826,0.46148104505851456,0.49897207621161754,0.46872545984097386,0.47991529267811917,0.32340815378453985,0.4202806563143394,0.4668092590128296,0.5023072588278417,0.41990883165410015,0.4105391757686938,0.42468963315791175,0.6754299356028866,0.6140496844840467,0.603281026726154,0.6306003330334694,0.8135458219083753,0.9407012950741671,0.8711615957786532,0.8645043575906959,0.7552173158073828,0.8743839199672108,0.8899122610153538,0.9330538317864249,0.856009766199087,0.7822885203678674,0.6807048124557449,1,0.884891288539055,0.7449770475909538,0.5952165125700224,0.6541543601244955,0.7130086434009202,0.7737222066254416,0.8612965528032444,0.9096293551419562,0.8420691402183584,0.5544715597760992,0.4192738556934325,0.2798980790664323,0.08360173001181011,0.1139959042211183,0.07144606942793268,0.053268048607404264,0.08446087818664375,0.0861035722143669,0.09174357468519945,0.16355385879241155,0.28924199344464596,0.18877528647772351,0.214371228289397,0.14844147695001042,0.12773036550162917,0.14641040712384412,0.1258730259771205,0.06944299189016619,0.1000304784844632,0.1266369916036701,0.20191022663374988,0.29224586045548906,0.18022526938651884,0.13126247783360057,0.15582678778603185,0.0675877457359469,0.1102816063898242,0.12892010450615232,0.05473359267575531,0.3769165548768647,0.5086654591956258,0.7233838706741158,0.710341593973557,0.6137742345873157,0.7389707838341782,0.7168660391901855,0.8018675466479748,0.7041913069683061,0.7143907289937461,0.9010036972826264,0.8974525109550469,0.797831010503596,0.7401919822661915,0.7305895950520378,0.8531083742152799,0.8432142217896785,0.8943022489181556,0.7896622958324807,0.9422741567712933,1,0.770207506407447,0.69572701103761,0.5569029543968843,0.4921817173724587,0.554755375178518,0.6558405652608245,0.7183619816850236,0.6856171819965128,0.7955795305928501,0.8666882883122554,0.8576454570926249,0.8607139219594874,0.8025846172410317,0.9464941641471802,0.9332011676851888,0.9350784628736958,0.6882529531412207,0.8512063963904289,0.4772609257101234,0.22318892068035404,0.2391881849854021,0.2656286479743391,0.2212209004707981,0.2519551064515843,0.31660890468241254,0.2938835300735435,0.23731669699961677,0.09891852454461965,0.06352512245064083,0.2398420647337058,0.28781301704838363,0.31783603294069407,0.19338341669592868,0.11912892058947026,0.0975501220100251,0.2251642901511361,0.24822239173407085,0.16616619246371175,0.13320938015901923,0.2668826646538784,0.363894414407889,0.5415734597220628,0.7041788077111975,0.6826291008920546,0.6450426724486156,0.5349532471037258,0.6601069489463147,0.8352640293164353,0.9264903059575593,0.8190450727880613,0.7463962352538853,0.8607423271467144,0.7287071528834724,0.6308704537526575,0.8331569475278185,0.784424419824429,0.807719317309789,0.7578721804130247,0.6101828264620848","0.4828116510358505,0.47003091288608373,0.44913147599003517,0.44422722478859533,0.4519035928121094,0.6121329636954732,0.25661839947693454,0.2518425519596989,0.42546474078453494,0.46037524603183955,0.7066205217965218,0.7247753732802317,0.8621682331236208,0.8306949604642653,0.8483979550667513,0.8372680745123718,0.7753794919588062,0.8379156729998564,0.8198549438037204,0.9440595677451253,0.9368648194161477,0.8298165528453243,0.9254527908863118,0.8417543177965736,0.7521279382942223,0.602509891740121,0.6453468206985948,0.7888024988338519,0.7813976514635204,0.756478952018366,1,0.8934705000560256,0.9273974410252324,0.9348672920427206,0.8815157246522206,0.934778012647529,0.7394370874398338,0.8254846972265627,0.8495602129260448,0.8612152234017496,0.9447632961370869,0.8395396425143611,0.6125787001819648,0.5452238023023792,0.25356811437280663,0.21825763189789968,0.2437766262644034,0.15331826468706403,0.32635213771455,0.21635080422204167,0.13593921241395557,0.13264393725435128,0.09819560823526853,0.09593068214591192,0.11347857814053637,0.06225748242618812,0.16118348955501233,0.1760145406910608,0.3708911835639891,0.18002798919597054,0.08412488422163879,0.1450278256707835,0.105031236382485,0.052753356874002996,0.21150274148500947,0.1809562040066987,0.17202315896496678,0.09572574681340122,0.1606412878524099,0.0772683901832756,0.3001219414200027,0.5955097672839716,0.6869077155325677,0.8476611927137303,0.8350896141145167,0.646813562074527,0.652870367138296,0.7797309976683606,0.6014548231598688,0.5183951164820184,0.5800550781448501,0.4956080244231082,0.6055376711374602,0.6747336513165828,0.7130652703355146,0.6146331229477648,0.6945359487428617,0.742081659444154,0.8301259700954039,0.9176708992510547,1,0.9082552395541095,0.927929835531335,0.7729425729662053,0.6644734384139346,0.7117190893965103,0.824603104107788,0.7521658566144633,0.6637576753927047,0.6059244033007065,0.33861814389340233,0.20279941257272405,0.12507806616961437,0.23411928277721708,0.22185934627865236,0.2446564923448299,0.15434283389087813,0.06112444311856617,0.1584748690614642,0.15507016233032342,0.15440280438027768,0.0577947647296771,0.15292513702864072,0.11156007814649735,0.1290916995436669,0.14711577583400504,0.14912607509312018,0.14365165155810966,0.14969328573334945,0.23687459339291053,0.19291417542797717,0.1575702731695483,0.20559066342961477,0.081444989778874,0.11462359382460278,0.05957498025181951,0.16703322354945255,0.20638267296011922,0.39734819383422904,0.2875741097737634,0.13391392848876224,0.12771185560759285,0.23298326421674923,0.16249912106319098,0.061171296747974745,0.05161960589976365,0.08096779019249871,0.1385658287985034,0.06109678001771681,0.22382591383418984,0.26535141725572137,0.18401487355017807,0.3624445323692621,0.41956416236704075,0.5387964066854556,0.43421338689937006,0.3580638353193347,0.4648889690954318,0.5533474090791095,0.5187819831757287,0.41439503222199664,0.39336833761128853,0.510607388386654,0.46167968138795107,0.43349796210371006,0.5195798921506214,0.5027682684874868,0.32880183204922697,0.519663876031589,0.576643698169862,0.5552674334867566,0.44905491210073684,0.2846823756155833,0.27716531831594127,0.41637674709176753,0.34613153982397665,0.35301617884192527,0.24976595833693047,0.11821645434430017,0.08903372096399084,0.18480046538024764,0.07718328059233402,0.054598638089796925,0.07959984113239928,0.10060144147239361,0.12842227683985888,0.28528015136077256,0.21191406136418076,0.1534126206781899,0.0657481462453876","86,84,46,162,42,82,166,160,43,129,165,40,41,204,124,203,207,205,120,126,49,200,164,87,89,206,88,209,47,202,83,127,85,44,169,81,80,121,122,48,208,201,161,123,163,167,128,125,168,45","1,1,6,1,2,1,1,3,1,4,1,1,1,2,5,1,5,1,1,1,1,1,5,1,1,1,1,6,1,1,1,1,2,1,5,5,1,6,1,1,1,1,3,1,4,1,1,1,4,1,2,1,1,1,4,1,1,3,1,4"
