success,trial_type,trial_index,time_elapsed,internal_node_id,interactions,blur_events,focus_events,fullscreenenter_events,fullscreenexit_events,rt,stimulus,key_press,subject_id,participant_id,age,gender,prompt,response,choice_outcomes,context_n,context_img_id,trial_n,probe_img_id,pR_red,pR_white,pR_black,outcome,contextArray_ind,validImageProbes,invalidImageProbes,pRew_Red,pRew_White,pRew_Black,availableForMemProbe,choice_blocks
TRUE,fullscreen,0,24282,0.0-0.0,"""event"",""trial"",""time""
""fullscreenenter"",""0"",""23309""
","
","
","""event"",""trial"",""time""
""fullscreenenter"",""0"",""23309""
","
",,,,,,,,,,,,,,,,,,,,,,,,,,
,pavlovia,1,24288,0.0-1.0,"""event"",""trial"",""time""
""fullscreenenter"",""0"",""23309""
","
","
","""event"",""trial"",""time""
""fullscreenenter"",""0"",""23309""
","
",,,,,,,,,,,,,,,,,,,,,,,,,,
,instruc1,2,70172,0.0-2.0,"""event"",""trial"",""time""
""fullscreenenter"",""0"",""23309""
","
","
","""event"",""trial"",""time""
""fullscreenenter"",""0"",""23309""
","
",null,run_exp/static/audio/clip_1_welcome.m4a,null,293,709,16,Male,"<div class='center'><p>Welcome! This is the first part of the study. It will last ~30 minutes. In part 1 and part 2 of the study, you are the head captain of a pirate ship traveling around the world to different islands. You will play a few different games throughout these two parts. Here is an overview of them:</p><br><p>Part 1 (today)</p><p>1. Instructions, practice game, and quiz</p><p>2. Pick a pirate game on 6 different islands</p><br><p>Part 2 (tomorrow)</p><p>3. Pick a pirate game and memory game</p><p>4. Where did you see this ship? </p></div>",,,,,,,,,,,,,,,,,,
,html-keyboard-response,3,71368,0.0-3.0,"""event"",""trial"",""time""
""fullscreenenter"",""0"",""23309""
","
","
","""event"",""trial"",""time""
""fullscreenenter"",""0"",""23309""
","
",1194.5,"<div class='center'><p>Welcome! This is the first part of the study. It will last ~30 minutes. In part 1 and part 2 of the study, you are the head captain of a pirate ship traveling around the world to different islands. You will play a few different games throughout these two parts. Here is an overview of them:</p><br><p>Part 1 (today)</p><p>1. Instructions, practice game, and quiz</p><p>2. Pick a pirate game on 6 different islands</p><br><p>Part 2 (tomorrow)</p><p>3. Pick a pirate game and memory game</p><p>4. Where did you see this ship? </p><p><b>[Press the space bar to continue]</b></p></div>",32,,,,,,,,,,,,,,,,,,,,,,,
,instruc2,4,76672,0.0-4.0,"""event"",""trial"",""time""
""fullscreenenter"",""0"",""23309""
","
","
","""event"",""trial"",""time""
""fullscreenenter"",""0"",""23309""
","
",null,run_exp/static/audio/clip_2_different_places.m4a,null,,,,,"<div class='center'><p>Today, you’ll visit these 6 islands on your journey. You'll be able to see these islands from your ship.</p><p><img src='run_exp/static/images/contexts/all_contexts.png' height='500'></p></div>",,,,,,,,,,,,,,,,,,
,html-keyboard-response,5,80657,0.0-5.0,"""event"",""trial"",""time""
""fullscreenenter"",""0"",""23309""
","
","
","""event"",""trial"",""time""
""fullscreenenter"",""0"",""23309""
","
",3983.7,"<div class='center'><p>Today, you’ll visit these 6 islands on your journey. You'll be able to see these islands from your ship.</p><p><img src='run_exp/static/images/contexts/all_contexts.png' height='500'></p><p><b>[Press the space bar to continue]</b></p></div>",32,,,,,,,,,,,,,,,,,,,,,,,
,instruc3,6,90332,0.0-6.0,"""event"",""trial"",""time""
""fullscreenenter"",""0"",""23309""
","
","
","""event"",""trial"",""time""
""fullscreenenter"",""0"",""23309""
","
",null,run_exp/static/audio/clip_3_goal_of_game_1.m4a,null,,,,,"<div class='center'><p> The pirates on your ship will rob other ships as they leave the island.</p> These ships have just sold their goods to the islanders, so they will be filled with lots and lots of gold.</p><p><img src='run_exp/static/images/tutorial/ship_center.png' height='400'></p></div>",,,,,,,,,,,,,,,,,,
,html-keyboard-response,7,93016,0.0-7.0,"""event"",""trial"",""time""
""fullscreenenter"",""0"",""23309""
","
","
","""event"",""trial"",""time""
""fullscreenenter"",""0"",""23309""
","
",2682.6,"<div class='center'><p> The pirates on your ship will rob other ships as they leave the island.</p> These ships have just sold their goods to the islanders, so they will be filled with lots and lots of gold.</p><p><img src='run_exp/static/images/tutorial/ship_center.png' height='400'></p><p><b>[Press the space bar to continue]</b></p></div>",32,,,,,,,,,,,,,,,,,,,,,,,
,instruc4,8,120994,0.0-8.0,"""event"",""trial"",""time""
""fullscreenenter"",""0"",""23309""
","
","
","""event"",""trial"",""time""
""fullscreenenter"",""0"",""23309""
","
",null,run_exp/static/audio/clip_4_goal_of_game_2.m4a,null,,,,,"<div class='center'><p>As the head captain, you do not have to rob any ships yourself. Another pirate will be doing the robbing for you. First, you will choose a pirate to rob the next ship.</p><p><img src='run_exp/static/images/tutorial/pirates_all_crop.png' height='200'></p><p>Then, you'll see if the pirate successfully robbed the ship of their gold. If they were successful, then you'll get a stack of gold coins like this:</p><p><img src='run_exp/static/images/tutorial/reward.png' height='150'></p><p> If they were <b>not</b> successful, then you'll get no gold coins, and you'll see a big red x like this: </p><p><img src='run_exp/static/images/tutorial/reward_no.png' height='150'></p><p> How much bonus money you make is based on how many gold coins you collect.</p><div>",,,,,,,,,,,,,,,,,,
,html-keyboard-response,9,123141,0.0-9.0,"""event"",""trial"",""time""
""fullscreenenter"",""0"",""23309""
","
","
","""event"",""trial"",""time""
""fullscreenenter"",""0"",""23309""
","
",2144.5,"<div class='center'><p>As the head captain, you do not have to rob any ships yourself. Another pirate will be doing the robbing for you. First, you will choose a pirate to rob the next ship.</p><p><img src='run_exp/static/images/tutorial/pirates_all_crop.png' height='200'></p><p>Then, you'll see if the pirate successfully robbed the ship of their gold. If they were successful, then you'll get a stack of gold coins like this:</p><p><img src='run_exp/static/images/tutorial/reward.png' height='150'></p><p> If they were <b>not</b> successful, then you'll get no gold coins, and you'll see a big red x like this: </p><p><img src='run_exp/static/images/tutorial/reward_no.png' height='150'></p><p> How much bonus money you make is based on how many gold coins you collect.</p<p><b>[Press the space bar to continue]</b></p></div>",32,,,,,,,,,,,,,,,,,,,,,,,
,instruc5,10,144122,0.0-10.0,"""event"",""trial"",""time""
""fullscreenenter"",""0"",""23309""
","
","
","""event"",""trial"",""time""
""fullscreenenter"",""0"",""23309""
","
",20982.3,run_exp/static/audio/clip_5_probabilistic.m4a,49,,,,,"<div class='center'><p>Even the most skilled pirate can not rob EVERY ship.</p><p> Some ships will have very strong protections against pirate attacks.</p><p> Blue beard, here, is very, very good at robbing ships, but he won't be successful every time he tries to rob one.</p><p> You can press the <b>‘1’</b> key on the keyboard to choose him.</p><p> Try choosing him 10 times to see how often he succeeds at robbing a ship. </p><p><img src='run_exp/static/images/tutorial/blue.png' height='500'></p></div>",,,,,,,,,,,,,,,,,,
,html-keyboard-response,11,145638,0.0-11.0,"""event"",""trial"",""time""
""fullscreenenter"",""0"",""23309""
","
","
","""event"",""trial"",""time""
""fullscreenenter"",""0"",""23309""
","
",null,<div class='center'><p><img src='run_exp/static/images/tutorial/blue_win.png' height='500'></p></div>,null,,,,,,,,,,,,,,,,,,,,,,,
,html-keyboard-response,12,146717,0.0-12.0,"""event"",""trial"",""time""
""fullscreenenter"",""0"",""23309""
","
","
","""event"",""trial"",""time""
""fullscreenenter"",""0"",""23309""
","
",1078.5,<div class='center'><img src='run_exp/static/images/tutorial/blue.png' height='500'></p></div>,49,,,,,,,,,,,,,,,,,,,,,,,
,html-keyboard-response,13,148219,0.0-13.0,"""event"",""trial"",""time""
""fullscreenenter"",""0"",""23309""
","
","
","""event"",""trial"",""time""
""fullscreenenter"",""0"",""23309""
","
",null,<div class='center'><p><img src='run_exp/static/images/tutorial/blue_win.png' height='500'></p></div>,null,,,,,,,,,,,,,,,,,,,,,,,
,html-keyboard-response,14,148826,0.0-14.0,"""event"",""trial"",""time""
""fullscreenenter"",""0"",""23309""
","
","
","""event"",""trial"",""time""
""fullscreenenter"",""0"",""23309""
","
",605.9,<div class='center'><img src='run_exp/static/images/tutorial/blue.png' height='500'></p></div>,49,,,,,,,,,,,,,,,,,,,,,,,
,html-keyboard-response,15,150338,0.0-15.0,"""event"",""trial"",""time""
""fullscreenenter"",""0"",""23309""
","
","
","""event"",""trial"",""time""
""fullscreenenter"",""0"",""23309""
","
",null,<div class='center'><p><img src='run_exp/static/images/tutorial/blue_win.png' height='500'></p></div>,null,,,,,,,,,,,,,,,,,,,,,,,
,html-keyboard-response,16,150694,0.0-16.0,"""event"",""trial"",""time""
""fullscreenenter"",""0"",""23309""
","
","
","""event"",""trial"",""time""
""fullscreenenter"",""0"",""23309""
","
",355.2,<div class='center'><img src='run_exp/static/images/tutorial/blue.png' height='500'></p></div>,49,,,,,,,,,,,,,,,,,,,,,,,
,html-keyboard-response,17,152208,0.0-17.0,"""event"",""trial"",""time""
""fullscreenenter"",""0"",""23309""
","
","
","""event"",""trial"",""time""
""fullscreenenter"",""0"",""23309""
","
",null,<div class='center'><p><img src='run_exp/static/images/tutorial/blue_no_win.png' height='500'></p></div>,null,,,,,,,,,,,,,,,,,,,,,,,
,html-keyboard-response,18,152463,0.0-18.0,"""event"",""trial"",""time""
""fullscreenenter"",""0"",""23309""
","
","
","""event"",""trial"",""time""
""fullscreenenter"",""0"",""23309""
","
",255.1,<div class='center'><img src='run_exp/static/images/tutorial/blue.png' height='500'></p></div>,49,,,,,,,,,,,,,,,,,,,,,,,
,html-keyboard-response,19,153974,0.0-19.0,"""event"",""trial"",""time""
""fullscreenenter"",""0"",""23309""
","
","
","""event"",""trial"",""time""
""fullscreenenter"",""0"",""23309""
","
",null,<div class='center'><p><img src='run_exp/static/images/tutorial/blue_win.png' height='500'></p></div>,null,,,,,,,,,,,,,,,,,,,,,,,
,html-keyboard-response,20,154234,0.0-20.0,"""event"",""trial"",""time""
""fullscreenenter"",""0"",""23309""
","
","
","""event"",""trial"",""time""
""fullscreenenter"",""0"",""23309""
","
",259.2,<div class='center'><img src='run_exp/static/images/tutorial/blue.png' height='500'></p></div>,49,,,,,,,,,,,,,,,,,,,,,,,
,html-keyboard-response,21,155748,0.0-21.0,"""event"",""trial"",""time""
""fullscreenenter"",""0"",""23309""
","
","
","""event"",""trial"",""time""
""fullscreenenter"",""0"",""23309""
","
",null,<div class='center'><p><img src='run_exp/static/images/tutorial/blue_win.png' height='500'></p></div>,null,,,,,,,,,,,,,,,,,,,,,,,
,html-keyboard-response,22,156024,0.0-22.0,"""event"",""trial"",""time""
""fullscreenenter"",""0"",""23309""
","
","
","""event"",""trial"",""time""
""fullscreenenter"",""0"",""23309""
","
",275.5,<div class='center'><img src='run_exp/static/images/tutorial/blue.png' height='500'></p></div>,49,,,,,,,,,,,,,,,,,,,,,,,
,html-keyboard-response,23,157536,0.0-23.0,"""event"",""trial"",""time""
""fullscreenenter"",""0"",""23309""
","
","
","""event"",""trial"",""time""
""fullscreenenter"",""0"",""23309""
","
",null,<div class='center'><p><img src='run_exp/static/images/tutorial/blue_win.png' height='500'></p></div>,null,,,,,,,,,,,,,,,,,,,,,,,
,html-keyboard-response,24,158108,0.0-24.0,"""event"",""trial"",""time""
""fullscreenenter"",""0"",""23309""
","
","
","""event"",""trial"",""time""
""fullscreenenter"",""0"",""23309""
","
",571.7,<div class='center'><img src='run_exp/static/images/tutorial/blue.png' height='500'></p></div>,49,,,,,,,,,,,,,,,,,,,,,,,
,html-keyboard-response,25,159618,0.0-25.0,"""event"",""trial"",""time""
""fullscreenenter"",""0"",""23309""
","
","
","""event"",""trial"",""time""
""fullscreenenter"",""0"",""23309""
","
",null,<div class='center'><p><img src='run_exp/static/images/tutorial/blue_no_win.png' height='500'></p></div>,null,,,,,,,,,,,,,,,,,,,,,,,
,html-keyboard-response,26,159858,0.0-26.0,"""event"",""trial"",""time""
""fullscreenenter"",""0"",""23309""
","
","
","""event"",""trial"",""time""
""fullscreenenter"",""0"",""23309""
","
",239.4,<div class='center'><img src='run_exp/static/images/tutorial/blue.png' height='500'></p></div>,49,,,,,,,,,,,,,,,,,,,,,,,
,html-keyboard-response,27,161367,0.0-27.0,"""event"",""trial"",""time""
""fullscreenenter"",""0"",""23309""
","
","
","""event"",""trial"",""time""
""fullscreenenter"",""0"",""23309""
","
",null,<div class='center'><p><img src='run_exp/static/images/tutorial/blue_win.png' height='500'></p></div>,null,,,,,,,,,,,,,,,,,,,,,,,
,html-keyboard-response,28,161698,0.0-28.0,"""event"",""trial"",""time""
""fullscreenenter"",""0"",""23309""
","
","
","""event"",""trial"",""time""
""fullscreenenter"",""0"",""23309""
","
",330.5,<div class='center'><img src='run_exp/static/images/tutorial/blue.png' height='500'></p></div>,49,,,,,,,,,,,,,,,,,,,,,,,
,html-keyboard-response,29,163209,0.0-29.0,"""event"",""trial"",""time""
""fullscreenenter"",""0"",""23309""
","
","
","""event"",""trial"",""time""
""fullscreenenter"",""0"",""23309""
","
",null,<div class='center'><p><img src='run_exp/static/images/tutorial/blue_win.png' height='500'></p></div>,null,,,,,,,,,,,,,,,,,,,,,,,
,instruc6,30,168711,0.0-30.0,"""event"",""trial"",""time""
""fullscreenenter"",""0"",""23309""
","
","
","""event"",""trial"",""time""
""fullscreenenter"",""0"",""23309""
","
",null,run_exp/static/audio/clip_6_blue_beard_outcome.m4a,null,,,,,"<div class='center'><p> See, he succeeded in robbing the ships most of the time but not every time. </p></div>",,,,,,,,,,,,,,,,,,
,html-keyboard-response,31,169796,0.0-31.0,"""event"",""trial"",""time""
""fullscreenenter"",""0"",""23309""
","
","
","""event"",""trial"",""time""
""fullscreenenter"",""0"",""23309""
","
",1083.8,"<div class='center'><p> See, he succeeded in robbing the ships most of the time but not every time. </p><p><b>[Press the space bar to continue]</b></p></div>",32,,,,,,,,,,,,,,,,,,,,,,,
,audio-keyboard-response,32,185872,0.0-32.0,"""event"",""trial"",""time""
""fullscreenenter"",""0"",""23309""
","
","
","""event"",""trial"",""time""
""fullscreenenter"",""0"",""23309""
","
",16075.3,run_exp/static/audio/clip_7_pick_pirate.m4a,51,,,,,,,,,,,,,,,,,,,,,,,
,audio-keyboard-response,33,189517,0.0-33.0-0.0,"""event"",""trial"",""time""
""fullscreenenter"",""0"",""23309""
","
","
","""event"",""trial"",""time""
""fullscreenenter"",""0"",""23309""
","
",3640.4,run_exp/static/audio/clip_8_chosen_pirate_win.m4a,32,,,,,,,,,,,,,,,,,,,,,,,
,audio-keyboard-response,34,191527,0.0-33.0-1.0,"""event"",""trial"",""time""
""fullscreenenter"",""0"",""23309""
","
","
","""event"",""trial"",""time""
""fullscreenenter"",""0"",""23309""
","
",2007.9,run_exp/static/audio/clip_9_pick_a_pirate_again.m4a,49,,,,,,,,,,,,,,,,,,,,,,,
,audio-keyboard-response,35,193867,0.0-34.0-0.0,"""event"",""trial"",""time""
""fullscreenenter"",""0"",""23309""
","
","
","""event"",""trial"",""time""
""fullscreenenter"",""0"",""23309""
","
",2338.7,run_exp/static/audio/clip_10_chosen_pirate_loss.m4a,32,,,,,,,,,,,,,,,,,,,,,,,
,instruc9,36,199351,0.0-35.0-0.0,"""event"",""trial"",""time""
""fullscreenenter"",""0"",""23309""
","
","
","""event"",""trial"",""time""
""fullscreenenter"",""0"",""23309""
","
",null,run_exp/static/audio/clip_11_time_out.m4a,null,,,,,"<div class='center'><p>If you don’t make your choice fast enough, you’ll have to wait a few seconds before you can make another one. </p><p><img src='run_exp/static/images/miscellaneous/hurry_up.png' height='500'></p></div>",,,,,,,,,,,,,,,,,,
,html-keyboard-response,37,199740,0.0-35.0-1.0,"""event"",""trial"",""time""
""fullscreenenter"",""0"",""23309""
","
","
","""event"",""trial"",""time""
""fullscreenenter"",""0"",""23309""
","
",387.4,"<div class='center'><p>If you don’t make your choice fast enough, you’ll have to wait a few seconds before you can make another one. </p><p><img src='run_exp/static/images/miscellaneous/hurry_up.png' height='500'></p><p><b>[Press the space bar to continue]</b></p></div>",32,,,,,,,,,,,,,,,,,,,,,,,
,instruc10,38,238838,0.0-35.0-2.0,"""event"",""trial"",""time""
""fullscreenenter"",""0"",""23309""
","
","
","""event"",""trial"",""time""
""fullscreenenter"",""0"",""23309""
","
",null,run_exp/static/audio/clip_12_probe.m4a,null,,,,,"<div class='center'><p>Once you've chosen a pirate, you’ll be shown the ship they are robbing. You will never rob the same ship twice. Ships can be told apart from one another by the image on them. These are the goods that they sell. See, this ship has a travel mug on it. </p><p> You’ll have to remember which island you saw each ship on. You will win more gold coins and hence more bonus money if you remember correctly! To help you remember, you can imagine a story. For example, here, you could imagine a mug full of water in the desert. Or, as another example, if on the forest island, your pirate robbed a ship with an apple on it, you could imagine an apple falling from a tree in the forest. </p><p><img src='run_exp/static/images/tutorial/example_probe.png' height='500'></p></div>",,,,,,,,,,,,,,,,,,
,html-keyboard-response,39,239482,0.0-35.0-3.0,"""event"",""trial"",""time""
""fullscreenenter"",""0"",""23309""
","
","
","""event"",""trial"",""time""
""fullscreenenter"",""0"",""23309""
","
",641,"<div class='center'><p>Once you've chosen a pirate, you’ll be shown the ship they are robbing. You will never rob the same ship twice. Ships can be told apart from one another by the image on them. These are the goods that they sell. See, this ship has a travel mug on it. </p><p> You’ll have to remember which island you saw each ship on. You will win more gold coins and hence more bonus money if you remember correctly! To help you remember, you can imagine a story. For example, here, you could imagine a mug full of water in the desert. Or, as another example, if on the forest island, your pirate robbed a ship with an apple on it, you could imagine an apple falling from a tree in the forest. </p><p><img src='run_exp/static/images/tutorial/example_probe.png' height='500'></p><p><b>[Press the space bar to continue]</b></p></div>",32,,,,,,,,,,,,,,,,,,,,,,,
,instruc11,40,255897,0.0-35.0-4.0,"""event"",""trial"",""time""
""fullscreenenter"",""0"",""23309""
","
","
","""event"",""trial"",""time""
""fullscreenenter"",""0"",""23309""
","
",null,run_exp/static/audio/clip_13_changepoint.m4a,null,,,,,"<div class='center'><p>How successful a pirate is at robbing ships will depend on the island you’re on.</p><p> A pirate may have visited this island many times before and gained a lot of practice robbing ships there.</p><p>So, they’re more likely to be successful than a pirate who has never visited the island before.</p></div>",,,,,,,,,,,,,,,,,,
,html-keyboard-response,41,256367,0.0-35.0-5.0,"""event"",""trial"",""time""
""fullscreenenter"",""0"",""23309""
","
","
","""event"",""trial"",""time""
""fullscreenenter"",""0"",""23309""
","
",467.3,"<div class='center'><p>How successful a pirate is at robbing ships will depend on the island you’re on.</p><p> A pirate may have visited this island many times before and gained a lot of practice robbing ships there.</p><p>So, they’re more likely to be successful than a pirate who has never visited the island before.</p><p><b>[Press the space bar to continue]</b></p></div>",32,,,,,,,,,,,,,,,,,,,,,,,
,instruc12,42,297454,0.0-35.0-6.0,"""event"",""trial"",""time""
""fullscreenenter"",""0"",""23309""
","
","
","""event"",""trial"",""time""
""fullscreenenter"",""0"",""23309""
","
",null,run_exp/static/audio/clip_14_drift.m4a,null,,,,,"<div class='center'><p>How successful a pirate is at robbing ships can also change over the time spent on the island. </p><p> Ships may hear from islanders about the pirates coming and will improve their protections against the attack. This may make it harder to rob them.</p><p> Ships may also become lazy and weaken the strength of their protections. This may make it easier to rob them.</p><br><p>Things are always changing on the high seas! So, try your best to pay attention!</p><p><img src='run_exp/static/images/tutorial/contingency.png' height='500'></p></div>",,,,,,,,,,,,,,,,,,
,html-keyboard-response,43,297844,0.0-35.0-7.0,"""event"",""trial"",""time""
""fullscreenenter"",""0"",""23309""
","
","
","""event"",""trial"",""time""
""fullscreenenter"",""0"",""23309""
","
",387.5,"<div class='center'><p>How successful a pirate is at robbing ships can also change over the time spent on the island. </p><p> Ships may hear from islanders about the pirates coming and will improve their protections against the attack. This may make it harder to rob them.</p><p> Ships may also become lazy and weaken the strength of their protections. This may make it easier to rob them.</p><br><p>Things are always changing on the high seas! So, try your best to pay attention!</p><p><img src='run_exp/static/images/tutorial/contingency.png' height='500'></p><p><b>[Press the space bar to continue]</b></p></div>",32,,,,,,,,,,,,,,,,,,,,,,,
,instruc13,44,333034,0.0-35.0-8.0,"""event"",""trial"",""time""
""fullscreenenter"",""0"",""23309""
","
","
","""event"",""trial"",""time""
""fullscreenenter"",""0"",""23309""
","
",null,run_exp/static/audio/clip_15_summary.m4a,null,,,,,"<div class='center'><p>Let's go over the instructions quickly again. You have two important things to do: </p><b><p> 1. Pick the pirate who is the best at robbing ships on the current island. </p></b><b><p> 2. Remember on which island a ship was robbed.</p> </b><p>The amount of bonus money you can win depends on both.</p><p><br><p>Let’s try a practice game. The game will start by showing you the pirates. First, pick a pirate using the <b> 1, 2, 3 </b> keys on your keyboard. When you are shown a ship, try to remember which island you’re on by making up a story.</p><p>This is just a practice game, so you’re not playing for money. </p><p> Good luck! This game will be very difficult but try your best!</p></div>",,,,,,,,,,,,,,,,,,
,html-keyboard-response,45,333570,0.0-35.0-9.0,"""event"",""trial"",""time""
""fullscreenenter"",""0"",""23309""
","
","
","""event"",""trial"",""time""
""fullscreenenter"",""0"",""23309""
","
",533.8,"<div class='center'><p>Let's go over the instructions quickly again. You have two important things to do: </p><b><p> 1. Pick the pirate who is the best at robbing ships on the current island. </p></b><b><p> 2. Remember on which island a ship was robbed.</p> </b><p>The amount of bonus money you can win depends on both.</p><p><br><p>Let’s try a practice game. The game will start by showing you the pirates. First, pick a pirate using the <b> 1, 2, 3 </b> keys on your keyboard. When you are shown a ship, try to remember which island you’re on by making up a story.</p><p>This is just a practice game, so you’re not playing for money. </p><p> Good luck! This game will be very difficult but try your best!</p><p><b>[Press the space bar to continue]</b></p></div>",32,,,,,,,,,,,,,,,,,,,,,,,
,do_welcome,46,337581,0.0-35.0-10.0,"""event"",""trial"",""time""
""fullscreenenter"",""0"",""23309""
","
","
","""event"",""trial"",""time""
""fullscreenenter"",""0"",""23309""
","
",null,,,,,,,,null,,,,,,,,,,,,,,,,,
,do_trial,47,342200,0.0-35.0-11.0,"""event"",""trial"",""time""
""fullscreenenter"",""0"",""23309""
","
","
","""event"",""trial"",""time""
""fullscreenenter"",""0"",""23309""
","
",101.2,,,,,,,,50,"1,0,0",,,,,,,,,,,,,,,,
,html-keyboard-response,48,343221,0.0-36.0-0.0,"""event"",""trial"",""time""
""fullscreenenter"",""0"",""23309""
","
","
","""event"",""trial"",""time""
""fullscreenenter"",""0"",""23309""
","
",null,<p></p>,null,,,,,,,,,,,,,,,,,,,,,,,
,do_trial,49,348453,0.0-36.0-1.0,"""event"",""trial"",""time""
""fullscreenenter"",""0"",""23309""
","
","
","""event"",""trial"",""time""
""fullscreenenter"",""0"",""23309""
","
",710.6,,,,,,,,49,"1,1,0",,,,,,,,,,,,,,,,
,html-keyboard-response,50,349469,0.0-37.0-0.0,"""event"",""trial"",""time""
""fullscreenenter"",""0"",""23309""
","
","
","""event"",""trial"",""time""
""fullscreenenter"",""0"",""23309""
","
",null,<p></p>,null,,,,,,,,,,,,,,,,,,,,,,,
,do_trial,51,354296,0.0-37.0-1.0,"""event"",""trial"",""time""
""fullscreenenter"",""0"",""23309""
","
","
","""event"",""trial"",""time""
""fullscreenenter"",""0"",""23309""
","
",308,,,,,,,,51,"1,0,1",,,,,,,,,,,,,,,,
,html-keyboard-response,52,355313,0.0-38.0-0.0,"""event"",""trial"",""time""
""fullscreenenter"",""0"",""23309""
","
","
","""event"",""trial"",""time""
""fullscreenenter"",""0"",""23309""
","
",null,<p></p>,null,,,,,,,,,,,,,,,,,,,,,,,
,do_trial,53,360714,0.0-38.0-1.0,"""event"",""trial"",""time""
""fullscreenenter"",""0"",""23309""
","
","
","""event"",""trial"",""time""
""fullscreenenter"",""0"",""23309""
","
",879.2,,,,,,,,50,"0,1,0",,,,,,,,,,,,,,,,
,html-keyboard-response,54,361731,0.0-39.0-0.0,"""event"",""trial"",""time""
""fullscreenenter"",""0"",""23309""
","
","
","""event"",""trial"",""time""
""fullscreenenter"",""0"",""23309""
","
",null,<p></p>,null,,,,,,,,,,,,,,,,,,,,,,,
,do_trial,55,366449,0.0-39.0-1.0,"""event"",""trial"",""time""
""fullscreenenter"",""0"",""23309""
","
","
","""event"",""trial"",""time""
""fullscreenenter"",""0"",""23309""
","
",199.5,,,,,,,,49,"1,0,0",,,,,,,,,,,,,,,,
,do_bye,56,367956,0.0-40.0-0.0,"""event"",""trial"",""time""
""fullscreenenter"",""0"",""23309""
","
","
","""event"",""trial"",""time""
""fullscreenenter"",""0"",""23309""
","
",null,,,,,,,,null,,,,,,,,,,,,,,,,,
,do_travel,57,376970,0.0-40.0-1.0,"""event"",""trial"",""time""
""fullscreenenter"",""0"",""23309""
","
","
","""event"",""trial"",""time""
""fullscreenenter"",""0"",""23309""
","
",null,,,,,,,,null,,,,,,,,,,,,,,,,,
,do_welcome,58,380980,0.0-40.0-2.0,"""event"",""trial"",""time""
""fullscreenenter"",""0"",""23309""
","
","
","""event"",""trial"",""time""
""fullscreenenter"",""0"",""23309""
","
",null,,,,,,,,null,,,,,,,,,,,,,,,,,
,do_trial,59,386030,0.0-40.0-3.0,"""event"",""trial"",""time""
""fullscreenenter"",""0"",""23309""
","
","
","""event"",""trial"",""time""
""fullscreenenter"",""0"",""23309""
","
",533.8,,,,,,,,51,"1,0,0",,,,,,,,,,,,,,,,
,html-keyboard-response,60,387050,0.0-41.0-0.0,"""event"",""trial"",""time""
""fullscreenenter"",""0"",""23309""
","
","
","""event"",""trial"",""time""
""fullscreenenter"",""0"",""23309""
","
",null,<p></p>,null,,,,,,,,,,,,,,,,,,,,,,,
,do_trial,61,391833,0.0-41.0-1.0,"""event"",""trial"",""time""
""fullscreenenter"",""0"",""23309""
","
","
","""event"",""trial"",""time""
""fullscreenenter"",""0"",""23309""
","
",267.4,,,,,,,,49,"1,0,1",,,,,,,,,,,,,,,,
,html-keyboard-response,62,392849,0.0-42.0-0.0,"""event"",""trial"",""time""
""fullscreenenter"",""0"",""23309""
","
","
","""event"",""trial"",""time""
""fullscreenenter"",""0"",""23309""
","
",null,<p></p>,null,,,,,,,,,,,,,,,,,,,,,,,
,do_trial,63,397626,0.0-42.0-1.0,"""event"",""trial"",""time""
""fullscreenenter"",""0"",""23309""
","
","
","""event"",""trial"",""time""
""fullscreenenter"",""0"",""23309""
","
",256.5,,,,,,,,50,"1,1,0",,,,,,,,,,,,,,,,
,html-keyboard-response,64,398627,0.0-43.0-0.0,"""event"",""trial"",""time""
""fullscreenenter"",""0"",""23309""
","
","
","""event"",""trial"",""time""
""fullscreenenter"",""0"",""23309""
","
",null,<p></p>,null,,,,,,,,,,,,,,,,,,,,,,,
,do_trial,65,403409,0.0-43.0-1.0,"""event"",""trial"",""time""
""fullscreenenter"",""0"",""23309""
","
","
","""event"",""trial"",""time""
""fullscreenenter"",""0"",""23309""
","
",259.7,,,,,,,,49,"0,0,1",,,,,,,,,,,,,,,,
,html-keyboard-response,66,404424,0.0-44.0-0.0,"""event"",""trial"",""time""
""fullscreenenter"",""0"",""23309""
","
","
","""event"",""trial"",""time""
""fullscreenenter"",""0"",""23309""
","
",null,<p></p>,null,,,,,,,,,,,,,,,,,,,,,,,
,do_trial,67,409124,0.0-44.0-1.0,"""event"",""trial"",""time""
""fullscreenenter"",""0"",""23309""
","
","
","""event"",""trial"",""time""
""fullscreenenter"",""0"",""23309""
","
",187.9,,,,,,,,51,"1,0,1",,,,,,,,,,,,,,,,
,html-keyboard-response,68,412392,0.0-45.0-0.0,"""event"",""trial"",""time""
""fullscreenenter"",""0"",""23309""
","
","
","""event"",""trial"",""time""
""fullscreenenter"",""0"",""23309""
","
",3263.8,<div class='center'><p><img src='run_exp/static/images/tutorial/prac_best_pirate.png'  height='500'></p></div>,51,,,,,,,,,,,,,,,,,,,,,,,
,html-keyboard-response,69,414230,0.0-46.0-0.0,"""event"",""trial"",""time""
""fullscreenenter"",""0"",""23309""
","
","
","""event"",""trial"",""time""
""fullscreenenter"",""0"",""23309""
","
",1836.8,<div class='center'><p>That's incorrect! Red beard was the best.</p><p><b>[Press the space bar to continue]</b></p></div>,32,,,,,,,,,,,,,,,,,,,,,,,
,html-keyboard-response,70,417288,0.0-46.0-1.0,"""event"",""trial"",""time""
""fullscreenenter"",""0"",""23309""
","
","
","""event"",""trial"",""time""
""fullscreenenter"",""0"",""23309""
","
",3057.7,<div class='center'><p><img src='run_exp/static/images/tutorial/prac_source.png'  height='500'></p></div>,50,,,,,,,,,,,,,,,,,,,,,,,
,html-keyboard-response,71,418035,0.0-47.0-0.0,"""event"",""trial"",""time""
""fullscreenenter"",""0"",""23309""
","
","
","""event"",""trial"",""time""
""fullscreenenter"",""0"",""23309""
","
",745.5,<div class='center'><p>That's correct! You saw this ship on the cavern island.</p><p><b>[Press the space bar to continue]</b></p></div>,32,,,,,,,,,,,,,,,,,,,,,,,
,quiz_beginning,72,430018,0.0-47.0-1.0,"""event"",""trial"",""time""
""fullscreenenter"",""0"",""23309""
","
","
","""event"",""trial"",""time""
""fullscreenenter"",""0"",""23309""
","
",null,run_exp/static/audio/clip_16_quiz_intro.m4a,null,,,,,"<div class='center'><p>Good job on the practice game! Now, you will be asked some true or false questions to make sure you really understand the rules of the game.</p><p> Press <b>'1'</b> on the keyboard for true and press <b>'2'</b> for false.</p></div>",,,,,,,,,,,,,,,,,,
,audio-keyboard-response,73,437301,0.0-47.0-2.0,"""event"",""trial"",""time""
""fullscreenenter"",""0"",""23309""
","
","
","""event"",""trial"",""time""
""fullscreenenter"",""0"",""23309""
","
",7281.7,run_exp/static/audio/clip_17_q1.m4a,49,,,,,,,,,,,,,,,,,,,,,,,
,correct,74,439699,0.0-48.0-0.0,"""event"",""trial"",""time""
""fullscreenenter"",""0"",""23309""
","
","
","""event"",""trial"",""time""
""fullscreenenter"",""0"",""23309""
","
",null,run_exp/static/audio/clip_18_correct.m4a,null,,,,,<div class='center'><p>That's correct!</p></div>,,,,,,,,,,,,,,,,,,
,html-keyboard-response,75,440885,0.0-48.0-1.0,"""event"",""trial"",""time""
""fullscreenenter"",""0"",""23309""
","
","
","""event"",""trial"",""time""
""fullscreenenter"",""0"",""23309""
","
",1185.7,<div class='center'><p>That's correct!</p><p><b>[Press the space bar to continue]</b></p></div>,32,,,,,,,,,,,,,,,,,,,,,,,
,audio-keyboard-response,76,446526,0.0-48.0-2.0,"""event"",""trial"",""time""
""fullscreenenter"",""0"",""23309""
","
","
","""event"",""trial"",""time""
""fullscreenenter"",""0"",""23309""
","
",5639.2,run_exp/static/audio/clip_20_q2.m4a,50,,,,,,,,,,,,,,,,,,,,,,,
,correct,77,448920,0.0-49.0-0.0,"""event"",""trial"",""time""
""fullscreenenter"",""0"",""23309""
","
","
","""event"",""trial"",""time""
""fullscreenenter"",""0"",""23309""
","
",null,run_exp/static/audio/clip_18_correct.m4a,null,,,,,<div class='center'><p>That's correct!</p></div>,,,,,,,,,,,,,,,,,,
,html-keyboard-response,78,449277,0.0-49.0-1.0,"""event"",""trial"",""time""
""fullscreenenter"",""0"",""23309""
","
","
","""event"",""trial"",""time""
""fullscreenenter"",""0"",""23309""
","
",355.7,<div class='center'><p>That's correct!</p><p><b>[Press the space bar to continue]</b></p></div>,32,,,,,,,,,,,,,,,,,,,,,,,
,audio-keyboard-response,79,453306,0.0-49.0-2.0,"""event"",""trial"",""time""
""fullscreenenter"",""0"",""23309""
","
","
","""event"",""trial"",""time""
""fullscreenenter"",""0"",""23309""
","
",4027,run_exp/static/audio/clip_22_q3.m4a,50,,,,,,,,,,,,,,,,,,,,,,,
,correct,80,455700,0.0-50.0-0.0,"""event"",""trial"",""time""
""fullscreenenter"",""0"",""23309""
","
","
","""event"",""trial"",""time""
""fullscreenenter"",""0"",""23309""
","
",null,run_exp/static/audio/clip_18_correct.m4a,null,,,,,<div class='center'><p>That's correct!</p></div>,,,,,,,,,,,,,,,,,,
,html-keyboard-response,81,455947,0.0-50.0-1.0,"""event"",""trial"",""time""
""fullscreenenter"",""0"",""23309""
","
","
","""event"",""trial"",""time""
""fullscreenenter"",""0"",""23309""
","
",244.9,<div class='center'><p>That's correct!</p><p><b>[Press the space bar to continue]</b></p></div>,32,,,,,,,,,,,,,,,,,,,,,,,
,audio-keyboard-response,82,458860,0.0-50.0-2.0,"""event"",""trial"",""time""
""fullscreenenter"",""0"",""23309""
","
","
","""event"",""trial"",""time""
""fullscreenenter"",""0"",""23309""
","
",2911.5,run_exp/static/audio/clip_24_q4.m4a,49,,,,,,,,,,,,,,,,,,,,,,,
,correct,83,461301,0.0-51.0-0.0,"""event"",""trial"",""time""
""fullscreenenter"",""0"",""23309""
","
","
","""event"",""trial"",""time""
""fullscreenenter"",""0"",""23309""
","
",null,run_exp/static/audio/clip_18_correct.m4a,null,,,,,<div class='center'><p>That's correct!</p></div>,,,,,,,,,,,,,,,,,,
,html-keyboard-response,84,461601,0.0-51.0-1.0,"""event"",""trial"",""time""
""fullscreenenter"",""0"",""23309""
","
","
","""event"",""trial"",""time""
""fullscreenenter"",""0"",""23309""
","
",298.8,<div class='center'><p>That's correct!</p><p><b>[Press the space bar to continue]</b></p></div>,32,,,,,,,,,,,,,,,,,,,,,,,
,q_all_corr,85,470079,0.0-52.0-0.0,"""event"",""trial"",""time""
""fullscreenenter"",""0"",""23309""
","
","
","""event"",""trial"",""time""
""fullscreenenter"",""0"",""23309""
","
",null,run_exp/static/audio/clip_27_quiz_all_correct.m4a,null,,,,,<div class='center'><p>Good job! You’re now ready to move on to the real game! Remember this game will be difficult but don't get discouraged and try your best!</p></div>,,,,,,,,,,,,,,,,,,
,html-keyboard-response,86,470474,0.0-52.0-1.0,"""event"",""trial"",""time""
""fullscreenenter"",""0"",""23309""
","
","
","""event"",""trial"",""time""
""fullscreenenter"",""0"",""23309""
","
",394.6,<div class='center'><p>Good job! You’re now ready to move on to the real game! Remember this game will be difficult but don't get discouraged and try your best!</p><p><b>[Press the space bar to continue]</b></p></div>,32,,,,,,,,,,,,,,,,,,,,,,,
,do_welcome,87,474488,0.0-53.0-0.0,"""event"",""trial"",""time""
""fullscreenenter"",""0"",""23309""
","
","
","""event"",""trial"",""time""
""fullscreenenter"",""0"",""23309""
","
",null,,,,,,,,null,,,,,,,,,,,,,,,,,
,do_trial,88,479368,0.0-54.0-0.0,"""event"",""trial"",""time""
""fullscreenenter"",""0"",""23309""
","
","
","""event"",""trial"",""time""
""fullscreenenter"",""0"",""23309""
","
",322.3,,,,,,,,49,"0,1,0",0,forest,0,probe-142,0.6,0.3,0.1,0,,,,,,,,
,html-keyboard-response,89,480381,0.0-54.0-1.0,"""event"",""trial"",""time""
""fullscreenenter"",""0"",""23309""
","
","
","""event"",""trial"",""time""
""fullscreenenter"",""0"",""23309""
","
",null,<p></p>,null,,,,,,,,,,,,,,,,,,,,,,,
,do_trial,90,485138,0.0-55.0-0.0,"""event"",""trial"",""time""
""fullscreenenter"",""0"",""23309""
","
","
","""event"",""trial"",""time""
""fullscreenenter"",""0"",""23309""
","
",210.5,,,,,,,,50,"1,0,0",0,forest,1,probe-180,0.561103877,0.245286526,0.210595304,0,,,,,,,,
,html-keyboard-response,91,486155,0.0-55.0-1.0,"""event"",""trial"",""time""
""fullscreenenter"",""0"",""23309""
","
","
","""event"",""trial"",""time""
""fullscreenenter"",""0"",""23309""
","
",null,<p></p>,null,,,,,,,,,,,,,,,,,,,,,,,
,do_trial,92,490951,0.0-56.0-0.0,"""event"",""trial"",""time""
""fullscreenenter"",""0"",""23309""
","
","
","""event"",""trial"",""time""
""fullscreenenter"",""0"",""23309""
","
",230.5,,,,,,,,51,"1,0,0",0,forest,2,probe-23,0.583588323,0.277537059,0.085272581,0,,,,,,,,
,html-keyboard-response,93,491960,0.0-56.0-1.0,"""event"",""trial"",""time""
""fullscreenenter"",""0"",""23309""
","
","
","""event"",""trial"",""time""
""fullscreenenter"",""0"",""23309""
","
",null,<p></p>,null,,,,,,,,,,,,,,,,,,,,,,,
,do_trial,94,496526,0.0-57.0-0.0,"""event"",""trial"",""time""
""fullscreenenter"",""0"",""23309""
","
","
","""event"",""trial"",""time""
""fullscreenenter"",""0"",""23309""
","
",15.30000001,,,,,,,,49,"1,0,0",0,forest,3,probe-217,0.670566453,0.25947101,0.118075486,1,,,,,,,,
,html-keyboard-response,95,497543,0.0-57.0-1.0,"""event"",""trial"",""time""
""fullscreenenter"",""0"",""23309""
","
","
","""event"",""trial"",""time""
""fullscreenenter"",""0"",""23309""
","
",null,<p></p>,null,,,,,,,,,,,,,,,,,,,,,,,
,do_trial,96,502309,0.0-58.0-0.0,"""event"",""trial"",""time""
""fullscreenenter"",""0"",""23309""
","
","
","""event"",""trial"",""time""
""fullscreenenter"",""0"",""23309""
","
",218.2,,,,,,,,50,"0,0,0",0,forest,4,probe-47,0.620079739,0.294064757,0.116586722,0,,,,,,,,
,html-keyboard-response,97,503325,0.0-58.0-1.0,"""event"",""trial"",""time""
""fullscreenenter"",""0"",""23309""
","
","
","""event"",""trial"",""time""
""fullscreenenter"",""0"",""23309""
","
",null,<p></p>,null,,,,,,,,,,,,,,,,,,,,,,,
,do_trial,98,508043,0.0-59.0-0.0,"""event"",""trial"",""time""
""fullscreenenter"",""0"",""23309""
","
","
","""event"",""trial"",""time""
""fullscreenenter"",""0"",""23309""
","
",176.2,,,,,,,,51,"0,0,0",0,forest,5,probe-82,0.638172701,0.376364012,0.071501944,0,,,,,,,,
,html-keyboard-response,99,509058,0.0-59.0-1.0,"""event"",""trial"",""time""
""fullscreenenter"",""0"",""23309""
","
","
","""event"",""trial"",""time""
""fullscreenenter"",""0"",""23309""
","
",null,<p></p>,null,,,,,,,,,,,,,,,,,,,,,,,
,do_trial,100,513858,0.0-60.0-0.0,"""event"",""trial"",""time""
""fullscreenenter"",""0"",""23309""
","
","
","""event"",""trial"",""time""
""fullscreenenter"",""0"",""23309""
","
",248.8,,,,,,,,49,"0,0,0",0,forest,6,probe-195,0.606014156,0.288195218,0.150119841,0,,,,,,,,
,html-keyboard-response,101,514873,0.0-60.0-1.0,"""event"",""trial"",""time""
""fullscreenenter"",""0"",""23309""
","
","
","""event"",""trial"",""time""
""fullscreenenter"",""0"",""23309""
","
",null,<p></p>,null,,,,,,,,,,,,,,,,,,,,,,,
,do_trial,102,519691,0.0-61.0-0.0,"""event"",""trial"",""time""
""fullscreenenter"",""0"",""23309""
","
","
","""event"",""trial"",""time""
""fullscreenenter"",""0"",""23309""
","
",263.5,,,,,,,,50,"0,0,0",0,forest,7,probe-133,0.537103649,0.069783958,0.056455067,0,,,,,,,,
,html-keyboard-response,103,520707,0.0-61.0-1.0,"""event"",""trial"",""time""
""fullscreenenter"",""0"",""23309""
","
","
","""event"",""trial"",""time""
""fullscreenenter"",""0"",""23309""
","
",null,<p></p>,null,,,,,,,,,,,,,,,,,,,,,,,
,do_trial,104,525355,0.0-62.0-0.0,"""event"",""trial"",""time""
""fullscreenenter"",""0"",""23309""
","
","
","""event"",""trial"",""time""
""fullscreenenter"",""0"",""23309""
","
",91.5,,,,,,,,51,"1,0,1",0,forest,8,probe-226,0.638962937,0.103068034,0.076271953,1,,,,,,,,
,html-keyboard-response,105,526372,0.0-62.0-1.0,"""event"",""trial"",""time""
""fullscreenenter"",""0"",""23309""
","
","
","""event"",""trial"",""time""
""fullscreenenter"",""0"",""23309""
","
",null,<p></p>,null,,,,,,,,,,,,,,,,,,,,,,,
,do_trial,106,531271,0.0-63.0-0.0,"""event"",""trial"",""time""
""fullscreenenter"",""0"",""23309""
","
","
","""event"",""trial"",""time""
""fullscreenenter"",""0"",""23309""
","
",354.7,,,,,,,,49,"1,0,0",0,forest,9,probe-153,0.633274061,0.200060199,0.169536436,1,,,,,,,,
,html-keyboard-response,107,532288,0.0-63.0-1.0,"""event"",""trial"",""time""
""fullscreenenter"",""0"",""23309""
","
","
","""event"",""trial"",""time""
""fullscreenenter"",""0"",""23309""
","
",null,<p></p>,null,,,,,,,,,,,,,,,,,,,,,,,
,do_trial,108,537387,0.0-64.0-0.0,"""event"",""trial"",""time""
""fullscreenenter"",""0"",""23309""
","
","
","""event"",""trial"",""time""
""fullscreenenter"",""0"",""23309""
","
",543.8,,,,,,,,50,"1,0,0",0,forest,10,probe-204,0.592695349,0.10867257,0.085291324,0,,,,,,,,
,html-keyboard-response,109,538403,0.0-64.0-1.0,"""event"",""trial"",""time""
""fullscreenenter"",""0"",""23309""
","
","
","""event"",""trial"",""time""
""fullscreenenter"",""0"",""23309""
","
",null,<p></p>,null,,,,,,,,,,,,,,,,,,,,,,,
,do_trial,110,543252,0.0-65.0-0.0,"""event"",""trial"",""time""
""fullscreenenter"",""0"",""23309""
","
","
","""event"",""trial"",""time""
""fullscreenenter"",""0"",""23309""
","
",298.9,,,,,,,,49,"0,0,0",0,forest,11,probe-158,0.545151366,0.109199094,0.096974847,0,,,,,,,,
,html-keyboard-response,111,544268,0.0-65.0-1.0,"""event"",""trial"",""time""
""fullscreenenter"",""0"",""23309""
","
","
","""event"",""trial"",""time""
""fullscreenenter"",""0"",""23309""
","
",null,<p></p>,null,,,,,,,,,,,,,,,,,,,,,,,
,do_trial,112,549036,0.0-66.0-0.0,"""event"",""trial"",""time""
""fullscreenenter"",""0"",""23309""
","
","
","""event"",""trial"",""time""
""fullscreenenter"",""0"",""23309""
","
",222.3,,,,,,,,51,"0,0,0",0,forest,12,probe-16,0.586507493,0.168067981,0.079465479,0,,,,,,,,
,html-keyboard-response,113,550048,0.0-66.0-1.0,"""event"",""trial"",""time""
""fullscreenenter"",""0"",""23309""
","
","
","""event"",""trial"",""time""
""fullscreenenter"",""0"",""23309""
","
",null,<p></p>,null,,,,,,,,,,,,,,,,,,,,,,,
,do_trial,114,554668,0.0-67.0-0.0,"""event"",""trial"",""time""
""fullscreenenter"",""0"",""23309""
","
","
","""event"",""trial"",""time""
""fullscreenenter"",""0"",""23309""
","
",59.89999998,,,,,,,,49,"0,0,0",0,forest,13,probe-104,0.46533664,0.182979544,0.252232098,0,,,,,,,,
,html-keyboard-response,115,555674,0.0-67.0-1.0,"""event"",""trial"",""time""
""fullscreenenter"",""0"",""23309""
","
","
","""event"",""trial"",""time""
""fullscreenenter"",""0"",""23309""
","
",null,<p></p>,null,,,,,,,,,,,,,,,,,,,,,,,
,do_trial,116,560667,0.0-68.0-0.0,"""event"",""trial"",""time""
""fullscreenenter"",""0"",""23309""
","
","
","""event"",""trial"",""time""
""fullscreenenter"",""0"",""23309""
","
",443.6,,,,,,,,50,"0,0,0",0,forest,14,probe-147,0.624509301,0.209170033,0.180001849,0,,,,,,,,
,html-keyboard-response,117,561682,0.0-68.0-1.0,"""event"",""trial"",""time""
""fullscreenenter"",""0"",""23309""
","
","
","""event"",""trial"",""time""
""fullscreenenter"",""0"",""23309""
","
",null,<p></p>,null,,,,,,,,,,,,,,,,,,,,,,,
,do_trial,118,566383,0.0-69.0-0.0,"""event"",""trial"",""time""
""fullscreenenter"",""0"",""23309""
","
","
","""event"",""trial"",""time""
""fullscreenenter"",""0"",""23309""
","
",152.1,,,,,,,,51,"1,0,0",0,forest,15,probe-219,0.582112907,0.337163163,0.295655075,0,,,,,,,,
,html-keyboard-response,119,567390,0.0-69.0-1.0,"""event"",""trial"",""time""
""fullscreenenter"",""0"",""23309""
","
","
","""event"",""trial"",""time""
""fullscreenenter"",""0"",""23309""
","
",null,<p></p>,null,,,,,,,,,,,,,,,,,,,,,,,
,do_trial,120,572132,0.0-70.0-0.0,"""event"",""trial"",""time""
""fullscreenenter"",""0"",""23309""
","
","
","""event"",""trial"",""time""
""fullscreenenter"",""0"",""23309""
","
",183.8,,,,,,,,49,"1,0,0",0,forest,16,probe-27,0.564172009,0.234842207,0.270371829,1,,,,,,,,
,html-keyboard-response,121,573148,0.0-70.0-1.0,"""event"",""trial"",""time""
""fullscreenenter"",""0"",""23309""
","
","
","""event"",""trial"",""time""
""fullscreenenter"",""0"",""23309""
","
",null,<p></p>,null,,,,,,,,,,,,,,,,,,,,,,,
,do_trial,122,578015,0.0-71.0-0.0,"""event"",""trial"",""time""
""fullscreenenter"",""0"",""23309""
","
","
","""event"",""trial"",""time""
""fullscreenenter"",""0"",""23309""
","
",288.3,,,,,,,,49,"1,0,1",0,forest,17,probe-207,0.567194864,0.159565118,0.220154862,1,,,,,,,,
,html-keyboard-response,123,579029,0.0-71.0-1.0,"""event"",""trial"",""time""
""fullscreenenter"",""0"",""23309""
","
","
","""event"",""trial"",""time""
""fullscreenenter"",""0"",""23309""
","
",null,<p></p>,null,,,,,,,,,,,,,,,,,,,,,,,
,do_trial,124,583840,0.0-72.0-0.0,"""event"",""trial"",""time""
""fullscreenenter"",""0"",""23309""
","
","
","""event"",""trial"",""time""
""fullscreenenter"",""0"",""23309""
","
",259.8,,,,,,,,50,"0,1,1",0,forest,18,probe-134,0.378329415,0.274079326,0.279655448,1,,,,,,,,
,html-keyboard-response,125,584846,0.0-72.0-1.0,"""event"",""trial"",""time""
""fullscreenenter"",""0"",""23309""
","
","
","""event"",""trial"",""time""
""fullscreenenter"",""0"",""23309""
","
",null,<p></p>,null,,,,,,,,,,,,,,,,,,,,,,,
,do_trial,126,589462,0.0-73.0-0.0,"""event"",""trial"",""time""
""fullscreenenter"",""0"",""23309""
","
","
","""event"",""trial"",""time""
""fullscreenenter"",""0"",""23309""
","
",71.09999996,,,,,,,,51,"1,0,0",0,forest,19,probe-225,0.4650212,0.173387278,0.284287737,0,,,,,,,,
,html-keyboard-response,127,590477,0.0-73.0-1.0,"""event"",""trial"",""time""
""fullscreenenter"",""0"",""23309""
","
","
","""event"",""trial"",""time""
""fullscreenenter"",""0"",""23309""
","
",null,<p></p>,null,,,,,,,,,,,,,,,,,,,,,,,
,do_trial,128,595212,0.0-74.0-0.0,"""event"",""trial"",""time""
""fullscreenenter"",""0"",""23309""
","
","
","""event"",""trial"",""time""
""fullscreenenter"",""0"",""23309""
","
",184.3,,,,,,,,49,"0,0,0",0,forest,20,probe-22,0.443780157,0.181681964,0.326384277,0,,,,,,,,
,html-keyboard-response,129,596228,0.0-74.0-1.0,"""event"",""trial"",""time""
""fullscreenenter"",""0"",""23309""
","
","
","""event"",""trial"",""time""
""fullscreenenter"",""0"",""23309""
","
",null,<p></p>,null,,,,,,,,,,,,,,,,,,,,,,,
,do_trial,130,601060,0.0-75.0-0.0,"""event"",""trial"",""time""
""fullscreenenter"",""0"",""23309""
","
","
","""event"",""trial"",""time""
""fullscreenenter"",""0"",""23309""
","
",257.9,,,,,,,,51,"0,0,0",0,forest,21,probe-24,0.434948334,0.203936776,0.278636941,0,,,,,,,,
,html-keyboard-response,131,602076,0.0-75.0-1.0,"""event"",""trial"",""time""
""fullscreenenter"",""0"",""23309""
","
","
","""event"",""trial"",""time""
""fullscreenenter"",""0"",""23309""
","
",null,<p></p>,null,,,,,,,,,,,,,,,,,,,,,,,
,do_trial,132,606790,0.0-76.0-0.0,"""event"",""trial"",""time""
""fullscreenenter"",""0"",""23309""
","
","
","""event"",""trial"",""time""
""fullscreenenter"",""0"",""23309""
","
",155.5,,,,,,,,50,"1,0,0",0,forest,22,probe-46,0.655737668,0.300225604,0.186466847,0,,,,,,,,
,html-keyboard-response,133,607807,0.0-76.0-1.0,"""event"",""trial"",""time""
""fullscreenenter"",""0"",""23309""
","
","
","""event"",""trial"",""time""
""fullscreenenter"",""0"",""23309""
","
",null,<p></p>,null,,,,,,,,,,,,,,,,,,,,,,,
,do_trial,134,612623,0.0-77.0-0.0,"""event"",""trial"",""time""
""fullscreenenter"",""0"",""23309""
","
","
","""event"",""trial"",""time""
""fullscreenenter"",""0"",""23309""
","
",241.7,,,,,,,,49,"0,0,1",0,forest,23,probe-149,0.72246595,0.324743555,0.201745657,0,,,,,,,,
,html-keyboard-response,135,613640,0.0-77.0-1.0,"""event"",""trial"",""time""
""fullscreenenter"",""0"",""23309""
","
","
","""event"",""trial"",""time""
""fullscreenenter"",""0"",""23309""
","
",null,<p></p>,null,,,,,,,,,,,,,,,,,,,,,,,
,do_trial,136,618255,0.0-78.0-0.0,"""event"",""trial"",""time""
""fullscreenenter"",""0"",""23309""
","
","
","""event"",""trial"",""time""
""fullscreenenter"",""0"",""23309""
","
",58,,,,,,,,49,"1,0,0",0,forest,24,probe-13,0.698057797,0.342672357,0.084472644,1,,,,,,,,
,html-keyboard-response,137,619257,0.0-78.0-1.0,"""event"",""trial"",""time""
""fullscreenenter"",""0"",""23309""
","
","
","""event"",""trial"",""time""
""fullscreenenter"",""0"",""23309""
","
",null,<p></p>,null,,,,,,,,,,,,,,,,,,,,,,,
,do_trial,138,624055,0.0-79.0-0.0,"""event"",""trial"",""time""
""fullscreenenter"",""0"",""23309""
","
","
","""event"",""trial"",""time""
""fullscreenenter"",""0"",""23309""
","
",245.9,,,,,,,,51,"1,0,1",0,forest,25,probe-93,0.76111172,0.347056101,0.217444434,1,,,,,,,,
,html-keyboard-response,139,625071,0.0-79.0-1.0,"""event"",""trial"",""time""
""fullscreenenter"",""0"",""23309""
","
","
","""event"",""trial"",""time""
""fullscreenenter"",""0"",""23309""
","
",null,<p></p>,null,,,,,,,,,,,,,,,,,,,,,,,
,do_trial,140,629970,0.0-80.0-0.0,"""event"",""trial"",""time""
""fullscreenenter"",""0"",""23309""
","
","
","""event"",""trial"",""time""
""fullscreenenter"",""0"",""23309""
","
",343.2,,,,,,,,51,"1,0,0",0,forest,26,probe-79,0.68647838,0.26305407,0.261843751,0,,,,,,,,
,html-keyboard-response,141,630981,0.0-80.0-1.0,"""event"",""trial"",""time""
""fullscreenenter"",""0"",""23309""
","
","
","""event"",""trial"",""time""
""fullscreenenter"",""0"",""23309""
","
",null,<p></p>,null,,,,,,,,,,,,,,,,,,,,,,,
,do_trial,142,635704,0.0-81.0-0.0,"""event"",""trial"",""time""
""fullscreenenter"",""0"",""23309""
","
","
","""event"",""trial"",""time""
""fullscreenenter"",""0"",""23309""
","
",170.9,,,,,,,,49,"1,1,0",0,forest,27,probe-52,0.6159023,0.324373022,0.220950935,1,,,,,,,,
,html-keyboard-response,143,636720,0.0-81.0-1.0,"""event"",""trial"",""time""
""fullscreenenter"",""0"",""23309""
","
","
","""event"",""trial"",""time""
""fullscreenenter"",""0"",""23309""
","
",null,<p></p>,null,,,,,,,,,,,,,,,,,,,,,,,
,do_trial,144,641553,0.0-82.0-0.0,"""event"",""trial"",""time""
""fullscreenenter"",""0"",""23309""
","
","
","""event"",""trial"",""time""
""fullscreenenter"",""0"",""23309""
","
",270.1,,,,,,,,50,"1,0,1",0,forest,28,probe-10,0.443654953,0.433263281,0.295645609,0,,,,,,,,
,html-keyboard-response,145,642567,0.0-82.0-1.0,"""event"",""trial"",""time""
""fullscreenenter"",""0"",""23309""
","
","
","""event"",""trial"",""time""
""fullscreenenter"",""0"",""23309""
","
",null,<p></p>,null,,,,,,,,,,,,,,,,,,,,,,,
,do_trial,146,647353,0.0-83.0-0.0,"""event"",""trial"",""time""
""fullscreenenter"",""0"",""23309""
","
","
","""event"",""trial"",""time""
""fullscreenenter"",""0"",""23309""
","
",232.8,,,,,,,,49,"1,0,1",0,forest,29,probe-77,0.416527563,0.416010275,0.28435768,1,,,,,,,,
,html-keyboard-response,147,648368,0.0-83.0-1.0,"""event"",""trial"",""time""
""fullscreenenter"",""0"",""23309""
","
","
","""event"",""trial"",""time""
""fullscreenenter"",""0"",""23309""
","
",null,<p></p>,null,,,,,,,,,,,,,,,,,,,,,,,
,do_bye,148,649885,0.0-84.0-0.0,"""event"",""trial"",""time""
""fullscreenenter"",""0"",""23309""
","
","
","""event"",""trial"",""time""
""fullscreenenter"",""0"",""23309""
","
",null,,,,,,,,null,,,,,,,,,,,,,,,,,
,break,149,654512,0.0-84.0-1.0,"""event"",""trial"",""time""
""fullscreenenter"",""0"",""23309""
","
","
","""event"",""trial"",""time""
""fullscreenenter"",""0"",""23309""
","
",4625.5,"<div class='center'><p>Time to take a quick break! You have 2 minutes to rest, but you can move on sooner if you'd like.</p><p> Press the <b>space bar</b> to continue.</p></div>",32,,,,,,,,,,,,,,,,,,,,,,,
,do_travel,150,663525,0.0-85.0-0.0,"""event"",""trial"",""time""
""fullscreenenter"",""0"",""23309""
","
","
","""event"",""trial"",""time""
""fullscreenenter"",""0"",""23309""
","
",null,,,,,,,,null,,,,,,,,,,,,,,,,,
,do_welcome,151,667535,0.0-85.0-1.0,"""event"",""trial"",""time""
""fullscreenenter"",""0"",""23309""
","
","
","""event"",""trial"",""time""
""fullscreenenter"",""0"",""23309""
","
",null,,,,,,,,null,,,,,,,,,,,,,,,,,
,do_trial,152,673276,0.0-86.0-0.0,"""event"",""trial"",""time""
""fullscreenenter"",""0"",""23309""
","
","
","""event"",""trial"",""time""
""fullscreenenter"",""0"",""23309""
","
",1188.7,,,,,,,,50,"1,1,1",1,city,30,probe-20,1,0.297486459,0.179709367,1,,,,,,,,
,html-keyboard-response,153,674285,0.0-86.0-1.0,"""event"",""trial"",""time""
""fullscreenenter"",""0"",""23309""
","
","
","""event"",""trial"",""time""
""fullscreenenter"",""0"",""23309""
","
",null,<p></p>,null,,,,,,,,,,,,,,,,,,,,,,,
,do_trial,154,679056,0.0-87.0-0.0,"""event"",""trial"",""time""
""fullscreenenter"",""0"",""23309""
","
","
","""event"",""trial"",""time""
""fullscreenenter"",""0"",""23309""
","
",208.3,,,,,,,,49,"1,0,0",1,city,31,probe-211,1,0.156695091,0.109846042,1,,,,,,,,
,html-keyboard-response,155,680072,0.0-87.0-1.0,"""event"",""trial"",""time""
""fullscreenenter"",""0"",""23309""
","
","
","""event"",""trial"",""time""
""fullscreenenter"",""0"",""23309""
","
",null,<p></p>,null,,,,,,,,,,,,,,,,,,,,,,,
,do_trial,156,684729,0.0-88.0-0.0,"""event"",""trial"",""time""
""fullscreenenter"",""0"",""23309""
","
","
","""event"",""trial"",""time""
""fullscreenenter"",""0"",""23309""
","
",101.9,,,,,,,,51,"1,0,0",1,city,32,probe-179,1,0.244400437,0.179145675,0,,,,,,,,
,html-keyboard-response,157,685746,0.0-88.0-1.0,"""event"",""trial"",""time""
""fullscreenenter"",""0"",""23309""
","
","
","""event"",""trial"",""time""
""fullscreenenter"",""0"",""23309""
","
",null,<p></p>,null,,,,,,,,,,,,,,,,,,,,,,,
,do_trial,158,690529,0.0-89.0-0.0,"""event"",""trial"",""time""
""fullscreenenter"",""0"",""23309""
","
","
","""event"",""trial"",""time""
""fullscreenenter"",""0"",""23309""
","
",225.3,,,,,,,,49,"0,0,0",1,city,33,probe-192,0.879309213,0.157093102,0.217934653,0,,,,,,,,
,html-keyboard-response,159,691544,0.0-89.0-1.0,"""event"",""trial"",""time""
""fullscreenenter"",""0"",""23309""
","
","
","""event"",""trial"",""time""
""fullscreenenter"",""0"",""23309""
","
",null,<p></p>,null,,,,,,,,,,,,,,,,,,,,,,,
,do_trial,160,696212,0.0-90.0-0.0,"""event"",""trial"",""time""
""fullscreenenter"",""0"",""23309""
","
","
","""event"",""trial"",""time""
""fullscreenenter"",""0"",""23309""
","
",126.4,,,,,,,,50,"1,0,0",1,city,34,probe-106,0.846568243,0.174617584,0.0755026,0,,,,,,,,
,html-keyboard-response,161,697219,0.0-90.0-1.0,"""event"",""trial"",""time""
""fullscreenenter"",""0"",""23309""
","
","
","""event"",""trial"",""time""
""fullscreenenter"",""0"",""23309""
","
",null,<p></p>,null,,,,,,,,,,,,,,,,,,,,,,,
,do_trial,162,701859,0.0-91.0-0.0,"""event"",""trial"",""time""
""fullscreenenter"",""0"",""23309""
","
","
","""event"",""trial"",""time""
""fullscreenenter"",""0"",""23309""
","
",93.79999995,,,,,,,,50,"1,1,0",1,city,35,probe-189,0.760082478,0.205452032,0.053895893,1,,,,,,,,
,html-keyboard-response,163,702862,0.0-91.0-1.0,"""event"",""trial"",""time""
""fullscreenenter"",""0"",""23309""
","
","
","""event"",""trial"",""time""
""fullscreenenter"",""0"",""23309""
","
",null,<p></p>,null,,,,,,,,,,,,,,,,,,,,,,,
,do_trial,164,707627,0.0-92.0-0.0,"""event"",""trial"",""time""
""fullscreenenter"",""0"",""23309""
","
","
","""event"",""trial"",""time""
""fullscreenenter"",""0"",""23309""
","
",208.2,,,,,,,,49,"1,0,0",1,city,36,probe-196,0.708951405,0.239888291,0.063256417,1,,,,,,,,
,html-keyboard-response,165,708642,0.0-92.0-1.0,"""event"",""trial"",""time""
""fullscreenenter"",""0"",""23309""
","
","
","""event"",""trial"",""time""
""fullscreenenter"",""0"",""23309""
","
",null,<p></p>,null,,,,,,,,,,,,,,,,,,,,,,,
,do_trial,166,713410,0.0-93.0-0.0,"""event"",""trial"",""time""
""fullscreenenter"",""0"",""23309""
","
","
","""event"",""trial"",""time""
""fullscreenenter"",""0"",""23309""
","
",217.9,,,,,,,,51,"1,0,0",1,city,37,probe-177,0.583823907,0.30629266,0.198883809,0,,,,,,,,
,html-keyboard-response,167,714424,0.0-93.0-1.0,"""event"",""trial"",""time""
""fullscreenenter"",""0"",""23309""
","
","
","""event"",""trial"",""time""
""fullscreenenter"",""0"",""23309""
","
",null,<p></p>,null,,,,,,,,,,,,,,,,,,,,,,,
,do_trial,168,718975,0.0-94.0-0.0,"""event"",""trial"",""time""
""fullscreenenter"",""0"",""23309""
","
","
","""event"",""trial"",""time""
""fullscreenenter"",""0"",""23309""
","
",0.099999964,,,,,,,,49,"1,1,1",1,city,38,probe-31,0.754368384,0.329968249,0.230605018,1,,,,,,,,
,html-keyboard-response,169,719990,0.0-94.0-1.0,"""event"",""trial"",""time""
""fullscreenenter"",""0"",""23309""
","
","
","""event"",""trial"",""time""
""fullscreenenter"",""0"",""23309""
","
",null,<p></p>,null,,,,,,,,,,,,,,,,,,,,,,,
,do_trial,170,724807,0.0-95.0-0.0,"""event"",""trial"",""time""
""fullscreenenter"",""0"",""23309""
","
","
","""event"",""trial"",""time""
""fullscreenenter"",""0"",""23309""
","
",268,,,,,,,,50,"0,1,0",1,city,39,probe-146,0.667039177,0.306289634,0.157206723,1,,,,,,,,
,html-keyboard-response,171,725822,0.0-95.0-1.0,"""event"",""trial"",""time""
""fullscreenenter"",""0"",""23309""
","
","
","""event"",""trial"",""time""
""fullscreenenter"",""0"",""23309""
","
",null,<p></p>,null,,,,,,,,,,,,,,,,,,,,,,,
,do_trial,172,730407,0.0-96.0-0.0,"""event"",""trial"",""time""
""fullscreenenter"",""0"",""23309""
","
","
","""event"",""trial"",""time""
""fullscreenenter"",""0"",""23309""
","
",36.5,,,,,,,,51,"1,1,0",1,city,40,probe-14,0.596911864,0.261707931,0.148475862,0,,,,,,,,
,html-keyboard-response,173,731422,0.0-96.0-1.0,"""event"",""trial"",""time""
""fullscreenenter"",""0"",""23309""
","
","
","""event"",""trial"",""time""
""fullscreenenter"",""0"",""23309""
","
",null,<p></p>,null,,,,,,,,,,,,,,,,,,,,,,,
,do_trial,174,736054,0.0-97.0-0.0,"""event"",""trial"",""time""
""fullscreenenter"",""0"",""23309""
","
","
","""event"",""trial"",""time""
""fullscreenenter"",""0"",""23309""
","
",77.59999996,,,,,,,,49,"0,1,0",1,city,41,probe-155,0.555047303,0.314790058,0.105240225,0,,,,,,,,
,html-keyboard-response,175,737071,0.0-97.0-1.0,"""event"",""trial"",""time""
""fullscreenenter"",""0"",""23309""
","
","
","""event"",""trial"",""time""
""fullscreenenter"",""0"",""23309""
","
",null,<p></p>,null,,,,,,,,,,,,,,,,,,,,,,,
,do_trial,176,741622,0.0-98.0-0.0,"""event"",""trial"",""time""
""fullscreenenter"",""0"",""23309""
","
","
","""event"",""trial"",""time""
""fullscreenenter"",""0"",""23309""
","
",0.200000048,,,,,,,,50,"0,1,1",1,city,42,probe-188,0.354205802,0.22872648,0.342364496,1,,,,,,,,
,html-keyboard-response,177,742637,0.0-98.0-1.0,"""event"",""trial"",""time""
""fullscreenenter"",""0"",""23309""
","
","
","""event"",""trial"",""time""
""fullscreenenter"",""0"",""23309""
","
",null,<p></p>,null,,,,,,,,,,,,,,,,,,,,,,,
,do_trial,178,747185,0.0-99.0-0.0,"""event"",""trial"",""time""
""fullscreenenter"",""0"",""23309""
","
","
","""event"",""trial"",""time""
""fullscreenenter"",""0"",""23309""
","
",0.100000024,,,,,,,,50,"1,1,0",1,city,43,probe-61,0.490031671,0.376001093,0.410244445,1,,,,,,,,
,html-keyboard-response,179,748202,0.0-99.0-1.0,"""event"",""trial"",""time""
""fullscreenenter"",""0"",""23309""
","
","
","""event"",""trial"",""time""
""fullscreenenter"",""0"",""23309""
","
",null,<p></p>,null,,,,,,,,,,,,,,,,,,,,,,,
,do_trial,180,753069,0.0-100.0-0.0,"""event"",""trial"",""time""
""fullscreenenter"",""0"",""23309""
","
","
","""event"",""trial"",""time""
""fullscreenenter"",""0"",""23309""
","
",312.8,,,,,,,,50,"0,0,0",1,city,44,probe-136,0.406473675,0.404412833,0.387934702,0,,,,,,,,
,html-keyboard-response,181,754084,0.0-100.0-1.0,"""event"",""trial"",""time""
""fullscreenenter"",""0"",""23309""
","
","
","""event"",""trial"",""time""
""fullscreenenter"",""0"",""23309""
","
",null,<p></p>,null,,,,,,,,,,,,,,,,,,,,,,,
,do_trial,182,758668,0.0-101.0-0.0,"""event"",""trial"",""time""
""fullscreenenter"",""0"",""23309""
","
","
","""event"",""trial"",""time""
""fullscreenenter"",""0"",""23309""
","
",33.39999998,,,,,,,,51,"0,1,0",1,city,45,probe-137,0.332564383,0.370065984,0.413271833,0,,,,,,,,
,html-keyboard-response,183,759683,0.0-101.0-1.0,"""event"",""trial"",""time""
""fullscreenenter"",""0"",""23309""
","
","
","""event"",""trial"",""time""
""fullscreenenter"",""0"",""23309""
","
",null,<p></p>,null,,,,,,,,,,,,,,,,,,,,,,,
,do_trial,184,764484,0.0-102.0-0.0,"""event"",""trial"",""time""
""fullscreenenter"",""0"",""23309""
","
","
","""event"",""trial"",""time""
""fullscreenenter"",""0"",""23309""
","
",251.1,,,,,,,,49,"1,0,0",1,city,46,probe-216,0.312111566,0.312070845,0.424031348,1,,,,,,,,
,html-keyboard-response,185,765488,0.0-102.0-1.0,"""event"",""trial"",""time""
""fullscreenenter"",""0"",""23309""
","
","
","""event"",""trial"",""time""
""fullscreenenter"",""0"",""23309""
","
",null,<p></p>,null,,,,,,,,,,,,,,,,,,,,,,,
,do_trial,186,770099,0.0-103.0-0.0,"""event"",""trial"",""time""
""fullscreenenter"",""0"",""23309""
","
","
","""event"",""trial"",""time""
""fullscreenenter"",""0"",""23309""
","
",67,,,,,,,,49,"1,1,1",1,city,47,probe-138,0.244283189,0.27405914,0.47531819,1,,,,,,,,
,html-keyboard-response,187,771115,0.0-103.0-1.0,"""event"",""trial"",""time""
""fullscreenenter"",""0"",""23309""
","
","
","""event"",""trial"",""time""
""fullscreenenter"",""0"",""23309""
","
",null,<p></p>,null,,,,,,,,,,,,,,,,,,,,,,,
,do_trial,188,775849,0.0-104.0-0.0,"""event"",""trial"",""time""
""fullscreenenter"",""0"",""23309""
","
","
","""event"",""trial"",""time""
""fullscreenenter"",""0"",""23309""
","
",183.4,,,,,,,,50,"0,1,0",1,city,48,probe-17,0.22809871,0.430723125,0.37199102,1,,,,,,,,
,html-keyboard-response,189,776864,0.0-104.0-1.0,"""event"",""trial"",""time""
""fullscreenenter"",""0"",""23309""
","
","
","""event"",""trial"",""time""
""fullscreenenter"",""0"",""23309""
","
",null,<p></p>,null,,,,,,,,,,,,,,,,,,,,,,,
,do_trial,190,781633,0.0-105.0-0.0,"""event"",""trial"",""time""
""fullscreenenter"",""0"",""23309""
","
","
","""event"",""trial"",""time""
""fullscreenenter"",""0"",""23309""
","
",223.8,,,,,,,,49,"0,1,0",1,city,49,probe-110,0.167711264,0.273543393,0.482173106,0,,,,,,,,
,html-keyboard-response,191,782646,0.0-105.0-1.0,"""event"",""trial"",""time""
""fullscreenenter"",""0"",""23309""
","
","
","""event"",""trial"",""time""
""fullscreenenter"",""0"",""23309""
","
",null,<p></p>,null,,,,,,,,,,,,,,,,,,,,,,,
,do_trial,192,787413,0.0-106.0-0.0,"""event"",""trial"",""time""
""fullscreenenter"",""0"",""23309""
","
","
","""event"",""trial"",""time""
""fullscreenenter"",""0"",""23309""
","
",221.2,,,,,,,,49,"0,0,1",1,city,50,probe-222,0.099580454,0.11899053,0.507134931,0,,,,,,,,
,html-keyboard-response,193,788429,0.0-106.0-1.0,"""event"",""trial"",""time""
""fullscreenenter"",""0"",""23309""
","
","
","""event"",""trial"",""time""
""fullscreenenter"",""0"",""23309""
","
",null,<p></p>,null,,,,,,,,,,,,,,,,,,,,,,,
,do_trial,194,793179,0.0-107.0-0.0,"""event"",""trial"",""time""
""fullscreenenter"",""0"",""23309""
","
","
","""event"",""trial"",""time""
""fullscreenenter"",""0"",""23309""
","
",192.4,,,,,,,,51,"0,0,1",1,city,51,probe-141,0.108649399,0.260995725,0.705027186,1,,,,,,,,
,html-keyboard-response,195,794193,0.0-107.0-1.0,"""event"",""trial"",""time""
""fullscreenenter"",""0"",""23309""
","
","
","""event"",""trial"",""time""
""fullscreenenter"",""0"",""23309""
","
",null,<p></p>,null,,,,,,,,,,,,,,,,,,,,,,,
,do_trial,196,798744,0.0-108.0-0.0,"""event"",""trial"",""time""
""fullscreenenter"",""0"",""23309""
","
","
","""event"",""trial"",""time""
""fullscreenenter"",""0"",""23309""
","
",0.199999988,,,,,,,,50,"0,0,1",1,city,52,probe-213,0.122966165,0.170228178,0.624967345,0,,,,,,,,
,html-keyboard-response,197,799760,0.0-108.0-1.0,"""event"",""trial"",""time""
""fullscreenenter"",""0"",""23309""
","
","
","""event"",""trial"",""time""
""fullscreenenter"",""0"",""23309""
","
",null,<p></p>,null,,,,,,,,,,,,,,,,,,,,,,,
,do_trial,198,804444,0.0-109.0-0.0,"""event"",""trial"",""time""
""fullscreenenter"",""0"",""23309""
","
","
","""event"",""trial"",""time""
""fullscreenenter"",""0"",""23309""
","
",131.7,,,,,,,,49,"0,0,1",1,city,53,probe-125,0.187660653,0.240487292,0.624662976,0,,,,,,,,
,html-keyboard-response,199,805460,0.0-109.0-1.0,"""event"",""trial"",""time""
""fullscreenenter"",""0"",""23309""
","
","
","""event"",""trial"",""time""
""fullscreenenter"",""0"",""23309""
","
",null,<p></p>,null,,,,,,,,,,,,,,,,,,,,,,,
,do_trial,200,810094,0.0-110.0-0.0,"""event"",""trial"",""time""
""fullscreenenter"",""0"",""23309""
","
","
","""event"",""trial"",""time""
""fullscreenenter"",""0"",""23309""
","
",89.5,,,,,,,,49,"0,0,1",1,city,54,probe-78,0.125814428,0.241926933,0.626083076,0,,,,,,,,
,html-keyboard-response,201,811108,0.0-110.0-1.0,"""event"",""trial"",""time""
""fullscreenenter"",""0"",""23309""
","
","
","""event"",""trial"",""time""
""fullscreenenter"",""0"",""23309""
","
",null,<p></p>,null,,,,,,,,,,,,,,,,,,,,,,,
,do_trial,202,815960,0.0-111.0-0.0,"""event"",""trial"",""time""
""fullscreenenter"",""0"",""23309""
","
","
","""event"",""trial"",""time""
""fullscreenenter"",""0"",""23309""
","
",304.7,,,,,,,,50,"0,0,0",1,city,55,probe-54,0.18793214,0.305964591,0.5982542,0,,,,,,,,
,html-keyboard-response,203,816975,0.0-111.0-1.0,"""event"",""trial"",""time""
""fullscreenenter"",""0"",""23309""
","
","
","""event"",""trial"",""time""
""fullscreenenter"",""0"",""23309""
","
",null,<p></p>,null,,,,,,,,,,,,,,,,,,,,,,,
,do_trial,204,821524,0.0-112.0-0.0,"""event"",""trial"",""time""
""fullscreenenter"",""0"",""23309""
","
","
","""event"",""trial"",""time""
""fullscreenenter"",""0"",""23309""
","
",0.100000024,,,,,,,,50,"0,0,1",1,city,56,probe-26,0.199506738,0.395538624,0.754014242,0,,,,,,,,
,html-keyboard-response,205,822539,0.0-112.0-1.0,"""event"",""trial"",""time""
""fullscreenenter"",""0"",""23309""
","
","
","""event"",""trial"",""time""
""fullscreenenter"",""0"",""23309""
","
",null,<p></p>,null,,,,,,,,,,,,,,,,,,,,,,,
,do_trial,206,827121,0.0-113.0-0.0,"""event"",""trial"",""time""
""fullscreenenter"",""0"",""23309""
","
","
","""event"",""trial"",""time""
""fullscreenenter"",""0"",""23309""
","
",38.19999999,,,,,,,,51,"0,0,0",1,city,57,probe-09,0.190771165,0.326173524,0.577420754,0,,,,,,,,
,html-keyboard-response,207,828138,0.0-113.0-1.0,"""event"",""trial"",""time""
""fullscreenenter"",""0"",""23309""
","
","
","""event"",""trial"",""time""
""fullscreenenter"",""0"",""23309""
","
",null,<p></p>,null,,,,,,,,,,,,,,,,,,,,,,,
,do_trial,208,832689,0.0-114.0-0.0,"""event"",""trial"",""time""
""fullscreenenter"",""0"",""23309""
","
","
","""event"",""trial"",""time""
""fullscreenenter"",""0"",""23309""
","
",0.100000024,,,,,,,,51,"0,0,0",1,city,58,probe-86,0.13175332,0.110283911,0.678510045,0,,,,,,,,
,html-keyboard-response,209,833705,0.0-114.0-1.0,"""event"",""trial"",""time""
""fullscreenenter"",""0"",""23309""
","
","
","""event"",""trial"",""time""
""fullscreenenter"",""0"",""23309""
","
",null,<p></p>,null,,,,,,,,,,,,,,,,,,,,,,,
,do_trial,210,838556,0.0-115.0-0.0,"""event"",""trial"",""time""
""fullscreenenter"",""0"",""23309""
","
","
","""event"",""trial"",""time""
""fullscreenenter"",""0"",""23309""
","
",306.2,,,,,,,,50,"0,0,0",1,city,59,probe-115,0.126497574,0.19399219,0.587954017,0,,,,,,,,
,html-keyboard-response,211,839571,0.0-115.0-1.0,"""event"",""trial"",""time""
""fullscreenenter"",""0"",""23309""
","
","
","""event"",""trial"",""time""
""fullscreenenter"",""0"",""23309""
","
",null,<p></p>,null,,,,,,,,,,,,,,,,,,,,,,,
,do_trial,212,844254,0.0-116.0-0.0,"""event"",""trial"",""time""
""fullscreenenter"",""0"",""23309""
","
","
","""event"",""trial"",""time""
""fullscreenenter"",""0"",""23309""
","
",126.3,,,,,,,,49,"0,1,0",1,city,60,probe-127,0.070185317,0.270929459,0.441412077,0,,,,,,,,
,html-keyboard-response,213,845270,0.0-116.0-1.0,"""event"",""trial"",""time""
""fullscreenenter"",""0"",""23309""
","
","
","""event"",""trial"",""time""
""fullscreenenter"",""0"",""23309""
","
",null,<p></p>,null,,,,,,,,,,,,,,,,,,,,,,,
,do_trial,214,849968,0.0-117.0-0.0,"""event"",""trial"",""time""
""fullscreenenter"",""0"",""23309""
","
","
","""event"",""trial"",""time""
""fullscreenenter"",""0"",""23309""
","
",145.4,,,,,,,,50,"0,0,1",1,city,61,probe-102,0.085682396,0.178438366,0.501775953,0,,,,,,,,
,html-keyboard-response,215,850986,0.0-117.0-1.0,"""event"",""trial"",""time""
""fullscreenenter"",""0"",""23309""
","
","
","""event"",""trial"",""time""
""fullscreenenter"",""0"",""23309""
","
",null,<p></p>,null,,,,,,,,,,,,,,,,,,,,,,,
,do_trial,216,855634,0.0-118.0-0.0,"""event"",""trial"",""time""
""fullscreenenter"",""0"",""23309""
","
","
","""event"",""trial"",""time""
""fullscreenenter"",""0"",""23309""
","
",94.29999995,,,,,,,,50,"0,1,1",1,city,62,probe-120,0.099468061,0.376444533,0.648218241,1,,,,,,,,
,html-keyboard-response,217,856651,0.0-118.0-1.0,"""event"",""trial"",""time""
""fullscreenenter"",""0"",""23309""
","
","
","""event"",""trial"",""time""
""fullscreenenter"",""0"",""23309""
","
",null,<p></p>,null,,,,,,,,,,,,,,,,,,,,,,,
,do_trial,218,861368,0.0-119.0-0.0,"""event"",""trial"",""time""
""fullscreenenter"",""0"",""23309""
","
","
","""event"",""trial"",""time""
""fullscreenenter"",""0"",""23309""
","
",160,,,,,,,,49,"1,0,0",1,city,63,probe-218,0.071522572,0.32449878,0.616031285,1,,,,,,,,
,html-keyboard-response,219,862382,0.0-119.0-1.0,"""event"",""trial"",""time""
""fullscreenenter"",""0"",""23309""
","
","
","""event"",""trial"",""time""
""fullscreenenter"",""0"",""23309""
","
",null,<p></p>,null,,,,,,,,,,,,,,,,,,,,,,,
,do_trial,220,867112,0.0-120.0-0.0,"""event"",""trial"",""time""
""fullscreenenter"",""0"",""23309""
","
","
","""event"",""trial"",""time""
""fullscreenenter"",""0"",""23309""
","
",173.4,,,,,,,,49,"0,0,1",1,city,64,probe-66,0.096446863,0.221665373,0.622013862,0,,,,,,,,
,html-keyboard-response,221,868117,0.0-120.0-1.0,"""event"",""trial"",""time""
""fullscreenenter"",""0"",""23309""
","
","
","""event"",""trial"",""time""
""fullscreenenter"",""0"",""23309""
","
",null,<p></p>,null,,,,,,,,,,,,,,,,,,,,,,,
,do_trial,222,872864,0.0-121.0-0.0,"""event"",""trial"",""time""
""fullscreenenter"",""0"",""23309""
","
","
","""event"",""trial"",""time""
""fullscreenenter"",""0"",""23309""
","
",188,,,,,,,,51,"0,0,0",1,city,65,probe-69,0.243495799,0.223905058,0.6249588,0,,,,,,,,
,html-keyboard-response,223,873880,0.0-121.0-1.0,"""event"",""trial"",""time""
""fullscreenenter"",""0"",""23309""
","
","
","""event"",""trial"",""time""
""fullscreenenter"",""0"",""23309""
","
",null,<p></p>,null,,,,,,,,,,,,,,,,,,,,,,,
,do_trial,224,878732,0.0-122.0-0.0,"""event"",""trial"",""time""
""fullscreenenter"",""0"",""23309""
","
","
","""event"",""trial"",""time""
""fullscreenenter"",""0"",""23309""
","
",293.1,,,,,,,,50,"1,0,1",1,city,66,probe-131,0.2487755,0.262881847,0.523036257,0,,,,,,,,
,html-keyboard-response,225,879748,0.0-122.0-1.0,"""event"",""trial"",""time""
""fullscreenenter"",""0"",""23309""
","
","
","""event"",""trial"",""time""
""fullscreenenter"",""0"",""23309""
","
",null,<p></p>,null,,,,,,,,,,,,,,,,,,,,,,,
,do_trial,226,884497,0.0-123.0-0.0,"""event"",""trial"",""time""
""fullscreenenter"",""0"",""23309""
","
","
","""event"",""trial"",""time""
""fullscreenenter"",""0"",""23309""
","
",197.5,,,,,,,,50,"1,0,0",1,city,67,probe-152,0.378516528,0.370366645,0.497815747,0,,,,,,,,
,html-keyboard-response,227,885504,0.0-123.0-1.0,"""event"",""trial"",""time""
""fullscreenenter"",""0"",""23309""
","
","
","""event"",""trial"",""time""
""fullscreenenter"",""0"",""23309""
","
",null,<p></p>,null,,,,,,,,,,,,,,,,,,,,,,,
,do_trial,228,890265,0.0-124.0-0.0,"""event"",""trial"",""time""
""fullscreenenter"",""0"",""23309""
","
","
","""event"",""trial"",""time""
""fullscreenenter"",""0"",""23309""
","
",204.8,,,,,,,,49,"1,0,0",1,city,68,probe-88,0.29123412,0.35067252,0.53478907,1,,,,,,,,
,html-keyboard-response,229,891278,0.0-124.0-1.0,"""event"",""trial"",""time""
""fullscreenenter"",""0"",""23309""
","
","
","""event"",""trial"",""time""
""fullscreenenter"",""0"",""23309""
","
",null,<p></p>,null,,,,,,,,,,,,,,,,,,,,,,,
,do_trial,230,895911,0.0-125.0-0.0,"""event"",""trial"",""time""
""fullscreenenter"",""0"",""23309""
","
","
","""event"",""trial"",""time""
""fullscreenenter"",""0"",""23309""
","
",83.69999999,,,,,,,,51,"1,0,1",1,city,69,probe-95,0.322574495,0.29832072,0.577890732,1,,,,,,,,
,html-keyboard-response,231,896928,0.0-125.0-1.0,"""event"",""trial"",""time""
""fullscreenenter"",""0"",""23309""
","
","
","""event"",""trial"",""time""
""fullscreenenter"",""0"",""23309""
","
",null,<p></p>,null,,,,,,,,,,,,,,,,,,,,,,,
,do_bye,232,898440,0.0-126.0-0.0,"""event"",""trial"",""time""
""fullscreenenter"",""0"",""23309""
","
","
","""event"",""trial"",""time""
""fullscreenenter"",""0"",""23309""
","
",null,,,,,,,,null,,,,,,,,,,,,,,,,,
,break,233,900297,0.0-126.0-1.0,"""event"",""trial"",""time""
""fullscreenenter"",""0"",""23309""
","
","
","""event"",""trial"",""time""
""fullscreenenter"",""0"",""23309""
","
",1854.9,"<div class='center'><p>Time to take a quick break! You have 2 minutes to rest, but you can move on sooner if you'd like.</p><p> Press the <b>space bar</b> to continue.</p></div>",32,,,,,,,,,,,,,,,,,,,,,,,
,do_travel,234,909315,0.0-127.0-0.0,"""event"",""trial"",""time""
""fullscreenenter"",""0"",""23309""
","
","
","""event"",""trial"",""time""
""fullscreenenter"",""0"",""23309""
","
",null,,,,,,,,null,,,,,,,,,,,,,,,,,
,do_welcome,235,913336,0.0-127.0-1.0,"""event"",""trial"",""time""
""fullscreenenter"",""0"",""23309""
","
","
","""event"",""trial"",""time""
""fullscreenenter"",""0"",""23309""
","
",null,,,,,,,,null,,,,,,,,,,,,,,,,,
,do_trial,236,918697,0.0-128.0-0.0,"""event"",""trial"",""time""
""fullscreenenter"",""0"",""23309""
","
","
","""event"",""trial"",""time""
""fullscreenenter"",""0"",""23309""
","
",787.5,,,,,,,,50,"0,0,1",2,countryside,70,probe-97,0.1381597,0.272471237,1,0,,,,,,,,
,html-keyboard-response,237,919717,0.0-128.0-1.0,"""event"",""trial"",""time""
""fullscreenenter"",""0"",""23309""
","
","
","""event"",""trial"",""time""
""fullscreenenter"",""0"",""23309""
","
",null,<p></p>,null,,,,,,,,,,,,,,,,,,,,,,,
,do_trial,238,924294,0.0-129.0-0.0,"""event"",""trial"",""time""
""fullscreenenter"",""0"",""23309""
","
","
","""event"",""trial"",""time""
""fullscreenenter"",""0"",""23309""
","
",0.199999988,,,,,,,,51,"0,0,1",2,countryside,71,probe-81,0.068446083,0.396920611,1,1,,,,,,,,
,html-keyboard-response,239,925309,0.0-129.0-1.0,"""event"",""trial"",""time""
""fullscreenenter"",""0"",""23309""
","
","
","""event"",""trial"",""time""
""fullscreenenter"",""0"",""23309""
","
",null,<p></p>,null,,,,,,,,,,,,,,,,,,,,,,,
,do_trial,240,930072,0.0-130.0-0.0,"""event"",""trial"",""time""
""fullscreenenter"",""0"",""23309""
","
","
","""event"",""trial"",""time""
""fullscreenenter"",""0"",""23309""
","
",192.4,,,,,,,,51,"0,0,1",2,countryside,72,probe-118,0.182093653,0.6357249,0.691371097,1,,,,,,,,
,html-keyboard-response,241,931089,0.0-130.0-1.0,"""event"",""trial"",""time""
""fullscreenenter"",""0"",""23309""
","
","
","""event"",""trial"",""time""
""fullscreenenter"",""0"",""23309""
","
",null,<p></p>,null,,,,,,,,,,,,,,,,,,,,,,,
,do_trial,242,935823,0.0-131.0-0.0,"""event"",""trial"",""time""
""fullscreenenter"",""0"",""23309""
","
","
","""event"",""trial"",""time""
""fullscreenenter"",""0"",""23309""
","
",157.4,,,,,,,,49,"0,0,1",2,countryside,73,probe-163,0.126889339,0.48720664,0.649534693,0,,,,,,,,
,html-keyboard-response,243,936837,0.0-131.0-1.0,"""event"",""trial"",""time""
""fullscreenenter"",""0"",""23309""
","
","
","""event"",""trial"",""time""
""fullscreenenter"",""0"",""23309""
","
",null,<p></p>,null,,,,,,,,,,,,,,,,,,,,,,,
,do_trial,244,941739,0.0-132.0-0.0,"""event"",""trial"",""time""
""fullscreenenter"",""0"",""23309""
","
","
","""event"",""trial"",""time""
""fullscreenenter"",""0"",""23309""
","
",354.4,,,,,,,,51,"0,1,0",2,countryside,74,probe-92,0.122066314,0.436219903,0.496348703,0,,,,,,,,
,html-keyboard-response,245,942746,0.0-132.0-1.0,"""event"",""trial"",""time""
""fullscreenenter"",""0"",""23309""
","
","
","""event"",""trial"",""time""
""fullscreenenter"",""0"",""23309""
","
",null,<p></p>,null,,,,,,,,,,,,,,,,,,,,,,,
,do_trial,246,947420,0.0-133.0-0.0,"""event"",""trial"",""time""
""fullscreenenter"",""0"",""23309""
","
","
","""event"",""trial"",""time""
""fullscreenenter"",""0"",""23309""
","
",127.2,,,,,,,,50,"0,1,1",2,countryside,75,probe-29,0.107653444,0.434073538,0.707022386,1,,,,,,,,
,html-keyboard-response,247,948430,0.0-133.0-1.0,"""event"",""trial"",""time""
""fullscreenenter"",""0"",""23309""
","
","
","""event"",""trial"",""time""
""fullscreenenter"",""0"",""23309""
","
",null,<p></p>,null,,,,,,,,,,,,,,,,,,,,,,,
,do_trial,248,953154,0.0-134.0-0.0,"""event"",""trial"",""time""
""fullscreenenter"",""0"",""23309""
","
","
","""event"",""trial"",""time""
""fullscreenenter"",""0"",""23309""
","
",152.8,,,,,,,,50,"0,1,1",2,countryside,76,probe-15,0.148511232,0.407429839,0.652309038,1,,,,,,,,
,html-keyboard-response,249,954167,0.0-134.0-1.0,"""event"",""trial"",""time""
""fullscreenenter"",""0"",""23309""
","
","
","""event"",""trial"",""time""
""fullscreenenter"",""0"",""23309""
","
",null,<p></p>,null,,,,,,,,,,,,,,,,,,,,,,,
,do_trial,250,958919,0.0-135.0-0.0,"""event"",""trial"",""time""
""fullscreenenter"",""0"",""23309""
","
","
","""event"",""trial"",""time""
""fullscreenenter"",""0"",""23309""
","
",194.4,,,,,,,,51,"0,1,1",2,countryside,77,probe-91,0.137518722,0.321394646,0.611275359,1,,,,,,,,
,html-keyboard-response,251,959935,0.0-135.0-1.0,"""event"",""trial"",""time""
""fullscreenenter"",""0"",""23309""
","
","
","""event"",""trial"",""time""
""fullscreenenter"",""0"",""23309""
","
",null,<p></p>,null,,,,,,,,,,,,,,,,,,,,,,,
,do_trial,252,964652,0.0-136.0-0.0,"""event"",""trial"",""time""
""fullscreenenter"",""0"",""23309""
","
","
","""event"",""trial"",""time""
""fullscreenenter"",""0"",""23309""
","
",175.3,,,,,,,,49,"0,0,1",2,countryside,78,probe-73,0.057271053,0.316566371,0.436296462,0,,,,,,,,
,html-keyboard-response,253,965665,0.0-136.0-1.0,"""event"",""trial"",""time""
""fullscreenenter"",""0"",""23309""
","
","
","""event"",""trial"",""time""
""fullscreenenter"",""0"",""23309""
","
",null,<p></p>,null,,,,,,,,,,,,,,,,,,,,,,,
,do_trial,254,970400,0.0-137.0-0.0,"""event"",""trial"",""time""
""fullscreenenter"",""0"",""23309""
","
","
","""event"",""trial"",""time""
""fullscreenenter"",""0"",""23309""
","
",176.8,,,,,,,,49,"0,0,1",2,countryside,79,probe-117,0.113798153,0.233317311,0.735474855,0,,,,,,,,
,html-keyboard-response,255,971411,0.0-137.0-1.0,"""event"",""trial"",""time""
""fullscreenenter"",""0"",""23309""
","
","
","""event"",""trial"",""time""
""fullscreenenter"",""0"",""23309""
","
",null,<p></p>,null,,,,,,,,,,,,,,,,,,,,,,,
,do_trial,256,976062,0.0-138.0-0.0,"""event"",""trial"",""time""
""fullscreenenter"",""0"",""23309""
","
","
","""event"",""trial"",""time""
""fullscreenenter"",""0"",""23309""
","
",100.6,,,,,,,,51,"0,0,1",2,countryside,80,probe-223,0.209958137,0.192711363,0.755516112,1,,,,,,,,
,html-keyboard-response,257,977065,0.0-138.0-1.0,"""event"",""trial"",""time""
""fullscreenenter"",""0"",""23309""
","
","
","""event"",""trial"",""time""
""fullscreenenter"",""0"",""23309""
","
",null,<p></p>,null,,,,,,,,,,,,,,,,,,,,,,,
,do_trial,258,981684,0.0-139.0-0.0,"""event"",""trial"",""time""
""fullscreenenter"",""0"",""23309""
","
","
","""event"",""trial"",""time""
""fullscreenenter"",""0"",""23309""
","
",66.5,,,,,,,,51,"0,1,1",2,countryside,81,probe-72,0.103392167,0.298342547,0.703282364,1,,,,,,,,
,html-keyboard-response,259,982697,0.0-139.0-1.0,"""event"",""trial"",""time""
""fullscreenenter"",""0"",""23309""
","
","
","""event"",""trial"",""time""
""fullscreenenter"",""0"",""23309""
","
",null,<p></p>,null,,,,,,,,,,,,,,,,,,,,,,,
,do_trial,260,987364,0.0-140.0-0.0,"""event"",""trial"",""time""
""fullscreenenter"",""0"",""23309""
","
","
","""event"",""trial"",""time""
""fullscreenenter"",""0"",""23309""
","
",110.6,,,,,,,,50,"0,1,1",2,countryside,82,probe-187,0.132551486,0.456723725,0.484756871,1,,,,,,,,
,html-keyboard-response,261,988379,0.0-140.0-1.0,"""event"",""trial"",""time""
""fullscreenenter"",""0"",""23309""
","
","
","""event"",""trial"",""time""
""fullscreenenter"",""0"",""23309""
","
",null,<p></p>,null,,,,,,,,,,,,,,,,,,,,,,,
,do_trial,262,992946,0.0-141.0-0.0,"""event"",""trial"",""time""
""fullscreenenter"",""0"",""23309""
","
","
","""event"",""trial"",""time""
""fullscreenenter"",""0"",""23309""
","
",16.60000002,,,,,,,,51,"0,0,1",2,countryside,83,probe-148,0.081489842,0.307946249,0.532695816,1,,,,,,,,
,html-keyboard-response,263,993961,0.0-141.0-1.0,"""event"",""trial"",""time""
""fullscreenenter"",""0"",""23309""
","
","
","""event"",""trial"",""time""
""fullscreenenter"",""0"",""23309""
","
",null,<p></p>,null,,,,,,,,,,,,,,,,,,,,,,,
,do_trial,264,998562,0.0-142.0-0.0,"""event"",""trial"",""time""
""fullscreenenter"",""0"",""23309""
","
","
","""event"",""trial"",""time""
""fullscreenenter"",""0"",""23309""
","
",47.79999995,,,,,,,,49,"0,1,0",2,countryside,84,probe-51,0.105573561,0.456060065,0.433892122,0,,,,,,,,
,html-keyboard-response,265,999578,0.0-142.0-1.0,"""event"",""trial"",""time""
""fullscreenenter"",""0"",""23309""
","
","
","""event"",""trial"",""time""
""fullscreenenter"",""0"",""23309""
","
",null,<p></p>,null,,,,,,,,,,,,,,,,,,,,,,,
,do_trial,266,1004228,0.0-143.0-0.0,"""event"",""trial"",""time""
""fullscreenenter"",""0"",""23309""
","
","
","""event"",""trial"",""time""
""fullscreenenter"",""0"",""23309""
","
",85.89999998,,,,,,,,50,"0,1,0",2,countryside,85,probe-43,0.258073315,0.683229927,0.311837635,1,,,,,,,,
,html-keyboard-response,267,1005243,0.0-143.0-1.0,"""event"",""trial"",""time""
""fullscreenenter"",""0"",""23309""
","
","
","""event"",""trial"",""time""
""fullscreenenter"",""0"",""23309""
","
",null,<p></p>,null,,,,,,,,,,,,,,,,,,,,,,,
,do_trial,268,1009945,0.0-144.0-0.0,"""event"",""trial"",""time""
""fullscreenenter"",""0"",""23309""
","
","
","""event"",""trial"",""time""
""fullscreenenter"",""0"",""23309""
","
",156.3,,,,,,,,50,"0,1,1",2,countryside,86,probe-98,0.129696494,0.771489426,0.197144009,1,,,,,,,,
,html-keyboard-response,269,1010963,0.0-144.0-1.0,"""event"",""trial"",""time""
""fullscreenenter"",""0"",""23309""
","
","
","""event"",""trial"",""time""
""fullscreenenter"",""0"",""23309""
","
",null,<p></p>,null,,,,,,,,,,,,,,,,,,,,,,,
,do_trial,270,1015593,0.0-145.0-0.0,"""event"",""trial"",""time""
""fullscreenenter"",""0"",""23309""
","
","
","""event"",""trial"",""time""
""fullscreenenter"",""0"",""23309""
","
",71.90000004,,,,,,,,51,"0,1,0",2,countryside,87,probe-21,0.14666808,0.791114822,0.212619988,0,,,,,,,,
,html-keyboard-response,271,1016609,0.0-145.0-1.0,"""event"",""trial"",""time""
""fullscreenenter"",""0"",""23309""
","
","
","""event"",""trial"",""time""
""fullscreenenter"",""0"",""23309""
","
",null,<p></p>,null,,,,,,,,,,,,,,,,,,,,,,,
,do_trial,272,1021226,0.0-146.0-0.0,"""event"",""trial"",""time""
""fullscreenenter"",""0"",""23309""
","
","
","""event"",""trial"",""time""
""fullscreenenter"",""0"",""23309""
","
",64.39999998,,,,,,,,51,"0,1,0",2,countryside,88,probe-90,0.117873718,0.669394706,0.244843565,0,,,,,,,,
,html-keyboard-response,273,1022241,0.0-146.0-1.0,"""event"",""trial"",""time""
""fullscreenenter"",""0"",""23309""
","
","
","""event"",""trial"",""time""
""fullscreenenter"",""0"",""23309""
","
",null,<p></p>,null,,,,,,,,,,,,,,,,,,,,,,,
,do_trial,274,1026974,0.0-147.0-0.0,"""event"",""trial"",""time""
""fullscreenenter"",""0"",""23309""
","
","
","""event"",""trial"",""time""
""fullscreenenter"",""0"",""23309""
","
",179.7,,,,,,,,49,"1,1,0",2,countryside,89,probe-198,0.123255359,0.683225711,0.135654745,1,,,,,,,,
,html-keyboard-response,275,1027990,0.0-147.0-1.0,"""event"",""trial"",""time""
""fullscreenenter"",""0"",""23309""
","
","
","""event"",""trial"",""time""
""fullscreenenter"",""0"",""23309""
","
",null,<p></p>,null,,,,,,,,,,,,,,,,,,,,,,,
,do_trial,276,1032772,0.0-148.0-0.0,"""event"",""trial"",""time""
""fullscreenenter"",""0"",""23309""
","
","
","""event"",""trial"",""time""
""fullscreenenter"",""0"",""23309""
","
",229.8,,,,,,,,50,"0,0,1",2,countryside,90,probe-83,0.059591378,0.723887838,0.189719762,0,,,,,,,,
,html-keyboard-response,277,1033789,0.0-148.0-1.0,"""event"",""trial"",""time""
""fullscreenenter"",""0"",""23309""
","
","
","""event"",""trial"",""time""
""fullscreenenter"",""0"",""23309""
","
",null,<p></p>,null,,,,,,,,,,,,,,,,,,,,,,,
,do_trial,278,1038537,0.0-149.0-0.0,"""event"",""trial"",""time""
""fullscreenenter"",""0"",""23309""
","
","
","""event"",""trial"",""time""
""fullscreenenter"",""0"",""23309""
","
",190.1,,,,,,,,50,"0,1,0",2,countryside,91,probe-229,0.200877314,0.688559591,0.248458489,1,,,,,,,,
,html-keyboard-response,279,1039554,0.0-149.0-1.0,"""event"",""trial"",""time""
""fullscreenenter"",""0"",""23309""
","
","
","""event"",""trial"",""time""
""fullscreenenter"",""0"",""23309""
","
",null,<p></p>,null,,,,,,,,,,,,,,,,,,,,,,,
,do_trial,280,1044454,0.0-150.0-0.0,"""event"",""trial"",""time""
""fullscreenenter"",""0"",""23309""
","
","
","""event"",""trial"",""time""
""fullscreenenter"",""0"",""23309""
","
",354.2,,,,,,,,51,"0,1,0",2,countryside,92,probe-71,0.206158152,0.660629193,0.22172966,0,,,,,,,,
,html-keyboard-response,281,1045470,0.0-150.0-1.0,"""event"",""trial"",""time""
""fullscreenenter"",""0"",""23309""
","
","
","""event"",""trial"",""time""
""fullscreenenter"",""0"",""23309""
","
",null,<p></p>,null,,,,,,,,,,,,,,,,,,,,,,,
,do_trial,282,1050271,0.0-151.0-0.0,"""event"",""trial"",""time""
""fullscreenenter"",""0"",""23309""
","
","
","""event"",""trial"",""time""
""fullscreenenter"",""0"",""23309""
","
",254.9,,,,,,,,51,"0,1,0",2,countryside,93,probe-221,0.210977859,0.659151962,0.226877258,0,,,,,,,,
,html-keyboard-response,283,1051287,0.0-151.0-1.0,"""event"",""trial"",""time""
""fullscreenenter"",""0"",""23309""
","
","
","""event"",""trial"",""time""
""fullscreenenter"",""0"",""23309""
","
",null,<p></p>,null,,,,,,,,,,,,,,,,,,,,,,,
,do_trial,284,1055869,0.0-152.0-0.0,"""event"",""trial"",""time""
""fullscreenenter"",""0"",""23309""
","
","
","""event"",""trial"",""time""
""fullscreenenter"",""0"",""23309""
","
",26.60000002,,,,,,,,49,"1,0,0",2,countryside,94,probe-185,0.275290255,0.676943046,0.285610335,1,,,,,,,,
,html-keyboard-response,285,1056874,0.0-152.0-1.0,"""event"",""trial"",""time""
""fullscreenenter"",""0"",""23309""
","
","
","""event"",""trial"",""time""
""fullscreenenter"",""0"",""23309""
","
",null,<p></p>,null,,,,,,,,,,,,,,,,,,,,,,,
,do_trial,286,1061477,0.0-153.0-0.0,"""event"",""trial"",""time""
""fullscreenenter"",""0"",""23309""
","
","
","""event"",""trial"",""time""
""fullscreenenter"",""0"",""23309""
","
",34.60000002,,,,,,,,51,"1,0,1",2,countryside,95,probe-174,0.321450016,0.592170608,0.276519425,1,,,,,,,,
,html-keyboard-response,287,1062492,0.0-153.0-1.0,"""event"",""trial"",""time""
""fullscreenenter"",""0"",""23309""
","
","
","""event"",""trial"",""time""
""fullscreenenter"",""0"",""23309""
","
",null,<p></p>,null,,,,,,,,,,,,,,,,,,,,,,,
,do_trial,288,1067284,0.0-154.0-0.0,"""event"",""trial"",""time""
""fullscreenenter"",""0"",""23309""
","
","
","""event"",""trial"",""time""
""fullscreenenter"",""0"",""23309""
","
",239.4,,,,,,,,51,"0,1,0",2,countryside,96,probe-49,0.12383175,0.558076734,0.327776963,0,,,,,,,,
,html-keyboard-response,289,1068285,0.0-154.0-1.0,"""event"",""trial"",""time""
""fullscreenenter"",""0"",""23309""
","
","
","""event"",""trial"",""time""
""fullscreenenter"",""0"",""23309""
","
",null,<p></p>,null,,,,,,,,,,,,,,,,,,,,,,,
,do_trial,290,1073021,0.0-155.0-0.0,"""event"",""trial"",""time""
""fullscreenenter"",""0"",""23309""
","
","
","""event"",""trial"",""time""
""fullscreenenter"",""0"",""23309""
","
",181.4,,,,,,,,50,"0,0,1",2,countryside,97,probe-53,0.093111754,0.394003972,0.397662938,0,,,,,,,,
,html-keyboard-response,291,1074031,0.0-155.0-1.0,"""event"",""trial"",""time""
""fullscreenenter"",""0"",""23309""
","
","
","""event"",""trial"",""time""
""fullscreenenter"",""0"",""23309""
","
",null,<p></p>,null,,,,,,,,,,,,,,,,,,,,,,,
,do_trial,292,1078816,0.0-156.0-0.0,"""event"",""trial"",""time""
""fullscreenenter"",""0"",""23309""
","
","
","""event"",""trial"",""time""
""fullscreenenter"",""0"",""23309""
","
",235.4,,,,,,,,49,"1,1,0",2,countryside,98,probe-25,0.12520095,0.496853011,0.419011138,1,,,,,,,,
,html-keyboard-response,293,1079832,0.0-156.0-1.0,"""event"",""trial"",""time""
""fullscreenenter"",""0"",""23309""
","
","
","""event"",""trial"",""time""
""fullscreenenter"",""0"",""23309""
","
",null,<p></p>,null,,,,,,,,,,,,,,,,,,,,,,,
,do_trial,294,1084832,0.0-157.0-0.0,"""event"",""trial"",""time""
""fullscreenenter"",""0"",""23309""
","
","
","""event"",""trial"",""time""
""fullscreenenter"",""0"",""23309""
","
",451.4,,,,,,,,50,"1,0,0",2,countryside,99,probe-200,0.19684828,0.48788859,0.350574782,0,,,,,,,,
,html-keyboard-response,295,1085847,0.0-157.0-1.0,"""event"",""trial"",""time""
""fullscreenenter"",""0"",""23309""
","
","
","""event"",""trial"",""time""
""fullscreenenter"",""0"",""23309""
","
",null,<p></p>,null,,,,,,,,,,,,,,,,,,,,,,,
,do_trial,296,1090821,0.0-158.0-0.0,"""event"",""trial"",""time""
""fullscreenenter"",""0"",""23309""
","
","
","""event"",""trial"",""time""
""fullscreenenter"",""0"",""23309""
","
",430,,,,,,,,51,"0,0,0",2,countryside,100,probe-154,0.310024822,0.602200551,0.37232981,0,,,,,,,,
,html-keyboard-response,297,1091830,0.0-158.0-1.0,"""event"",""trial"",""time""
""fullscreenenter"",""0"",""23309""
","
","
","""event"",""trial"",""time""
""fullscreenenter"",""0"",""23309""
","
",null,<p></p>,null,,,,,,,,,,,,,,,,,,,,,,,
,do_trial,298,1096406,0.0-159.0-0.0,"""event"",""trial"",""time""
""fullscreenenter"",""0"",""23309""
","
","
","""event"",""trial"",""time""
""fullscreenenter"",""0"",""23309""
","
",22.09999996,,,,,,,,49,"0,0,0",2,countryside,101,probe-228,0.30299238,0.57030651,0.387344258,0,,,,,,,,
,html-keyboard-response,299,1097412,0.0-159.0-1.0,"""event"",""trial"",""time""
""fullscreenenter"",""0"",""23309""
","
","
","""event"",""trial"",""time""
""fullscreenenter"",""0"",""23309""
","
",null,<p></p>,null,,,,,,,,,,,,,,,,,,,,,,,
,do_trial,300,1101973,0.0-160.0-0.0,"""event"",""trial"",""time""
""fullscreenenter"",""0"",""23309""
","
","
","""event"",""trial"",""time""
""fullscreenenter"",""0"",""23309""
","
",0.099999964,,,,,,,,50,"0,0,0",2,countryside,102,probe-44,0.238475473,0.646392127,0.280376141,0,,,,,,,,
,html-keyboard-response,301,1102977,0.0-160.0-1.0,"""event"",""trial"",""time""
""fullscreenenter"",""0"",""23309""
","
","
","""event"",""trial"",""time""
""fullscreenenter"",""0"",""23309""
","
",null,<p></p>,null,,,,,,,,,,,,,,,,,,,,,,,
,do_trial,302,1108279,0.0-161.0-0.0,"""event"",""trial"",""time""
""fullscreenenter"",""0"",""23309""
","
","
","""event"",""trial"",""time""
""fullscreenenter"",""0"",""23309""
","
",744,,,,,,,,50,"0,1,0",2,countryside,103,probe-167,0.140340202,0.578964313,0.162453912,1,,,,,,,,
,html-keyboard-response,303,1109292,0.0-161.0-1.0,"""event"",""trial"",""time""
""fullscreenenter"",""0"",""23309""
","
","
","""event"",""trial"",""time""
""fullscreenenter"",""0"",""23309""
","
",null,<p></p>,null,,,,,,,,,,,,,,,,,,,,,,,
,do_trial,304,1113856,0.0-162.0-0.0,"""event"",""trial"",""time""
""fullscreenenter"",""0"",""23309""
","
","
","""event"",""trial"",""time""
""fullscreenenter"",""0"",""23309""
","
",15.5,,,,,,,,51,"0,0,1",2,countryside,104,probe-33,0.161091768,0.653673966,0.325491482,1,,,,,,,,
,html-keyboard-response,305,1114864,0.0-162.0-1.0,"""event"",""trial"",""time""
""fullscreenenter"",""0"",""23309""
","
","
","""event"",""trial"",""time""
""fullscreenenter"",""0"",""23309""
","
",null,<p></p>,null,,,,,,,,,,,,,,,,,,,,,,,
,do_trial,306,1119575,0.0-163.0-0.0,"""event"",""trial"",""time""
""fullscreenenter"",""0"",""23309""
","
","
","""event"",""trial"",""time""
""fullscreenenter"",""0"",""23309""
","
",167.4,,,,,,,,51,"0,1,1",2,countryside,105,probe-194,0.061950383,0.713518842,0.231344799,1,,,,,,,,
,html-keyboard-response,307,1120591,0.0-163.0-1.0,"""event"",""trial"",""time""
""fullscreenenter"",""0"",""23309""
","
","
","""event"",""trial"",""time""
""fullscreenenter"",""0"",""23309""
","
",null,<p></p>,null,,,,,,,,,,,,,,,,,,,,,,,
,do_trial,308,1125137,0.0-164.0-0.0,"""event"",""trial"",""time""
""fullscreenenter"",""0"",""23309""
","
","
","""event"",""trial"",""time""
""fullscreenenter"",""0"",""23309""
","
",0.199999988,,,,,,,,50,"0,1,0",2,countryside,106,probe-99,0.147757317,0.762285313,0.281570692,1,,,,,,,,
,html-keyboard-response,309,1126142,0.0-164.0-1.0,"""event"",""trial"",""time""
""fullscreenenter"",""0"",""23309""
","
","
","""event"",""trial"",""time""
""fullscreenenter"",""0"",""23309""
","
",null,<p></p>,null,,,,,,,,,,,,,,,,,,,,,,,
,do_trial,310,1130741,0.0-165.0-0.0,"""event"",""trial"",""time""
""fullscreenenter"",""0"",""23309""
","
","
","""event"",""trial"",""time""
""fullscreenenter"",""0"",""23309""
","
",51.80000001,,,,,,,,51,"0,0,1",2,countryside,107,probe-121,0.11851466,0.706370542,0.387636968,1,,,,,,,,
,html-keyboard-response,311,1131756,0.0-165.0-1.0,"""event"",""trial"",""time""
""fullscreenenter"",""0"",""23309""
","
","
","""event"",""trial"",""time""
""fullscreenenter"",""0"",""23309""
","
",null,<p></p>,null,,,,,,,,,,,,,,,,,,,,,,,
,do_trial,312,1136639,0.0-166.0-0.0,"""event"",""trial"",""time""
""fullscreenenter"",""0"",""23309""
","
","
","""event"",""trial"",""time""
""fullscreenenter"",""0"",""23309""
","
",331.4,,,,,,,,50,"0,0,0",2,countryside,108,probe-135,0.092578192,0.574138477,0.286074093,0,,,,,,,,
,html-keyboard-response,313,1137655,0.0-166.0-1.0,"""event"",""trial"",""time""
""fullscreenenter"",""0"",""23309""
","
","
","""event"",""trial"",""time""
""fullscreenenter"",""0"",""23309""
","
",null,<p></p>,null,,,,,,,,,,,,,,,,,,,,,,,
,do_trial,314,1142299,0.0-167.0-0.0,"""event"",""trial"",""time""
""fullscreenenter"",""0"",""23309""
","
","
","""event"",""trial"",""time""
""fullscreenenter"",""0"",""23309""
","
",95.5,,,,,,,,49,"0,1,0",2,countryside,109,probe-197,0.202349207,0.564513172,0.338387585,0,,,,,,,,
,html-keyboard-response,315,1143305,0.0-167.0-1.0,"""event"",""trial"",""time""
""fullscreenenter"",""0"",""23309""
","
","
","""event"",""trial"",""time""
""fullscreenenter"",""0"",""23309""
","
",null,<p></p>,null,,,,,,,,,,,,,,,,,,,,,,,
,do_bye,316,1144821,0.0-168.0-0.0,"""event"",""trial"",""time""
""fullscreenenter"",""0"",""23309""
","
","
","""event"",""trial"",""time""
""fullscreenenter"",""0"",""23309""
","
",null,,,,,,,,null,,,,,,,,,,,,,,,,,
,break,317,1149829,0.0-168.0-1.0,"""event"",""trial"",""time""
""fullscreenenter"",""0"",""23309""
","
","
","""event"",""trial"",""time""
""fullscreenenter"",""0"",""23309""
","
",5006.8,"<div class='center'><p>Time to take a quick break! You have 2 minutes to rest, but you can move on sooner if you'd like.</p><p> Press the <b>space bar</b> to continue.</p></div>",32,,,,,,,,,,,,,,,,,,,,,,,
,do_travel,318,1158844,0.0-169.0-0.0,"""event"",""trial"",""time""
""fullscreenenter"",""0"",""23309""
","
","
","""event"",""trial"",""time""
""fullscreenenter"",""0"",""23309""
","
",null,,,,,,,,null,,,,,,,,,,,,,,,,,
,do_welcome,319,1162853,0.0-169.0-1.0,"""event"",""trial"",""time""
""fullscreenenter"",""0"",""23309""
","
","
","""event"",""trial"",""time""
""fullscreenenter"",""0"",""23309""
","
",null,,,,,,,,null,,,,,,,,,,,,,,,,,
,do_trial,320,1167984,0.0-170.0-0.0,"""event"",""trial"",""time""
""fullscreenenter"",""0"",""23309""
","
","
","""event"",""trial"",""time""
""fullscreenenter"",""0"",""23309""
","
",566.8,,,,,,,,50,"0,1,1",3,coast,110,probe-203,0.101707912,1,0.319508065,1,,,,,,,,
,html-keyboard-response,321,1168993,0.0-170.0-1.0,"""event"",""trial"",""time""
""fullscreenenter"",""0"",""23309""
","
","
","""event"",""trial"",""time""
""fullscreenenter"",""0"",""23309""
","
",null,<p></p>,null,,,,,,,,,,,,,,,,,,,,,,,
,do_trial,322,1173770,0.0-171.0-0.0,"""event"",""trial"",""time""
""fullscreenenter"",""0"",""23309""
","
","
","""event"",""trial"",""time""
""fullscreenenter"",""0"",""23309""
","
",213.6,,,,,,,,51,"0,1,0",3,coast,111,probe-114,0.142690572,1,0.209655179,0,,,,,,,,
,html-keyboard-response,323,1174773,0.0-171.0-1.0,"""event"",""trial"",""time""
""fullscreenenter"",""0"",""23309""
","
","
","""event"",""trial"",""time""
""fullscreenenter"",""0"",""23309""
","
",null,<p></p>,null,,,,,,,,,,,,,,,,,,,,,,,
,do_trial,324,1179449,0.0-172.0-0.0,"""event"",""trial"",""time""
""fullscreenenter"",""0"",""23309""
","
","
","""event"",""trial"",""time""
""fullscreenenter"",""0"",""23309""
","
",126.7,,,,,,,,51,"0,1,1",3,coast,112,probe-182,0.055399786,0.916813757,0.197606044,1,,,,,,,,
,html-keyboard-response,325,1180464,0.0-172.0-1.0,"""event"",""trial"",""time""
""fullscreenenter"",""0"",""23309""
","
","
","""event"",""trial"",""time""
""fullscreenenter"",""0"",""23309""
","
",null,<p></p>,null,,,,,,,,,,,,,,,,,,,,,,,
,do_trial,326,1185199,0.0-173.0-0.0,"""event"",""trial"",""time""
""fullscreenenter"",""0"",""23309""
","
","
","""event"",""trial"",""time""
""fullscreenenter"",""0"",""23309""
","
",182.3,,,,,,,,49,"0,1,0",3,coast,113,probe-164,0.05471744,0.751097154,0.262240385,0,,,,,,,,
,html-keyboard-response,327,1186215,0.0-173.0-1.0,"""event"",""trial"",""time""
""fullscreenenter"",""0"",""23309""
","
","
","""event"",""trial"",""time""
""fullscreenenter"",""0"",""23309""
","
",null,<p></p>,null,,,,,,,,,,,,,,,,,,,,,,,
,do_trial,328,1191148,0.0-174.0-0.0,"""event"",""trial"",""time""
""fullscreenenter"",""0"",""23309""
","
","
","""event"",""trial"",""time""
""fullscreenenter"",""0"",""23309""
","
",373,,,,,,,,50,"0,0,0",3,coast,114,probe-94,0.161995778,0.738161519,0.239159051,0,,,,,,,,
,html-keyboard-response,329,1192163,0.0-174.0-1.0,"""event"",""trial"",""time""
""fullscreenenter"",""0"",""23309""
","
","
","""event"",""trial"",""time""
""fullscreenenter"",""0"",""23309""
","
",null,<p></p>,null,,,,,,,,,,,,,,,,,,,,,,,
,do_trial,330,1196979,0.0-175.0-0.0,"""event"",""trial"",""time""
""fullscreenenter"",""0"",""23309""
","
","
","""event"",""trial"",""time""
""fullscreenenter"",""0"",""23309""
","
",263.4,,,,,,,,49,"0,1,1",3,coast,115,probe-181,0.212539043,0.750340356,0.428070338,0,,,,,,,,
