"success","trial_type","trial_index","time_elapsed","internal_node_id","rt","stimulus","key_press","subject_id","response","choice_outcomes","context_n","context_img_id","trial_n","probe_img_id","pR_red","pR_white","pR_black","outcome","contextArray_ind","validImageProbes","invalidImageProbes","pRew_Red","pRew_White","pRew_Black","availableForMemProbe","choice_blocks"
"true","fullscreen","0","11055","0.0-0.0","","","","","","","","","","","","","","","","","","","","","",""
"","pavlovia","1","11060","0.0-1.0","","","","","","","","","","","","","","","","","","","","","",""
"","html-keyboard-response","2","36752","0.0-2.0","25692","<div class='center'><p>Welcome! This is the first day of the experiment which will last ~30 minutes. In this experiment, you are the head captain of a pirate ship traveling around the world to different places. You will complete several different tasks during this experiment. Here is an overview of these tasks:</p><br><p>Day 1</p><p>1. Tutorial and quiz</p><p>2. Pick a pirate game in 6 different places</p><br><p>Day 2</p><p>3. Pick a pirate game and memory game</p><p>4. Final questions and payment</p><br><p>If you complete the entire experiment, you will receive $15 and a possible bonus payment.</p><p><b>[Press the space bar to begin the tutorial]</b></p></div>","32","5b37f1837bc6be00010c9657","","","","","","","","","","","","","","","","","",""
"","html-keyboard-response","3","48863","0.0-3.0","12109","<div class='center'><p>You’ll stop at these 6 islands on your journey. You'll be able to see them in the distance from your ship.</p><p><img src='run_exp/static/images/contexts/all_contexts.png' height='500'></p><p><b>[Press the space bar to continue]</b></p></div>","32","","","","","","","","","","","","","","","","","","",""
"","html-keyboard-response","4","67966","0.0-4.0","19102","<div class='center'><p> The pirates on your ship will rob other ships as they leave island</p> These ships have just sold their things to the people living on the island, so they will have lots and lots of gold on them.</p><p><img src='run_exp/static/images/tutorial/ship_center.png' height='400'></p><p><b>[Press the space bar to continue]</b></p></div>","32","","","","","","","","","","","","","","","","","","",""
"","html-keyboard-response","5","83094","0.0-5.0","15127","<div class='center'><p>As the head captain, you do not have to rob any ships yourself.</p><p>Another pirate will be doing the robbing for you. </p><p><img src='run_exp/static/images/tutorial/pirates_all_crop.png' height='200'></p><p>If they could rob the ship, then you will get a stack of gold coins like this:</p><p><img src='run_exp/static/images/tutorial/reward.png' height='150'></p><p> If they couldn't rob the ship, then you will get no gold coins and you'll see a big red x like this: </p><p><img src='run_exp/static/images/tutorial/reward_no.png' height='150'></p><p> How much bonus money you make is based on how many gold coins you collect.</p><p><b>[Press the space bar to continue]</b></p><div>","32","","","","","","","","","","","","","","","","","","",""
"","html-keyboard-response","6","102453","0.0-6.0","19358","<div class='center'><p>Even the most skilled pirate can not rob EVERY ship.</p><p> Some ships will have very strong defenses against pirate attacks.</p><p> For example, blue beard, here, is very, very good at robbing ships.</p><p> You can press the <b>‘1’</b> button on the keyboard to choose him.</p><p> Try choosing him 10 times to see how often he can rob a ship. </p><p><img src='run_exp/static/images/tutorial/blue.png' height='500'></p></div>","49","","","","","","","","","","","","","","","","","","",""
"","html-keyboard-response","7","103954","0.0-7.0","null","<div class='center'><p><img src='run_exp/static/images/tutorial/blue_win.png' height='500'></p></div>","null","","","","","","","","","","","","","","","","","","",""
"","html-keyboard-response","8","105293","0.0-8.0","1339","<div class='center'><img src='run_exp/static/images/tutorial/blue.png' height='500'></p></div>","49","","","","","","","","","","","","","","","","","","",""
"","html-keyboard-response","9","106794","0.0-9.0","null","<div class='center'><p><img src='run_exp/static/images/tutorial/blue_win.png' height='500'></p></div>","null","","","","","","","","","","","","","","","","","","",""
"","html-keyboard-response","10","107349","0.0-10.0","554","<div class='center'><img src='run_exp/static/images/tutorial/blue.png' height='500'></p></div>","49","","","","","","","","","","","","","","","","","","",""
"","html-keyboard-response","11","108851","0.0-11.0","null","<div class='center'><p><img src='run_exp/static/images/tutorial/blue_win.png' height='500'></p></div>","null","","","","","","","","","","","","","","","","","","",""
"","html-keyboard-response","12","109181","0.0-12.0","329","<div class='center'><img src='run_exp/static/images/tutorial/blue.png' height='500'></p></div>","49","","","","","","","","","","","","","","","","","","",""
"","html-keyboard-response","13","110682","0.0-13.0","null","<div class='center'><p><img src='run_exp/static/images/tutorial/blue_no_win.png' height='500'></p></div>","null","","","","","","","","","","","","","","","","","","",""
"","html-keyboard-response","14","111036","0.0-14.0","355","<div class='center'><img src='run_exp/static/images/tutorial/blue.png' height='500'></p></div>","49","","","","","","","","","","","","","","","","","","",""
"","html-keyboard-response","15","112537","0.0-15.0","null","<div class='center'><p><img src='run_exp/static/images/tutorial/blue_win.png' height='500'></p></div>","null","","","","","","","","","","","","","","","","","","",""
"","html-keyboard-response","16","115621","0.0-16.0","3083","<div class='center'><img src='run_exp/static/images/tutorial/blue.png' height='500'></p></div>","49","","","","","","","","","","","","","","","","","","",""
"","html-keyboard-response","17","117123","0.0-17.0","null","<div class='center'><p><img src='run_exp/static/images/tutorial/blue_win.png' height='500'></p></div>","null","","","","","","","","","","","","","","","","","","",""
"","html-keyboard-response","18","117517","0.0-18.0","394","<div class='center'><img src='run_exp/static/images/tutorial/blue.png' height='500'></p></div>","49","","","","","","","","","","","","","","","","","","",""
"","html-keyboard-response","19","119017","0.0-19.0","null","<div class='center'><p><img src='run_exp/static/images/tutorial/blue_win.png' height='500'></p></div>","null","","","","","","","","","","","","","","","","","","",""
"","html-keyboard-response","20","119653","0.0-20.0","634","<div class='center'><img src='run_exp/static/images/tutorial/blue.png' height='500'></p></div>","49","","","","","","","","","","","","","","","","","","",""
"","html-keyboard-response","21","121155","0.0-21.0","null","<div class='center'><p><img src='run_exp/static/images/tutorial/blue_no_win.png' height='500'></p></div>","null","","","","","","","","","","","","","","","","","","",""
"","html-keyboard-response","22","121524","0.0-22.0","368","<div class='center'><img src='run_exp/static/images/tutorial/blue.png' height='500'></p></div>","49","","","","","","","","","","","","","","","","","","",""
"","html-keyboard-response","23","123026","0.0-23.0","null","<div class='center'><p><img src='run_exp/static/images/tutorial/blue_win.png' height='500'></p></div>","null","","","","","","","","","","","","","","","","","","",""
"","html-keyboard-response","24","123332","0.0-24.0","305","<div class='center'><img src='run_exp/static/images/tutorial/blue.png' height='500'></p></div>","49","","","","","","","","","","","","","","","","","","",""
"","html-keyboard-response","25","124833","0.0-25.0","null","<div class='center'><p><img src='run_exp/static/images/tutorial/blue_win.png' height='500'></p></div>","null","","","","","","","","","","","","","","","","","","",""
"","html-keyboard-response","26","128797","0.0-26.0","3962","<div class='center'><p> See, he could rob the ships most of the time but not every time. </p><p><b>[Press the space bar to continue]</b></p></div>","32","","","","","","","","","","","","","","","","","","",""
"","html-keyboard-response","27","137196","0.0-27.0","8398","<div class='center'><p>You will get to choose which of three pirates you want to rob the next ship. <p>Press the <b>‘1’</b> button on your keyboard to pick the pirate with the red beard.</p><p> Press <b>‘2’</b> to pick the pirate with the white beard.</p><p> Press <b>‘3’</b> to pick the pirate with the black beard.</p><p>Try picking a pirate now!</p><p><img src='run_exp/static/images/tutorial/all_pirates.png' height='500'></p></div>","49","","","","","","","","","","","","","","","","","","",""
"","html-keyboard-response","28","139044","0.0-28.0-0.0","1846","<div class='center'><p>This pirate could rob the ship!</p><p><img src='run_exp/static/images/tutorial/red_win.png' height='500'></p><p><b>[Press the space bar to continue]</b></p></div>","32","","","","","","","","","","","","","","","","","","",""
"","html-keyboard-response","29","140308","0.0-28.0-1.0","1263","<div class='center'><p>Now try choosing another</p><p><img src='run_exp/static/images/tutorial/all_pirates.png' height='500'></p></div>","50","","","","","","","","","","","","","","","","","","",""
"","html-keyboard-response","30","141428","0.0-29.0-0.0","1118","<div class='center'><p>This pirate could not rob the ship!</p><p><img src='run_exp/static/images/tutorial/white_no_win.png' height='500'></p><p><b>[Press the space bar to continue]</b></p></div>","32","","","","","","","","","","","","","","","","","","",""
"","html-keyboard-response","31","150980","0.0-30.0-0.0","9551","<div class='center'><p>If you don’t make your choice fast enough, you’ll have to wait a few seconds before you can make another one. </p><p>You can’t collect more gold coins. You just have to sit and wait.</p><p><img src='run_exp/static/images/miscellaneous/hurry_up.png' height='500'></p><p><b>[Press the space bar to continue]</b></p></div>","32","","","","","","","","","","","","","","","","","","",""
"","html-keyboard-response","32","197811","0.0-30.0-1.0","46831","<div class='center'><p>Once you choose a pirate, you’ll be shown the ship they are robbing.</p><p>You will never rob the same ship twice.</p><p>Ships can be told apart from one another by the image on them.</p><p> Every time you see a ship, you will have to remember on which island you saw it.</p><p> Remembering correctly will help you win more bonus money!</p><p>A helpful strategy is to try to come up with a story of the object on the ship interacting with the current island scene.</p><p> For example, here, you could imagine a mug full of water in the desert. </p><p>For a ship with an apple on it on the forest island, you could imagine an apple falling from a tree in the forest.</p><p><img src='run_exp/static/images/tutorial/example_probe.png' height='500'></p><p><b>[Press the space bar to continue]</b></p></div>","32","","","","","","","","","","","","","","","","","","",""
"","html-keyboard-response","33","211906","0.0-30.0-2.0","14095","<div class='center'><p>How good a pirate is at robbing ships will depend on the current island.</p><p> A pirate may have visited the island many times before and gained a lot of practice robbing ships there.</p><p>So, they're more likely to bring back gold coins than a pirate who has never visited this island before. </p><p><b>[Press the space bar to continue]</b></p></div>","32","","","","","","","","","","","","","","","","","","",""
"","html-keyboard-response","34","230194","0.0-30.0-3.0","18286","<div class='center'><p>How good a pirate is at robbing ships can also change over the time spent on the island<p> Ships may hear from islanders about the pirates coming and will improve their protection against the attack. This may make it harder to rob them.</p><p> Ships may also become lazy and lower their protection. This may make it easier to rob them.</p><br><p>Things are always changing on the high seas! So, try your best to pay attention!</p><p><img src='run_exp/static/images/tutorial/contingency.png' height='500'></p><p><b>[Press the space bar to continue]</b></p></div>","32","","","","","","","","","","","","","","","","","","",""
"","html-keyboard-response","35","325415","0.0-30.0-4.0","95222","<div class='center'><p>Let's go over the instructions quickly again.You have two important things to do: </p><b><p> 1. Pick the pirate who is the best at robbing ships on the current island.</p></b><b><p> 2. Remember on which island a ship was robbed.</p> </b><p>How much bonus money you make is based on both. </p><br><p>Let’s try a practice game. The game will start by showing you the pirates. First pick a pirate using the <b> 1, 2, 3 </b> buttons on your keyboard. When you are shown a ship, try to remember the island you’re on by making up a story.</p><p> You only have 3 seconds to pick a pirate, so please make a choice quickly! If you are too slow, you’ll have to wait a bit during the time out.</p><p> Don’t feel rushed, but please do try to make a choice every time.</p><p>This is just a practice game, so you’re not playing for money. </p><p> Good luck, remember press <b>'1'</b> to choose red beard, <b>'2'</b> to choose white beard, and <b>'3'</b> to choose black beard</p><p><b>[Press the space bar to begin the practice game]</b></p></div>","32","","","","","","","","","","","","","","","","","","",""
"","do_welcome","36","326920","0.0-30.0-5.0","null","","","","null","","","","","","","","","","","","","","","","",""
"","do_trial","37","332397","0.0-30.0-6.0","973","","","","50","1,0,0","","","","","","","","","","","","","","","",""
"","html-keyboard-response","38","333398","0.0-31.0-0.0","null","<p></p>","null","","","","","","","","","","","","","","","","","","",""
"","do_trial","39","339406","0.0-31.0-1.0","null","","","","null","1,1,0","","","","","","","","","","","","","","","",""
"","html-keyboard-response","40","340406","0.0-32.0-0.0","null","<p></p>","null","","","","","","","","","","","","","","","","","","",""
"","do_trial","41","345501","0.0-32.0-1.0","590","","","","49","1,1,0","","","","","","","","","","","","","","","",""
"","html-keyboard-response","42","346504","0.0-33.0-0.0","null","<p></p>","null","","","","","","","","","","","","","","","","","","",""
"","do_trial","43","352044","0.0-33.0-1.0","1036","","","","51","1,0,1","","","","","","","","","","","","","","","",""
"","html-keyboard-response","44","353045","0.0-34.0-0.0","null","<p></p>","null","","","","","","","","","","","","","","","","","","",""
"","do_trial","45","359219","0.0-34.0-1.0","1672","","","","50","0,1,0","","","","","","","","","","","","","","","",""
"","html-keyboard-response","46","360220","0.0-35.0-0.0","null","<p></p>","null","","","","","","","","","","","","","","","","","","",""
"","do_trial","47","365427","0.0-35.0-1.0","703","","","","51","1,0,0","","","","","","","","","","","","","","","",""
"","do_bye","48","366931","0.0-36.0-0.0","null","","","","null","","","","","","","","","","","","","","","","",""
"","do_travel","49","372932","0.0-36.0-1.0","null","","","","null","","","","","","","","","","","","","","","","",""
"","do_welcome","50","374436","0.0-36.0-2.0","null","","","","null","","","","","","","","","","","","","","","","",""
"","do_trial","51","379507","0.0-36.0-3.0","568","","","","49","1,0,0","","","","","","","","","","","","","","","",""
"","html-keyboard-response","52","380509","0.0-37.0-0.0","null","<p></p>","null","","","","","","","","","","","","","","","","","","",""
"","do_trial","53","385509","0.0-37.0-1.0","494","","","","50","1,0,1","","","","","","","","","","","","","","","",""
"","html-keyboard-response","54","386510","0.0-38.0-0.0","null","<p></p>","null","","","","","","","","","","","","","","","","","","",""
"","do_trial","55","391331","0.0-38.0-1.0","316","","","","49","1,1,0","","","","","","","","","","","","","","","",""
"","html-keyboard-response","56","392335","0.0-39.0-0.0","null","<p></p>","null","","","","","","","","","","","","","","","","","","",""
"","do_trial","57","397138","0.0-39.0-1.0","300","","","","51","0,0,1","","","","","","","","","","","","","","","",""
"","html-keyboard-response","58","398139","0.0-40.0-0.0","null","<p></p>","null","","","","","","","","","","","","","","","","","","",""
"","do_trial","59","403050","0.0-40.0-1.0","407","","","","49","1,0,1","","","","","","","","","","","","","","","",""
"","html-keyboard-response","60","406573","0.0-41.0-0.0","3523","<div class='center'><p><img src='run_exp/static/images/tutorial/prac_best_pirate.png'  height='500'></p></div>","49","","","","","","","","","","","","","","","","","","",""
"","html-keyboard-response","61","413157","0.0-42.0-0.0","6583","<div class='center'><p>That's correct! Red beard was the best.</p><p><b>[Press the space bar to continue]</b></p></div>","32","","","","","","","","","","","","","","","","","","",""
"","html-keyboard-response","62","420029","0.0-42.0-1.0","6871","<div class='center'><p><img src='run_exp/static/images/tutorial/prac_source.png'  height='500'></p></div>","50","","","","","","","","","","","","","","","","","","",""
"","html-keyboard-response","63","421717","0.0-43.0-0.0","1687","<div class='center'><p>That's correct! You saw this ship on the cavern island.</p><p><b>[Press the space bar to continue]</b></p></div>","32","","","","","","","","","","","","","","","","","","",""
"","html-keyboard-response","64","449629","0.0-43.0-1.0","27911","<div class='center'><p>Good job on the practice game! Now, you will be asked you some true or false questions to make sure you really understand the rules of the game.</p><p> Press <b>'1'</b> on the keyboard for true and press <b>'2'</b> for false.</p><p><b>[Press the space bar to begin the quiz]</b></p></div>","32","","","","","","","","","","","","","","","","","","",""
"","html-keyboard-response","65","457629","0.0-43.0-2.0","8000","<div class='center'><p>You win bonus money by making choices as fast as possible.</p><p>Press 1 for true and press  2 for false.</p></div>","50","","","","","","","","","","","","","","","","","","",""
"","html-keyboard-response","66","459060","0.0-44.0-0.0","1431","<div class='center'><p>That's correct!</p> <p><b>[press the space bar to continue with the quiz]</b></p></div>","32","","","","","","","","","","","","","","","","","","",""
"","html-keyboard-response","67","465684","0.0-44.0-1.0","6623","<div class='center'><p>You press the <b>‘3’</b> button on the keyboard to choose the red bearded pirate. </p><p>Press 1 for true and press  2 for false.</p></div>","50","","","","","","","","","","","","","","","","","","",""
"","html-keyboard-response","68","466460","0.0-45.0-0.0","775","<div class='center'><p>That's correct!</p> <p><b>[press the space bar to continue with the quiz]</b></p></div>","32","","","","","","","","","","","","","","","","","","",""
"","html-keyboard-response","69","471420","0.0-45.0-1.0","4959","<div class='center'><p>The pirate who is the best at robbing ships on the first island will be the best on every other island.</p><p>Press 1 for true and press  2 for false.</p></div>","50","","","","","","","","","","","","","","","","","","",""
"","html-keyboard-response","70","472012","0.0-46.0-0.0","591","<div class='center'><p>That's correct!</p> <p><b>[press the space bar to continue with the quiz]</b></p></div>","32","","","","","","","","","","","","","","","","","","",""
"","html-keyboard-response","71","478116","0.0-46.0-1.0","6103","<div class='center'><p>You should remember the island where a pirate robbed a ship.</p><p>Press 1 for true and press  2 for false.</p></div>","49","","","","","","","","","","","","","","","","","","",""
"","html-keyboard-response","72","478732","0.0-47.0-0.0","609","<div class='center'><p>That's correct!</p> <p><b>[press the space bar to continue with the quiz]</b></p></div>","32","","","","","","","","","","","","","","","","","","",""
"","html-keyboard-response","73","507236","0.0-48.0-0.0","28502","<div class='center'><p>Good job! You’re now ready to move on to the real game!</p> <p><br>[press the space bar to begin!]</br></p></div>","32","","","","","","","","","","","","","","","","","","",""
"","do_welcome","74","508740","0.0-49.0-0.0","null","","","","null","","","","","","","","","","","","","","","","",""
"","do_trial","75","514096","0.0-50.0-0.0","838","","","","49","0,0,0","0","countryside","0","probe-94","0.6","0.3","0.1","0","","","","","","","",""
"","html-keyboard-response","76","515097","0.0-50.0-1.0","null","<p></p>","null","","","","","","","","","","","","","","","","","","",""
"","do_trial","77","520409","0.0-51.0-0.0","786","","","","50","1,0,0","0","countryside","1","probe-22","0.5699206925029155","0.20579384004248769","0.08721903656525584","0","","","","","","","",""
"","html-keyboard-response","78","521412","0.0-51.0-1.0","null","<p></p>","null","","","","","","","","","","","","","","","","","","",""
"","do_trial","79","526400","0.0-52.0-0.0","462","","","","51","1,1,0","0","countryside","2","probe-229","0.6012602196181568","0.2983643373039108","0.09690116933366906","0","","","","","","","",""
"","html-keyboard-response","80","527402","0.0-52.0-1.0","null","<p></p>","null","","","","","","","","","","","","","","","","","","",""
"","do_trial","81","532368","0.0-53.0-0.0","440","","","","49","0,1,1","0","countryside","3","probe-160","0.5636842712958208","0.3154756267185225","0.08501094993411437","0","","","","","","","",""
"","html-keyboard-response","82","533370","0.0-53.0-1.0","null","<p></p>","null","","","","","","","","","","","","","","","","","","",""
"","do_trial","83","538703","0.0-54.0-0.0","810","","","","49","1,0,0","0","countryside","4","probe-87","0.551584350471328","0.2208424462970919","0.12374985448176583","1","","","","","","","",""
"","html-keyboard-response","84","539706","0.0-54.0-1.0","null","<p></p>","null","","","","","","","","","","","","","","","","","","",""
"","do_trial","85","544969","0.0-55.0-0.0","737","","","","49","1,0,0","0","countryside","5","probe-188","0.5229229469655177","0.22429138256724102","0.12280524296766973","1","","","","","","","",""
"","html-keyboard-response","86","545971","0.0-55.0-1.0","null","<p></p>","null","","","","","","","","","","","","","","","","","","",""
"","do_trial","87","551153","0.0-56.0-0.0","656","","","","50","1,0,1","0","countryside","6","probe-30","0.6048572962460793","0.27993197616518495","0.19497186086851964","0","","","","","","","",""
"","html-keyboard-response","88","552155","0.0-56.0-1.0","null","<p></p>","null","","","","","","","","","","","","","","","","","","",""
"","do_trial","89","557088","0.0-57.0-0.0","407","","","","49","0,0,0","0","countryside","7","probe-39","0.45322872998666314","0.218969049799617","0.1866950558084492","0","","","","","","","",""
"","html-keyboard-response","90","558091","0.0-57.0-1.0","null","<p></p>","null","","","","","","","","","","","","","","","","","","",""
"","do_trial","91","562942","0.0-58.0-0.0","328","","","","51","0,1,1","0","countryside","8","probe-205","0.5028899544250325","0.19467758286838405","0.14630971412977153","1","","","","","","","",""
"","html-keyboard-response","92","563943","0.0-58.0-1.0","null","<p></p>","null","","","","","","","","","","","","","","","","","","",""
"","do_trial","93","568888","0.0-59.0-0.0","418","","","","51","1,0,0","0","countryside","9","probe-158","0.5507266846307538","0.11653457185823532","0.08355833145022977","0","","","","","","","",""
"","html-keyboard-response","94","569889","0.0-59.0-1.0","null","<p></p>","null","","","","","","","","","","","","","","","","","","",""
"","do_trial","95","574718","0.0-60.0-0.0","303","","","","49","0,0,0","0","countryside","10","probe-81","0.4586495064797394","0.08147965639369346","0.07613319455203496","0","","","","","","","",""
"","html-keyboard-response","96","575720","0.0-60.0-1.0","null","<p></p>","null","","","","","","","","","","","","","","","","","","",""
"","do_trial","97","580462","0.0-61.0-0.0","218","","","","50","1,0,0","0","countryside","11","probe-68","0.5389158414771097","0.127713621251453","0.13927134693372917","0","","","","","","","",""
"","html-keyboard-response","98","581465","0.0-61.0-1.0","null","<p></p>","null","","","","","","","","","","","","","","","","","","",""
"","do_trial","99","586350","0.0-62.0-0.0","363","","","","51","1,0,0","0","countryside","12","probe-130","0.5621831185718955","0.31801467606510053","0.1837844752782214","0","","","","","","","",""
"","html-keyboard-response","100","587352","0.0-62.0-1.0","null","<p></p>","null","","","","","","","","","","","","","","","","","","",""
"","do_trial","101","592229","0.0-63.0-0.0","354","","","","49","0,0,0","0","countryside","13","probe-189","0.5770159235618776","0.3792694669766919","0.17533953733510008","0","","","","","","","",""
"","html-keyboard-response","102","593231","0.0-63.0-1.0","null","<p></p>","null","","","","","","","","","","","","","","","","","","",""
"","do_trial","103","598038","0.0-64.0-0.0","282","","","","50","0,1,1","0","countryside","14","probe-179","0.46147118277129734","0.3791406169226819","0.07038798004046833","1","","","","","","","",""
"","html-keyboard-response","104","599040","0.0-64.0-1.0","null","<p></p>","null","","","","","","","","","","","","","","","","","","",""
"","do_trial","105","603877","0.0-65.0-0.0","313","","","","49","0,1,0","0","countryside","15","probe-162","0.5207403790809214","0.3256803153792568","0.05037009391463492","0","","","","","","","",""
"","html-keyboard-response","106","604879","0.0-65.0-1.0","null","<p></p>","null","","","","","","","","","","","","","","","","","","",""
"","do_trial","107","609661","0.0-66.0-0.0","258","","","","51","1,1,0","0","countryside","16","probe-178","0.5215550694717309","0.45059842800218647","0.12329730307700544","0","","","","","","","",""
"","html-keyboard-response","108","610662","0.0-66.0-1.0","null","<p></p>","null","","","","","","","","","","","","","","","","","","",""
"","do_trial","109","615574","0.0-67.0-0.0","388","","","","50","1,1,0","0","countryside","17","probe-20","0.6329467869823509","0.29129876225591084","0.08256936746952433","1","","","","","","","",""
"","html-keyboard-response","110","616574","0.0-67.0-1.0","null","<p></p>","null","","","","","","","","","","","","","","","","","","",""
"","do_trial","111","621718","0.0-68.0-0.0","619","","","","51","0,1,0","0","countryside","18","probe-218","0.653445448215169","0.37558987547203215","0.06234752218716265","0","","","","","","","",""
"","html-keyboard-response","112","622720","0.0-68.0-1.0","null","<p></p>","null","","","","","","","","","","","","","","","","","","",""
"","do_trial","113","627565","0.0-69.0-0.0","321","","","","50","0,1,1","0","countryside","19","probe-69","0.5626861310851681","0.39395268542399287","0.13864788669640887","1","","","","","","","",""
"","html-keyboard-response","114","628568","0.0-69.0-1.0","null","<p></p>","null","","","","","","","","","","","","","","","","","","",""
"","do_trial","115","633928","0.0-70.0-0.0","834","","","","50","1,0,1","0","countryside","20","probe-225","0.6249374246290335","0.17008791140053556","0.21459168340857834","0","","","","","","","",""
"","html-keyboard-response","116","634929","0.0-70.0-1.0","null","<p></p>","null","","","","","","","","","","","","","","","","","","",""
"","do_trial","117","639750","0.0-71.0-0.0","290","","","","51","0,1,0","0","countryside","21","probe-169","0.48561192200891146","0.2962679295563585","0.2921982943683287","0","","","","","","","",""
"","html-keyboard-response","118","640753","0.0-71.0-1.0","null","<p></p>","null","","","","","","","","","","","","","","","","","","",""
"","do_trial","119","645620","0.0-72.0-0.0","341","","","","50","1,0,0","0","countryside","22","probe-198","0.561692043732229","0.30001679944746357","0.2615737054191017","0","","","","","","","",""
"","html-keyboard-response","120","646622","0.0-72.0-1.0","null","<p></p>","null","","","","","","","","","","","","","","","","","","",""
"","do_trial","121","651548","0.0-73.0-0.0","398","","","","49","0,1,0","0","countryside","23","probe-134","0.6155173218042682","0.41416750985949885","0.2430771274885697","0","","","","","","","",""
"","html-keyboard-response","122","652551","0.0-73.0-1.0","null","<p></p>","null","","","","","","","","","","","","","","","","","","",""
"","do_trial","123","657572","0.0-74.0-0.0","495","","","","49","0,0,0","0","countryside","24","probe-104","0.70852446509112","0.3413127049792013","0.235013222289925","0","","","","","","","",""
"","html-keyboard-response","124","658575","0.0-74.0-1.0","null","<p></p>","null","","","","","","","","","","","","","","","","","","",""
"","do_trial","125","663509","0.0-75.0-0.0","408","","","","50","1,0,0","0","countryside","25","probe-150","0.7513017184262917","0.2915136655225845","0.13290543864719756","0","","","","","","","",""
"","html-keyboard-response","126","664512","0.0-75.0-1.0","null","<p></p>","null","","","","","","","","","","","","","","","","","","",""
"","do_trial","127","669308","0.0-76.0-0.0","269","","","","51","1,0,0","0","countryside","26","probe-16","0.6907741624189201","0.32867261479464915","0.0810386307718136","0","","","","","","","",""
"","html-keyboard-response","128","670310","0.0-76.0-1.0","null","<p></p>","null","","","","","","","","","","","","","","","","","","",""
"","do_trial","129","675516","0.0-77.0-0.0","679","","","","49","0,1,0","0","countryside","27","probe-07","0.692571415329718","0.4345156116508675","0.09669922495543892","0","","","","","","","",""
"","html-keyboard-response","130","676517","0.0-77.0-1.0","null","<p></p>","null","","","","","","","","","","","","","","","","","","",""
"","do_trial","131","681564","0.0-78.0-0.0","520","","","","51","1,1,0","0","countryside","28","probe-126","0.5528387527915775","0.5042928962442275","0.12961906861891254","0","","","","","","","",""
"","html-keyboard-response","132","682565","0.0-78.0-1.0","null","<p></p>","null","","","","","","","","","","","","","","","","","","",""
"","do_trial","133","687468","0.0-79.0-0.0","376","","","","50","1,0,1","0","countryside","29","probe-191","0.5911728543274214","0.4919816442404685","0.14265110969827144","0","","","","","","","",""
"","html-keyboard-response","134","688469","0.0-79.0-1.0","null","<p></p>","null","","","","","","","","","","","","","","","","","","",""
"","do_bye","135","689972","0.0-80.0-0.0","null","","","","null","","","","","","","","","","","","","","","","",""
"","do_travel","136","695974","0.0-81.0-0.0","null","","","","null","","","","","","","","","","","","","","","","",""
"","do_welcome","137","697477","0.0-81.0-1.0","null","","","","null","","","","","","","","","","","","","","","","",""
"","do_trial","138","702628","0.0-82.0-0.0","623","","","","51","1,0,0","1","coast","30","probe-93","1","0.3806882112315112","0.2215744347049018","0","","","","","","","",""
"","html-keyboard-response","139","703630","0.0-82.0-1.0","null","<p></p>","null","","","","","","","","","","","","","","","","","","",""
"","do_trial","140","708540","0.0-83.0-0.0","382","","","","50","1,1,0","1","coast","31","probe-106","1","0.32258646872277674","0.131026084279194","1","","","","","","","",""
"","html-keyboard-response","141","709542","0.0-83.0-1.0","null","<p></p>","null","","","","","","","","","","","","","","","","","","",""
"","do_trial","142","714323","0.0-84.0-0.0","256","","","","49","1,1,0","1","coast","32","probe-21","1","0.3341206859200363","0.2284582681888883","1","","","","","","","",""
"","html-keyboard-response","143","715326","0.0-84.0-1.0","null","<p></p>","null","","","","","","","","","","","","","","","","","","",""
"","do_trial","144","720139","0.0-85.0-0.0","290","","","","50","1,1,0","1","coast","33","probe-28","0.8484693783746735","0.3560090493597805","0.14392782461048678","1","","","","","","","",""
"","html-keyboard-response","145","721141","0.0-85.0-1.0","null","<p></p>","null","","","","","","","","","","","","","","","","","","",""
"","do_trial","146","725939","0.0-86.0-0.0","275","","","","49","1,1,0","1","coast","34","probe-105","0.666717463927239","0.3524733374499248","0.07090779028662643","1","","","","","","","",""
"","html-keyboard-response","147","726940","0.0-86.0-1.0","null","<p></p>","null","","","","","","","","","","","","","","","","","","",""
"","do_trial","148","731714","0.0-87.0-0.0","250","","","","50","1,0,0","1","coast","35","probe-136","0.7359598617830286","0.2518185043848237","0.07668713270750374","0","","","","","","","",""
"","html-keyboard-response","149","732717","0.0-87.0-1.0","null","<p></p>","null","","","","","","","","","","","","","","","","","","",""
"","do_trial","150","737489","0.0-88.0-0.0","250","","","","49","1,1,0","1","coast","36","probe-56","0.7836020836036651","0.36185363861032876","0.11689845040869536","1","","","","","","","",""
"","html-keyboard-response","151","738491","0.0-88.0-1.0","null","<p></p>","null","","","","","","","","","","","","","","","","","","",""
"","do_trial","152","743259","0.0-89.0-0.0","244","","","","51","1,0,0","1","coast","37","probe-46","0.8242007290127343","0.28347911637516193","0.16837612748355557","0","","","","","","","",""
"","html-keyboard-response","153","744261","0.0-89.0-1.0","null","<p></p>","null","","","","","","","","","","","","","","","","","","",""
"","do_trial","154","749020","0.0-90.0-0.0","234","","","","49","0,1,0","1","coast","38","probe-42","0.6664668545029073","0.19232582080068455","0.27648884965193155","0","","","","","","","",""
"","html-keyboard-response","155","750022","0.0-90.0-1.0","null","<p></p>","null","","","","","","","","","","","","","","","","","","",""
"","do_trial","156","754803","0.0-91.0-0.0","256","","","","50","0,0,0","1","coast","39","probe-86","0.5889336247568113","0.3108159359961814","0.2608159179427885","0","","","","","","","",""
"","html-keyboard-response","157","755804","0.0-91.0-1.0","null","<p></p>","null","","","","","","","","","","","","","","","","","","",""
"","do_trial","158","760515","0.0-92.0-0.0","185","","","","49","0,1,0","1","coast","40","probe-151","0.6760134891308015","0.2323617801382311","0.2846877864721488","0","","","","","","","",""
"","html-keyboard-response","159","761524","0.0-92.0-1.0","null","<p></p>","null","","","","","","","","","","","","","","","","","","",""
"","do_trial","160","766226","0.0-93.0-0.0","177","","","","50","1,0,0","1","coast","41","probe-03","0.5047699677182275","0.26618077459513656","0.19413384117197385","0","","","","","","","",""
"","html-keyboard-response","161","767236","0.0-93.0-1.0","null","<p></p>","null","","","","","","","","","","","","","","","","","","",""
"","do_trial","162","772237","0.0-94.0-0.0","472","","","","51","1,0,1","1","coast","42","probe-181","0.35647450650511814","0.2083883622285132","0.3891611137798758","1","","","","","","","",""
"","html-keyboard-response","163","773247","0.0-94.0-1.0","null","<p></p>","null","","","","","","","","","","","","","","","","","","",""
"","do_trial","164","778067","0.0-95.0-0.0","287","","","","50","0,0,1","1","coast","43","probe-35","0.15685148135575713","0.24876742862673165","0.38768018544974253","0","","","","","","","",""
"","html-keyboard-response","165","779077","0.0-95.0-1.0","null","<p></p>","null","","","","","","","","","","","","","","","","","","",""
"","do_trial","166","784019","0.0-96.0-0.0","414","","","","51","0,0,1","1","coast","44","probe-129","0.057405001581970164","0.32886259228966347","0.5067925546489547","1","","","","","","","",""
"","html-keyboard-response","167","785028","0.0-96.0-1.0","null","<p></p>","null","","","","","","","","","","","","","","","","","","",""
"","do_trial","168","789609","0.0-97.0-0.0","47","","","","49","1,1,0","1","coast","45","probe-230","0.2789718213046971","0.23670410126277872","0.6881316516860808","1","","","","","","","",""
"","html-keyboard-response","169","790618","0.0-97.0-1.0","null","<p></p>","null","","","","","","","","","","","","","","","","","","",""
"","do_trial","170","795289","0.0-98.0-0.0","148","","","","51","1,0,0","1","coast","46","probe-184","0.2102775031337509","0.31731168714799113","0.6386376261366048","0","","","","","","","",""
"","html-keyboard-response","171","796299","0.0-98.0-1.0","null","<p></p>","null","","","","","","","","","","","","","","","","","","",""
"","do_trial","172","801050","0.0-99.0-0.0","217","","","","50","0,0,0","1","coast","47","probe-152","0.1639202994723781","0.3400879722780152","0.503173597690406","0","","","","","","","",""
"","html-keyboard-response","173","802051","0.0-99.0-1.0","null","<p></p>","null","","","","","","","","","","","","","","","","","","",""
"","do_trial","174","807177","0.0-100.0-0.0","601","","","","49","0,0,1","1","coast","48","probe-73","0.10112996373868167","0.2731359877023218","0.4345800674908835","0","","","","","","","",""
"","html-keyboard-response","175","808180","0.0-100.0-1.0","null","<p></p>","null","","","","","","","","","","","","","","","","","","",""
"","do_trial","176","813001","0.0-101.0-0.0","293","","","","51","0,0,0","1","coast","49","probe-201","0.2044656760428294","0.1567586832495797","0.3860736276423411","0","","","","","","","",""
"","html-keyboard-response","177","814003","0.0-101.0-1.0","null","<p></p>","null","","","","","","","","","","","","","","","","","","",""
"","do_trial","178","818784","0.0-102.0-0.0","257","","","","50","0,0,1","1","coast","50","probe-199","0.23250444833969258","0.17528096603709384","0.45641444995339747","0","","","","","","","",""
"","html-keyboard-response","179","819787","0.0-102.0-1.0","null","<p></p>","null","","","","","","","","","","","","","","","","","","",""
"","do_trial","180","824577","0.0-103.0-0.0","266","","","","49","0,0,0","1","coast","51","probe-57","0.1579836905851564","0.28007037013490466","0.48783094183683107","0","","","","","","","",""
"","html-keyboard-response","181","825579","0.0-103.0-1.0","null","<p></p>","null","","","","","","","","","","","","","","","","","","",""
"","do_trial","182","830378","0.0-104.0-0.0","273","","","","50","0,0,1","1","coast","52","probe-74","0.13731576278826127","0.25873541791862253","0.4784957778121377","0","","","","","","","",""
"","html-keyboard-response","183","831381","0.0-104.0-1.0","null","<p></p>","null","","","","","","","","","","","","","","","","","","",""
"","do_trial","184","836121","0.0-105.0-0.0","223","","","","49","0,0,0","1","coast","53","probe-172","0.1556162274170814","0.3794310849863973","0.5176146840092687","0","","","","","","","",""
"","html-keyboard-response","185","837124","0.0-105.0-1.0","null","<p></p>","null","","","","","","","","","","","","","","","","","","",""
"","do_trial","186","841971","0.0-106.0-0.0","317","","","","51","0,0,1","1","coast","54","probe-202","0.24820606602946618","0.4031814487751701","0.62413757078511","1","","","","","","","",""
"","html-keyboard-response","187","842974","0.0-106.0-1.0","null","<p></p>","null","","","","","","","","","","","","","","","","","","",""
"","do_trial","188","847767","0.0-107.0-0.0","270","","","","51","0,1,0","1","coast","55","probe-196","0.16048851770826225","0.2682194432910831","0.5973751159949824","0","","","","","","","",""
"","html-keyboard-response","189","848770","0.0-107.0-1.0","null","<p></p>","null","","","","","","","","","","","","","","","","","","",""
"","do_trial","190","853600","0.0-108.0-0.0","306","","","","49","0,0,0","1","coast","56","probe-115","0.08671096501969318","0.0743208341932241","0.5707823694801888","0","","","","","","","",""
"","html-keyboard-response","191","854603","0.0-108.0-1.0","null","<p></p>","null","","","","","","","","","","","","","","","","","","",""
"","do_trial","192","859401","0.0-109.0-0.0","271","","","","50","0,0,1","1","coast","57","probe-91","0.1355839886057912","0.07771283143577919","0.5113220954975891","0","","","","","","","",""
"","html-keyboard-response","193","860403","0.0-109.0-1.0","null","<p></p>","null","","","","","","","","","","","","","","","","","","",""
"","do_trial","194","865255","0.0-110.0-0.0","328","","","","51","0,0,1","1","coast","58","probe-60","0.08463915096359276","0.18511670760065016","0.5462672532525891","1","","","","","","","",""
"","html-keyboard-response","195","866257","0.0-110.0-1.0","null","<p></p>","null","","","","","","","","","","","","","","","","","","",""
"","do_trial","196","871063","0.0-111.0-0.0","282","","","","49","1,0,0","1","coast","59","probe-61","0.27681288773897206","0.10598959437989529","0.6937296131269786","1","","","","","","","",""
"","html-keyboard-response","197","872066","0.0-111.0-1.0","null","<p></p>","null","","","","","","","","","","","","","","","","","","",""
"","do_trial","198","876918","0.0-112.0-0.0","330","","","","50","1,0,1","1","coast","60","probe-192","0.08586308633370125","0.255246974571568","0.7255312438214372","0","","","","","","","",""
"","html-keyboard-response","199","877921","0.0-112.0-1.0","null","<p></p>","null","","","","","","","","","","","","","","","","","","",""
"","do_trial","200","882686","0.0-113.0-0.0","242","","","","49","0,0,1","1","coast","61","probe-107","0.07502908460788787","0.3666955931615249","0.8049850348167102","0","","","","","","","",""
"","html-keyboard-response","201","883689","0.0-113.0-1.0","null","<p></p>","null","","","","","","","","","","","","","","","","","","",""
"","do_trial","202","888574","0.0-114.0-0.0","361","","","","51","0,0,1","1","coast","62","probe-114","0.15976600653394957","0.4416464262127844","0.8786869720853308","1","","","","","","","",""
"","html-keyboard-response","203","889577","0.0-114.0-1.0","null","<p></p>","null","","","","","","","","","","","","","","","","","","",""
"","do_trial","204","894495","0.0-115.0-0.0","392","","","","50","0,1,1","1","coast","63","probe-51","0.11874573573639965","0.5176209462624509","0.7499867700781596","1","","","","","","","",""
"","html-keyboard-response","205","895499","0.0-115.0-1.0","null","<p></p>","null","","","","","","","","","","","","","","","","","","",""
"","do_trial","206","900439","0.0-116.0-0.0","416","","","","49","0,0,1","1","coast","64","probe-76","0.08378103521872177","0.30492349418994985","0.7950831734241922","0","","","","","","","",""
"","html-keyboard-response","207","901441","0.0-116.0-1.0","null","<p></p>","null","","","","","","","","","","","","","","","","","","",""
"","do_trial","208","906817","0.0-117.0-0.0","849","","","","50","1,1,1","1","coast","65","probe-228","0.12643052702733798","0.4332795828549294","0.6115445112369065","1","","","","","","","",""
"","html-keyboard-response","209","907820","0.0-117.0-1.0","null","<p></p>","null","","","","","","","","","","","","","","","","","","",""
"","do_trial","210","912769","0.0-118.0-0.0","425","","","","51","0,0,1","1","coast","66","probe-66","0.15729638589506978","0.3338588209888371","0.4538629422134137","1","","","","","","","",""
"","html-keyboard-response","211","913772","0.0-118.0-1.0","null","<p></p>","null","","","","","","","","","","","","","","","","","","",""
"","do_trial","212","918678","0.0-119.0-0.0","382","","","","49","0,1,0","1","coast","67","probe-71","0.06857795137000487","0.474033724017682","0.5768090581442894","0","","","","","","","",""
"","html-keyboard-response","213","919680","0.0-119.0-1.0","null","<p></p>","null","","","","","","","","","","","","","","","","","","",""
"","do_trial","214","924417","0.0-120.0-0.0","210","","","","50","0,1,0","1","coast","68","probe-219","0.24360257566500315","0.3571562613414973","0.54955730831822","1","","","","","","","",""
"","html-keyboard-response","215","925419","0.0-120.0-1.0","null","<p></p>","null","","","","","","","","","","","","","","","","","","",""
"","do_trial","216","930238","0.0-121.0-0.0","296","","","","51","0,0,0","1","coast","69","probe-132","0.1712784435969916","0.2014332597708878","0.6086504068523474","0","","","","","","","",""
"","html-keyboard-response","217","931241","0.0-121.0-1.0","null","<p></p>","null","","","","","","","","","","","","","","","","","","",""
"","do_bye","218","932744","0.0-122.0-0.0","null","","","","null","","","","","","","","","","","","","","","","",""
"","do_travel","219","938746","0.0-123.0-0.0","null","","","","null","","","","","","","","","","","","","","","","",""
"","do_welcome","220","940249","0.0-123.0-1.0","null","","","","null","","","","","","","","","","","","","","","","",""
"","do_trial","221","945533","0.0-124.0-0.0","760","","","","49","0,0,1","2","forest","70","probe-67","0.15536579600976283","0.1422024266040876","1","0","","","","","","","",""
"","html-keyboard-response","222","946533","0.0-124.0-1.0","null","<p></p>","null","","","","","","","","","","","","","","","","","","",""
"","do_trial","223","951316","0.0-125.0-0.0","260","","","","51","0,1,1","2","forest","71","probe-186","0.15953552979573915","0.19948516460341673","1","1","","","","","","","",""
"","html-keyboard-response","224","952318","0.0-125.0-1.0","null","<p></p>","null","","","","","","","","","","","","","","","","","","",""
"","do_trial","225","957108","0.0-126.0-0.0","267","","","","50","0,0,1","2","forest","72","probe-142","0.30863773661629723","0.29921172096741305","0.8136495182781296","0","","","","","","","",""
"","html-keyboard-response","226","958110","0.0-126.0-1.0","null","<p></p>","null","","","","","","","","","","","","","","","","","","",""
"","do_trial","227","962788","0.0-127.0-0.0","155","","","","51","0,0,1","2","forest","73","probe-48","0.21272757620258845","0.4155780380069452","0.822136072375751","1","","","","","","","",""
"","html-keyboard-response","228","963791","0.0-127.0-1.0","null","<p></p>","null","","","","","","","","","","","","","","","","","","",""
"","do_trial","229","968501","0.0-128.0-0.0","192","","","","49","0,0,0","2","forest","74","probe-140","0.22897267192820714","0.41145074408598925","0.7344458224379733","0","","","","","","","",""
"","html-keyboard-response","230","969503","0.0-128.0-1.0","null","<p></p>","null","","","","","","","","","","","","","","","","","","",""
"","do_trial","231","974204","0.0-129.0-0.0","176","","","","51","1,1,0","2","forest","75","probe-147","0.14030631758477846","0.47920330655361737","0.756091718327289","0","","","","","","","",""
"","html-keyboard-response","232","975206","0.0-129.0-1.0","null","<p></p>","null","","","","","","","","","","","","","","","","","","",""
"","do_trial","233","979988","0.0-130.0-0.0","258","","","","50","0,0,1","2","forest","76","probe-182","0.12329628662981415","0.17412189008895104","0.7754099348824961","0","","","","","","","",""
"","html-keyboard-response","234","980990","0.0-130.0-1.0","null","<p></p>","null","","","","","","","","","","","","","","","","","","",""
"","do_trial","235","985893","0.0-131.0-0.0","378","","","","49","0,0,1","2","forest","77","probe-120","0.13980712517621954","0.12831125378350167","0.6398522892738975","0","","","","","","","",""
"","html-keyboard-response","236","986896","0.0-131.0-1.0","null","<p></p>","null","","","","","","","","","","","","","","","","","","",""
"","do_trial","237","992157","0.0-132.0-0.0","736","","","","50","1,0,1","2","forest","78","probe-135","0.24454691442920248","0.13716426289041472","0.6081708238860015","0","","","","","","","",""
"","html-keyboard-response","238","993158","0.0-132.0-1.0","null","<p></p>","null","","","","","","","","","","","","","","","","","","",""
"","do_trial","239","997852","0.0-133.0-0.0","168","","","","51","0,0,0","2","forest","79","probe-32","0.2902847049163074","0.11357229577729937","0.6093985889876465","0","","","","","","","",""
"","html-keyboard-response","240","998854","0.0-133.0-1.0","null","<p></p>","null","","","","","","","","","","","","","","","","","","",""
"","do_trial","241","1003620","0.0-134.0-0.0","240","","","","49","0,0,1","2","forest","80","probe-171","0.3831854388449639","0.17840991235987172","0.614192802187281","0","","","","","","","",""
"","html-keyboard-response","242","1004622","0.0-134.0-1.0","null","<p></p>","null","","","","","","","","","","","","","","","","","","",""
"","do_trial","243","1009436","0.0-135.0-0.0","288","","","","50","1,0,1","2","forest","81","probe-78","0.5523539514203551","0.21065232132241715","0.3719752684873568","0","","","","","","","",""
"","html-keyboard-response","244","1010438","0.0-135.0-1.0","null","<p></p>","null","","","","","","","","","","","","","","","","","","",""
"","do_trial","245","1015132","0.0-136.0-0.0","169","","","","51","0,0,0","2","forest","82","probe-118","0.4760864407076304","0.13983055837063388","0.15873081806396586","0","","","","","","","",""
"","html-keyboard-response","246","1016134","0.0-136.0-1.0","null","<p></p>","null","","","","","","","","","","","","","","","","","","",""
"","do_trial","247","1020899","0.0-137.0-0.0","240","","","","49","1,0,0","2","forest","83","probe-41","0.5167203932275496","0.10126258381715939","0.24570532970931258","1","","","","","","","",""
"","html-keyboard-response","248","1021902","0.0-137.0-1.0","null","<p></p>","null","","","","","","","","","","","","","","","","","","",""
"","do_trial","249","1026603","0.0-138.0-0.0","177","","","","50","0,0,1","2","forest","84","probe-98","0.38647698218458865","0.11754565495178124","0.17704060279955872","0","","","","","","","",""
"","html-keyboard-response","250","1027605","0.0-138.0-1.0","null","<p></p>","null","","","","","","","","","","","","","","","","","","",""
"","do_trial","251","1033498","0.0-139.0-0.0","1367","","","","49","0,0,0","2","forest","85","probe-221","0.40416243147123554","0.11013823457516264","0.08147789430571428","0","","","","","","","",""
"","html-keyboard-response","252","1034499","0.0-139.0-1.0","null","<p></p>","null","","","","","","","","","","","","","","","","","","",""
"","do_trial","253","1039300","0.0-140.0-0.0","272","","","","51","1,0,0","2","forest","86","probe-185","0.4568585428986859","0.09348934417106856","0.08026959831118577","0","","","","","","","",""
"","html-keyboard-response","254","1040301","0.0-140.0-1.0","null","<p></p>","null","","","","","","","","","","","","","","","","","","",""
"","do_trial","255","1044970","0.0-141.0-0.0","143","","","","50","1,1,0","2","forest","87","probe-80","0.5312018401458323","0.2067655364238469","0.07133304217450716","1","","","","","","","",""
"","html-keyboard-response","256","1045972","0.0-141.0-1.0","null","<p></p>","null","","","","","","","","","","","","","","","","","","",""
"","do_trial","257","1050722","0.0-142.0-0.0","225","","","","51","0,1,0","2","forest","88","probe-217","0.5489194370138736","0.21949551650331858","0.07575986781479886","0","","","","","","","",""
"","html-keyboard-response","258","1051724","0.0-142.0-1.0","null","<p></p>","null","","","","","","","","","","","","","","","","","","",""
"","do_trial","259","1056499","0.0-143.0-0.0","247","","","","49","1,1,0","2","forest","89","probe-01","0.3998175692844269","0.15948366071627282","0.10124794992088028","1","","","","","","","",""
"","html-keyboard-response","260","1057502","0.0-143.0-1.0","null","<p></p>","null","","","","","","","","","","","","","","","","","","",""
"","do_trial","261","1062282","0.0-144.0-0.0","254","","","","50","1,0,1","2","forest","90","probe-63","0.4773324427881254","0.23463846634104357","0.2567969759900437","0","","","","","","","",""
"","html-keyboard-response","262","1063285","0.0-144.0-1.0","null","<p></p>","null","","","","","","","","","","","","","","","","","","",""
"","do_trial","263","1068123","0.0-145.0-0.0","312","","","","49","0,0,0","2","forest","91","probe-02","0.4735219790662442","0.2572485094266333","0.17447258640895213","0","","","","","","","",""
"","html-keyboard-response","264","1069125","0.0-145.0-1.0","null","<p></p>","null","","","","","","","","","","","","","","","","","","",""
"","do_trial","265","1073874","0.0-146.0-0.0","223","","","","51","1,0,0","2","forest","92","probe-06","0.5581255605281065","0.37594236858524943","0.12526781846221396","0","","","","","","","",""
"","html-keyboard-response","266","1074875","0.0-146.0-1.0","null","<p></p>","null","","","","","","","","","","","","","","","","","","",""
"","do_trial","267","1079673","0.0-147.0-0.0","272","","","","50","1,0,0","2","forest","93","probe-154","0.5366268386862597","0.24432251011953632","0.06504255137821931","0","","","","","","","",""
"","html-keyboard-response","268","1080675","0.0-147.0-1.0","null","<p></p>","null","","","","","","","","","","","","","","","","","","",""
"","do_trial","269","1085225","0.0-148.0-0.0","20","","","","49","1,0,0","2","forest","94","probe-26","0.4863402325356045","0.30740665968499303","0.060181694041875414","1","","","","","","","",""
"","html-keyboard-response","270","1086227","0.0-148.0-1.0","null","<p></p>","null","","","","","","","","","","","","","","","","","","",""
"","do_trial","271","1090786","0.0-149.0-0.0","28","","","","51","0,0,0","2","forest","95","probe-65","0.6632901781163045","0.22300521480096358","0.23195708545485744","0","","","","","","","",""
"","html-keyboard-response","272","1091787","0.0-149.0-1.0","null","<p></p>","null","","","","","","","","","","","","","","","","","","",""
"","do_trial","273","1096522","0.0-150.0-0.0","207","","","","49","0,1,0","2","forest","96","probe-59","0.671163406715619","0.3695570509757276","0.1848984731104719","0","","","","","","","",""
"","html-keyboard-response","274","1097523","0.0-150.0-1.0","null","<p></p>","null","","","","","","","","","","","","","","","","","","",""
"","do_trial","275","1102225","0.0-151.0-0.0","176","","","","50","1,0,0","2","forest","97","probe-116","0.6450142627584404","0.45329022128901897","0.26906648031157276","0","","","","","","","",""
"","html-keyboard-response","276","1103227","0.0-151.0-1.0","null","<p></p>","null","","","","","","","","","","","","","","","","","","",""
"","do_trial","277","1108104","0.0-152.0-0.0","354","","","","51","1,0,1","2","forest","98","probe-58","0.605656100059598","0.39058208672614314","0.25846523167493124","1","","","","","","","",""
"","html-keyboard-response","278","1109106","0.0-152.0-1.0","null","<p></p>","null","","","","","","","","","","","","","","","","","","",""
"","do_trial","279","1113897","0.0-153.0-0.0","266","","","","50","0,0,0","2","forest","99","probe-45","0.5802792168834893","0.32835962101948823","0.26302158967161965","0","","","","","","","",""
"","html-keyboard-response","280","1114899","0.0-153.0-1.0","null","<p></p>","null","","","","","","","","","","","","","","","","","","",""
"","do_trial","281","1119680","0.0-154.0-0.0","257","","","","51","0,1,0","2","forest","100","probe-193","0.47215436619319184","0.3093928710762673","0.28794873319491265","0","","","","","","","",""
"","html-keyboard-response","282","1120682","0.0-154.0-1.0","null","<p></p>","null","","","","","","","","","","","","","","","","","","",""
"","do_trial","283","1125480","0.0-155.0-0.0","275","","","","49","0,1,0","2","forest","101","probe-90","0.49306388167488296","0.31465817893853776","0.3438024592962322","0","","","","","","","",""
"","html-keyboard-response","284","1126483","0.0-155.0-1.0","null","<p></p>","null","","","","","","","","","","","","","","","","","","",""
"","do_trial","285","1131073","0.0-156.0-0.0","66","","","","51","0,0,1","2","forest","102","probe-44","0.6271651098267241","0.374596581181623","0.22276079688520256","1","","","","","","","",""
"","html-keyboard-response","286","1132075","0.0-156.0-1.0","null","<p></p>","null","","","","","","","","","","","","","","","","","","",""
"","do_trial","287","1137088","0.0-157.0-0.0","490","","","","50","1,0,0","2","forest","103","probe-49","0.6984133944774322","0.19959309738356126","0.16224687065726026","0","","","","","","","",""
"","html-keyboard-response","288","1138090","0.0-157.0-1.0","null","<p></p>","null","","","","","","","","","","","","","","","","","","",""
"","do_trial","289","1142872","0.0-158.0-0.0","258","","","","49","1,0,0","2","forest","104","probe-138","0.7718902991038564","0.14559729732114246","0.07639556249349844","1","","","","","","","",""
"","html-keyboard-response","290","1143874","0.0-158.0-1.0","null","<p></p>","null","","","","","","","","","","","","","","","","","","",""
"","do_trial","291","1148615","0.0-159.0-0.0","219","","","","51","1,0,0","2","forest","105","probe-149","0.7631737247584814","0.11765767334487055","0.11965413343937512","0","","","","","","","",""
"","html-keyboard-response","292","1149617","0.0-159.0-1.0","null","<p></p>","null","","","","","","","","","","","","","","","","","","",""
"","do_trial","293","1154407","0.0-160.0-0.0","265","","","","49","1,0,0","2","forest","106","probe-195","0.6323626718112664","0.2306181259447305","0.08974675526932949","1","","","","","","","",""
"","html-keyboard-response","294","1155409","0.0-160.0-1.0","null","<p></p>","null","","","","","","","","","","","","","","","","","","",""
"","do_trial","295","1160200","0.0-161.0-0.0","263","","","","50","1,0,0","2","forest","107","probe-207","0.5585172884411628","0.21737672883799916","0.11293822100618922","0","","","","","","","",""
"","html-keyboard-response","296","1161203","0.0-161.0-1.0","null","<p></p>","null","","","","","","","","","","","","","","","","","","",""
"","do_trial","297","1165967","0.0-162.0-0.0","247","","","","49","1,1,0","2","forest","108","probe-64","0.5632659077762866","0.21634627038542675","0.07344422422474164","1","","","","","","","",""
"","html-keyboard-response","298","1166970","0.0-162.0-1.0","null","<p></p>","null","","","","","","","","","","","","","","","","","","",""
"","do_trial","299","1171712","0.0-163.0-0.0","213","","","","51","0,0,0","2","forest","109","probe-180","0.5496439794986911","0.3335155833085932","0.15369938910816677","0","","","","","","","",""
"","html-keyboard-response","300","1172714","0.0-163.0-1.0","null","<p></p>","null","","","","","","","","","","","","","","","","","","",""
"","do_bye","301","1174219","0.0-164.0-0.0","null","","","","null","","","","","","","","","","","","","","","","",""
"","do_travel","302","1180221","0.0-165.0-0.0","null","","","","null","","","","","","","","","","","","","","","","",""
"","do_welcome","303","1181725","0.0-165.0-1.0","null","","","","null","","","","","","","","","","","","","","","","",""
"","do_trial","304","1186969","0.0-166.0-0.0","712","","","","49","1,0,0","3","highway","110","probe-187","1","0.4936671296750685","0.13357444700142945","1","","","","","","","",""
"","html-keyboard-response","305","1187973","0.0-166.0-1.0","null","<p></p>","null","","","","","","","","","","","","","","","","","","",""
"","do_trial","306","1192736","0.0-167.0-0.0","234","","","","50","1,1,0","3","highway","111","probe-148","1","0.39199042585120963","0.1216635319572935","1","","","","","","","",""
"","html-keyboard-response","307","1193739","0.0-167.0-1.0","null","<p></p>","null","","","","","","","","","","","","","","","","","","",""
"","do_trial","308","1198511","0.0-168.0-0.0","244","","","","51","1,0,0","3","highway","112","probe-177","0.8869691578263968","0.32479464771138683","0.174277217554406","0","","","","","","","",""
"","html-keyboard-response","309","1199513","0.0-168.0-1.0","null","<p></p>","null","","","","","","","","","","","","","","","","","","",""
"","do_trial","310","1204240","0.0-169.0-0.0","199","","","","49","1,0,0","3","highway","113","probe-164","0.7231086054604452","0.2962647389946172","0.21948396424555217","1","","","","","","","",""
"","html-keyboard-response","311","1205242","0.0-169.0-1.0","null","<p></p>","null","","","","","","","","","","","","","","","","","","",""
"","do_trial","312","1210048","0.0-170.0-0.0","276","","","","50","0,0,1","3","highway","114","probe-204","0.6778966014647335","0.23444960905817241","0.10774919006888006","0","","","","","","","",""
"","html-keyboard-response","313","1211050","0.0-170.0-1.0","null","<p></p>","null","","","","","","","","","","","","","","","","","","",""
"","do_trial","314","1215655","0.0-171.0-0.0","77","","","","49","0,0,0","3","highway","115","probe-215","0.685858231864975","0.3378046072042152","0.1999501522894613","0","","","","","","","",""
"","html-keyboard-response","315","1216658","0.0-171.0-1.0","null","<p></p>","null","","","","","","","","","","","","","","","","","","",""
"","do_trial","316","1221406","0.0-172.0-0.0","222","","","","51","1,0,0","3","highway","116","probe-54","0.8195497567761146","0.2348742634685606","0.149770978282138","0","","","","","","","",""
"","html-keyboard-response","317","1222409","0.0-172.0-1.0","null","<p></p>","null","","","","","","","","","","","","","","","","","","",""
"","do_trial","318","1227038","0.0-173.0-0.0","101","","","","49","1,0,0","3","highway","117","probe-227","0.723654185754184","0.30388856940183956","0.11414585647796989","1","","","","","","","",""
"","html-keyboard-response","319","1228041","0.0-173.0-1.0","null","<p></p>","null","","","","","","","","","","","","","","","","","","",""
"","do_trial","320","1232576","0.0-174.0-0.0","15","","","","50","1,0,0","3","highway","118","probe-95","0.7142689066541601","0.16352813364519464","0.07129105279611124","0","","","","","","","",""
"","html-keyboard-response","321","1233579","0.0-174.0-1.0","null","<p></p>","null","","","","","","","","","","","","","","","","","","",""
"","do_trial","322","1238209","0.0-175.0-0.0","106","","","","49","1,1,0","3","highway","119","probe-226","0.8053232796958344","0.29049731305499316","0.16780365628351093","1","","","","","","","",""
"","html-keyboard-response","323","1239211","0.0-175.0-1.0","null","<p></p>","null","","","","","","","","","","","","","","","","","","",""
"","do_trial","324","1243927","0.0-176.0-0.0","191","","","","51","1,1,0","3","highway","120","probe-175","0.8232182529526962","0.2803793368499078","0.19216765933730634","0","","","","","","","",""
"","html-keyboard-response","325","1244930","0.0-176.0-1.0","null","<p></p>","null","","","","","","","","","","","","","","","","","","",""
"","do_trial","326","1249663","0.0-177.0-0.0","207","","","","49","1,1,1","3","highway","121","probe-214","0.7895825961853182","0.25130606507183617","0.19610424480542268","1","","","","","","","",""
"","html-keyboard-response","327","1250665","0.0-177.0-1.0","null","<p></p>","null","","","","","","","","","","","","","","","","","","",""
"","do_trial","328","1255381","0.0-178.0-0.0","193","","","","51","1,0,0","3","highway","122","probe-124","0.5682745748655829","0.21076974688310984","0.38681426643140754","0","","","","","","","",""
"","html-keyboard-response","329","1256383","0.0-178.0-1.0","null","<p></p>","null","","","","","","","","","","","","","","","","","","",""
"","do_trial","330","1261109","0.0-179.0-0.0","200","","","","49","0,0,1","3","highway","123","probe-62","0.3511907300080304","0.3108902512554248","0.4581435782387146","0","","","","","","","",""
"","html-keyboard-response","331","1262110","0.0-179.0-1.0","null","<p></p>","null","","","","","","","","","","","","","","","","","","",""
"","do_trial","332","1266852","0.0-180.0-0.0","218","","","","50","1,0,0","3","highway","124","probe-53","0.1806319744459909","0.25211958754175895","0.5802918781014882","0","","","","","","","",""
"","html-keyboard-response","333","1267855","0.0-180.0-1.0","null","<p></p>","null","","","","","","","","","","","","","","","","","","",""
"","do_trial","334","1272565","0.0-181.0-0.0","186","","","","49","0,0,0","3","highway","125","probe-170","0.0688523941614383","0.34640473526025034","0.5225106916810257","0","","","","","","","",""
"","html-keyboard-response","335","1273567","0.0-181.0-1.0","null","<p></p>","null","","","","","","","","","","","","","","","","","","",""
"","do_trial","336","1278236","0.0-182.0-0.0","145","","","","51","0,1,0","3","highway","126","probe-88","0.06970116537413565","0.35136810854213","0.45661160812919366","0","","","","","","","",""
"","html-keyboard-response","337","1279238","0.0-182.0-1.0","null","<p></p>","null","","","","","","","","","","","","","","","","","","",""
"","do_trial","338","1283852","0.0-183.0-0.0","89","","","","50","0,0,0","3","highway","127","probe-33","0.11689919895075311","0.3805139786888693","0.5714313437395077","0","","","","","","","",""
"","html-keyboard-response","339","1284855","0.0-183.0-1.0","null","<p></p>","null","","","","","","","","","","","","","","","","","","",""
"","do_trial","340","1289526","0.0-184.0-0.0","146","","","","49","0,0,1","3","highway","128","probe-52","0.19287842837815092","0.3226848745560265","0.6487557287369028","0","","","","","","","",""
"","html-keyboard-response","341","1290528","0.0-184.0-1.0","null","<p></p>","null","","","","","","","","","","","","","","","","","","",""
"","do_trial","342","1295149","0.0-185.0-0.0","96","","","","49","0,0,0","3","highway","129","probe-206","0.18791144403504775","0.437515879662758","0.7137985762957305","0","","","","","","","",""
"","html-keyboard-response","343","1296151","0.0-185.0-1.0","null","<p></p>","null","","","","","","","","","","","","","","","","","","",""
"","do_trial","344","1300868","0.0-186.0-0.0","189","","","","51","0,1,1","3","highway","130","probe-117","0.14397034318498775","0.5223106311978758","0.7307527142502758","1","","","","","","","",""
"","html-keyboard-response","345","1301870","0.0-186.0-1.0","null","<p></p>","null","","","","","","","","","","","","","","","","","","",""
"","do_trial","346","1306460","0.0-187.0-0.0","65","","","","50","0,0,0","3","highway","131","probe-85","0.18197646356545658","0.4179130638711231","0.69508813429804","0","","","","","","","",""
"","html-keyboard-response","347","1307462","0.0-187.0-1.0","null","<p></p>","null","","","","","","","","","","","","","","","","","","",""
"","do_trial","348","1312044","0.0-188.0-0.0","58","","","","51","1,0,0","3","highway","132","probe-141","0.10678078563728281","0.2749708863863535","0.6360090970240132","0","","","","","","","",""
"","html-keyboard-response","349","1313046","0.0-188.0-1.0","null","<p></p>","null","","","","","","","","","","","","","","","","","","",""
"","do_trial","350","1317716","0.0-189.0-0.0","112","","","","49","0,1,0","3","highway","133","probe-83","0.15350497616297293","0.4088371686228059","0.6342957847719239","0","","","","","","","",""
"","html-keyboard-response","351","1318717","0.0-189.0-1.0","null","<p></p>","null","","","","","","","","","","","","","","","","","","",""
"","do_trial","352","1323403","0.0-190.0-0.0","156","","","","50","0,0,0","3","highway","134","probe-97","0.0500284317344256","0.27809159822890833","0.5770605469252851","0","","","","","","","",""
"","html-keyboard-response","353","1324405","0.0-190.0-1.0","null","<p></p>","null","","","","","","","","","","","","","","","","","","",""
"","do_trial","354","1328930","0.0-191.0-0.0","0","","","","49","0,0,0","3","highway","135","probe-36","0.10711890333784024","0.24624790328732382","0.6428146844892532","0","","","","","","","",""
"","html-keyboard-response","355","1329932","0.0-191.0-1.0","null","<p></p>","null","","","","","","","","","","","","","","","","","","",""
"","do_trial","356","1334731","0.0-192.0-0.0","276","","","","51","0,0,1","3","highway","136","probe-125","0.2245024246675341","0.33188138894315855","0.6162103353992169","1","","","","","","","",""
"","html-keyboard-response","357","1335732","0.0-192.0-1.0","null","<p></p>","null","","","","","","","","","","","","","","","","","","",""
"","do_trial","358","1340841","0.0-193.0-0.0","585","","","","49","0,0,1","3","highway","137","probe-47","0.1837202740044737","0.31298554750050867","0.4726605974382855","0","","","","","","","",""
"","html-keyboard-response","359","1341844","0.0-193.0-1.0","null","<p></p>","null","","","","","","","","","","","","","","","","","","",""
"","do_trial","360","1346604","0.0-194.0-0.0","235","","","","50","0,1,0","3","highway","138","probe-168","0.07848539938098661","0.28382997740066496","0.6165854588529804","1","","","","","","","",""
"","html-keyboard-response","361","1347606","0.0-194.0-1.0","null","<p></p>","null","","","","","","","","","","","","","","","","","","",""
"","do_trial","362","1352258","0.0-195.0-0.0","128","","","","51","0,0,1","3","highway","139","probe-113","0.1195719927948893","0.370112345826312","0.7740185839519018","1","","","","","","","",""
"","html-keyboard-response","363","1353261","0.0-195.0-1.0","null","<p></p>","null","","","","","","","","","","","","","","","","","","",""
"","do_trial","364","1358058","0.0-196.0-0.0","268","","","","49","1,1,1","3","highway","140","probe-213","0.2697719291619087","0.388276125466113","0.6525701665045051","1","","","","","","","",""
"","html-keyboard-response","365","1359061","0.0-196.0-1.0","null","<p></p>","null","","","","","","","","","","","","","","","","","","",""
"","do_trial","366","1363780","0.0-197.0-0.0","198","","","","50","0,0,1","3","highway","141","probe-155","0.14691950261975684","0.2204284896661377","0.524481381880342","0","","","","","","","",""
"","html-keyboard-response","367","1364781","0.0-197.0-1.0","null","<p></p>","null","","","","","","","","","","","","","","","","","","",""
"","do_trial","368","1369691","0.0-198.0-0.0","383","","","","51","0,0,0","3","highway","142","probe-157","0.23879455956199394","0.2698933795318178","0.4111775559175228","0","","","","","","","",""
"","html-keyboard-response","369","1370694","0.0-198.0-1.0","null","<p></p>","null","","","","","","","","","","","","","","","","","","",""
"","do_trial","370","1375338","0.0-199.0-0.0","120","","","","49","0,0,1","3","highway","143","probe-05","0.1485198406021951","0.3092090213846978","0.42683720941929465","0","","","","","","","",""
"","html-keyboard-response","371","1376340","0.0-199.0-1.0","null","<p></p>","null","","","","","","","","","","","","","","","","","","",""
"","do_trial","372","1381081","0.0-200.0-0.0","218","","","","51","1,0,1","3","highway","144","probe-112","0.10418990563950496","0.3070673293498589","0.5802001661333624","1","","","","","","","",""
"","html-keyboard-response","373","1382083","0.0-200.0-1.0","null","<p></p>","null","","","","","","","","","","","","","","","","","","",""
"","do_trial","374","1386754","0.0-201.0-0.0","146","","","","50","0,0,0","3","highway","145","probe-29","0.06668608397308633","0.2670508544489812","0.5347182584194111","0","","","","","","","",""
"","html-keyboard-response","375","1387756","0.0-201.0-1.0","null","<p></p>","null","","","","","","","","","","","","","","","","","","",""
"","do_trial","376","1392489","0.0-202.0-0.0","209","","","","51","0,0,0","3","highway","146","probe-111","0.12092581310384075","0.21108986789930873","0.5336564307812006","0","","","","","","","",""
"","html-keyboard-response","377","1393492","0.0-202.0-1.0","null","<p></p>","null","","","","","","","","","","","","","","","","","","",""
"","do_trial","378","1398033","0.0-203.0-0.0","17","","","","49","0,0,0","3","highway","147","probe-19","0.05681424203526962","0.11915066617267348","0.6352347452652201","0","","","","","","","",""
"","html-keyboard-response","379","1399035","0.0-203.0-1.0","null","<p></p>","null","","","","","","","","","","","","","","","","","","",""
"","do_trial","380","1403738","0.0-204.0-0.0","176","","","","50","0,0,1","3","highway","148","probe-159","0.13006392347129342","0.31325330932590906","0.7014211456576552","0","","","","","","","",""
"","html-keyboard-response","381","1404740","0.0-204.0-1.0","null","<p></p>","null","","","","","","","","","","","","","","","","","","",""
"","do_trial","382","1409522","0.0-205.0-0.0","256","","","","49","1,0,0","3","highway","149","probe-146","0.08271695589757368","0.16105875637632872","0.5339841228614485","1","","","","","","","",""
"","html-keyboard-response","383","1410524","0.0-205.0-1.0","null","<p></p>","null","","","","","","","","","","","","","","","","","","",""
"","do_bye","384","1412026","0.0-206.0-0.0","null","","","","null","","","","","","","","","","","","","","","","",""
"","do_travel","385","1418028","0.0-207.0-0.0","null","","","","null","","","","","","","","","","","","","","","","",""
"","do_welcome","386","1419532","0.0-207.0-1.0","null","","","","null","","","","","","","","","","","","","","","","",""
"","do_trial","387","1424786","0.0-208.0-0.0","729","","","","49","0,0,1","4","city","150","probe-18","0.07104015352274204","0.32022253732046424","1","0","","","","","","","",""
"","html-keyboard-response","388","1425789","0.0-208.0-1.0","null","<p></p>","null","","","","","","","","","","","","","","","","","","",""
"","do_trial","389","1430586","0.0-209.0-0.0","278","","","","50","1,1,1","4","city","151","probe-128","0.1479872691607163","0.2745744729933528","1","1","","","","","","","",""
"","html-keyboard-response","390","1431589","0.0-209.0-1.0","null","<p></p>","null","","","","","","","","","","","","","","","","","","",""
"","do_trial","391","1436344","0.0-210.0-0.0","231","","","","51","0,0,1","4","city","152","probe-123","0.1785144101180983","0.3645114865603135","0.8998018541759122","1","","","","","","","",""
"","html-keyboard-response","392","1437347","0.0-210.0-1.0","null","<p></p>","null","","","","","","","","","","","","","","","","","","",""
"","do_trial","393","1442105","0.0-211.0-0.0","234","","","","50","0,1,1","4","city","153","probe-127","0.0914041123507638","0.29530098896826396","0.8636989354899115","1","","","","","","","",""
"","html-keyboard-response","394","1443108","0.0-211.0-1.0","null","<p></p>","null","","","","","","","","","","","","","","","","","","",""
"","do_trial","395","1447818","0.0-212.0-0.0","187","","","","49","0,1,1","4","city","154","probe-145","0.12360424117649768","0.3260875448851017","0.701766837008679","0","","","","","","","",""
"","html-keyboard-response","396","1448820","0.0-212.0-1.0","null","<p></p>","null","","","","","","","","","","","","","","","","","","",""
"","do_trial","397","1453472","0.0-213.0-0.0","126","","","","50","0,0,1","4","city","155","probe-190","0.20246654269318076","0.36629640013253406","0.7579948705007344","0","","","","","","","",""
"","html-keyboard-response","398","1454474","0.0-213.0-1.0","null","<p></p>","null","","","","","","","","","","","","","","","","","","",""
"","do_trial","399","1459145","0.0-214.0-0.0","146","","","","51","0,1,1","4","city","156","probe-108","0.18900298545733807","0.33744664995799867","0.7059240677978107","1","","","","","","","",""
"","html-keyboard-response","400","1460148","0.0-214.0-1.0","null","<p></p>","null","","","","","","","","","","","","","","","","","","",""
"","do_trial","401","1464863","0.0-215.0-0.0","192","","","","49","1,0,1","4","city","157","probe-102","0.16609248294953408","0.3387338845391137","0.5799501209631303","1","","","","","","","",""
"","html-keyboard-response","402","1465864","0.0-215.0-1.0","null","<p></p>","null","","","","","","","","","","","","","","","","","","",""
"","do_trial","403","1470480","0.0-216.0-0.0","91","","","","50","0,0,1","4","city","158","probe-197","0.20917122960676485","0.43930722778342524","0.6178467152046916","0","","","","","","","",""
"","html-keyboard-response","404","1471481","0.0-216.0-1.0","null","<p></p>","null","","","","","","","","","","","","","","","","","","",""
"","do_trial","405","1476166","0.0-217.0-0.0","162","","","","51","0,0,0","4","city","159","probe-55","0.09008470152685152","0.4896510213088101","0.7100839014398952","0","","","","","","","",""
"","html-keyboard-response","406","1477170","0.0-217.0-1.0","null","<p></p>","null","","","","","","","","","","","","","","","","","","",""
"","do_trial","407","1481694","0.0-218.0-0.0","1","","","","50","0,0,1","4","city","160","probe-209","0.05330133146964281","0.520049395016329","0.44884720403490364","0","","","","","","","",""
"","html-keyboard-response","408","1482697","0.0-218.0-1.0","null","<p></p>","null","","","","","","","","","","","","","","","","","","",""
"","do_trial","409","1487480","0.0-219.0-0.0","258","","","","51","0,1,1","4","city","161","probe-27","0.05857319773774581","0.5695406476664391","0.43635762750182944","1","","","","","","","",""
"","html-keyboard-response","410","1488482","0.0-219.0-1.0","null","<p></p>","null","","","","","","","","","","","","","","","","","","",""
"","do_trial","411","1493207","0.0-220.0-0.0","200","","","","49","0,0,1","4","city","162","probe-210","0.21954100443742675","0.2247940338233351","0.48925850161007417","0","","","","","","","",""
"","html-keyboard-response","412","1494210","0.0-220.0-1.0","null","<p></p>","null","","","","","","","","","","","","","","","","","","",""
"","do_trial","413","1498737","0.0-221.0-0.0","1","","","","50","0,0,1","4","city","163","probe-50","0.386656905671145","0.23036830776163789","0.3788530713212287","0","","","","","","","",""
"","html-keyboard-response","414","1499738","0.0-221.0-1.0","null","<p></p>","null","","","","","","","","","","","","","","","","","","",""
"","do_trial","415","1504686","0.0-222.0-0.0","423","","","","51","0,0,1","4","city","164","probe-224","0.3929634406646727","0.2195872389143387","0.32591567711762653","1","","","","","","","",""
"","html-keyboard-response","416","1505688","0.0-222.0-1.0","null","<p></p>","null","","","","","","","","","","","","","","","","","","",""
"","do_trial","417","1510767","0.0-223.0-0.0","555","","","","49","1,0,0","4","city","165","probe-163","0.4155989674763382","0.11347388310882732","0.2358619411020592","1","","","","","","","",""
"","html-keyboard-response","418","1511769","0.0-223.0-1.0","null","<p></p>","null","","","","","","","","","","","","","","","","","","",""
"","do_trial","419","1516534","0.0-224.0-0.0","241","","","","51","0,0,0","4","city","166","probe-24","0.44690269157870177","0.060195140347155215","0.17495694122737054","0","","","","","","","",""
"","html-keyboard-response","420","1517536","0.0-224.0-1.0","null","<p></p>","null","","","","","","","","","","","","","","","","","","",""
"","do_trial","421","1522166","0.0-225.0-0.0","107","","","","50","1,0,0","4","city","167","probe-75","0.643370885594843","0.06496097145763129","0.1256367923854692","0","","","","","","","",""
"","html-keyboard-response","422","1523168","0.0-225.0-1.0","null","<p></p>","null","","","","","","","","","","","","","","","","","","",""
"","do_trial","423","1527918","0.0-226.0-0.0","225","","","","49","1,0,0","4","city","168","probe-109","0.6379607850592454","0.11852226049096189","0.13866281328194094","1","","","","","","","",""
"","html-keyboard-response","424","1528919","0.0-226.0-1.0","null","<p></p>","null","","","","","","","","","","","","","","","","","","",""
"","do_trial","425","1533773","0.0-227.0-0.0","331","","","","51","1,0,0","4","city","169","probe-43","0.6413274238526668","0.23057640304136645","0.05045259978250943","0","","","","","","","",""
"","html-keyboard-response","426","1534775","0.0-227.0-1.0","null","<p></p>","null","","","","","","","","","","","","","","","","","","",""
"","do_trial","427","1539549","0.0-228.0-0.0","250","","","","50","0,0,0","4","city","170","probe-31","0.686942719800604","0.24613224791369553","0.13970922927076226","0","","","","","","","",""
"","html-keyboard-response","428","1540551","0.0-228.0-1.0","null","<p></p>","null","","","","","","","","","","","","","","","","","","",""
"","do_trial","429","1545103","0.0-229.0-0.0","27","","","","49","0,0,1","4","city","171","probe-38","0.7039732675047795","0.149079269165735","0.332450876552558","0","","","","","","","",""
"","html-keyboard-response","430","1546105","0.0-229.0-1.0","null","<p></p>","null","","","","","","","","","","","","","","","","","","",""
"","do_trial","431","1550671","0.0-230.0-0.0","39","","","","50","1,0,0","4","city","172","probe-100","0.719481607342733","0.19271448159520327","0.35155689255470174","0","","","","","","","",""
"","html-keyboard-response","432","1551673","0.0-230.0-1.0","null","<p></p>","null","","","","","","","","","","","","","","","","","","",""
"","do_trial","433","1556392","0.0-231.0-0.0","192","","","","51","1,0,0","4","city","173","probe-208","0.6408588279514803","0.07795741411754037","0.31963957139948646","0","","","","","","","",""
"","html-keyboard-response","434","1557394","0.0-231.0-1.0","null","<p></p>","null","","","","","","","","","","","","","","","","","","",""
"","do_trial","435","1562189","0.0-232.0-0.0","277","","","","49","0,0,1","4","city","174","probe-161","0.6678627454831536","0.11435617744042471","0.2619276825887824","0","","","","","","","",""
"","html-keyboard-response","436","1563191","0.0-232.0-1.0","null","<p></p>","null","","","","","","","","","","","","","","","","","","",""
"","do_trial","437","1567935","0.0-233.0-0.0","217","","","","50","1,0,0","4","city","175","probe-220","0.7549127894097606","0.10942257617858005","0.3575218711450445","0","","","","","","","",""
"","html-keyboard-response","438","1568937","0.0-233.0-1.0","null","<p></p>","null","","","","","","","","","","","","","","","","","","",""
"","do_trial","439","1573701","0.0-234.0-0.0","240","","","","51","0,0,1","4","city","176","probe-40","0.6933518880668957","0.14504683784700523","0.3392994848176323","1","","","","","","","",""
"","html-keyboard-response","440","1574703","0.0-234.0-1.0","null","<p></p>","null","","","","","","","","","","","","","","","","","","",""
"","do_trial","441","1579391","0.0-235.0-0.0","161","","","","50","0,0,0","4","city","177","probe-165","0.6145691957125763","0.139315981855332","0.3640741707901841","0","","","","","","","",""
"","html-keyboard-response","442","1580393","0.0-235.0-1.0","null","<p></p>","null","","","","","","","","","","","","","","","","","","",""
"","do_trial","443","1585150","0.0-236.0-0.0","230","","","","51","0,1,0","4","city","178","probe-167","0.4878367555792633","0.2824784595764592","0.41253224419992857","0","","","","","","","",""
"","html-keyboard-response","444","1586153","0.0-236.0-1.0","null","<p></p>","null","","","","","","","","","","","","","","","","","","",""
"","do_trial","445","1590845","0.0-237.0-0.0","167","","","","49","0,0,1","4","city","179","probe-156","0.5389693393199732","0.18195642978245782","0.41854756944179344","0","","","","","","","",""
"","html-keyboard-response","446","1591847","0.0-237.0-1.0","null","<p></p>","null","","","","","","","","","","","","","","","","","","",""
"","do_trial","447","1596661","0.0-238.0-0.0","284","","","","50","1,0,1","4","city","180","probe-137","0.502479428089048","0.2702370399434936","0.392172389348741","0","","","","","","","",""
"","html-keyboard-response","448","1597662","0.0-238.0-1.0","null","<p></p>","null","","","","","","","","","","","","","","","","","","",""
"","do_trial","449","1602476","0.0-239.0-0.0","290","","","","49","1,0,1","4","city","181","probe-13","0.547274180422589","0.09412403385690069","0.3985482636641882","1","","","","","","","",""
"","html-keyboard-response","450","1603478","0.0-239.0-1.0","null","<p></p>","null","","","","","","","","","","","","","","","","","","",""
"","do_trial","451","1608228","0.0-240.0-0.0","226","","","","51","0,0,0","4","city","182","probe-153","0.4569668359739445","0.2175087284930557","0.35577373593578726","0","","","","","","","",""
"","html-keyboard-response","452","1609230","0.0-240.0-1.0","null","<p></p>","null","","","","","","","","","","","","","","","","","","",""
"","do_trial","453","1613995","0.0-241.0-0.0","243","","","","49","1,0,0","4","city","183","probe-139","0.5794046523019307","0.29258705754444103","0.2685838620718872","1","","","","","","","",""
"","html-keyboard-response","454","1614997","0.0-241.0-1.0","null","<p></p>","null","","","","","","","","","","","","","","","","","","",""
"","do_trial","455","1619747","0.0-242.0-0.0","225","","","","50","0,1,0","4","city","184","probe-04","0.7568111038267799","0.2507017834371072","0.28788386023705487","1","","","","","","","",""
"","html-keyboard-response","456","1620749","0.0-242.0-1.0","null","<p></p>","null","","","","","","","","","","","","","","","","","","",""
"","do_trial","457","1625491","0.0-243.0-0.0","217","","","","49","1,0,0","4","city","185","probe-72","0.6712628675735666","0.19230116878257936","0.2614109591513442","1","","","","","","","",""
"","html-keyboard-response","458","1626493","0.0-243.0-1.0","null","<p></p>","null","","","","","","","","","","","","","","","","","","",""
"","do_trial","459","1631275","0.0-244.0-0.0","253","","","","50","0,0,0","4","city","186","probe-08","0.6158998086014715","0.13307781516535275","0.17255347152269618","0","","","","","","","",""
"","html-keyboard-response","460","1632277","0.0-244.0-1.0","null","<p></p>","null","","","","","","","","","","","","","","","","","","",""
"","do_trial","461","1637065","0.0-245.0-0.0","263","","","","49","1,0,1","4","city","187","probe-211","0.6479454587739575","0.14133094394505077","0.3071247272178263","1","","","","","","","",""
"","html-keyboard-response","462","1638067","0.0-245.0-1.0","null","<p></p>","null","","","","","","","","","","","","","","","","","","",""
"","do_trial","463","1642835","0.0-246.0-0.0","241","","","","51","0,0,0","4","city","188","probe-77","0.7257247151521399","0.18469159755657275","0.2912375598120618","0","","","","","","","",""
"","html-keyboard-response","464","1643837","0.0-246.0-1.0","null","<p></p>","null","","","","","","","","","","","","","","","","","","",""
"","do_trial","465","1648426","0.0-247.0-0.0","64","","","","49","1,0,0","4","city","189","probe-121","0.722996271766306","0.13468753431323663","0.08289402750717105","1","","","","","","","",""
"","html-keyboard-response","466","1649428","0.0-247.0-1.0","null","<p></p>","null","","","","","","","","","","","","","","","","","","",""
"","do_bye","467","1650932","0.0-248.0-0.0","null","","","","null","","","","","","","","","","","","","","","","",""
"","do_travel","468","1656933","0.0-249.0-0.0","null","","","","null","","","","","","","","","","","","","","","","",""
"","do_welcome","469","1658436","0.0-249.0-1.0","null","","","","null","","","","","","","","","","","","","","","","",""
"","do_trial","470","1663322","0.0-250.0-0.0","362","","","","50","1,0,0","5","mountain","190","probe-79","1","0.12725678455890724","0.0570658629333945","0","","","","","","","",""
"","html-keyboard-response","471","1664324","0.0-250.0-1.0","null","<p></p>","null","","","","","","","","","","","","","","","","","","",""
"","do_trial","472","1669161","0.0-251.0-0.0","314","","","","51","1,0,0","5","mountain","191","probe-23","1","0.20431033922498024","0.20030042300764503","0","","","","","","","",""
"","html-keyboard-response","473","1670164","0.0-251.0-1.0","null","<p></p>","null","","","","","","","","","","","","","","","","","","",""
"","do_trial","474","1674921","0.0-252.0-0.0","234","","","","50","0,0,0","5","mountain","192","probe-37","0.7924660586922874","0.09125252645282105","0.17106749636078278","0","","","","","","","",""
"","html-keyboard-response","475","1675923","0.0-252.0-1.0","null","<p></p>","null","","","","","","","","","","","","","","","","","","",""
"","do_trial","476","1680714","0.0-253.0-0.0","265","","","","49","1,0,0","5","mountain","193","probe-103","0.7365159868439893","0.13019843117641336","0.23619426405409255","1","","","","","","","",""
"","html-keyboard-response","477","1681716","0.0-253.0-1.0","null","<p></p>","null","","","","","","","","","","","","","","","","","","",""
"","do_trial","478","1686273","0.0-254.0-0.0","33","","","","50","1,0,0","5","mountain","194","probe-194","0.7391564418391577","0.07780960605116578","0.3089237043770136","0","","","","","","","",""
"","html-keyboard-response","479","1687276","0.0-254.0-1.0","null","<p></p>","null","","","","","","","","","","","","","","","","","","",""
"","do_trial","480","1692044","0.0-255.0-0.0","237","","","","49","1,0,0","5","mountain","195","probe-133","0.7231453999325447","0.159610440452913","0.31285583772287956","1","","","","","","","",""
"","html-keyboard-response","481","1693046","0.0-255.0-1.0","null","<p></p>","null","","","","","","","","","","","","","","","","","","",""
"","do_trial","482","1697682","0.0-256.0-0.0","108","","","","51","1,0,1","5","mountain","196","probe-12","0.7175557490531802","0.12360384288964968","0.4080025256968969","1","","","","","","","",""
"","html-keyboard-response","483","1698684","0.0-256.0-1.0","null","<p></p>","null","","","","","","","","","","","","","","","","","","",""
"","do_trial","484","1703482","0.0-257.0-0.0","274","","","","49","0,0,1","5","mountain","197","probe-174","0.7427445140570533","0.1391644719706112","0.31311677281255695","0","","","","","","","",""
"","html-keyboard-response","485","1704485","0.0-257.0-1.0","null","<p></p>","null","","","","","","","","","","","","","","","","","","",""
"","do_trial","486","1709075","0.0-258.0-0.0","63","","","","50","1,0,0","5","mountain","198","probe-222","0.608232409300776","0.20980032041718513","0.33913343521281447","0","","","","","","","",""
"","html-keyboard-response","487","1710077","0.0-258.0-1.0","null","<p></p>","null","","","","","","","","","","","","","","","","","","",""
"","do_trial","488","1714859","0.0-259.0-0.0","255","","","","49","1,0,0","5","mountain","199","probe-70","0.8657561730397748","0.2150719715465006","0.28580807687656357","1","","","","","","","",""
"","html-keyboard-response","489","1715861","0.0-259.0-1.0","null","<p></p>","null","","","","","","","","","","","","","","","","","","",""
"","do_trial","490","1720601","0.0-260.0-0.0","216","","","","51","1,0,0","5","mountain","200","probe-110","0.7353117029394727","0.198070601078903","0.2691140509810996","0","","","","","","","",""
"","html-keyboard-response","491","1721603","0.0-260.0-1.0","null","<p></p>","null","","","","","","","","","","","","","","","","","","",""
"","do_trial","492","1726352","0.0-261.0-0.0","225","","","","49","1,0,0","5","mountain","201","probe-82","0.7148154025642883","0.12312599467372595","0.2880060107154377","1","","","","","","","",""
"","html-keyboard-response","493","1727355","0.0-261.0-1.0","null","<p></p>","null","","","","","","","","","","","","","","","","","","",""
"","do_trial","494","1732096","0.0-262.0-0.0","217","","","","50","1,0,1","5","mountain","202","probe-99","0.41765240502294015","0.2974188571405499","0.3584529846247784","0","","","","","","","",""
"","html-keyboard-response","495","1733098","0.0-262.0-1.0","null","<p></p>","null","","","","","","","","","","","","","","","","","","",""
"","do_trial","496","1737839","0.0-263.0-0.0","218","","","","49","1,1,1","5","mountain","203","probe-216","0.4430850901744258","0.1570853977892469","0.5909220575708714","1","","","","","","","",""
"","html-keyboard-response","497","1738842","0.0-263.0-1.0","null","<p></p>","null","","","","","","","","","","","","","","","","","","",""
"","do_trial","498","1743656","0.0-264.0-0.0","291","","","","51","1,0,1","5","mountain","204","probe-34","0.3372821294863077","0.1552804475325616","0.5691585848862336","1","","","","","","","",""
"","html-keyboard-response","499","1744658","0.0-264.0-1.0","null","<p></p>","null","","","","","","","","","","","","","","","","","","",""
"","do_trial","500","1749385","0.0-265.0-0.0","198","","","","49","0,0,1","5","mountain","205","probe-183","0.09744733987490779","0.23908731846586187","0.6468168458557509","0","","","","","","","",""
"","html-keyboard-response","501","1750386","0.0-265.0-1.0","null","<p></p>","null","","","","","","","","","","","","","","","","","","",""
"","do_trial","502","1754913","0.0-266.0-0.0","0","","","","50","1,0,1","5","mountain","206","probe-173","0.18651630631616864","0.4436352099188028","0.6626381252994117","0","","","","","","","",""
"","html-keyboard-response","503","1755916","0.0-266.0-1.0","null","<p></p>","null","","","","","","","","","","","","","","","","","","",""
"","do_trial","504","1760697","0.0-267.0-0.0","262","","","","51","0,0,0","5","mountain","207","probe-89","0.05299289273490855","0.33912381863764574","0.5925237126315595","0","","","","","","","",""
"","html-keyboard-response","505","1761698","0.0-267.0-1.0","null","<p></p>","null","","","","","","","","","","","","","","","","","","",""
"","do_trial","506","1766514","0.0-268.0-0.0","289","","","","49","0,1,0","5","mountain","208","probe-14","0.10959136618623408","0.24410607260408826","0.6472605443054172","0","","","","","","","",""
"","html-keyboard-response","507","1767516","0.0-268.0-1.0","null","<p></p>","null","","","","","","","","","","","","","","","","","","",""
"","do_trial","508","1772272","0.0-269.0-0.0","231","","","","50","0,0,1","5","mountain","209","probe-11","0.09024198710102393","0.24005564696564322","0.5549712065114266","0","","","","","","","",""
"","html-keyboard-response","509","1773275","0.0-269.0-1.0","null","<p></p>","null","","","","","","","","","","","","","","","","","","",""
"","do_trial","510","1777800","0.0-270.0-0.0","1","","","","49","0,0,1","5","mountain","210","probe-09","0.13523660751953775","0.32099650559747","0.6236869914042314","0","","","","","","","",""
"","html-keyboard-response","511","1778802","0.0-270.0-1.0","null","<p></p>","null","","","","","","","","","","","","","","","","","","",""
"","do_trial","512","1783575","0.0-271.0-0.0","250","","","","51","0,0,1","5","mountain","211","probe-131","0.0858333169725154","0.3957823265654711","0.6377168845926763","1","","","","","","","",""
"","html-keyboard-response","513","1784578","0.0-271.0-1.0","null","<p></p>","null","","","","","","","","","","","","","","","","","","",""
"","do_trial","514","1789424","0.0-272.0-0.0","321","","","","49","0,1,1","5","mountain","212","probe-143","0.12553179723557187","0.4417475437571847","0.7480148606683897","0","","","","","","","",""
"","html-keyboard-response","515","1790426","0.0-272.0-1.0","null","<p></p>","null","","","","","","","","","","","","","","","","","","",""
"","do_trial","516","1795143","0.0-273.0-0.0","193","","","","50","0,1,1","5","mountain","213","probe-203","0.06716528436069048","0.40431743272139464","0.7602552284174299","1","","","","","","","",""
"","html-keyboard-response","517","1796144","0.0-273.0-1.0","null","<p></p>","null","","","","","","","","","","","","","","","","","","",""
"","do_trial","518","1800951","0.0-274.0-0.0","282","","","","51","0,0,1","5","mountain","214","probe-10","0.059723634263180156","0.29799028072597966","0.8196468209380402","1","","","","","","","",""
"","html-keyboard-response","519","1801953","0.0-274.0-1.0","null","<p></p>","null","","","","","","","","","","","","","","","","","","",""
"","do_trial","520","1806726","0.0-275.0-0.0","249","","","","49","0,0,1","5","mountain","215","probe-17","0.1312685496992626","0.1999889477827933","0.7143012913696322","0","","","","","","","",""
"","html-keyboard-response","521","1807728","0.0-275.0-1.0","null","<p></p>","null","","","","","","","","","","","","","","","","","","",""
"","do_trial","522","1812434","0.0-276.0-0.0","181","","","","51","0,0,1","5","mountain","216","probe-200","0.3053273188201863","0.3129371867065918","0.679993381750964","1","","","","","","","",""
"","html-keyboard-response","523","1813436","0.0-276.0-1.0","null","<p></p>","null","","","","","","","","","","","","","","","","","","",""
"","do_trial","524","1818030","0.0-277.0-0.0","71","","","","50","0,0,1","5","mountain","217","probe-84","0.1676873826909038","0.2610102432862756","0.6213707959574738","0","","","","","","","",""
"","html-keyboard-response","525","1819033","0.0-277.0-1.0","null","<p></p>","null","","","","","","","","","","","","","","","","","","",""
"","do_trial","526","1823591","0.0-278.0-0.0","33","","","","51","0,0,1","5","mountain","218","probe-15","0.23518994971129595","0.14559218409998212","0.7196301123409926","1","","","","","","","",""
"","html-keyboard-response","527","1824596","0.0-278.0-1.0","null","<p></p>","null","","","","","","","","","","","","","","","","","","",""
"","do_trial","528","1829503","0.0-279.0-0.0","379","","","","49","0,0,1","5","mountain","219","probe-25","0.34572025187915045","0.06139645076164598","0.6072086454797354","0","","","","","","","",""
"","html-keyboard-response","529","1830506","0.0-279.0-1.0","null","<p></p>","null","","","","","","","","","","","","","","","","","","",""
"","do_trial","530","1835294","0.0-280.0-0.0","265","","","","51","0,0,1","5","mountain","220","probe-119","0.15569696574604408","0.2280508397611797","0.5230454060629061","1","","","","","","","",""
"","html-keyboard-response","531","1836297","0.0-280.0-1.0","null","<p></p>","null","","","","","","","","","","","","","","","","","","",""
"","do_trial","532","1841016","0.0-281.0-0.0","194","","","","50","0,0,1","5","mountain","221","probe-122","0.18702377243767887","0.18546092521297425","0.6675812069197358","0","","","","","","","",""
"","html-keyboard-response","533","1842017","0.0-281.0-1.0","null","<p></p>","null","","","","","","","","","","","","","","","","","","",""
"","do_trial","534","1846558","0.0-282.0-0.0","16","","","","49","0,0,1","5","mountain","222","probe-92","0.23063541389171774","0.44187134680281054","0.6605842280691809","0","","","","","","","",""
"","html-keyboard-response","535","1847561","0.0-282.0-1.0","null","<p></p>","null","","","","","","","","","","","","","","","","","","",""
"","do_trial","536","1852319","0.0-283.0-0.0","233","","","","51","0,0,0","5","mountain","223","probe-176","0.14641913523567013","0.37679580393369144","0.7550646365493026","0","","","","","","","",""
"","html-keyboard-response","537","1853321","0.0-283.0-1.0","null","<p></p>","null","","","","","","","","","","","","","","","","","","",""
"","do_trial","538","1858125","0.0-284.0-0.0","280","","","","50","0,1,1","5","mountain","224","probe-223","0.14878211609628517","0.36250029254272315","0.6743205889523358","1","","","","","","","",""
"","html-keyboard-response","539","1859127","0.0-284.0-1.0","null","<p></p>","null","","","","","","","","","","","","","","","","","","",""
"","do_trial","540","1864294","0.0-285.0-0.0","643","","","","49","0,0,0","5","mountain","225","probe-96","0.08986409620146243","0.1471279394699245","0.7490431692662471","0","","","","","","","",""
"","html-keyboard-response","541","1865299","0.0-285.0-1.0","null","<p></p>","null","","","","","","","","","","","","","","","","","","",""
"","do_trial","542","1870173","0.0-286.0-0.0","351","","","","51","0,0,1","5","mountain","226","probe-212","0.13121043993612008","0.24918613003274623","0.8289030118732502","1","","","","","","","",""
"","html-keyboard-response","543","1871175","0.0-286.0-1.0","null","<p></p>","null","","","","","","","","","","","","","","","","","","",""
"","do_trial","544","1876149","0.0-287.0-0.0","448","","","","50","0,1,0","5","mountain","227","probe-101","0.07493449717363068","0.2633258505234276","0.6610897060358666","1","","","","","","","",""
"","html-keyboard-response","545","1877152","0.0-287.0-1.0","null","<p></p>","null","","","","","","","","","","","","","","","","","","",""
"","do_trial","546","1882333","0.0-288.0-0.0","656","","","","51","0,1,1","5","mountain","228","probe-144","0.11928684251533028","0.17902517719886937","0.5515761326611341","1","","","","","","","",""
"","html-keyboard-response","547","1883335","0.0-288.0-1.0","null","<p></p>","null","","","","","","","","","","","","","","","","","","",""
"","do_trial","548","1888221","0.0-289.0-0.0","362","","","","50","1,0,0","5","mountain","229","probe-166","0.18654859451762393","0.25888884669814294","0.6403513515087701","0","","","","","","","",""
"","html-keyboard-response","549","1889224","0.0-289.0-1.0","null","<p></p>","null","","","","","","","","","","","","","","","","","","",""
