"success","trial_type","trial_index","time_elapsed","internal_node_id","interactions","blur_events","focus_events","fullscreenenter_events","fullscreenexit_events","rt","stimulus","key_press","subject_id","participant_id","age","gender","prompt","response","choice_outcomes","context_n","context_img_id","trial_n","probe_img_id","pR_red","pR_white","pR_black","outcome","contextArray_ind","validImageProbes","invalidImageProbes","pRew_Red","pRew_White","pRew_Black","availableForMemProbe","choice_blocks"
"true","fullscreen","0","18801","0.0-0.0","""event"",""trial"",""time""
""fullscreenenter"",""0"",""17829""
","
","
","""event"",""trial"",""time""
""fullscreenenter"",""0"",""17829""
","
","","","","","","","","","","","","","","","","","","","","","","","","","",""
"","pavlovia","1","18808","0.0-1.0","""event"",""trial"",""time""
""fullscreenenter"",""0"",""17829""
","
","
","""event"",""trial"",""time""
""fullscreenenter"",""0"",""17829""
","
","","","","","","","","","","","","","","","","","","","","","","","","","",""
"","instruc1","2","64037","0.0-2.0","""event"",""trial"",""time""
""fullscreenenter"",""0"",""17829""
","
","
","""event"",""trial"",""time""
""fullscreenenter"",""0"",""17829""
","
","null","run_exp/static/audio/clip_1_welcome.m4a","null","294","658","16","Male","<div class='center'><p>Welcome! This is the first part of the study. It will last ~30 minutes. In part 1 and part 2 of the study, you are the head captain of a pirate ship traveling around the world to different islands. You will play a few different games throughout these two parts. Here is an overview of them:</p><br><p>Part 1 (today)</p><p>1. Instructions, practice game, and quiz</p><p>2. Pick a pirate game on 6 different islands</p><br><p>Part 2 (tomorrow)</p><p>3. Pick a pirate game and memory game</p><p>4. Where did you see this ship? </p></div>","","","","","","","","","","","","","","","","","",""
"","html-keyboard-response","3","88291","0.0-3.0","""event"",""trial"",""time""
""fullscreenenter"",""0"",""17829""
","
","
","""event"",""trial"",""time""
""fullscreenenter"",""0"",""17829""
","
","24242.599999997765","<div class='center'><p>Welcome! This is the first part of the study. It will last ~30 minutes. In part 1 and part 2 of the study, you are the head captain of a pirate ship traveling around the world to different islands. You will play a few different games throughout these two parts. Here is an overview of them:</p><br><p>Part 1 (today)</p><p>1. Instructions, practice game, and quiz</p><p>2. Pick a pirate game on 6 different islands</p><br><p>Part 2 (tomorrow)</p><p>3. Pick a pirate game and memory game</p><p>4. Where did you see this ship? </p><p><b>[Press the space bar to continue]</b></p></div>","32","","","","","","","","","","","","","","","","","","","","","","",""
"","instruc2","4","93721","0.0-4.0","""event"",""trial"",""time""
""fullscreenenter"",""0"",""17829""
","
","
","""event"",""trial"",""time""
""fullscreenenter"",""0"",""17829""
","
","null","run_exp/static/audio/clip_2_different_places.m4a","null","","","","","<div class='center'><p>Today, you’ll visit these 6 islands on your journey. You'll be able to see these islands from your ship.</p><p><img src='run_exp/static/images/contexts/all_contexts.png' height='500'></p></div>","","","","","","","","","","","","","","","","","",""
"","html-keyboard-response","5","103290","0.0-5.0","""event"",""trial"",""time""
""fullscreenenter"",""0"",""17829""
","
","
","""event"",""trial"",""time""
""fullscreenenter"",""0"",""17829""
","
","9566.20000000298","<div class='center'><p>Today, you’ll visit these 6 islands on your journey. You'll be able to see these islands from your ship.</p><p><img src='run_exp/static/images/contexts/all_contexts.png' height='500'></p><p><b>[Press the space bar to continue]</b></p></div>","32","","","","","","","","","","","","","","","","","","","","","","",""
"","instruc3","6","113018","0.0-6.0","""event"",""trial"",""time""
""fullscreenenter"",""0"",""17829""
","
","
","""event"",""trial"",""time""
""fullscreenenter"",""0"",""17829""
","
","null","run_exp/static/audio/clip_3_goal_of_game_1.m4a","null","","","","","<div class='center'><p> The pirates on your ship will rob other ships as they leave the island.</p> These ships have just sold their goods to the islanders, so they will be filled with lots and lots of gold.</p><p><img src='run_exp/static/images/tutorial/ship_center.png' height='400'></p></div>","","","","","","","","","","","","","","","","","",""
"","html-keyboard-response","7","117933","0.0-7.0","""event"",""trial"",""time""
""fullscreenenter"",""0"",""17829""
","
","
","""event"",""trial"",""time""
""fullscreenenter"",""0"",""17829""
","
","4913.10000000149","<div class='center'><p> The pirates on your ship will rob other ships as they leave the island.</p> These ships have just sold their goods to the islanders, so they will be filled with lots and lots of gold.</p><p><img src='run_exp/static/images/tutorial/ship_center.png' height='400'></p><p><b>[Press the space bar to continue]</b></p></div>","32","","","","","","","","","","","","","","","","","","","","","","",""
"","instruc4","8","145968","0.0-8.0","""event"",""trial"",""time""
""fullscreenenter"",""0"",""17829""
","
","
","""event"",""trial"",""time""
""fullscreenenter"",""0"",""17829""
","
","null","run_exp/static/audio/clip_4_goal_of_game_2.m4a","null","","","","","<div class='center'><p>As the head captain, you do not have to rob any ships yourself. Another pirate will be doing the robbing for you. First, you will choose a pirate to rob the next ship.</p><p><img src='run_exp/static/images/tutorial/pirates_all_crop.png' height='200'></p><p>Then, you'll see if the pirate successfully robbed the ship of their gold. If they were successful, then you'll get a stack of gold coins like this:</p><p><img src='run_exp/static/images/tutorial/reward.png' height='150'></p><p> If they were <b>not</b> successful, then you'll get no gold coins, and you'll see a big red x like this: </p><p><img src='run_exp/static/images/tutorial/reward_no.png' height='150'></p><p> How much bonus money you make is based on how many gold coins you collect.</p><div>","","","","","","","","","","","","","","","","","",""
"","html-keyboard-response","9","152178","0.0-9.0","""event"",""trial"",""time""
""fullscreenenter"",""0"",""17829""
","
","
","""event"",""trial"",""time""
""fullscreenenter"",""0"",""17829""
","
","6207.60000000149","<div class='center'><p>As the head captain, you do not have to rob any ships yourself. Another pirate will be doing the robbing for you. First, you will choose a pirate to rob the next ship.</p><p><img src='run_exp/static/images/tutorial/pirates_all_crop.png' height='200'></p><p>Then, you'll see if the pirate successfully robbed the ship of their gold. If they were successful, then you'll get a stack of gold coins like this:</p><p><img src='run_exp/static/images/tutorial/reward.png' height='150'></p><p> If they were <b>not</b> successful, then you'll get no gold coins, and you'll see a big red x like this: </p><p><img src='run_exp/static/images/tutorial/reward_no.png' height='150'></p><p> How much bonus money you make is based on how many gold coins you collect.</p<p><b>[Press the space bar to continue]</b></p></div>","32","","","","","","","","","","","","","","","","","","","","","","",""
"","instruc5","10","172671","0.0-10.0","""event"",""trial"",""time""
""fullscreenenter"",""0"",""17829""
","
","
","""event"",""trial"",""time""
""fullscreenenter"",""0"",""17829""
","
","20490.5","run_exp/static/audio/clip_5_probabilistic.m4a","49","","","","","<div class='center'><p>Even the most skilled pirate can not rob EVERY ship.</p><p> Some ships will have very strong protections against pirate attacks.</p><p> Blue beard, here, is very, very good at robbing ships, but he won't be successful every time he tries to rob one.</p><p> You can press the <b>‘1’</b> key on the keyboard to choose him.</p><p> Try choosing him 10 times to see how often he succeeds at robbing a ship. </p><p><img src='run_exp/static/images/tutorial/blue.png' height='500'></p></div>","","","","","","","","","","","","","","","","","",""
"","html-keyboard-response","11","174172","0.0-11.0","""event"",""trial"",""time""
""fullscreenenter"",""0"",""17829""
","
","
","""event"",""trial"",""time""
""fullscreenenter"",""0"",""17829""
","
","null","<div class='center'><p><img src='run_exp/static/images/tutorial/blue_win.png' height='500'></p></div>","null","","","","","","","","","","","","","","","","","","","","","","",""
"","html-keyboard-response","12","174701","0.0-12.0","""event"",""trial"",""time""
""fullscreenenter"",""0"",""17829""
","
","
","""event"",""trial"",""time""
""fullscreenenter"",""0"",""17829""
","
","527","<div class='center'><img src='run_exp/static/images/tutorial/blue.png' height='500'></p></div>","49","","","","","","","","","","","","","","","","","","","","","","",""
"","html-keyboard-response","13","176202","0.0-13.0","""event"",""trial"",""time""
""fullscreenenter"",""0"",""17829""
","
","
","""event"",""trial"",""time""
""fullscreenenter"",""0"",""17829""
","
","null","<div class='center'><p><img src='run_exp/static/images/tutorial/blue_win.png' height='500'></p></div>","null","","","","","","","","","","","","","","","","","","","","","","",""
"","html-keyboard-response","14","186597","0.0-14.0","""event"",""trial"",""time""
""fullscreenenter"",""0"",""17829""
","
","
","""event"",""trial"",""time""
""fullscreenenter"",""0"",""17829""
","
","10393","<div class='center'><img src='run_exp/static/images/tutorial/blue.png' height='500'></p></div>","49","","","","","","","","","","","","","","","","","","","","","","",""
"","html-keyboard-response","15","188099","0.0-15.0","""event"",""trial"",""time""
""fullscreenenter"",""0"",""17829""
","
","
","""event"",""trial"",""time""
""fullscreenenter"",""0"",""17829""
","
","null","<div class='center'><p><img src='run_exp/static/images/tutorial/blue_win.png' height='500'></p></div>","null","","","","","","","","","","","","","","","","","","","","","","",""
"","html-keyboard-response","16","188152","0.0-16.0","""event"",""trial"",""time""
""fullscreenenter"",""0"",""17829""
","
","
","""event"",""trial"",""time""
""fullscreenenter"",""0"",""17829""
","
","52.19999999925494","<div class='center'><img src='run_exp/static/images/tutorial/blue.png' height='500'></p></div>","49","","","","","","","","","","","","","","","","","","","","","","",""
"","html-keyboard-response","17","189658","0.0-17.0","""event"",""trial"",""time""
""fullscreenenter"",""0"",""17829""
","
","
","""event"",""trial"",""time""
""fullscreenenter"",""0"",""17829""
","
","null","<div class='center'><p><img src='run_exp/static/images/tutorial/blue_no_win.png' height='500'></p></div>","null","","","","","","","","","","","","","","","","","","","","","","",""
"","html-keyboard-response","18","189737","0.0-18.0","""event"",""trial"",""time""
""fullscreenenter"",""0"",""17829""
","
","
","""event"",""trial"",""time""
""fullscreenenter"",""0"",""17829""
","
","78.39999999850988","<div class='center'><img src='run_exp/static/images/tutorial/blue.png' height='500'></p></div>","49","","","","","","","","","","","","","","","","","","","","","","",""
"","html-keyboard-response","19","191239","0.0-19.0","""event"",""trial"",""time""
""fullscreenenter"",""0"",""17829""
","
","
","""event"",""trial"",""time""
""fullscreenenter"",""0"",""17829""
","
","null","<div class='center'><p><img src='run_exp/static/images/tutorial/blue_win.png' height='500'></p></div>","null","","","","","","","","","","","","","","","","","","","","","","",""
"","html-keyboard-response","20","191502","0.0-20.0","""event"",""trial"",""time""
""fullscreenenter"",""0"",""17829""
","
","
","""event"",""trial"",""time""
""fullscreenenter"",""0"",""17829""
","
","261","<div class='center'><img src='run_exp/static/images/tutorial/blue.png' height='500'></p></div>","49","","","","","","","","","","","","","","","","","","","","","","",""
"","html-keyboard-response","21","193004","0.0-21.0","""event"",""trial"",""time""
""fullscreenenter"",""0"",""17829""
","
","
","""event"",""trial"",""time""
""fullscreenenter"",""0"",""17829""
","
","null","<div class='center'><p><img src='run_exp/static/images/tutorial/blue_win.png' height='500'></p></div>","null","","","","","","","","","","","","","","","","","","","","","","",""
"","html-keyboard-response","22","193287","0.0-22.0","""event"",""trial"",""time""
""fullscreenenter"",""0"",""17829""
","
","
","""event"",""trial"",""time""
""fullscreenenter"",""0"",""17829""
","
","281.30000000074506","<div class='center'><img src='run_exp/static/images/tutorial/blue.png' height='500'></p></div>","49","","","","","","","","","","","","","","","","","","","","","","",""
"","html-keyboard-response","23","194789","0.0-23.0","""event"",""trial"",""time""
""fullscreenenter"",""0"",""17829""
","
","
","""event"",""trial"",""time""
""fullscreenenter"",""0"",""17829""
","
","null","<div class='center'><p><img src='run_exp/static/images/tutorial/blue_win.png' height='500'></p></div>","null","","","","","","","","","","","","","","","","","","","","","","",""
"","html-keyboard-response","24","194902","0.0-24.0","""event"",""trial"",""time""
""fullscreenenter"",""0"",""17829""
","
","
","""event"",""trial"",""time""
""fullscreenenter"",""0"",""17829""
","
","112.80000000074506","<div class='center'><img src='run_exp/static/images/tutorial/blue.png' height='500'></p></div>","49","","","","","","","","","","","","","","","","","","","","","","",""
"","html-keyboard-response","25","196404","0.0-25.0","""event"",""trial"",""time""
""fullscreenenter"",""0"",""17829""
","
","
","""event"",""trial"",""time""
""fullscreenenter"",""0"",""17829""
","
","null","<div class='center'><p><img src='run_exp/static/images/tutorial/blue_no_win.png' height='500'></p></div>","null","","","","","","","","","","","","","","","","","","","","","","",""
"","html-keyboard-response","26","196669","0.0-26.0","""event"",""trial"",""time""
""fullscreenenter"",""0"",""17829""
","
","
","""event"",""trial"",""time""
""fullscreenenter"",""0"",""17829""
","
","263.19999999925494","<div class='center'><img src='run_exp/static/images/tutorial/blue.png' height='500'></p></div>","49","","","","","","","","","","","","","","","","","","","","","","",""
"","html-keyboard-response","27","198171","0.0-27.0","""event"",""trial"",""time""
""fullscreenenter"",""0"",""17829""
","
","
","""event"",""trial"",""time""
""fullscreenenter"",""0"",""17829""
","
","null","<div class='center'><p><img src='run_exp/static/images/tutorial/blue_win.png' height='500'></p></div>","null","","","","","","","","","","","","","","","","","","","","","","",""
"","html-keyboard-response","28","198175","0.0-28.0","""event"",""trial"",""time""
""fullscreenenter"",""0"",""17829""
","
","
","""event"",""trial"",""time""
""fullscreenenter"",""0"",""17829""
","
","2.899999998509884","<div class='center'><img src='run_exp/static/images/tutorial/blue.png' height='500'></p></div>","49","","","","","","","","","","","","","","","","","","","","","","",""
"","html-keyboard-response","29","199677","0.0-29.0","""event"",""trial"",""time""
""fullscreenenter"",""0"",""17829""
","
","
","""event"",""trial"",""time""
""fullscreenenter"",""0"",""17829""
","
","null","<div class='center'><p><img src='run_exp/static/images/tutorial/blue_win.png' height='500'></p></div>","null","","","","","","","","","","","","","","","","","","","","","","",""
"","instruc6","30","205196","0.0-30.0","""event"",""trial"",""time""
""fullscreenenter"",""0"",""17829""
","
","
","""event"",""trial"",""time""
""fullscreenenter"",""0"",""17829""
","
","null","run_exp/static/audio/clip_6_blue_beard_outcome.m4a","null","","","","","<div class='center'><p> See, he succeeded in robbing the ships most of the time but not every time. </p></div>","","","","","","","","","","","","","","","","","",""
"","html-keyboard-response","31","206679","0.0-31.0","""event"",""trial"",""time""
""fullscreenenter"",""0"",""17829""
","
","
","""event"",""trial"",""time""
""fullscreenenter"",""0"",""17829""
","
","1481.6000000014901","<div class='center'><p> See, he succeeded in robbing the ships most of the time but not every time. </p><p><b>[Press the space bar to continue]</b></p></div>","32","","","","","","","","","","","","","","","","","","","","","","",""
"","audio-keyboard-response","32","222796","0.0-32.0","""event"",""trial"",""time""
""fullscreenenter"",""0"",""17829""
","
","
","""event"",""trial"",""time""
""fullscreenenter"",""0"",""17829""
","
","16114.5","run_exp/static/audio/clip_7_pick_pirate.m4a","50","","","","","","","","","","","","","","","","","","","","","","",""
"","audio-keyboard-response","33","228115","0.0-33.0-0.0","""event"",""trial"",""time""
""fullscreenenter"",""0"",""17829""
","
","
","""event"",""trial"",""time""
""fullscreenenter"",""0"",""17829""
","
","5316","run_exp/static/audio/clip_8_chosen_pirate_win.m4a","32","","","","","","","","","","","","","","","","","","","","","","",""
"","audio-keyboard-response","34","230201","0.0-33.0-1.0","""event"",""trial"",""time""
""fullscreenenter"",""0"",""17829""
","
","
","""event"",""trial"",""time""
""fullscreenenter"",""0"",""17829""
","
","2083.5","run_exp/static/audio/clip_9_pick_a_pirate_again.m4a","50","","","","","","","","","","","","","","","","","","","","","","",""
"","audio-keyboard-response","35","234412","0.0-34.0-0.0","""event"",""trial"",""time""
""fullscreenenter"",""0"",""17829""
","
","
","""event"",""trial"",""time""
""fullscreenenter"",""0"",""17829""
","
","4208.699999999255","run_exp/static/audio/clip_10_chosen_pirate_loss.m4a","32","","","","","","","","","","","","","","","","","","","","","","",""
"","instruc9","36","239934","0.0-35.0-0.0","""event"",""trial"",""time""
""fullscreenenter"",""0"",""17829""
","
","
","""event"",""trial"",""time""
""fullscreenenter"",""0"",""17829""
","
","null","run_exp/static/audio/clip_11_time_out.m4a","null","","","","","<div class='center'><p>If you don’t make your choice fast enough, you’ll have to wait a few seconds before you can make another one. </p><p><img src='run_exp/static/images/miscellaneous/hurry_up.png' height='500'></p></div>","","","","","","","","","","","","","","","","","",""
"","html-keyboard-response","37","254188","0.0-35.0-1.0","""event"",""trial"",""time""
""fullscreenenter"",""0"",""17829""
","
","
","""event"",""trial"",""time""
""fullscreenenter"",""0"",""17829""
","
","14251.400000002235","<div class='center'><p>If you don’t make your choice fast enough, you’ll have to wait a few seconds before you can make another one. </p><p><img src='run_exp/static/images/miscellaneous/hurry_up.png' height='500'></p><p><b>[Press the space bar to continue]</b></p></div>","32","","","","","","","","","","","","","","","","","","","","","","",""
"","instruc10","38","293305","0.0-35.0-2.0","""event"",""trial"",""time""
""fullscreenenter"",""0"",""17829""
","
","
","""event"",""trial"",""time""
""fullscreenenter"",""0"",""17829""
","
","null","run_exp/static/audio/clip_12_probe.m4a","null","","","","","<div class='center'><p>Once you've chosen a pirate, you’ll be shown the ship they are robbing. You will never rob the same ship twice. Ships can be told apart from one another by the image on them. These are the goods that they sell. See, this ship has a travel mug on it. </p><p> You’ll have to remember which island you saw each ship on. You will win more gold coins and hence more bonus money if you remember correctly! To help you remember, you can imagine a story. For example, here, you could imagine a mug full of water in the desert. Or, as another example, if on the forest island, your pirate robbed a ship with an apple on it, you could imagine an apple falling from a tree in the forest. </p><p><img src='run_exp/static/images/tutorial/example_probe.png' height='500'></p></div>","","","","","","","","","","","","","","","","","",""
"","html-keyboard-response","39","302265","0.0-35.0-3.0","""event"",""trial"",""time""
""fullscreenenter"",""0"",""17829""
","
","
","""event"",""trial"",""time""
""fullscreenenter"",""0"",""17829""
","
","8958.10000000149","<div class='center'><p>Once you've chosen a pirate, you’ll be shown the ship they are robbing. You will never rob the same ship twice. Ships can be told apart from one another by the image on them. These are the goods that they sell. See, this ship has a travel mug on it. </p><p> You’ll have to remember which island you saw each ship on. You will win more gold coins and hence more bonus money if you remember correctly! To help you remember, you can imagine a story. For example, here, you could imagine a mug full of water in the desert. Or, as another example, if on the forest island, your pirate robbed a ship with an apple on it, you could imagine an apple falling from a tree in the forest. </p><p><img src='run_exp/static/images/tutorial/example_probe.png' height='500'></p><p><b>[Press the space bar to continue]</b></p></div>","32","","","","","","","","","","","","","","","","","","","","","","",""
"","instruc11","40","318708","0.0-35.0-4.0","""event"",""trial"",""time""
""fullscreenenter"",""0"",""17829""
","
","
","""event"",""trial"",""time""
""fullscreenenter"",""0"",""17829""
","
","null","run_exp/static/audio/clip_13_changepoint.m4a","null","","","","","<div class='center'><p>How successful a pirate is at robbing ships will depend on the island you’re on.</p><p> A pirate may have visited this island many times before and gained a lot of practice robbing ships there.</p><p>So, they’re more likely to be successful than a pirate who has never visited the island before.</p></div>","","","","","","","","","","","","","","","","","",""
"","html-keyboard-response","41","345864","0.0-35.0-5.0","""event"",""trial"",""time""
""fullscreenenter"",""0"",""17829""
","
","
","""event"",""trial"",""time""
""fullscreenenter"",""0"",""17829""
","
","27154.199999999255","<div class='center'><p>How successful a pirate is at robbing ships will depend on the island you’re on.</p><p> A pirate may have visited this island many times before and gained a lot of practice robbing ships there.</p><p>So, they’re more likely to be successful than a pirate who has never visited the island before.</p><p><b>[Press the space bar to continue]</b></p></div>","32","","","","","","","","","","","","","","","","","","","","","","",""
"","instruc12","42","387074","0.0-35.0-6.0","""event"",""trial"",""time""
""fullscreenenter"",""0"",""17829""
","
","
","""event"",""trial"",""time""
""fullscreenenter"",""0"",""17829""
","
","null","run_exp/static/audio/clip_14_drift.m4a","null","","","","","<div class='center'><p>How successful a pirate is at robbing ships can also change over the time spent on the island. </p><p> Ships may hear from islanders about the pirates coming and will improve their protections against the attack. This may make it harder to rob them.</p><p> Ships may also become lazy and weaken the strength of their protections. This may make it easier to rob them.</p><br><p>Things are always changing on the high seas! So, try your best to pay attention!</p><p><img src='run_exp/static/images/tutorial/contingency.png' height='500'></p></div>","","","","","","","","","","","","","","","","","",""
"","html-keyboard-response","43","398658","0.0-35.0-7.0","""event"",""trial"",""time""
""fullscreenenter"",""0"",""17829""
","
","
","""event"",""trial"",""time""
""fullscreenenter"",""0"",""17829""
","
","11582.39999999851","<div class='center'><p>How successful a pirate is at robbing ships can also change over the time spent on the island. </p><p> Ships may hear from islanders about the pirates coming and will improve their protections against the attack. This may make it harder to rob them.</p><p> Ships may also become lazy and weaken the strength of their protections. This may make it easier to rob them.</p><br><p>Things are always changing on the high seas! So, try your best to pay attention!</p><p><img src='run_exp/static/images/tutorial/contingency.png' height='500'></p><p><b>[Press the space bar to continue]</b></p></div>","32","","","","","","","","","","","","","","","","","","","","","","",""
"","instruc13","44","433858","0.0-35.0-8.0","""event"",""trial"",""time""
""fullscreenenter"",""0"",""17829""
","
","
","""event"",""trial"",""time""
""fullscreenenter"",""0"",""17829""
","
","null","run_exp/static/audio/clip_15_summary.m4a","null","","","","","<div class='center'><p>Let's go over the instructions quickly again. You have two important things to do: </p><b><p> 1. Pick the pirate who is the best at robbing ships on the current island. </p></b><b><p> 2. Remember on which island a ship was robbed.</p> </b><p>The amount of bonus money you can win depends on both.</p><p><br><p>Let’s try a practice game. The game will start by showing you the pirates. First, pick a pirate using the <b> 1, 2, 3 </b> keys on your keyboard. When you are shown a ship, try to remember which island you’re on by making up a story.</p><p>This is just a practice game, so you’re not playing for money. </p><p> Good luck! This game will be very difficult but try your best!</p></div>","","","","","","","","","","","","","","","","","",""
"","html-keyboard-response","45","435173","0.0-35.0-9.0","""event"",""trial"",""time""
""fullscreenenter"",""0"",""17829""
","
","
","""event"",""trial"",""time""
""fullscreenenter"",""0"",""17829""
","
","1314.2000000029802","<div class='center'><p>Let's go over the instructions quickly again. You have two important things to do: </p><b><p> 1. Pick the pirate who is the best at robbing ships on the current island. </p></b><b><p> 2. Remember on which island a ship was robbed.</p> </b><p>The amount of bonus money you can win depends on both.</p><p><br><p>Let’s try a practice game. The game will start by showing you the pirates. First, pick a pirate using the <b> 1, 2, 3 </b> keys on your keyboard. When you are shown a ship, try to remember which island you’re on by making up a story.</p><p>This is just a practice game, so you’re not playing for money. </p><p> Good luck! This game will be very difficult but try your best!</p><p><b>[Press the space bar to continue]</b></p></div>","32","","","","","","","","","","","","","","","","","","","","","","",""
"","do_welcome","46","439196","0.0-35.0-10.0","""event"",""trial"",""time""
""fullscreenenter"",""0"",""17829""
","
","
","""event"",""trial"",""time""
""fullscreenenter"",""0"",""17829""
","
","null","","","","","","","","null","","","","","","","","","","","","","","","","",""
"","do_trial","47","444929","0.0-35.0-11.0","""event"",""trial"",""time""
""fullscreenenter"",""0"",""17829""
","
","
","""event"",""trial"",""time""
""fullscreenenter"",""0"",""17829""
","
","1221.9000000022352","","","","","","","","49","1,0,0","","","","","","","","","","","","","","","",""
"","html-keyboard-response","48","445938","0.0-36.0-0.0","""event"",""trial"",""time""
""fullscreenenter"",""0"",""17829""
","
","
","""event"",""trial"",""time""
""fullscreenenter"",""0"",""17829""
","
","null","<p></p>","null","","","","","","","","","","","","","","","","","","","","","","",""
"","do_trial","49","450501","0.0-36.0-1.0","""event"",""trial"",""time""
""fullscreenenter"",""0"",""17829""
","
","
","""event"",""trial"",""time""
""fullscreenenter"",""0"",""17829""
","
","53.30000000074506","","","","","","","","49","1,1,0","","","","","","","","","","","","","","","",""
"","html-keyboard-response","50","451503","0.0-37.0-0.0","""event"",""trial"",""time""
""fullscreenenter"",""0"",""17829""
","
","
","""event"",""trial"",""time""
""fullscreenenter"",""0"",""17829""
","
","null","<p></p>","null","","","","","","","","","","","","","","","","","","","","","","",""
"","do_trial","51","456853","0.0-37.0-1.0","""event"",""trial"",""time""
""fullscreenenter"",""0"",""17829""
","
","
","""event"",""trial"",""time""
""fullscreenenter"",""0"",""17829""
","
","839.2000000029802","","","","","","","","49","1,0,1","","","","","","","","","","","","","","","",""
"","html-keyboard-response","52","457855","0.0-38.0-0.0","""event"",""trial"",""time""
""fullscreenenter"",""0"",""17829""
","
","
","""event"",""trial"",""time""
""fullscreenenter"",""0"",""17829""
","
","null","<p></p>","null","","","","","","","","","","","","","","","","","","","","","","",""
"","do_trial","53","462993","0.0-38.0-1.0","""event"",""trial"",""time""
""fullscreenenter"",""0"",""17829""
","
","
","""event"",""trial"",""time""
""fullscreenenter"",""0"",""17829""
","
","629.4000000022352","","","","","","","","49","0,1,0","","","","","","","","","","","","","","","",""
"","html-keyboard-response","54","463996","0.0-39.0-0.0","""event"",""trial"",""time""
""fullscreenenter"",""0"",""17829""
","
","
","""event"",""trial"",""time""
""fullscreenenter"",""0"",""17829""
","
","null","<p></p>","null","","","","","","","","","","","","","","","","","","","","","","",""
"","do_trial","55","469469","0.0-39.0-1.0","""event"",""trial"",""time""
""fullscreenenter"",""0"",""17829""
","
","
","""event"",""trial"",""time""
""fullscreenenter"",""0"",""17829""
","
","964","","","","","","","","49","1,0,0","","","","","","","","","","","","","","","",""
"","do_bye","56","470977","0.0-40.0-0.0","""event"",""trial"",""time""
""fullscreenenter"",""0"",""17829""
","
","
","""event"",""trial"",""time""
""fullscreenenter"",""0"",""17829""
","
","null","","","","","","","","null","","","","","","","","","","","","","","","","",""
"","do_travel","57","479981","0.0-40.0-1.0","""event"",""trial"",""time""
""fullscreenenter"",""0"",""17829""
","
","
","""event"",""trial"",""time""
""fullscreenenter"",""0"",""17829""
","
","null","","","","","","","","null","","","","","","","","","","","","","","","","",""
"","do_welcome","58","483997","0.0-40.0-2.0","""event"",""trial"",""time""
""fullscreenenter"",""0"",""17829""
","
","
","""event"",""trial"",""time""
""fullscreenenter"",""0"",""17829""
","
","null","","","","","","","","null","","","","","","","","","","","","","","","","",""
"","do_trial","59","489720","0.0-40.0-3.0","""event"",""trial"",""time""
""fullscreenenter"",""0"",""17829""
","
","
","""event"",""trial"",""time""
""fullscreenenter"",""0"",""17829""
","
","1213","","","","","","","","49","1,0,0","","","","","","","","","","","","","","","",""
"","html-keyboard-response","60","490754","0.0-41.0-0.0","""event"",""trial"",""time""
""fullscreenenter"",""0"",""17829""
","
","
","""event"",""trial"",""time""
""fullscreenenter"",""0"",""17829""
","
","null","<p></p>","null","","","","","","","","","","","","","","","","","","","","","","",""
"","do_trial","61","495647","0.0-41.0-1.0","""event"",""trial"",""time""
""fullscreenenter"",""0"",""17829""
","
","
","""event"",""trial"",""time""
""fullscreenenter"",""0"",""17829""
","
","383.30000000074506","","","","","","","","49","1,0,1","","","","","","","","","","","","","","","",""
"","html-keyboard-response","62","496648","0.0-42.0-0.0","""event"",""trial"",""time""
""fullscreenenter"",""0"",""17829""
","
","
","""event"",""trial"",""time""
""fullscreenenter"",""0"",""17829""
","
","null","<p></p>","null","","","","","","","","","","","","","","","","","","","","","","",""
"","do_trial","63","502428","0.0-42.0-1.0","""event"",""trial"",""time""
""fullscreenenter"",""0"",""17829""
","
","
","""event"",""trial"",""time""
""fullscreenenter"",""0"",""17829""
","
","1272.1000000014901","","","","","","","","49","1,1,0","","","","","","","","","","","","","","","",""
"","html-keyboard-response","64","503434","0.0-43.0-0.0","""event"",""trial"",""time""
""fullscreenenter"",""0"",""17829""
","
","
","""event"",""trial"",""time""
""fullscreenenter"",""0"",""17829""
","
","null","<p></p>","null","","","","","","","","","","","","","","","","","","","","","","",""
"","do_trial","65","509425","0.0-43.0-1.0","""event"",""trial"",""time""
""fullscreenenter"",""0"",""17829""
","
","
","""event"",""trial"",""time""
""fullscreenenter"",""0"",""17829""
","
","1482.300000000745","","","","","","","","49","0,0,1","","","","","","","","","","","","","","","",""
"","html-keyboard-response","66","510428","0.0-44.0-0.0","""event"",""trial"",""time""
""fullscreenenter"",""0"",""17829""
","
","
","""event"",""trial"",""time""
""fullscreenenter"",""0"",""17829""
","
","null","<p></p>","null","","","","","","","","","","","","","","","","","","","","","","",""
"","do_trial","67","516037","0.0-44.0-1.0","""event"",""trial"",""time""
""fullscreenenter"",""0"",""17829""
","
","
","""event"",""trial"",""time""
""fullscreenenter"",""0"",""17829""
","
","1099.7000000029802","","","","","","","","49","1,0,1","","","","","","","","","","","","","","","",""
"","html-keyboard-response","68","518501","0.0-45.0-0.0","""event"",""trial"",""time""
""fullscreenenter"",""0"",""17829""
","
","
","""event"",""trial"",""time""
""fullscreenenter"",""0"",""17829""
","
","2461.39999999851","<div class='center'><p><img src='run_exp/static/images/tutorial/prac_best_pirate.png'  height='500'></p></div>","49","","","","","","","","","","","","","","","","","","","","","","",""
"","html-keyboard-response","69","519460","0.0-46.0-0.0","""event"",""trial"",""time""
""fullscreenenter"",""0"",""17829""
","
","
","""event"",""trial"",""time""
""fullscreenenter"",""0"",""17829""
","
","957.3000000007451","<div class='center'><p>That's correct! Red beard was the best.</p><p><b>[Press the space bar to continue]</b></p></div>","32","","","","","","","","","","","","","","","","","","","","","","",""
"","html-keyboard-response","70","522467","0.0-46.0-1.0","""event"",""trial"",""time""
""fullscreenenter"",""0"",""17829""
","
","
","""event"",""trial"",""time""
""fullscreenenter"",""0"",""17829""
","
","3005.10000000149","<div class='center'><p><img src='run_exp/static/images/tutorial/prac_source.png'  height='500'></p></div>","50","","","","","","","","","","","","","","","","","","","","","","",""
"","html-keyboard-response","71","523385","0.0-47.0-0.0","""event"",""trial"",""time""
""fullscreenenter"",""0"",""17829""
","
","
","""event"",""trial"",""time""
""fullscreenenter"",""0"",""17829""
","
","916.8000000007451","<div class='center'><p>That's correct! You saw this ship on the cavern island.</p><p><b>[Press the space bar to continue]</b></p></div>","32","","","","","","","","","","","","","","","","","","","","","","",""
"","quiz_beginning","72","534695","0.0-47.0-1.0","""event"",""trial"",""time""
""fullscreenenter"",""0"",""17829""
","
","
","""event"",""trial"",""time""
""fullscreenenter"",""0"",""17829""
","
","null","run_exp/static/audio/clip_16_quiz_intro.m4a","null","","","","","<div class='center'><p>Good job on the practice game! Now, you will be asked some true or false questions to make sure you really understand the rules of the game.</p><p> Press <b>'1'</b> on the keyboard for true and press <b>'2'</b> for false.</p></div>","","","","","","","","","","","","","","","","","",""
"","audio-keyboard-response","73","539263","0.0-47.0-2.0","""event"",""trial"",""time""
""fullscreenenter"",""0"",""17829""
","
","
","""event"",""trial"",""time""
""fullscreenenter"",""0"",""17829""
","
","4566","run_exp/static/audio/clip_17_q1.m4a","50","","","","","","","","","","","","","","","","","","","","","","",""
"","q1_err","74","544169","0.0-48.0-0.0","""event"",""trial"",""time""
""fullscreenenter"",""0"",""17829""
","
","
","""event"",""trial"",""time""
""fullscreenenter"",""0"",""17829""
","
","null","run_exp/static/audio/clip_19_wrong_q1.m4a","null","","","","","<div class='center'><p>That’s incorrect. You win bonus money by collecting gold coins.</p></div>","","","","","","","","","","","","","","","","","",""
"","html-keyboard-response","75","545032","0.0-48.0-1.0","""event"",""trial"",""time""
""fullscreenenter"",""0"",""17829""
","
","
","""event"",""trial"",""time""
""fullscreenenter"",""0"",""17829""
","
","862.6000000014901","<div class='center'><p>That’s incorrect. You win bonus money by collecting gold coins.</p><p><b>[Press the space bar to continue]</b></p></div>","32","","","","","","","","","","","","","","","","","","","","","","",""
"","audio-keyboard-response","76","552892","0.0-48.0-2.0","""event"",""trial"",""time""
""fullscreenenter"",""0"",""17829""
","
","
","""event"",""trial"",""time""
""fullscreenenter"",""0"",""17829""
","
","7858.39999999851","run_exp/static/audio/clip_20_q2.m4a","49","","","","","","","","","","","","","","","","","","","","","","",""
"","q2_err","77","558403","0.0-49.0-0.0","""event"",""trial"",""time""
""fullscreenenter"",""0"",""17829""
","
","
","""event"",""trial"",""time""
""fullscreenenter"",""0"",""17829""
","
","null","run_exp/static/audio/clip_21_wrong_q2.m4a","null","","","","","<div class='center'><p>That’s incorrect. Which pirate is the best may change during your time on the island.</p></div>","","","","","","","","","","","","","","","","","",""
"","html-keyboard-response","78","589462","0.0-49.0-1.0","""event"",""trial"",""time""
""fullscreenenter"",""0"",""17829""
","
","
","""event"",""trial"",""time""
""fullscreenenter"",""0"",""17829""
","
","31056.800000000745","<div class='center'><p>That’s incorrect. Which pirate is the best may change during your time on the island.</p><p><b>[Press the space bar to continue]</b></p></div>","32","","","","","","","","","","","","","","","","","","","","","","",""
"","audio-keyboard-response","79","592746","0.0-49.0-2.0","""event"",""trial"",""time""
""fullscreenenter"",""0"",""17829""
","
","
","""event"",""trial"",""time""
""fullscreenenter"",""0"",""17829""
","
","3282","run_exp/static/audio/clip_22_q3.m4a","50","","","","","","","","","","","","","","","","","","","","","","",""
"","correct","80","595158","0.0-50.0-0.0","""event"",""trial"",""time""
""fullscreenenter"",""0"",""17829""
","
","
","""event"",""trial"",""time""
""fullscreenenter"",""0"",""17829""
","
","null","run_exp/static/audio/clip_18_correct.m4a","null","","","","","<div class='center'><p>That's correct!</p></div>","","","","","","","","","","","","","","","","","",""
"","html-keyboard-response","81","633252","0.0-50.0-1.0","""event"",""trial"",""time""
""fullscreenenter"",""0"",""17829""
","
","
","""event"",""trial"",""time""
""fullscreenenter"",""0"",""17829""
","
","38091.699999999255","<div class='center'><p>That's correct!</p><p><b>[Press the space bar to continue]</b></p></div>","32","","","","","","","","","","","","","","","","","","","","","","",""
"","audio-keyboard-response","82","638114","0.0-50.0-2.0","""event"",""trial"",""time""
""fullscreenenter"",""0"",""17829""
","
","
","""event"",""trial"",""time""
""fullscreenenter"",""0"",""17829""
","
","4860.5","run_exp/static/audio/clip_24_q4.m4a","49","","","","","","","","","","","","","","","","","","","","","","",""
"","correct","83","640524","0.0-51.0-0.0","""event"",""trial"",""time""
""fullscreenenter"",""0"",""17829""
","
","
","""event"",""trial"",""time""
""fullscreenenter"",""0"",""17829""
","
","null","run_exp/static/audio/clip_18_correct.m4a","null","","","","","<div class='center'><p>That's correct!</p></div>","","","","","","","","","","","","","","","","","",""
"","html-keyboard-response","84","647058","0.0-51.0-1.0","""event"",""trial"",""time""
""fullscreenenter"",""0"",""17829""
","
","
","""event"",""trial"",""time""
""fullscreenenter"",""0"",""17829""
","
","6533.400000002235","<div class='center'><p>That's correct!</p><p><b>[Press the space bar to continue]</b></p></div>","32","","","","","","","","","","","","","","","","","","","","","","",""
"","q_all_err","85","653273","0.0-52.0-0.0","""event"",""trial"",""time""
""fullscreenenter"",""0"",""17829""
","
","
","""event"",""trial"",""time""
""fullscreenenter"",""0"",""17829""
","
","null","run_exp/static/audio/clip_26_quiz_redo.m4a","null","","","","","<div class='center'><p>Oops, you missed some questions. Now that you’ve heard the correct answers. Try the quiz again! </p></div>","","","","","","","","","","","","","","","","","",""
"","html-keyboard-response","86","659894","0.0-52.0-1.0","""event"",""trial"",""time""
""fullscreenenter"",""0"",""17829""
","
","
","""event"",""trial"",""time""
""fullscreenenter"",""0"",""17829""
","
","6620","<div class='center'><p>Oops, you missed some questions. Now that you’ve heard the correct answers. Try the quiz again! </p><p><b>[Press the space bar to continue]</b></p></div>","32","","","","","","","","","","","","","","","","","","","","","","",""
"","audio-keyboard-response","87","661933","0.0-52.0-2.0","""event"",""trial"",""time""
""fullscreenenter"",""0"",""17829""
","
","
","""event"",""trial"",""time""
""fullscreenenter"",""0"",""17829""
","
","2037.300000000745","run_exp/static/audio/clip_17_q1.m4a","49","","","","","","","","","","","","","","","","","","","","","","",""
"","correct","88","664348","0.0-53.0-0.0","""event"",""trial"",""time""
""fullscreenenter"",""0"",""17829""
","
","
","""event"",""trial"",""time""
""fullscreenenter"",""0"",""17829""
","
","null","run_exp/static/audio/clip_18_correct.m4a","null","","","","","<div class='center'><p>That's correct!</p></div>","","","","","","","","","","","","","","","","","",""
"","html-keyboard-response","89","664459","0.0-53.0-1.0","""event"",""trial"",""time""
""fullscreenenter"",""0"",""17829""
","
","
","""event"",""trial"",""time""
""fullscreenenter"",""0"",""17829""
","
","109.5","<div class='center'><p>That's correct!</p><p><b>[Press the space bar to continue]</b></p></div>","32","","","","","","","","","","","","","","","","","","","","","","",""
"","audio-keyboard-response","90","668207","0.0-53.0-2.0","""event"",""trial"",""time""
""fullscreenenter"",""0"",""17829""
","
","
","""event"",""trial"",""time""
""fullscreenenter"",""0"",""17829""
","
","3746.5","run_exp/static/audio/clip_20_q2.m4a","50","","","","","","","","","","","","","","","","","","","","","","",""
"","correct","91","670619","0.0-54.0-0.0","""event"",""trial"",""time""
""fullscreenenter"",""0"",""17829""
","
","
","""event"",""trial"",""time""
""fullscreenenter"",""0"",""17829""
","
","null","run_exp/static/audio/clip_18_correct.m4a","null","","","","","<div class='center'><p>That's correct!</p></div>","","","","","","","","","","","","","","","","","",""
"","html-keyboard-response","92","680788","0.0-54.0-1.0","""event"",""trial"",""time""
""fullscreenenter"",""0"",""17829""
","
","
","""event"",""trial"",""time""
""fullscreenenter"",""0"",""17829""
","
","10168.599999997765","<div class='center'><p>That's correct!</p><p><b>[Press the space bar to continue]</b></p></div>","32","","","","","","","","","","","","","","","","","","","","","","",""
"","audio-keyboard-response","93","683333","0.0-54.0-2.0","""event"",""trial"",""time""
""fullscreenenter"",""0"",""17829""
","
","
","""event"",""trial"",""time""
""fullscreenenter"",""0"",""17829""
","
","2542.699999999255","run_exp/static/audio/clip_22_q3.m4a","50","","","","","","","","","","","","","","","","","","","","","","",""
"","correct","94","685748","0.0-55.0-0.0","""event"",""trial"",""time""
""fullscreenenter"",""0"",""17829""
","
","
","""event"",""trial"",""time""
""fullscreenenter"",""0"",""17829""
","
","null","run_exp/static/audio/clip_18_correct.m4a","null","","","","","<div class='center'><p>That's correct!</p></div>","","","","","","","","","","","","","","","","","",""
"","html-keyboard-response","95","687881","0.0-55.0-1.0","""event"",""trial"",""time""
""fullscreenenter"",""0"",""17829""
","
","
","""event"",""trial"",""time""
""fullscreenenter"",""0"",""17829""
","
","2132","<div class='center'><p>That's correct!</p><p><b>[Press the space bar to continue]</b></p></div>","32","","","","","","","","","","","","","","","","","","","","","","",""
"","audio-keyboard-response","96","692312","0.0-55.0-2.0","""event"",""trial"",""time""
""fullscreenenter"",""0"",""17829""
","
","
","""event"",""trial"",""time""
""fullscreenenter"",""0"",""17829""
","
","4429.10000000149","run_exp/static/audio/clip_24_q4.m4a","49","","","","","","","","","","","","","","","","","","","","","","",""
"","correct","97","694782","0.0-56.0-0.0","""event"",""trial"",""time""
""fullscreenenter"",""0"",""17829""
","
","
","""event"",""trial"",""time""
""fullscreenenter"",""0"",""17829""
","
","null","run_exp/static/audio/clip_18_correct.m4a","null","","","","","<div class='center'><p>That's correct!</p></div>","","","","","","","","","","","","","","","","","",""
"","html-keyboard-response","98","720147","0.0-56.0-1.0","""event"",""trial"",""time""
""fullscreenenter"",""0"",""17829""
","
","
","""event"",""trial"",""time""
""fullscreenenter"",""0"",""17829""
","
","25362.5","<div class='center'><p>That's correct!</p><p><b>[Press the space bar to continue]</b></p></div>","32","","","","","","","","","","","","","","","","","","","","","","",""
"","q_all_corr","99","728779","0.0-57.0-0.0","""event"",""trial"",""time""
""fullscreenenter"",""0"",""17829""
","
","
","""event"",""trial"",""time""
""fullscreenenter"",""0"",""17829""
","
","null","run_exp/static/audio/clip_27_quiz_all_correct.m4a","null","","","","","<div class='center'><p>Good job! You’re now ready to move on to the real game! Remember this game will be difficult but don't get discouraged and try your best!</p></div>","","","","","","","","","","","","","","","","","",""
"","html-keyboard-response","100","754544","0.0-57.0-1.0","""event"",""trial"",""time""
""fullscreenenter"",""0"",""17829""
","
","
","""event"",""trial"",""time""
""fullscreenenter"",""0"",""17829""
","
","25763.099999997765","<div class='center'><p>Good job! You’re now ready to move on to the real game! Remember this game will be difficult but don't get discouraged and try your best!</p><p><b>[Press the space bar to continue]</b></p></div>","32","","","","","","","","","","","","","","","","","","","","","","",""
"","do_welcome","101","758553","0.0-58.0-0.0","""event"",""trial"",""time""
""fullscreenenter"",""0"",""17829""
","
","
","""event"",""trial"",""time""
""fullscreenenter"",""0"",""17829""
","
","null","","","","","","","","null","","","","","","","","","","","","","","","","",""
"","do_trial","102","765815","0.0-59.0-0.0","""event"",""trial"",""time""
""fullscreenenter"",""0"",""17829""
","
","
","""event"",""trial"",""time""
""fullscreenenter"",""0"",""17829""
","
","2708.900000002235","","","","","","","","49","0,0,0","0","countryside","0","probe-180","0.6","0.3","0.1","0","","","","","","","",""
"","html-keyboard-response","103","766817","0.0-59.0-1.0","""event"",""trial"",""time""
""fullscreenenter"",""0"",""17829""
","
","
","""event"",""trial"",""time""
""fullscreenenter"",""0"",""17829""
","
","null","<p></p>","null","","","","","","","","","","","","","","","","","","","","","","",""
"","do_trial","104","771772","0.0-60.0-0.0","""event"",""trial"",""time""
""fullscreenenter"",""0"",""17829""
","
","
","""event"",""trial"",""time""
""fullscreenenter"",""0"",""17829""
","
","403.8999999985099","","","","","","","","49","1,1,0","0","countryside","1","probe-01","0.7120339612471871","0.3504217678979724","0.15200088473182985","1","","","","","","","",""
"","html-keyboard-response","105","772775","0.0-60.0-1.0","""event"",""trial"",""time""
""fullscreenenter"",""0"",""17829""
","
","
","""event"",""trial"",""time""
""fullscreenenter"",""0"",""17829""
","
","null","<p></p>","null","","","","","","","","","","","","","","","","","","","","","","",""
"","do_trial","106","777761","0.0-61.0-0.0","""event"",""trial"",""time""
""fullscreenenter"",""0"",""17829""
","
","
","""event"",""trial"",""time""
""fullscreenenter"",""0"",""17829""
","
","434.69999999925494","","","","","","","","50","1,0,0","0","countryside","2","probe-116","0.8556610453968536","0.3655396836364248","0.22073761972197062","0","","","","","","","",""
"","html-keyboard-response","107","778763","0.0-61.0-1.0","""event"",""trial"",""time""
""fullscreenenter"",""0"",""17829""
","
","
","""event"",""trial"",""time""
""fullscreenenter"",""0"",""17829""
","
","null","<p></p>","null","","","","","","","","","","","","","","","","","","","","","","",""
"","do_trial","108","783728","0.0-62.0-0.0","""event"",""trial"",""time""
""fullscreenenter"",""0"",""17829""
","
","
","""event"",""trial"",""time""
""fullscreenenter"",""0"",""17829""
","
","414.1000000014901","","","","","","","","50","1,1,1","0","countryside","3","probe-207","0.7200284144037176","0.31289817120047697","0.24302813476256716","1","","","","","","","",""
"","html-keyboard-response","109","784731","0.0-62.0-1.0","""event"",""trial"",""time""
""fullscreenenter"",""0"",""17829""
","
","
","""event"",""trial"",""time""
""fullscreenenter"",""0"",""17829""
","
","null","<p></p>","null","","","","","","","","","","","","","","","","","","","","","","",""
"","do_trial","110","789952","0.0-63.0-0.0","""event"",""trial"",""time""
""fullscreenenter"",""0"",""17829""
","
","
","""event"",""trial"",""time""
""fullscreenenter"",""0"",""17829""
","
","668.1999999992549","","","","","","","","51","1,0,0","0","countryside","4","probe-102","0.7783210490102759","0.3010533391694788","0.12460543408509445","0","","","","","","","",""
"","html-keyboard-response","111","790954","0.0-63.0-1.0","""event"",""trial"",""time""
""fullscreenenter"",""0"",""17829""
","
","
","""event"",""trial"",""time""
""fullscreenenter"",""0"",""17829""
","
","null","<p></p>","null","","","","","","","","","","","","","","","","","","","","","","",""
"","do_trial","112","795934","0.0-64.0-0.0","""event"",""trial"",""time""
""fullscreenenter"",""0"",""17829""
","
","
","""event"",""trial"",""time""
""fullscreenenter"",""0"",""17829""
","
","429.80000000074506","","","","","","","","51","0,0,0","0","countryside","5","probe-169","0.6979318275632699","0.33601680625677993","0.0658047374182404","0","","","","","","","",""
"","html-keyboard-response","113","796936","0.0-64.0-1.0","""event"",""trial"",""time""
""fullscreenenter"",""0"",""17829""
","
","
","""event"",""trial"",""time""
""fullscreenenter"",""0"",""17829""
","
","null","<p></p>","null","","","","","","","","","","","","","","","","","","","","","","",""
"","do_trial","114","801841","0.0-65.0-0.0","""event"",""trial"",""time""
""fullscreenenter"",""0"",""17829""
","
","
","""event"",""trial"",""time""
""fullscreenenter"",""0"",""17829""
","
","353.5999999977648","","","","","","","","50","0,1,0","0","countryside","6","probe-59","0.5748274200513791","0.3211663008261608","0.05521384345085171","1","","","","","","","",""
"","html-keyboard-response","115","802843","0.0-65.0-1.0","""event"",""trial"",""time""
""fullscreenenter"",""0"",""17829""
","
","
","""event"",""trial"",""time""
""fullscreenenter"",""0"",""17829""
","
","null","<p></p>","null","","","","","","","","","","","","","","","","","","","","","","",""
"","do_trial","116","807709","0.0-66.0-0.0","""event"",""trial"",""time""
""fullscreenenter"",""0"",""17829""
","
","
","""event"",""trial"",""time""
""fullscreenenter"",""0"",""17829""
","
","315.6000000014901","","","","","","","","50","1,1,1","0","countryside","7","probe-93","0.5515456411195744","0.32473384303782515","0.06408409822563306","1","","","","","","","",""
"","html-keyboard-response","117","808711","0.0-66.0-1.0","""event"",""trial"",""time""
""fullscreenenter"",""0"",""17829""
","
","
","""event"",""trial"",""time""
""fullscreenenter"",""0"",""17829""
","
","null","<p></p>","null","","","","","","","","","","","","","","","","","","","","","","",""
"","do_trial","118","813625","0.0-67.0-0.0","""event"",""trial"",""time""
""fullscreenenter"",""0"",""17829""
","
","
","""event"",""trial"",""time""
""fullscreenenter"",""0"",""17829""
","
","365.3999999985099","","","","","","","","50","0,0,0","0","countryside","8","probe-145","0.5750410218811981","0.23551283611221138","0.12974579364277278","0","","","","","","","",""
"","html-keyboard-response","119","814627","0.0-67.0-1.0","""event"",""trial"",""time""
""fullscreenenter"",""0"",""17829""
","
","
","""event"",""trial"",""time""
""fullscreenenter"",""0"",""17829""
","
","null","<p></p>","null","","","","","","","","","","","","","","","","","","","","","","",""
"","do_trial","120","819288","0.0-68.0-0.0","""event"",""trial"",""time""
""fullscreenenter"",""0"",""17829""
","
","
","""event"",""trial"",""time""
""fullscreenenter"",""0"",""17829""
","
","111.39999999850988","","","","","","","","50","1,0,1","0","countryside","9","probe-66","0.5675784055634435","0.17105887271882048","0.09529196146527441","0","","","","","","","",""
"","html-keyboard-response","121","820290","0.0-68.0-1.0","""event"",""trial"",""time""
""fullscreenenter"",""0"",""17829""
","
","
","""event"",""trial"",""time""
""fullscreenenter"",""0"",""17829""
","
","null","<p></p>","null","","","","","","","","","","","","","","","","","","","","","","",""
"","do_trial","122","825176","0.0-69.0-0.0","""event"",""trial"",""time""
""fullscreenenter"",""0"",""17829""
","
","
","""event"",""trial"",""time""
""fullscreenenter"",""0"",""17829""
","
","335.6000000014901","","","","","","","","50","1,0,0","0","countryside","10","probe-221","0.5725484003687291","0.1966039624411347","0.19008993144397793","0","","","","","","","",""
"","html-keyboard-response","123","826178","0.0-69.0-1.0","""event"",""trial"",""time""
""fullscreenenter"",""0"",""17829""
","
","
","""event"",""trial"",""time""
""fullscreenenter"",""0"",""17829""
","
","null","<p></p>","null","","","","","","","","","","","","","","","","","","","","","","",""
"","do_trial","124","831143","0.0-70.0-0.0","""event"",""trial"",""time""
""fullscreenenter"",""0"",""17829""
","
","
","""event"",""trial"",""time""
""fullscreenenter"",""0"",""17829""
","
","410.30000000074506","","","","","","","","49","0,0,0","0","countryside","11","probe-03","0.7072602980152981","0.3182454652749954","0.055227066787509806","0","","","","","","","",""
"","html-keyboard-response","125","832145","0.0-70.0-1.0","""event"",""trial"",""time""
""fullscreenenter"",""0"",""17829""
","
","
","""event"",""trial"",""time""
""fullscreenenter"",""0"",""17829""
","
","null","<p></p>","null","","","","","","","","","","","","","","","","","","","","","","",""
"","do_trial","126","836977","0.0-71.0-0.0","""event"",""trial"",""time""
""fullscreenenter"",""0"",""17829""
","
","
","""event"",""trial"",""time""
""fullscreenenter"",""0"",""17829""
","
","280.30000000074506","","","","","","","","49","1,1,0","0","countryside","12","probe-78","0.6605337186213202","0.37965052051641496","0.056397079258033014","1","","","","","","","",""
"","html-keyboard-response","127","837980","0.0-71.0-1.0","""event"",""trial"",""time""
""fullscreenenter"",""0"",""17829""
","
","
","""event"",""trial"",""time""
""fullscreenenter"",""0"",""17829""
","
","null","<p></p>","null","","","","","","","","","","","","","","","","","","","","","","",""
"","do_trial","128","844000","0.0-72.0-0.0","""event"",""trial"",""time""
""fullscreenenter"",""0"",""17829""
","
","
","""event"",""trial"",""time""
""fullscreenenter"",""0"",""17829""
","
","1469.6000000014901","","","","","","","","49","0,1,0","0","countryside","13","probe-94","0.45537673537259793","0.34311593012984687","0.10723431141085214","0","","","","","","","",""
"","html-keyboard-response","129","845002","0.0-72.0-1.0","""event"",""trial"",""time""
""fullscreenenter"",""0"",""17829""
","
","
","""event"",""trial"",""time""
""fullscreenenter"",""0"",""17829""
","
","null","<p></p>","null","","","","","","","","","","","","","","","","","","","","","","",""
"","do_trial","130","849865","0.0-73.0-0.0","""event"",""trial"",""time""
""fullscreenenter"",""0"",""17829""
","
","
","""event"",""trial"",""time""
""fullscreenenter"",""0"",""17829""
","
","314.4000000022352","","","","","","","","51","1,0,0","0","countryside","14","probe-139","0.5157944139058467","0.4365133181783821","0.05801023643419641","0","","","","","","","",""
"","html-keyboard-response","131","850867","0.0-73.0-1.0","""event"",""trial"",""time""
""fullscreenenter"",""0"",""17829""
","
","
","""event"",""trial"",""time""
""fullscreenenter"",""0"",""17829""
","
","null","<p></p>","null","","","","","","","","","","","","","","","","","","","","","","",""
"","do_trial","132","856111","0.0-74.0-0.0","""event"",""trial"",""time""
""fullscreenenter"",""0"",""17829""
","
","
","""event"",""trial"",""time""
""fullscreenenter"",""0"",""17829""
","
","691.8999999985099","","","","","","","","51","1,1,0","0","countryside","15","probe-159","0.4806680831387541","0.3578514791167797","0.07310598039809373","0","","","","","","","",""
"","html-keyboard-response","133","857113","0.0-74.0-1.0","""event"",""trial"",""time""
""fullscreenenter"",""0"",""17829""
","
","
","""event"",""trial"",""time""
""fullscreenenter"",""0"",""17829""
","
","null","<p></p>","null","","","","","","","","","","","","","","","","","","","","","","",""
"","do_trial","134","861958","0.0-75.0-0.0","""event"",""trial"",""time""
""fullscreenenter"",""0"",""17829""
","
","
","""event"",""trial"",""time""
""fullscreenenter"",""0"",""17829""
","
","295.4000000022352","","","","","","","","51","0,0,0","0","countryside","16","probe-158","0.49701601091682746","0.2919423743603661","0.05559771178097579","0","","","","","","","",""
"","html-keyboard-response","135","862960","0.0-75.0-1.0","""event"",""trial"",""time""
""fullscreenenter"",""0"",""17829""
","
","
","""event"",""trial"",""time""
""fullscreenenter"",""0"",""17829""
","
","null","<p></p>","null","","","","","","","","","","","","","","","","","","","","","","",""
"","do_trial","136","867807","0.0-76.0-0.0","""event"",""trial"",""time""
""fullscreenenter"",""0"",""17829""
","
","
","""event"",""trial"",""time""
""fullscreenenter"",""0"",""17829""
","
","292.30000000074506","","","","","","","","50","0,0,0","0","countryside","17","probe-15","0.5426939844789525","0.4020769438742572","0.07549158687704502","0","","","","","","","",""
"","html-keyboard-response","137","868809","0.0-76.0-1.0","""event"",""trial"",""time""
""fullscreenenter"",""0"",""17829""
","
","
","""event"",""trial"",""time""
""fullscreenenter"",""0"",""17829""
","
","null","<p></p>","null","","","","","","","","","","","","","","","","","","","","","","",""
"","do_trial","138","873569","0.0-77.0-0.0","""event"",""trial"",""time""
""fullscreenenter"",""0"",""17829""
","
","
","""event"",""trial"",""time""
""fullscreenenter"",""0"",""17829""
","
","208.39999999850988","","","","","","","","50","1,1,0","0","countryside","18","probe-218","0.6065288248464955","0.31119818128711507","0.1037403838366245","1","","","","","","","",""
"","html-keyboard-response","139","874572","0.0-77.0-1.0","""event"",""trial"",""time""
""fullscreenenter"",""0"",""17829""
","
","
","""event"",""trial"",""time""
""fullscreenenter"",""0"",""17829""
","
","null","<p></p>","null","","","","","","","","","","","","","","","","","","","","","","",""
"","do_trial","140","879396","0.0-78.0-0.0","""event"",""trial"",""time""
""fullscreenenter"",""0"",""17829""
","
","
","""event"",""trial"",""time""
""fullscreenenter"",""0"",""17829""
","
","273.4000000022352","","","","","","","","50","0,0,0","0","countryside","19","probe-109","0.49309536124605546","0.3031834002558857","0.054709221713998446","0","","","","","","","",""
"","html-keyboard-response","141","880399","0.0-78.0-1.0","""event"",""trial"",""time""
""fullscreenenter"",""0"",""17829""
","
","
","""event"",""trial"",""time""
""fullscreenenter"",""0"",""17829""
","
","null","<p></p>","null","","","","","","","","","","","","","","","","","","","","","","",""
"","do_trial","142","885283","0.0-79.0-0.0","""event"",""trial"",""time""
""fullscreenenter"",""0"",""17829""
","
","
","""event"",""trial"",""time""
""fullscreenenter"",""0"",""17829""
","
","338.5","","","","","","","","50","1,0,0","0","countryside","20","probe-217","0.690162071392377","0.23479726232813053","0.10588868440875157","0","","","","","","","",""
"","html-keyboard-response","143","886285","0.0-79.0-1.0","""event"",""trial"",""time""
""fullscreenenter"",""0"",""17829""
","
","
","""event"",""trial"",""time""
""fullscreenenter"",""0"",""17829""
","
","null","<p></p>","null","","","","","","","","","","","","","","","","","","","","","","",""
"","do_trial","144","891152","0.0-80.0-0.0","""event"",""trial"",""time""
""fullscreenenter"",""0"",""17829""
","
","
","""event"",""trial"",""time""
""fullscreenenter"",""0"",""17829""
","
","314.19999999925494","","","","","","","","49","1,0,0","0","countryside","21","probe-70","0.5863678099581334","0.29851872858938155","0.08941499145236968","1","","","","","","","",""
"","html-keyboard-response","145","892154","0.0-80.0-1.0","""event"",""trial"",""time""
""fullscreenenter"",""0"",""17829""
","
","
","""event"",""trial"",""time""
""fullscreenenter"",""0"",""17829""
","
","null","<p></p>","null","","","","","","","","","","","","","","","","","","","","","","",""
"","do_trial","146","897011","0.0-81.0-0.0","""event"",""trial"",""time""
""fullscreenenter"",""0"",""17829""
","
","
","""event"",""trial"",""time""
""fullscreenenter"",""0"",""17829""
","
","307.69999999925494","","","","","","","","49","1,0,0","0","countryside","22","probe-175","0.6461402632730063","0.47004975946504557","0.07521385543601967","1","","","","","","","",""
"","html-keyboard-response","147","898013","0.0-81.0-1.0","""event"",""trial"",""time""
""fullscreenenter"",""0"",""17829""
","
","
","""event"",""trial"",""time""
""fullscreenenter"",""0"",""17829""
","
","null","<p></p>","null","","","","","","","","","","","","","","","","","","","","","","",""
"","do_trial","148","903106","0.0-82.0-0.0","""event"",""trial"",""time""
""fullscreenenter"",""0"",""17829""
","
","
","""event"",""trial"",""time""
""fullscreenenter"",""0"",""17829""
","
","541.3000000007451","","","","","","","","49","1,0,0","0","countryside","23","probe-11","0.632652625277568","0.5381747726098753","0.19818222608180985","1","","","","","","","",""
"","html-keyboard-response","149","904109","0.0-82.0-1.0","""event"",""trial"",""time""
""fullscreenenter"",""0"",""17829""
","
","
","""event"",""trial"",""time""
""fullscreenenter"",""0"",""17829""
","
","null","<p></p>","null","","","","","","","","","","","","","","","","","","","","","","",""
"","do_trial","150","909533","0.0-83.0-0.0","""event"",""trial"",""time""
""fullscreenenter"",""0"",""17829""
","
","
","""event"",""trial"",""time""
""fullscreenenter"",""0"",""17829""
","
","863.8000000007451","","","","","","","","49","1,1,0","0","countryside","24","probe-58","0.7671590023845956","0.45932532176277674","0.10235644453604653","1","","","","","","","",""
"","html-keyboard-response","151","910536","0.0-83.0-1.0","""event"",""trial"",""time""
""fullscreenenter"",""0"",""17829""
","
","
","""event"",""trial"",""time""
""fullscreenenter"",""0"",""17829""
","
","null","<p></p>","null","","","","","","","","","","","","","","","","","","","","","","",""
"","do_trial","152","916281","0.0-84.0-0.0","""event"",""trial"",""time""
""fullscreenenter"",""0"",""17829""
","
","
","""event"",""trial"",""time""
""fullscreenenter"",""0"",""17829""
","
","1195.300000000745","","","","","","","","49","0,0,0","0","countryside","25","probe-28","0.6931657948059424","0.4502433013456424","0.15219555804448745","0","","","","","","","",""
"","html-keyboard-response","153","917283","0.0-84.0-1.0","""event"",""trial"",""time""
""fullscreenenter"",""0"",""17829""
","
","
","""event"",""trial"",""time""
""fullscreenenter"",""0"",""17829""
","
","null","<p></p>","null","","","","","","","","","","","","","","","","","","","","","","",""
"","do_trial","154","922229","0.0-85.0-0.0","""event"",""trial"",""time""
""fullscreenenter"",""0"",""17829""
","
","
","""event"",""trial"",""time""
""fullscreenenter"",""0"",""17829""
","
","395.8999999985099","","","","","","","","49","1,0,0","0","countryside","26","probe-120","0.6611613456546834","0.46487532787985897","0.18305465476097127","1","","","","","","","",""
"","html-keyboard-response","155","923231","0.0-85.0-1.0","""event"",""trial"",""time""
""fullscreenenter"",""0"",""17829""
","
","
","""event"",""trial"",""time""
""fullscreenenter"",""0"",""17829""
","
","null","<p></p>","null","","","","","","","","","","","","","","","","","","","","","","",""
"","do_trial","156","928828","0.0-86.0-0.0","""event"",""trial"",""time""
""fullscreenenter"",""0"",""17829""
","
","
","""event"",""trial"",""time""
""fullscreenenter"",""0"",""17829""
","
","1046.2999999970198","","","","","","","","49","1,0,0","0","countryside","27","probe-149","0.8016845143152708","0.36661411743496475","0.275949790198858","1","","","","","","","",""
"","html-keyboard-response","157","929830","0.0-86.0-1.0","""event"",""trial"",""time""
""fullscreenenter"",""0"",""17829""
","
","
","""event"",""trial"",""time""
""fullscreenenter"",""0"",""17829""
","
","null","<p></p>","null","","","","","","","","","","","","","","","","","","","","","","",""
"","do_trial","158","934709","0.0-87.0-0.0","""event"",""trial"",""time""
""fullscreenenter"",""0"",""17829""
","
","
","""event"",""trial"",""time""
""fullscreenenter"",""0"",""17829""
","
","329","","","","","","","","49","1,0,0","0","countryside","28","probe-219","0.8306505222753388","0.18481702529697672","0.2902428217695006","1","","","","","","","",""
"","html-keyboard-response","159","935711","0.0-87.0-1.0","""event"",""trial"",""time""
""fullscreenenter"",""0"",""17829""
","
","
","""event"",""trial"",""time""
""fullscreenenter"",""0"",""17829""
","
","null","<p></p>","null","","","","","","","","","","","","","","","","","","","","","","",""
"","do_trial","160","940702","0.0-88.0-0.0","""event"",""trial"",""time""
""fullscreenenter"",""0"",""17829""
","
","
","""event"",""trial"",""time""
""fullscreenenter"",""0"",""17829""
","
","441.19999999925494","","","","","","","","49","0,0,1","0","countryside","29","probe-230","0.7066065908822019","0.133704983443155","0.1726166073833013","0","","","","","","","",""
"","html-keyboard-response","161","941705","0.0-88.0-1.0","""event"",""trial"",""time""
""fullscreenenter"",""0"",""17829""
","
","
","""event"",""trial"",""time""
""fullscreenenter"",""0"",""17829""
","
","null","<p></p>","null","","","","","","","","","","","","","","","","","","","","","","",""
"","do_bye","162","943212","0.0-89.0-0.0","""event"",""trial"",""time""
""fullscreenenter"",""0"",""17829""
","
","
","""event"",""trial"",""time""
""fullscreenenter"",""0"",""17829""
","
","null","","","","","","","","null","","","","","","","","","","","","","","","","",""
"","break","163","1023071","0.0-89.0-1.0","""event"",""trial"",""time""
""fullscreenenter"",""0"",""17829""
","
","
","""event"",""trial"",""time""
""fullscreenenter"",""0"",""17829""
","
","79855.30000000075","<div class='center'><p>Time to take a quick break! You have 2 minutes to rest, but you can move on sooner if you'd like.</p><p> Press the <b>space bar</b> to continue.</p></div>","32","","","","","","","","","","","","","","","","","","","","","","",""
"","do_travel","164","1032076","0.0-90.0-0.0","""event"",""trial"",""time""
""fullscreenenter"",""0"",""17829""
","
","
","""event"",""trial"",""time""
""fullscreenenter"",""0"",""17829""
","
","null","","","","","","","","null","","","","","","","","","","","","","","","","",""
"","do_welcome","165","1036084","0.0-90.0-1.0","""event"",""trial"",""time""
""fullscreenenter"",""0"",""17829""
","
","
","""event"",""trial"",""time""
""fullscreenenter"",""0"",""17829""
","
","null","","","","","","","","null","","","","","","","","","","","","","","","","",""
"","do_trial","166","1042172","0.0-91.0-0.0","""event"",""trial"",""time""
""fullscreenenter"",""0"",""17829""
","
","
","""event"",""trial"",""time""
""fullscreenenter"",""0"",""17829""
","
","1536.1000000014901","","","","","","","","49","1,0,0","1","mountain","30","probe-38","1","0.21963166430273037","0.08141265818196683","1","","","","","","","",""
"","html-keyboard-response","167","1043175","0.0-91.0-1.0","""event"",""trial"",""time""
""fullscreenenter"",""0"",""17829""
","
","
","""event"",""trial"",""time""
""fullscreenenter"",""0"",""17829""
","
","null","<p></p>","null","","","","","","","","","","","","","","","","","","","","","","",""
"","do_trial","168","1048524","0.0-92.0-0.0","""event"",""trial"",""time""
""fullscreenenter"",""0"",""17829""
","
","
","""event"",""trial"",""time""
""fullscreenenter"",""0"",""17829""
","
","797.9000000022352","","","","","","","","49","1,0,0","1","mountain","31","probe-193","1","0.2179495221002408","0.09633401617885605","1","","","","","","","",""
"","html-keyboard-response","169","1049525","0.0-92.0-1.0","""event"",""trial"",""time""
""fullscreenenter"",""0"",""17829""
","
","
","""event"",""trial"",""time""
""fullscreenenter"",""0"",""17829""
","
","null","<p></p>","null","","","","","","","","","","","","","","","","","","","","","","",""
"","do_trial","170","1054410","0.0-93.0-0.0","""event"",""trial"",""time""
""fullscreenenter"",""0"",""17829""
","
","
","""event"",""trial"",""time""
""fullscreenenter"",""0"",""17829""
","
","335.6000000014901","","","","","","","","49","1,0,1","1","mountain","32","probe-212","1","0.18754553255037765","0.09416023634888589","1","","","","","","","",""
"","html-keyboard-response","171","1055413","0.0-93.0-1.0","""event"",""trial"",""time""
""fullscreenenter"",""0"",""17829""
","
","
","""event"",""trial"",""time""
""fullscreenenter"",""0"",""17829""
","
","null","<p></p>","null","","","","","","","","","","","","","","","","","","","","","","",""
"","do_trial","172","1060314","0.0-94.0-0.0","""event"",""trial"",""time""
""fullscreenenter"",""0"",""17829""
","
","
","""event"",""trial"",""time""
""fullscreenenter"",""0"",""17829""
","
","352.19999999925494","","","","","","","","50","1,0,0","1","mountain","33","probe-152","0.8720662443919014","0.18623743504044252","0.1341250474538138","0","","","","","","","",""
"","html-keyboard-response","173","1061316","0.0-94.0-1.0","""event"",""trial"",""time""
""fullscreenenter"",""0"",""17829""
","
","
","""event"",""trial"",""time""
""fullscreenenter"",""0"",""17829""
","
","null","<p></p>","null","","","","","","","","","","","","","","","","","","","","","","",""
"","do_trial","174","1066355","0.0-95.0-0.0","""event"",""trial"",""time""
""fullscreenenter"",""0"",""17829""
","
","
","""event"",""trial"",""time""
""fullscreenenter"",""0"",""17829""
","
","488.19999999925494","","","","","","","","50","1,0,0","1","mountain","34","probe-140","0.7646211955672495","0.18348745598931068","0.2021418777832188","0","","","","","","","",""
"","html-keyboard-response","175","1067357","0.0-95.0-1.0","""event"",""trial"",""time""
""fullscreenenter"",""0"",""17829""
","
","
","""event"",""trial"",""time""
""fullscreenenter"",""0"",""17829""
","
","null","<p></p>","null","","","","","","","","","","","","","","","","","","","","","","",""
"","do_trial","176","1072007","0.0-96.0-0.0","""event"",""trial"",""time""
""fullscreenenter"",""0"",""17829""
","
","
","""event"",""trial"",""time""
""fullscreenenter"",""0"",""17829""
","
","99.5","","","","","","","","50","1,0,0","1","mountain","35","probe-71","0.7452912896246465","0.18116623197442247","0.1784154156323029","0","","","","","","","",""
"","html-keyboard-response","177","1073010","0.0-96.0-1.0","""event"",""trial"",""time""
""fullscreenenter"",""0"",""17829""
","
","
","""event"",""trial"",""time""
""fullscreenenter"",""0"",""17829""
","
","null","<p></p>","null","","","","","","","","","","","","","","","","","","","","","","",""
"","do_trial","178","1078303","0.0-97.0-0.0","""event"",""trial"",""time""
""fullscreenenter"",""0"",""17829""
","
","
","""event"",""trial"",""time""
""fullscreenenter"",""0"",""17829""
","
","742.2000000029802","","","","","","","","51","1,0,1","1","mountain","36","probe-65","0.5819439439546872","0.3422734220324759","0.15020774091357747","1","","","","","","","",""
"","html-keyboard-response","179","1079305","0.0-97.0-1.0","""event"",""trial"",""time""
""fullscreenenter"",""0"",""17829""
","
","
","""event"",""trial"",""time""
""fullscreenenter"",""0"",""17829""
","
","null","<p></p>","null","","","","","","","","","","","","","","","","","","","","","","",""
"","do_trial","180","1085391","0.0-98.0-0.0","""event"",""trial"",""time""
""fullscreenenter"",""0"",""17829""
","
","
","""event"",""trial"",""time""
""fullscreenenter"",""0"",""17829""
","
","1536.5999999977648","","","","","","","","51","1,1,0","1","mountain","37","probe-04","0.5475060723018325","0.37322933577610384","0.09647685003421291","0","","","","","","","",""
"","html-keyboard-response","181","1086393","0.0-98.0-1.0","""event"",""trial"",""time""
""fullscreenenter"",""0"",""17829""
","
","
","""event"",""trial"",""time""
""fullscreenenter"",""0"",""17829""
","
","null","<p></p>","null","","","","","","","","","","","","","","","","","","","","","","",""
"","do_trial","182","1093811","0.0-99.0-0.0","""event"",""trial"",""time""
""fullscreenenter"",""0"",""17829""
","
","
","""event"",""trial"",""time""
""fullscreenenter"",""0"",""17829""
","
","2867.400000002235","","","","","","","","51","1,0,1","1","mountain","38","probe-108","0.5207946592034323","0.2634229508202901","0.1256133709372654","1","","","","","","","",""
"","html-keyboard-response","183","1094812","0.0-99.0-1.0","""event"",""trial"",""time""
""fullscreenenter"",""0"",""17829""
","
","
","""event"",""trial"",""time""
""fullscreenenter"",""0"",""17829""
","
","null","<p></p>","null","","","","","","","","","","","","","","","","","","","","","","",""
"","do_trial","184","1099865","0.0-100.0-0.0","""event"",""trial"",""time""
""fullscreenenter"",""0"",""17829""
","
","
","""event"",""trial"",""time""
""fullscreenenter"",""0"",""17829""
","
","500","","","","","","","","51","1,0,0","1","mountain","39","probe-07","0.49554168287468403","0.1401265136947278","0.08320874383556862","0","","","","","","","",""
"","html-keyboard-response","185","1100867","0.0-100.0-1.0","""event"",""trial"",""time""
""fullscreenenter"",""0"",""17829""
","
","
","""event"",""trial"",""time""
""fullscreenenter"",""0"",""17829""
","
","null","<p></p>","null","","","","","","","","","","","","","","","","","","","","","","",""
"","do_trial","186","1105757","0.0-101.0-0.0","""event"",""trial"",""time""
""fullscreenenter"",""0"",""17829""
","
","
","""event"",""trial"",""time""
""fullscreenenter"",""0"",""17829""
","
","323.69999999925494","","","","","","","","51","0,0,0","1","mountain","40","probe-141","0.5051976887703183","0.13328874005324712","0.15838419495512923","0","","","","","","","",""
"","html-keyboard-response","187","1106759","0.0-101.0-1.0","""event"",""trial"",""time""
""fullscreenenter"",""0"",""17829""
","
","
","""event"",""trial"",""time""
""fullscreenenter"",""0"",""17829""
","
","null","<p></p>","null","","","","","","","","","","","","","","","","","","","","","","",""
"","do_trial","188","1112793","0.0-102.0-0.0","""event"",""trial"",""time""
""fullscreenenter"",""0"",""17829""
","
","
","""event"",""trial"",""time""
""fullscreenenter"",""0"",""17829""
","
","1471.8999999985099","","","","","","","","49","1,0,0","1","mountain","41","probe-148","0.5627452194715867","0.13192465795910438","0.1753727119809048","1","","","","","","","",""
"","html-keyboard-response","189","1113795","0.0-102.0-1.0","""event"",""trial"",""time""
""fullscreenenter"",""0"",""17829""
","
","
","""event"",""trial"",""time""
""fullscreenenter"",""0"",""17829""
","
","null","<p></p>","null","","","","","","","","","","","","","","","","","","","","","","",""
"","do_trial","190","1120567","0.0-103.0-0.0","""event"",""trial"",""time""
""fullscreenenter"",""0"",""17829""
","
","
","""event"",""trial"",""time""
""fullscreenenter"",""0"",""17829""
","
","2215.39999999851","","","","","","","","49","1,1,0","1","mountain","42","probe-202","0.46156965800672994","0.303829206106124","0.1473510756970328","1","","","","","","","",""
"","html-keyboard-response","191","1121569","0.0-103.0-1.0","""event"",""trial"",""time""
""fullscreenenter"",""0"",""17829""
","
","
","""event"",""trial"",""time""
""fullscreenenter"",""0"",""17829""
","
","null","<p></p>","null","","","","","","","","","","","","","","","","","","","","","","",""
"","do_trial","192","1128331","0.0-104.0-0.0","""event"",""trial"",""time""
""fullscreenenter"",""0"",""17829""
","
","
","""event"",""trial"",""time""
""fullscreenenter"",""0"",""17829""
","
","2210.39999999851","","","","","","","","49","0,0,0","1","mountain","43","probe-189","0.32399786481834375","0.42212332476069947","0.20892154013136494","0","","","","","","","",""
"","html-keyboard-response","193","1129334","0.0-104.0-1.0","""event"",""trial"",""time""
""fullscreenenter"",""0"",""17829""
","
","
","""event"",""trial"",""time""
""fullscreenenter"",""0"",""17829""
","
","null","<p></p>","null","","","","","","","","","","","","","","","","","","","","","","",""
"","do_trial","194","1133909","0.0-105.0-0.0","""event"",""trial"",""time""
""fullscreenenter"",""0"",""17829""
","
","
","""event"",""trial"",""time""
""fullscreenenter"",""0"",""17829""
","
","23.600000001490116","","","","","","","","49","0,1,1","1","mountain","44","probe-119","0.1322536086531055","0.43083842198862604","0.35647468959937056","0","","","","","","","",""
"","html-keyboard-response","195","1134912","0.0-105.0-1.0","""event"",""trial"",""time""
""fullscreenenter"",""0"",""17829""
","
","
","""event"",""trial"",""time""
""fullscreenenter"",""0"",""17829""
","
","null","<p></p>","null","","","","","","","","","","","","","","","","","","","","","","",""
"","do_trial","196","1140325","0.0-106.0-0.0","""event"",""trial"",""time""
""fullscreenenter"",""0"",""17829""
","
","
","""event"",""trial"",""time""
""fullscreenenter"",""0"",""17829""
","
","850.6999999992549","","","","","","","","51","0,1,1","1","mountain","45","probe-80","0.07891738800030189","0.4521299179238348","0.38605640995259144","1","","","","","","","",""
"","html-keyboard-response","197","1141328","0.0-106.0-1.0","""event"",""trial"",""time""
""fullscreenenter"",""0"",""17829""
","
","
","""event"",""trial"",""time""
""fullscreenenter"",""0"",""17829""
","
","null","<p></p>","null","","","","","","","","","","","","","","","","","","","","","","",""
"","do_trial","198","1147381","0.0-107.0-0.0","""event"",""trial"",""time""
""fullscreenenter"",""0"",""17829""
","
","
","""event"",""trial"",""time""
""fullscreenenter"",""0"",""17829""
","
","null","","","","","","","","null","0,1,1","1","mountain","46","probe-53","0.1904726182630297","0.5610372486655575","0.312009226730919","","","","","","","","",""
"","html-keyboard-response","199","1148383","0.0-107.0-1.0","""event"",""trial"",""time""
""fullscreenenter"",""0"",""17829""
","
","
","""event"",""trial"",""time""
""fullscreenenter"",""0"",""17829""
","
","null","<p></p>","null","","","","","","","","","","","","","","","","","","","","","","",""
"","do_trial","200","1155647","0.0-108.0-0.0","""event"",""trial"",""time""
""fullscreenenter"",""0"",""17829""
","
","
","""event"",""trial"",""time""
""fullscreenenter"",""0"",""17829""
","
","2713.10000000149","","","","","","","","49","0,1,1","1","mountain","47","probe-205","0.08280267558444074","0.6425772675819416","0.3554499589547339","0","","","","","","","",""
"","html-keyboard-response","201","1156649","0.0-108.0-1.0","""event"",""trial"",""time""
""fullscreenenter"",""0"",""17829""
","
","
","""event"",""trial"",""time""
""fullscreenenter"",""0"",""17829""
","
","null","<p></p>","null","","","","","","","","","","","","","","","","","","","","","","",""
"","do_trial","202","1161384","0.0-109.0-0.0","""event"",""trial"",""time""
""fullscreenenter"",""0"",""17829""
","
","
","""event"",""trial"",""time""
""fullscreenenter"",""0"",""17829""
","
","176","","","","","","","","51","1,0,1","1","mountain","48","probe-229","0.1375262417795462","0.40415243413840474","0.43009214859772404","1","","","","","","","",""
"","html-keyboard-response","203","1162388","0.0-109.0-1.0","""event"",""trial"",""time""
""fullscreenenter"",""0"",""17829""
","
","
","""event"",""trial"",""time""
""fullscreenenter"",""0"",""17829""
","
","null","<p></p>","null","","","","","","","","","","","","","","","","","","","","","","",""
"","do_trial","204","1167011","0.0-110.0-0.0","""event"",""trial"",""time""
""fullscreenenter"",""0"",""17829""
","
","
","""event"",""trial"",""time""
""fullscreenenter"",""0"",""17829""
","
","72","","","","","","","","51","0,0,1","1","mountain","49","probe-225","0.056341378753563126","0.4537438094638502","0.3544026547481818","1","","","","","","","",""
"","html-keyboard-response","205","1168013","0.0-110.0-1.0","""event"",""trial"",""time""
""fullscreenenter"",""0"",""17829""
","
","
","""event"",""trial"",""time""
""fullscreenenter"",""0"",""17829""
","
","null","<p></p>","null","","","","","","","","","","","","","","","","","","","","","","",""
"","do_trial","206","1174069","0.0-111.0-0.0","""event"",""trial"",""time""
""fullscreenenter"",""0"",""17829""
","
","
","""event"",""trial"",""time""
""fullscreenenter"",""0"",""17829""
","
","null","","","","","","","","null","0,1,0","1","mountain","50","probe-130","0.08991972445231625","0.5793648326951073","0.34538622717377865","","","","","","","","",""
"","html-keyboard-response","207","1175072","0.0-111.0-1.0","""event"",""trial"",""time""
""fullscreenenter"",""0"",""17829""
","
","
","""event"",""trial"",""time""
""fullscreenenter"",""0"",""17829""
","
","null","<p></p>","null","","","","","","","","","","","","","","","","","","","","","","",""
"","do_trial","208","1180780","0.0-112.0-0.0","""event"",""trial"",""time""
""fullscreenenter"",""0"",""17829""
","
","
","""event"",""trial"",""time""
""fullscreenenter"",""0"",""17829""
","
","1159.199999999255","","","","","","","","51","0,0,0","1","mountain","51","probe-86","0.11089262970100829","0.6576425561955402","0.22734044964804015","0","","","","","","","",""
"","html-keyboard-response","209","1181782","0.0-112.0-1.0","""event"",""trial"",""time""
""fullscreenenter"",""0"",""17829""
","
","
","""event"",""trial"",""time""
""fullscreenenter"",""0"",""17829""
","
","null","<p></p>","null","","","","","","","","","","","","","","","","","","","","","","",""
"","do_trial","210","1186423","0.0-113.0-0.0","""event"",""trial"",""time""
""fullscreenenter"",""0"",""17829""
","
","
","""event"",""trial"",""time""
""fullscreenenter"",""0"",""17829""
","
","93.80000000074506","","","","","","","","51","0,1,0","1","mountain","52","probe-79","0.08184815875460352","0.6612263004066188","0.17024469868528797","0","","","","","","","",""
"","html-keyboard-response","211","1187426","0.0-113.0-1.0","""event"",""trial"",""time""
""fullscreenenter"",""0"",""17829""
","
","
","""event"",""trial"",""time""
""fullscreenenter"",""0"",""17829""
","
","null","<p></p>","null","","","","","","","","","","","","","","","","","","","","","","",""
"","do_trial","212","1192504","0.0-114.0-0.0","""event"",""trial"",""time""
""fullscreenenter"",""0"",""17829""
","
","
","""event"",""trial"",""time""
""fullscreenenter"",""0"",""17829""
","
","527.8999999985099","","","","","","","","51","0,1,0","1","mountain","53","probe-157","0.10015841802526336","0.6444544583518799","0.4113883577184504","0","","","","","","","",""
"","html-keyboard-response","213","1193506","0.0-114.0-1.0","""event"",""trial"",""time""
""fullscreenenter"",""0"",""17829""
","
","
","""event"",""trial"",""time""
""fullscreenenter"",""0"",""17829""
","
","null","<p></p>","null","","","","","","","","","","","","","","","","","","","","","","",""
"","do_trial","214","1198404","0.0-115.0-0.0","""event"",""trial"",""time""
""fullscreenenter"",""0"",""17829""
","
","
","""event"",""trial"",""time""
""fullscreenenter"",""0"",""17829""
","
","347.6000000014901","","","","","","","","51","0,1,0","1","mountain","54","probe-75","0.08856728557283056","0.6620258586903778","0.380569883082226","0","","","","","","","",""
"","html-keyboard-response","215","1199407","0.0-115.0-1.0","""event"",""trial"",""time""
""fullscreenenter"",""0"",""17829""
","
","
","""event"",""trial"",""time""
""fullscreenenter"",""0"",""17829""
","
","null","<p></p>","null","","","","","","","","","","","","","","","","","","","","","","",""
"","do_trial","216","1204239","0.0-116.0-0.0","""event"",""trial"",""time""
""fullscreenenter"",""0"",""17829""
","
","
","""event"",""trial"",""time""
""fullscreenenter"",""0"",""17829""
","
","282.80000000074506","","","","","","","","50","0,1,1","1","mountain","55","probe-17","0.07184492938120532","0.7038440993833398","0.38426043864769854","1","","","","","","","",""
"","html-keyboard-response","217","1205240","0.0-116.0-1.0","""event"",""trial"",""time""
""fullscreenenter"",""0"",""17829""
","
","
","""event"",""trial"",""time""
""fullscreenenter"",""0"",""17829""
","
","null","<p></p>","null","","","","","","","","","","","","","","","","","","","","","","",""
"","do_trial","218","1210078","0.0-117.0-0.0","""event"",""trial"",""time""
""fullscreenenter"",""0"",""17829""
","
","
","""event"",""trial"",""time""
""fullscreenenter"",""0"",""17829""
","
","285.30000000074506","","","","","","","","50","0,1,1","1","mountain","56","probe-85","0.05187256090949362","0.6291009500222301","0.3998052076166434","1","","","","","","","",""
"","html-keyboard-response","219","1211079","0.0-117.0-1.0","""event"",""trial"",""time""
""fullscreenenter"",""0"",""17829""
","
","
","""event"",""trial"",""time""
""fullscreenenter"",""0"",""17829""
","
","null","<p></p>","null","","","","","","","","","","","","","","","","","","","","","","",""
"","do_trial","220","1215912","0.0-118.0-0.0","""event"",""trial"",""time""
""fullscreenenter"",""0"",""17829""
","
","
","""event"",""trial"",""time""
""fullscreenenter"",""0"",""17829""
","
","283.5","","","","","","","","50","0,1,0","1","mountain","57","probe-178","0.1559701960470631","0.6680012221637656","0.34626664690582404","1","","","","","","","",""
"","html-keyboard-response","221","1216915","0.0-118.0-1.0","""event"",""trial"",""time""
""fullscreenenter"",""0"",""17829""
","
","
","""event"",""trial"",""time""
""fullscreenenter"",""0"",""17829""
","
","null","<p></p>","null","","","","","","","","","","","","","","","","","","","","","","",""
"","do_trial","222","1221601","0.0-119.0-0.0","""event"",""trial"",""time""
""fullscreenenter"",""0"",""17829""
","
","
","""event"",""trial"",""time""
""fullscreenenter"",""0"",""17829""
","
","136","","","","","","","","50","1,1,0","1","mountain","58","probe-211","0.2198116217312526","0.5614288749278417","0.4431481822856903","1","","","","","","","",""
"","html-keyboard-response","223","1222604","0.0-119.0-1.0","""event"",""trial"",""time""
""fullscreenenter"",""0"",""17829""
","
","
","""event"",""trial"",""time""
""fullscreenenter"",""0"",""17829""
","
","null","<p></p>","null","","","","","","","","","","","","","","","","","","","","","","",""
"","do_trial","224","1227427","0.0-120.0-0.0","""event"",""trial"",""time""
""fullscreenenter"",""0"",""17829""
","
","
","""event"",""trial"",""time""
""fullscreenenter"",""0"",""17829""
","
","272.9000000022352","","","","","","","","50","0,0,0","1","mountain","59","probe-131","0.15520873034441338","0.6618101246295548","0.42745882238530175","0","","","","","","","",""
"","html-keyboard-response","225","1228429","0.0-120.0-1.0","""event"",""trial"",""time""
""fullscreenenter"",""0"",""17829""
","
","
","""event"",""trial"",""time""
""fullscreenenter"",""0"",""17829""
","
","null","<p></p>","null","","","","","","","","","","","","","","","","","","","","","","",""
"","do_trial","226","1233231","0.0-121.0-0.0","""event"",""trial"",""time""
""fullscreenenter"",""0"",""17829""
","
","
","""event"",""trial"",""time""
""fullscreenenter"",""0"",""17829""
","
","251","","","","","","","","50","0,1,1","1","mountain","60","probe-92","0.16015185715351535","0.6087768209578178","0.28318603383792584","1","","","","","","","",""
"","html-keyboard-response","227","1234233","0.0-121.0-1.0","""event"",""trial"",""time""
""fullscreenenter"",""0"",""17829""
","
","
","""event"",""trial"",""time""
""fullscreenenter"",""0"",""17829""
","
","null","<p></p>","null","","","","","","","","","","","","","","","","","","","","","","",""
"","do_trial","228","1238805","0.0-122.0-0.0","""event"",""trial"",""time""
""fullscreenenter"",""0"",""17829""
","
","
","""event"",""trial"",""time""
""fullscreenenter"",""0"",""17829""
","
","22.5","","","","","","","","50","0,0,0","1","mountain","61","probe-201","0.12000175514155823","0.5843007946299497","0.13912766794590764","0","","","","","","","",""
"","html-keyboard-response","229","1239808","0.0-122.0-1.0","""event"",""trial"",""time""
""fullscreenenter"",""0"",""17829""
","
","
","""event"",""trial"",""time""
""fullscreenenter"",""0"",""17829""
","
","null","<p></p>","null","","","","","","","","","","","","","","","","","","","","","","",""
"","do_trial","230","1244487","0.0-123.0-0.0","""event"",""trial"",""time""
""fullscreenenter"",""0"",""17829""
","
","
","""event"",""trial"",""time""
""fullscreenenter"",""0"",""17829""
","
","131.5","","","","","","","","50","0,1,0","1","mountain","62","probe-62","0.057499543788922906","0.6867814174720889","0.2178987157588152","1","","","","","","","",""
"","html-keyboard-response","231","1245489","0.0-123.0-1.0","""event"",""trial"",""time""
""fullscreenenter"",""0"",""17829""
","
","
","""event"",""trial"",""time""
""fullscreenenter"",""0"",""17829""
","
","null","<p></p>","null","","","","","","","","","","","","","","","","","","","","","","",""
"","do_trial","232","1250204","0.0-124.0-0.0","""event"",""trial"",""time""
""fullscreenenter"",""0"",""17829""
","
","
","""event"",""trial"",""time""
""fullscreenenter"",""0"",""17829""
","
","164.80000000074506","","","","","","","","50","0,0,0","1","mountain","63","probe-203","0.18825603590617376","0.5498958314223945","0.16312595601776222","0","","","","","","","",""
"","html-keyboard-response","233","1251206","0.0-124.0-1.0","""event"",""trial"",""time""
""fullscreenenter"",""0"",""17829""
","
","
","""event"",""trial"",""time""
""fullscreenenter"",""0"",""17829""
","
","null","<p></p>","null","","","","","","","","","","","","","","","","","","","","","","",""
"","do_trial","234","1256053","0.0-125.0-0.0","""event"",""trial"",""time""
""fullscreenenter"",""0"",""17829""
","
","
","""event"",""trial"",""time""
""fullscreenenter"",""0"",""17829""
","
","298","","","","","","","","49","0,0,0","1","mountain","64","probe-64","0.21659603866789176","0.5675376863114423","0.2720450991725523","0","","","","","","","",""
"","html-keyboard-response","235","1257055","0.0-125.0-1.0","""event"",""trial"",""time""
""fullscreenenter"",""0"",""17829""
","
","
","""event"",""trial"",""time""
""fullscreenenter"",""0"",""17829""
","
","null","<p></p>","null","","","","","","","","","","","","","","","","","","","","","","",""
"","do_trial","236","1261821","0.0-126.0-0.0","""event"",""trial"",""time""
""fullscreenenter"",""0"",""17829""
","
","
","""event"",""trial"",""time""
""fullscreenenter"",""0"",""17829""
","
","215.69999999925494","","","","","","","","49","0,0,1","1","mountain","65","probe-21","0.08616774324713182","0.6085757839700415","0.3511182049124984","0","","","","","","","",""
"","html-keyboard-response","237","1262823","0.0-126.0-1.0","""event"",""trial"",""time""
""fullscreenenter"",""0"",""17829""
","
","
","""event"",""trial"",""time""
""fullscreenenter"",""0"",""17829""
","
","null","<p></p>","null","","","","","","","","","","","","","","","","","","","","","","",""
"","do_trial","238","1267408","0.0-127.0-0.0","""event"",""trial"",""time""
""fullscreenenter"",""0"",""17829""
","
","
","""event"",""trial"",""time""
""fullscreenenter"",""0"",""17829""
","
","34.099999997764826","","","","","","","","50","1,0,1","1","mountain","66","probe-95","0.09600779822837396","0.6919558201905502","0.3654459270957957","0","","","","","","","",""
"","html-keyboard-response","239","1268410","0.0-127.0-1.0","""event"",""trial"",""time""
""fullscreenenter"",""0"",""17829""
","
","
","""event"",""trial"",""time""
""fullscreenenter"",""0"",""17829""
","
","null","<p></p>","null","","","","","","","","","","","","","","","","","","","","","","",""
"","do_trial","240","1273033","0.0-128.0-0.0","""event"",""trial"",""time""
""fullscreenenter"",""0"",""17829""
","
","
","""event"",""trial"",""time""
""fullscreenenter"",""0"",""17829""
","
","54.69999999925494","","","","","","","","50","0,1,0","1","mountain","67","probe-43","0.08031878198106228","0.7829132059254452","0.30473863850333205","1","","","","","","","",""
"","html-keyboard-response","241","1274036","0.0-128.0-1.0","""event"",""trial"",""time""
""fullscreenenter"",""0"",""17829""
","
","
","""event"",""trial"",""time""
""fullscreenenter"",""0"",""17829""
","
","null","<p></p>","null","","","","","","","","","","","","","","","","","","","","","","",""
"","do_trial","242","1278690","0.0-129.0-0.0","""event"",""trial"",""time""
""fullscreenenter"",""0"",""17829""
","
","
","""event"",""trial"",""time""
""fullscreenenter"",""0"",""17829""
","
","105.5","","","","","","","","50","0,0,0","1","mountain","68","probe-125","0.21710358837833477","0.749734459918001","0.25451781271336105","0","","","","","","","",""
"","html-keyboard-response","243","1279693","0.0-129.0-1.0","""event"",""trial"",""time""
""fullscreenenter"",""0"",""17829""
","
","
","""event"",""trial"",""time""
""fullscreenenter"",""0"",""17829""
","
","null","<p></p>","null","","","","","","","","","","","","","","","","","","","","","","",""
"","do_trial","244","1284977","0.0-130.0-0.0","""event"",""trial"",""time""
""fullscreenenter"",""0"",""17829""
","
","
","""event"",""trial"",""time""
""fullscreenenter"",""0"",""17829""
","
","735.3000000007451","","","","","","","","50","0,1,0","1","mountain","69","probe-163","0.1240119195983759","0.6390463079800215","0.28952284994248834","1","","","","","","","",""
"","html-keyboard-response","245","1285979","0.0-130.0-1.0","""event"",""trial"",""time""
""fullscreenenter"",""0"",""17829""
","
","
","""event"",""trial"",""time""
""fullscreenenter"",""0"",""17829""
","
","null","<p></p>","null","","","","","","","","","","","","","","","","","","","","","","",""
"","do_bye","246","1287485","0.0-131.0-0.0","""event"",""trial"",""time""
""fullscreenenter"",""0"",""17829""
","
","
","""event"",""trial"",""time""
""fullscreenenter"",""0"",""17829""
","
","null","","","","","","","","null","","","","","","","","","","","","","","","","",""
"","break","247","1302202","0.0-131.0-1.0","""event"",""trial"",""time""
""fullscreenenter"",""0"",""17829""
","
","
","""event"",""trial"",""time""
""fullscreenenter"",""0"",""17829""
","
","14714.300000000745","<div class='center'><p>Time to take a quick break! You have 2 minutes to rest, but you can move on sooner if you'd like.</p><p> Press the <b>space bar</b> to continue.</p></div>","32","","","","","","","","","","","","","","","","","","","","","","",""
"","do_travel","248","1311207","0.0-132.0-0.0","""event"",""trial"",""time""
""fullscreenenter"",""0"",""17829""
","
","
","""event"",""trial"",""time""
""fullscreenenter"",""0"",""17829""
","
","null","","","","","","","","null","","","","","","","","","","","","","","","","",""
"","do_welcome","249","1315214","0.0-132.0-1.0","""event"",""trial"",""time""
""fullscreenenter"",""0"",""17829""
","
","
","""event"",""trial"",""time""
""fullscreenenter"",""0"",""17829""
","
","null","","","","","","","","null","","","","","","","","","","","","","","","","",""
"","do_trial","250","1321270","0.0-133.0-0.0","""event"",""trial"",""time""
""fullscreenenter"",""0"",""17829""
","
","
","""event"",""trial"",""time""
""fullscreenenter"",""0"",""17829""
","
","null","","","","","","","","null","0,1,0","2","highway","70","probe-107","0.11359468289614313","1","0.21279969255511774","","","","","","","","",""
"","html-keyboard-response","251","1322273","0.0-133.0-1.0","""event"",""trial"",""time""
""fullscreenenter"",""0"",""17829""
","
","
","""event"",""trial"",""time""
""fullscreenenter"",""0"",""17829""
","
","null","<p></p>","null","","","","","","","","","","","","","","","","","","","","","","",""
"","do_trial","252","1328775","0.0-134.0-0.0","""event"",""trial"",""time""
""fullscreenenter"",""0"",""17829""
","
","
","""event"",""trial"",""time""
""fullscreenenter"",""0"",""17829""
","
","1950.1000000014901","","","","","","","","50","0,1,1","2","highway","71","probe-45","0.13400411300114404","1","0.17826353876869774","1","","","","","","","",""
"","html-keyboard-response","253","1329780","0.0-134.0-1.0","""event"",""trial"",""time""
""fullscreenenter"",""0"",""17829""
","
","
","""event"",""trial"",""time""
""fullscreenenter"",""0"",""17829""
","
","null","<p></p>","null","","","","","","","","","","","","","","","","","","","","","","",""
"","do_trial","254","1334642","0.0-135.0-0.0","""event"",""trial"",""time""
""fullscreenenter"",""0"",""17829""
","
","
","""event"",""trial"",""time""
""fullscreenenter"",""0"",""17829""
","
","307.5","","","","","","","","50","0,1,0","2","highway","72","probe-44","0.15774664122166285","0.8180360921203758","0.24265142900049375","1","","","","","","","",""
"","html-keyboard-response","255","1335644","0.0-135.0-1.0","""event"",""trial"",""time""
""fullscreenenter"",""0"",""17829""
","
","
","""event"",""trial"",""time""
""fullscreenenter"",""0"",""17829""
","
","null","<p></p>","null","","","","","","","","","","","","","","","","","","","","","","",""
"","do_trial","256","1340521","0.0-136.0-0.0","""event"",""trial"",""time""
""fullscreenenter"",""0"",""17829""
","
","
","""event"",""trial"",""time""
""fullscreenenter"",""0"",""17829""
","
