"success","trial_type","trial_index","time_elapsed","internal_node_id","interactions","blur_events","focus_events","fullscreenenter_events","fullscreenexit_events","rt","stimulus","key_press","subject_id","participant_id","age","gender","prompt","response","choice_outcomes","context_n","context_img_id","trial_n","probe_img_id","pR_red","pR_white","pR_black","outcome","contextArray_ind","validImageProbes","invalidImageProbes","pRew_Red","pRew_White","pRew_Black","availableForMemProbe","choice_blocks"
"true","fullscreen","0","16165","0.0-0.0","""event"",""trial"",""time""
""fullscreenenter"",""0"",""15187""
","
","
","""event"",""trial"",""time""
""fullscreenenter"",""0"",""15187""
","
","","","","","","","","","","","","","","","","","","","","","","","","","",""
"","pavlovia","1","16172","0.0-1.0","""event"",""trial"",""time""
""fullscreenenter"",""0"",""15187""
","
","
","""event"",""trial"",""time""
""fullscreenenter"",""0"",""15187""
","
","","","","","","","","","","","","","","","","","","","","","","","","","",""
"","instruc1","2","61442","0.0-2.0","""event"",""trial"",""time""
""fullscreenenter"",""0"",""15187""
","
","
","""event"",""trial"",""time""
""fullscreenenter"",""0"",""15187""
","
","null","run_exp/static/audio/clip_1_welcome.m4a","null","627","959","16","Female","<div class='center'><p>Welcome! This is the first part of the study. It will last ~30 minutes. In part 1 and part 2 of the study, you are the head captain of a pirate ship traveling around the world to different islands. You will play a few different games throughout these two parts. Here is an overview of them:</p><br><p>Part 1 (today)</p><p>1. Instructions, practice game, and quiz</p><p>2. Pick a pirate game on 6 different islands</p><br><p>Part 2 (tomorrow)</p><p>3. Pick a pirate game and memory game</p><p>4. Where did you see this ship? </p></div>","","","","","","","","","","","","","","","","","",""
"","html-keyboard-response","3","61682","0.0-3.0","""event"",""trial"",""time""
""fullscreenenter"",""0"",""15187""
","
","
","""event"",""trial"",""time""
""fullscreenenter"",""0"",""15187""
","
","237.5","<div class='center'><p>Welcome! This is the first part of the study. It will last ~30 minutes. In part 1 and part 2 of the study, you are the head captain of a pirate ship traveling around the world to different islands. You will play a few different games throughout these two parts. Here is an overview of them:</p><br><p>Part 1 (today)</p><p>1. Instructions, practice game, and quiz</p><p>2. Pick a pirate game on 6 different islands</p><br><p>Part 2 (tomorrow)</p><p>3. Pick a pirate game and memory game</p><p>4. Where did you see this ship? </p><p><b>[Press the space bar to continue]</b></p></div>","32","","","","","","","","","","","","","","","","","","","","","","",""
"","instruc2","4","67014","0.0-4.0","""event"",""trial"",""time""
""fullscreenenter"",""0"",""15187""
","
","
","""event"",""trial"",""time""
""fullscreenenter"",""0"",""15187""
","
","null","run_exp/static/audio/clip_2_different_places.m4a","null","","","","","<div class='center'><p>Today, you’ll visit these 6 islands on your journey. You'll be able to see these islands from your ship.</p><p><img src='run_exp/static/images/contexts/all_contexts.png' height='500'></p></div>","","","","","","","","","","","","","","","","","",""
"","html-keyboard-response","5","68517","0.0-5.0","""event"",""trial"",""time""
""fullscreenenter"",""0"",""15187""
","
","
","""event"",""trial"",""time""
""fullscreenenter"",""0"",""15187""
","
","1501.5999999940395","<div class='center'><p>Today, you’ll visit these 6 islands on your journey. You'll be able to see these islands from your ship.</p><p><img src='run_exp/static/images/contexts/all_contexts.png' height='500'></p><p><b>[Press the space bar to continue]</b></p></div>","32","","","","","","","","","","","","","","","","","","","","","","",""
"","instruc3","6","78229","0.0-6.0","""event"",""trial"",""time""
""fullscreenenter"",""0"",""15187""
","
","
","""event"",""trial"",""time""
""fullscreenenter"",""0"",""15187""
","
","null","run_exp/static/audio/clip_3_goal_of_game_1.m4a","null","","","","","<div class='center'><p> The pirates on your ship will rob other ships as they leave the island.</p> These ships have just sold their goods to the islanders, so they will be filled with lots and lots of gold.</p><p><img src='run_exp/static/images/tutorial/ship_center.png' height='400'></p></div>","","","","","","","","","","","","","","","","","",""
"","html-keyboard-response","7","78866","0.0-7.0","""event"",""trial"",""time""
""fullscreenenter"",""0"",""15187""
","
","
","""event"",""trial"",""time""
""fullscreenenter"",""0"",""15187""
","
","634.5999999940395","<div class='center'><p> The pirates on your ship will rob other ships as they leave the island.</p> These ships have just sold their goods to the islanders, so they will be filled with lots and lots of gold.</p><p><img src='run_exp/static/images/tutorial/ship_center.png' height='400'></p><p><b>[Press the space bar to continue]</b></p></div>","32","","","","","","","","","","","","","","","","","","","","","","",""
"","instruc4","8","106883","0.0-8.0","""event"",""trial"",""time""
""fullscreenenter"",""0"",""15187""
","
","
","""event"",""trial"",""time""
""fullscreenenter"",""0"",""15187""
","
","null","run_exp/static/audio/clip_4_goal_of_game_2.m4a","null","","","","","<div class='center'><p>As the head captain, you do not have to rob any ships yourself. Another pirate will be doing the robbing for you. First, you will choose a pirate to rob the next ship.</p><p><img src='run_exp/static/images/tutorial/pirates_all_crop.png' height='200'></p><p>Then, you'll see if the pirate successfully robbed the ship of their gold. If they were successful, then you'll get a stack of gold coins like this:</p><p><img src='run_exp/static/images/tutorial/reward.png' height='150'></p><p> If they were <b>not</b> successful, then you'll get no gold coins, and you'll see a big red x like this: </p><p><img src='run_exp/static/images/tutorial/reward_no.png' height='150'></p><p> How much bonus money you make is based on how many gold coins you collect.</p><div>","","","","","","","","","","","","","","","","","",""
"","html-keyboard-response","9","110338","0.0-9.0","""event"",""trial"",""time""
""fullscreenenter"",""0"",""15187""
","
","
","""event"",""trial"",""time""
""fullscreenenter"",""0"",""15187""
","
","3452.5","<div class='center'><p>As the head captain, you do not have to rob any ships yourself. Another pirate will be doing the robbing for you. First, you will choose a pirate to rob the next ship.</p><p><img src='run_exp/static/images/tutorial/pirates_all_crop.png' height='200'></p><p>Then, you'll see if the pirate successfully robbed the ship of their gold. If they were successful, then you'll get a stack of gold coins like this:</p><p><img src='run_exp/static/images/tutorial/reward.png' height='150'></p><p> If they were <b>not</b> successful, then you'll get no gold coins, and you'll see a big red x like this: </p><p><img src='run_exp/static/images/tutorial/reward_no.png' height='150'></p><p> How much bonus money you make is based on how many gold coins you collect.</p<p><b>[Press the space bar to continue]</b></p></div>","32","","","","","","","","","","","","","","","","","","","","","","",""
"","instruc5","10","131367","0.0-10.0","""event"",""trial"",""time""
""fullscreenenter"",""0"",""15187""
","
","
","""event"",""trial"",""time""
""fullscreenenter"",""0"",""15187""
","
","21027.40000000596","run_exp/static/audio/clip_5_probabilistic.m4a","49","","","","","<div class='center'><p>Even the most skilled pirate can not rob EVERY ship.</p><p> Some ships will have very strong protections against pirate attacks.</p><p> Blue beard, here, is very, very good at robbing ships, but he won't be successful every time he tries to rob one.</p><p> You can press the <b>‘1’</b> key on the keyboard to choose him.</p><p> Try choosing him 10 times to see how often he succeeds at robbing a ship. </p><p><img src='run_exp/static/images/tutorial/blue.png' height='500'></p></div>","","","","","","","","","","","","","","","","","",""
"","html-keyboard-response","11","132869","0.0-11.0","""event"",""trial"",""time""
""fullscreenenter"",""0"",""15187""
","
","
","""event"",""trial"",""time""
""fullscreenenter"",""0"",""15187""
","
","null","<div class='center'><p><img src='run_exp/static/images/tutorial/blue_win.png' height='500'></p></div>","null","","","","","","","","","","","","","","","","","","","","","","",""
"","html-keyboard-response","12","134630","0.0-12.0","""event"",""trial"",""time""
""fullscreenenter"",""0"",""15187""
","
","
","""event"",""trial"",""time""
""fullscreenenter"",""0"",""15187""
","
","1760.5999999940395","<div class='center'><img src='run_exp/static/images/tutorial/blue.png' height='500'></p></div>","49","","","","","","","","","","","","","","","","","","","","","","",""
"","html-keyboard-response","13","136136","0.0-13.0","""event"",""trial"",""time""
""fullscreenenter"",""0"",""15187""
","
","
","""event"",""trial"",""time""
""fullscreenenter"",""0"",""15187""
","
","null","<div class='center'><p><img src='run_exp/static/images/tutorial/blue_win.png' height='500'></p></div>","null","","","","","","","","","","","","","","","","","","","","","","",""
"","html-keyboard-response","14","136809","0.0-14.0","""event"",""trial"",""time""
""fullscreenenter"",""0"",""15187""
","
","
","""event"",""trial"",""time""
""fullscreenenter"",""0"",""15187""
","
","671","<div class='center'><img src='run_exp/static/images/tutorial/blue.png' height='500'></p></div>","49","","","","","","","","","","","","","","","","","","","","","","",""
"","html-keyboard-response","15","138315","0.0-15.0","""event"",""trial"",""time""
""fullscreenenter"",""0"",""15187""
","
","
","""event"",""trial"",""time""
""fullscreenenter"",""0"",""15187""
","
","null","<div class='center'><p><img src='run_exp/static/images/tutorial/blue_win.png' height='500'></p></div>","null","","","","","","","","","","","","","","","","","","","","","","",""
"","html-keyboard-response","16","138882","0.0-16.0","""event"",""trial"",""time""
""fullscreenenter"",""0"",""15187""
","
","
","""event"",""trial"",""time""
""fullscreenenter"",""0"",""15187""
","
","565.8000000119209","<div class='center'><img src='run_exp/static/images/tutorial/blue.png' height='500'></p></div>","49","","","","","","","","","","","","","","","","","","","","","","",""
"","html-keyboard-response","17","140387","0.0-17.0","""event"",""trial"",""time""
""fullscreenenter"",""0"",""15187""
","
","
","""event"",""trial"",""time""
""fullscreenenter"",""0"",""15187""
","
","null","<div class='center'><p><img src='run_exp/static/images/tutorial/blue_no_win.png' height='500'></p></div>","null","","","","","","","","","","","","","","","","","","","","","","",""
"","html-keyboard-response","18","141128","0.0-18.0","""event"",""trial"",""time""
""fullscreenenter"",""0"",""15187""
","
","
","""event"",""trial"",""time""
""fullscreenenter"",""0"",""15187""
","
","739.9000000059605","<div class='center'><img src='run_exp/static/images/tutorial/blue.png' height='500'></p></div>","49","","","","","","","","","","","","","","","","","","","","","","",""
"","html-keyboard-response","19","142630","0.0-19.0","""event"",""trial"",""time""
""fullscreenenter"",""0"",""15187""
","
","
","""event"",""trial"",""time""
""fullscreenenter"",""0"",""15187""
","
","null","<div class='center'><p><img src='run_exp/static/images/tutorial/blue_win.png' height='500'></p></div>","null","","","","","","","","","","","","","","","","","","","","","","",""
"","html-keyboard-response","20","143072","0.0-20.0","""event"",""trial"",""time""
""fullscreenenter"",""0"",""15187""
","
","
","""event"",""trial"",""time""
""fullscreenenter"",""0"",""15187""
","
","440.7000000178814","<div class='center'><img src='run_exp/static/images/tutorial/blue.png' height='500'></p></div>","49","","","","","","","","","","","","","","","","","","","","","","",""
"","html-keyboard-response","21","144578","0.0-21.0","""event"",""trial"",""time""
""fullscreenenter"",""0"",""15187""
","
","
","""event"",""trial"",""time""
""fullscreenenter"",""0"",""15187""
","
","null","<div class='center'><p><img src='run_exp/static/images/tutorial/blue_win.png' height='500'></p></div>","null","","","","","","","","","","","","","","","","","","","","","","",""
"","html-keyboard-response","22","145252","0.0-22.0","""event"",""trial"",""time""
""fullscreenenter"",""0"",""15187""
","
","
","""event"",""trial"",""time""
""fullscreenenter"",""0"",""15187""
","
","672.4000000059605","<div class='center'><img src='run_exp/static/images/tutorial/blue.png' height='500'></p></div>","49","","","","","","","","","","","","","","","","","","","","","","",""
"","html-keyboard-response","23","146758","0.0-23.0","""event"",""trial"",""time""
""fullscreenenter"",""0"",""15187""
","
","
","""event"",""trial"",""time""
""fullscreenenter"",""0"",""15187""
","
","null","<div class='center'><p><img src='run_exp/static/images/tutorial/blue_win.png' height='500'></p></div>","null","","","","","","","","","","","","","","","","","","","","","","",""
"","html-keyboard-response","24","147299","0.0-24.0","""event"",""trial"",""time""
""fullscreenenter"",""0"",""15187""
","
","
","""event"",""trial"",""time""
""fullscreenenter"",""0"",""15187""
","
","540.5","<div class='center'><img src='run_exp/static/images/tutorial/blue.png' height='500'></p></div>","49","","","","","","","","","","","","","","","","","","","","","","",""
"","html-keyboard-response","25","148803","0.0-25.0","""event"",""trial"",""time""
""fullscreenenter"",""0"",""15187""
","
","
","""event"",""trial"",""time""
""fullscreenenter"",""0"",""15187""
","
","null","<div class='center'><p><img src='run_exp/static/images/tutorial/blue_no_win.png' height='500'></p></div>","null","","","","","","","","","","","","","","","","","","","","","","",""
"","html-keyboard-response","26","149347","0.0-26.0","""event"",""trial"",""time""
""fullscreenenter"",""0"",""15187""
","
","
","""event"",""trial"",""time""
""fullscreenenter"",""0"",""15187""
","
","542.5999999940395","<div class='center'><img src='run_exp/static/images/tutorial/blue.png' height='500'></p></div>","49","","","","","","","","","","","","","","","","","","","","","","",""
"","html-keyboard-response","27","150853","0.0-27.0","""event"",""trial"",""time""
""fullscreenenter"",""0"",""15187""
","
","
","""event"",""trial"",""time""
""fullscreenenter"",""0"",""15187""
","
","null","<div class='center'><p><img src='run_exp/static/images/tutorial/blue_win.png' height='500'></p></div>","null","","","","","","","","","","","","","","","","","","","","","","",""
"","html-keyboard-response","28","151819","0.0-28.0","""event"",""trial"",""time""
""fullscreenenter"",""0"",""15187""
","
","
","""event"",""trial"",""time""
""fullscreenenter"",""0"",""15187""
","
","964.8000000119209","<div class='center'><img src='run_exp/static/images/tutorial/blue.png' height='500'></p></div>","49","","","","","","","","","","","","","","","","","","","","","","",""
"","html-keyboard-response","29","153323","0.0-29.0","""event"",""trial"",""time""
""fullscreenenter"",""0"",""15187""
","
","
","""event"",""trial"",""time""
""fullscreenenter"",""0"",""15187""
","
","null","<div class='center'><p><img src='run_exp/static/images/tutorial/blue_win.png' height='500'></p></div>","null","","","","","","","","","","","","","","","","","","","","","","",""
"","instruc6","30","158875","0.0-30.0","""event"",""trial"",""time""
""fullscreenenter"",""0"",""15187""
","
","
","""event"",""trial"",""time""
""fullscreenenter"",""0"",""15187""
","
","null","run_exp/static/audio/clip_6_blue_beard_outcome.m4a","null","","","","","<div class='center'><p> See, he succeeded in robbing the ships most of the time but not every time. </p></div>","","","","","","","","","","","","","","","","","",""
"","html-keyboard-response","31","163414","0.0-31.0","""event"",""trial"",""time""
""fullscreenenter"",""0"",""15187""
","
","
","""event"",""trial"",""time""
""fullscreenenter"",""0"",""15187""
","
","4537.4000000059605","<div class='center'><p> See, he succeeded in robbing the ships most of the time but not every time. </p><p><b>[Press the space bar to continue]</b></p></div>","32","","","","","","","","","","","","","","","","","","","","","","",""
"","audio-keyboard-response","32","179431","0.0-32.0","""event"",""trial"",""time""
""fullscreenenter"",""0"",""15187""
","
","
","""event"",""trial"",""time""
""fullscreenenter"",""0"",""15187""
","
","16015.399999976158","run_exp/static/audio/clip_7_pick_pirate.m4a","51","","","","","","","","","","","","","","","","","","","","","","",""
"","audio-keyboard-response","33","183876","0.0-33.0-0.0","""event"",""trial"",""time""
""fullscreenenter"",""0"",""15187""
","
","
","""event"",""trial"",""time""
""fullscreenenter"",""0"",""15187""
","
","4442.4000000059605","run_exp/static/audio/clip_8_chosen_pirate_win.m4a","32","","","","","","","","","","","","","","","","","","","","","","",""
"","audio-keyboard-response","34","186490","0.0-33.0-1.0","""event"",""trial"",""time""
""fullscreenenter"",""0"",""15187""
","
","
","""event"",""trial"",""time""
""fullscreenenter"",""0"",""15187""
","
","2612.300000011921","run_exp/static/audio/clip_9_pick_a_pirate_again.m4a","49","","","","","","","","","","","","","","","","","","","","","","",""
"","audio-keyboard-response","35","191096","0.0-34.0-0.0","""event"",""trial"",""time""
""fullscreenenter"",""0"",""15187""
","
","
","""event"",""trial"",""time""
""fullscreenenter"",""0"",""15187""
","
","4603.600000023842","run_exp/static/audio/clip_10_chosen_pirate_loss.m4a","32","","","","","","","","","","","","","","","","","","","","","","",""
"","instruc9","36","196608","0.0-35.0-0.0","""event"",""trial"",""time""
""fullscreenenter"",""0"",""15187""
","
","
","""event"",""trial"",""time""
""fullscreenenter"",""0"",""15187""
","
","null","run_exp/static/audio/clip_11_time_out.m4a","null","","","","","<div class='center'><p>If you don’t make your choice fast enough, you’ll have to wait a few seconds before you can make another one. </p><p><img src='run_exp/static/images/miscellaneous/hurry_up.png' height='500'></p></div>","","","","","","","","","","","","","","","","","",""
"","html-keyboard-response","37","198340","0.0-35.0-1.0","""event"",""trial"",""time""
""fullscreenenter"",""0"",""15187""
","
","
","""event"",""trial"",""time""
""fullscreenenter"",""0"",""15187""
","
","1731.0999999940395","<div class='center'><p>If you don’t make your choice fast enough, you’ll have to wait a few seconds before you can make another one. </p><p><img src='run_exp/static/images/miscellaneous/hurry_up.png' height='500'></p><p><b>[Press the space bar to continue]</b></p></div>","32","","","","","","","","","","","","","","","","","","","","","","",""
"","instruc10","38","237452","0.0-35.0-2.0","""event"",""trial"",""time""
""fullscreenenter"",""0"",""15187""
","
","
","""event"",""trial"",""time""
""fullscreenenter"",""0"",""15187""
","
","null","run_exp/static/audio/clip_12_probe.m4a","null","","","","","<div class='center'><p>Once you've chosen a pirate, you’ll be shown the ship they are robbing. You will never rob the same ship twice. Ships can be told apart from one another by the image on them. These are the goods that they sell. See, this ship has a travel mug on it. </p><p> You’ll have to remember which island you saw each ship on. You will win more gold coins and hence more bonus money if you remember correctly! To help you remember, you can imagine a story. For example, here, you could imagine a mug full of water in the desert. Or, as another example, if on the forest island, your pirate robbed a ship with an apple on it, you could imagine an apple falling from a tree in the forest. </p><p><img src='run_exp/static/images/tutorial/example_probe.png' height='500'></p></div>","","","","","","","","","","","","","","","","","",""
"","html-keyboard-response","39","238123","0.0-35.0-3.0","""event"",""trial"",""time""
""fullscreenenter"",""0"",""15187""
","
","
","""event"",""trial"",""time""
""fullscreenenter"",""0"",""15187""
","
","668.8000000119209","<div class='center'><p>Once you've chosen a pirate, you’ll be shown the ship they are robbing. You will never rob the same ship twice. Ships can be told apart from one another by the image on them. These are the goods that they sell. See, this ship has a travel mug on it. </p><p> You’ll have to remember which island you saw each ship on. You will win more gold coins and hence more bonus money if you remember correctly! To help you remember, you can imagine a story. For example, here, you could imagine a mug full of water in the desert. Or, as another example, if on the forest island, your pirate robbed a ship with an apple on it, you could imagine an apple falling from a tree in the forest. </p><p><img src='run_exp/static/images/tutorial/example_probe.png' height='500'></p><p><b>[Press the space bar to continue]</b></p></div>","32","","","","","","","","","","","","","","","","","","","","","","",""
"","instruc11","40","254542","0.0-35.0-4.0","""event"",""trial"",""time""
""fullscreenenter"",""0"",""15187""
","
","
","""event"",""trial"",""time""
""fullscreenenter"",""0"",""15187""
","
","null","run_exp/static/audio/clip_13_changepoint.m4a","null","","","","","<div class='center'><p>How successful a pirate is at robbing ships will depend on the island you’re on.</p><p> A pirate may have visited this island many times before and gained a lot of practice robbing ships there.</p><p>So, they’re more likely to be successful than a pirate who has never visited the island before.</p></div>","","","","","","","","","","","","","","","","","",""
"","html-keyboard-response","41","254957","0.0-35.0-5.0","""event"",""trial"",""time""
""fullscreenenter"",""0"",""15187""
","
","
","""event"",""trial"",""time""
""fullscreenenter"",""0"",""15187""
","
","413.7999999821186","<div class='center'><p>How successful a pirate is at robbing ships will depend on the island you’re on.</p><p> A pirate may have visited this island many times before and gained a lot of practice robbing ships there.</p><p>So, they’re more likely to be successful than a pirate who has never visited the island before.</p><p><b>[Press the space bar to continue]</b></p></div>","32","","","","","","","","","","","","","","","","","","","","","","",""
"","instruc12","42","296059","0.0-35.0-6.0","""event"",""trial"",""time""
""fullscreenenter"",""0"",""15187""
","
","
","""event"",""trial"",""time""
""fullscreenenter"",""0"",""15187""
","
","null","run_exp/static/audio/clip_14_drift.m4a","null","","","","","<div class='center'><p>How successful a pirate is at robbing ships can also change over the time spent on the island. </p><p> Ships may hear from islanders about the pirates coming and will improve their protections against the attack. This may make it harder to rob them.</p><p> Ships may also become lazy and weaken the strength of their protections. This may make it easier to rob them.</p><br><p>Things are always changing on the high seas! So, try your best to pay attention!</p><p><img src='run_exp/static/images/tutorial/contingency.png' height='500'></p></div>","","","","","","","","","","","","","","","","","",""
"","html-keyboard-response","43","298227","0.0-35.0-7.0","""event"",""trial"",""time""
""fullscreenenter"",""0"",""15187""
","
","
","""event"",""trial"",""time""
""fullscreenenter"",""0"",""15187""
","
","2166.0999999940395","<div class='center'><p>How successful a pirate is at robbing ships can also change over the time spent on the island. </p><p> Ships may hear from islanders about the pirates coming and will improve their protections against the attack. This may make it harder to rob them.</p><p> Ships may also become lazy and weaken the strength of their protections. This may make it easier to rob them.</p><br><p>Things are always changing on the high seas! So, try your best to pay attention!</p><p><img src='run_exp/static/images/tutorial/contingency.png' height='500'></p><p><b>[Press the space bar to continue]</b></p></div>","32","","","","","","","","","","","","","","","","","","","","","","",""
"","instruc13","44","333444","0.0-35.0-8.0","""event"",""trial"",""time""
""fullscreenenter"",""0"",""15187""
","
","
","""event"",""trial"",""time""
""fullscreenenter"",""0"",""15187""
","
","null","run_exp/static/audio/clip_15_summary.m4a","null","","","","","<div class='center'><p>Let's go over the instructions quickly again. You have two important things to do: </p><b><p> 1. Pick the pirate who is the best at robbing ships on the current island. </p></b><b><p> 2. Remember on which island a ship was robbed.</p> </b><p>The amount of bonus money you can win depends on both.</p><p><br><p>Let’s try a practice game. The game will start by showing you the pirates. First, pick a pirate using the <b> 1, 2, 3 </b> keys on your keyboard. When you are shown a ship, try to remember which island you’re on by making up a story.</p><p>This is just a practice game, so you’re not playing for money. </p><p> Good luck! This game will be very difficult but try your best!</p></div>","","","","","","","","","","","","","","","","","",""
"","html-keyboard-response","45","334946","0.0-35.0-9.0","""event"",""trial"",""time""
""fullscreenenter"",""0"",""15187""
","
","
","""event"",""trial"",""time""
""fullscreenenter"",""0"",""15187""
","
","1501.199999988079","<div class='center'><p>Let's go over the instructions quickly again. You have two important things to do: </p><b><p> 1. Pick the pirate who is the best at robbing ships on the current island. </p></b><b><p> 2. Remember on which island a ship was robbed.</p> </b><p>The amount of bonus money you can win depends on both.</p><p><br><p>Let’s try a practice game. The game will start by showing you the pirates. First, pick a pirate using the <b> 1, 2, 3 </b> keys on your keyboard. When you are shown a ship, try to remember which island you’re on by making up a story.</p><p>This is just a practice game, so you’re not playing for money. </p><p> Good luck! This game will be very difficult but try your best!</p><p><b>[Press the space bar to continue]</b></p></div>","32","","","","","","","","","","","","","","","","","","","","","","",""
"","do_welcome","46","338956","0.0-35.0-10.0","""event"",""trial"",""time""
""fullscreenenter"",""0"",""15187""
","
","
","""event"",""trial"",""time""
""fullscreenenter"",""0"",""15187""
","
","null","","","","","","","","null","","","","","","","","","","","","","","","","",""
"","do_trial","47","345496","0.0-35.0-11.0","""event"",""trial"",""time""
""fullscreenenter"",""0"",""15187""
","
","
","""event"",""trial"",""time""
""fullscreenenter"",""0"",""15187""
","
","2027.5999999940395","","","","","","","","49","1,0,0","","","","","","","","","","","","","","","",""
"","html-keyboard-response","48","346502","0.0-36.0-0.0","""event"",""trial"",""time""
""fullscreenenter"",""0"",""15187""
","
","
","""event"",""trial"",""time""
""fullscreenenter"",""0"",""15187""
","
","null","<p></p>","null","","","","","","","","","","","","","","","","","","","","","","",""
"","do_trial","49","353644","0.0-36.0-1.0","""event"",""trial"",""time""
""fullscreenenter"",""0"",""15187""
","
","
","""event"",""trial"",""time""
""fullscreenenter"",""0"",""15187""
","
","2630.5999999940395","","","","","","","","50","1,1,0","","","","","","","","","","","","","","","",""
"","html-keyboard-response","50","354649","0.0-37.0-0.0","""event"",""trial"",""time""
""fullscreenenter"",""0"",""15187""
","
","
","""event"",""trial"",""time""
""fullscreenenter"",""0"",""15187""
","
","null","<p></p>","null","","","","","","","","","","","","","","","","","","","","","","",""
"","do_trial","51","359883","0.0-37.0-1.0","""event"",""trial"",""time""
""fullscreenenter"",""0"",""15187""
","
","
","""event"",""trial"",""time""
""fullscreenenter"",""0"",""15187""
","
","726.3000000119209","","","","","","","","51","1,0,1","","","","","","","","","","","","","","","",""
"","html-keyboard-response","52","360888","0.0-38.0-0.0","""event"",""trial"",""time""
""fullscreenenter"",""0"",""15187""
","
","
","""event"",""trial"",""time""
""fullscreenenter"",""0"",""15187""
","
","null","<p></p>","null","","","","","","","","","","","","","","","","","","","","","","",""
"","do_trial","53","366902","0.0-38.0-1.0","""event"",""trial"",""time""
""fullscreenenter"",""0"",""15187""
","
","
","""event"",""trial"",""time""
""fullscreenenter"",""0"",""15187""
","
","null","","","","","","","","null","0,1,0","","","","","","","","","","","","","","","",""
"","html-keyboard-response","54","367903","0.0-39.0-0.0","""event"",""trial"",""time""
""fullscreenenter"",""0"",""15187""
","
","
","""event"",""trial"",""time""
""fullscreenenter"",""0"",""15187""
","
","null","<p></p>","null","","","","","","","","","","","","","","","","","","","","","","",""
"","do_trial","55","373235","0.0-39.0-1.0","""event"",""trial"",""time""
""fullscreenenter"",""0"",""15187""
","
","
","""event"",""trial"",""time""
""fullscreenenter"",""0"",""15187""
","
","816","","","","","","","","50","0,1,0","","","","","","","","","","","","","","","",""
"","html-keyboard-response","56","374237","0.0-40.0-0.0","""event"",""trial"",""time""
""fullscreenenter"",""0"",""15187""
","
","
","""event"",""trial"",""time""
""fullscreenenter"",""0"",""15187""
","
","null","<p></p>","null","","","","","","","","","","","","","","","","","","","","","","",""
"","do_trial","57","379515","0.0-40.0-1.0","""event"",""trial"",""time""
""fullscreenenter"",""0"",""15187""
","
","
","""event"",""trial"",""time""
""fullscreenenter"",""0"",""15187""
","
","768.5999999940395","","","","","","","","51","1,0,0","","","","","","","","","","","","","","","",""
"","do_bye","58","381023","0.0-41.0-0.0","""event"",""trial"",""time""
""fullscreenenter"",""0"",""15187""
","
","
","""event"",""trial"",""time""
""fullscreenenter"",""0"",""15187""
","
","null","","","","","","","","null","","","","","","","","","","","","","","","","",""
"","do_travel","59","390027","0.0-41.0-1.0","""event"",""trial"",""time""
""fullscreenenter"",""0"",""15187""
","
","
","""event"",""trial"",""time""
""fullscreenenter"",""0"",""15187""
","
","null","","","","","","","","null","","","","","","","","","","","","","","","","",""
"","do_welcome","60","394038","0.0-41.0-2.0","""event"",""trial"",""time""
""fullscreenenter"",""0"",""15187""
","
","
","""event"",""trial"",""time""
""fullscreenenter"",""0"",""15187""
","
","null","","","","","","","","null","","","","","","","","","","","","","","","","",""
"","do_trial","61","399503","0.0-41.0-3.0","""event"",""trial"",""time""
""fullscreenenter"",""0"",""15187""
","
","
","""event"",""trial"",""time""
""fullscreenenter"",""0"",""15187""
","
","952.2000000178814","","","","","","","","49","1,0,0","","","","","","","","","","","","","","","",""
"","html-keyboard-response","62","400505","0.0-42.0-0.0","""event"",""trial"",""time""
""fullscreenenter"",""0"",""15187""
","
","
","""event"",""trial"",""time""
""fullscreenenter"",""0"",""15187""
","
","null","<p></p>","null","","","","","","","","","","","","","","","","","","","","","","",""
"","do_trial","63","405372","0.0-42.0-1.0","""event"",""trial"",""time""
""fullscreenenter"",""0"",""15187""
","
","
","""event"",""trial"",""time""
""fullscreenenter"",""0"",""15187""
","
","353.59999999403954","","","","","","","","50","1,0,1","","","","","","","","","","","","","","","",""
"","html-keyboard-response","64","406378","0.0-43.0-0.0","""event"",""trial"",""time""
""fullscreenenter"",""0"",""15187""
","
","
","""event"",""trial"",""time""
""fullscreenenter"",""0"",""15187""
","
","null","<p></p>","null","","","","","","","","","","","","","","","","","","","","","","",""
"","do_trial","65","411458","0.0-43.0-1.0","""event"",""trial"",""time""
""fullscreenenter"",""0"",""15187""
","
","
","""event"",""trial"",""time""
""fullscreenenter"",""0"",""15187""
","
","568.7999999821186","","","","","","","","51","1,1,0","","","","","","","","","","","","","","","",""
"","html-keyboard-response","66","412461","0.0-44.0-0.0","""event"",""trial"",""time""
""fullscreenenter"",""0"",""15187""
","
","
","""event"",""trial"",""time""
""fullscreenenter"",""0"",""15187""
","
","null","<p></p>","null","","","","","","","","","","","","","","","","","","","","","","",""
"","do_trial","67","417523","0.0-44.0-1.0","""event"",""trial"",""time""
""fullscreenenter"",""0"",""15187""
","
","
","""event"",""trial"",""time""
""fullscreenenter"",""0"",""15187""
","
","549","","","","","","","","50","0,0,1","","","","","","","","","","","","","","","",""
"","html-keyboard-response","68","418527","0.0-45.0-0.0","""event"",""trial"",""time""
""fullscreenenter"",""0"",""15187""
","
","
","""event"",""trial"",""time""
""fullscreenenter"",""0"",""15187""
","
","null","<p></p>","null","","","","","","","","","","","","","","","","","","","","","","",""
"","do_trial","69","423529","0.0-45.0-1.0","""event"",""trial"",""time""
""fullscreenenter"",""0"",""15187""
","
","
","""event"",""trial"",""time""
""fullscreenenter"",""0"",""15187""
","
","489.40000000596046","","","","","","","","49","1,0,1","","","","","","","","","","","","","","","",""
"","html-keyboard-response","70","424931","0.0-46.0-0.0","""event"",""trial"",""time""
""fullscreenenter"",""0"",""15187""
","
","
","""event"",""trial"",""time""
""fullscreenenter"",""0"",""15187""
","
","1399.199999988079","<div class='center'><p><img src='run_exp/static/images/tutorial/prac_best_pirate.png'  height='500'></p></div>","49","","","","","","","","","","","","","","","","","","","","","","",""
"","html-keyboard-response","71","426511","0.0-47.0-0.0","""event"",""trial"",""time""
""fullscreenenter"",""0"",""15187""
","
","
","""event"",""trial"",""time""
""fullscreenenter"",""0"",""15187""
","
","1578.4000000059605","<div class='center'><p>That's correct! Red beard was the best.</p><p><b>[Press the space bar to continue]</b></p></div>","32","","","","","","","","","","","","","","","","","","","","","","",""
"","html-keyboard-response","72","428573","0.0-47.0-1.0","""event"",""trial"",""time""
""fullscreenenter"",""0"",""15187""
","
","
","""event"",""trial"",""time""
""fullscreenenter"",""0"",""15187""
","
","2061","<div class='center'><p><img src='run_exp/static/images/tutorial/prac_source.png'  height='500'></p></div>","50","","","","","","","","","","","","","","","","","","","","","","",""
"","html-keyboard-response","73","432121","0.0-48.0-0.0","""event"",""trial"",""time""
""fullscreenenter"",""0"",""15187""
","
","
","""event"",""trial"",""time""
""fullscreenenter"",""0"",""15187""
","
","3547.699999988079","<div class='center'><p>That's correct! You saw this ship on the cavern island.</p><p><b>[Press the space bar to continue]</b></p></div>","32","","","","","","","","","","","","","","","","","","","","","","",""
"","quiz_beginning","74","443474","0.0-48.0-1.0","""event"",""trial"",""time""
""fullscreenenter"",""0"",""15187""
","
","
","""event"",""trial"",""time""
""fullscreenenter"",""0"",""15187""
","
","null","run_exp/static/audio/clip_16_quiz_intro.m4a","null","","","","","<div class='center'><p>Good job on the practice game! Now, you will be asked some true or false questions to make sure you really understand the rules of the game.</p><p> Press <b>'1'</b> on the keyboard for true and press <b>'2'</b> for false.</p></div>","","","","","","","","","","","","","","","","","",""
"","audio-keyboard-response","75","448739","0.0-48.0-2.0","""event"",""trial"",""time""
""fullscreenenter"",""0"",""15187""
","
","
","""event"",""trial"",""time""
""fullscreenenter"",""0"",""15187""
","
","5262.9000000059605","run_exp/static/audio/clip_17_q1.m4a","50","","","","","","","","","","","","","","","","","","","","","","",""
"","q1_err","76","453644","0.0-49.0-0.0","""event"",""trial"",""time""
""fullscreenenter"",""0"",""15187""
","
","
","""event"",""trial"",""time""
""fullscreenenter"",""0"",""15187""
","
","null","run_exp/static/audio/clip_19_wrong_q1.m4a","null","","","","","<div class='center'><p>That’s incorrect. You win bonus money by collecting gold coins.</p></div>","","","","","","","","","","","","","","","","","",""
"","html-keyboard-response","77","454726","0.0-49.0-1.0","""event"",""trial"",""time""
""fullscreenenter"",""0"",""15187""
","
","
","""event"",""trial"",""time""
""fullscreenenter"",""0"",""15187""
","
","1080.7000000178814","<div class='center'><p>That’s incorrect. You win bonus money by collecting gold coins.</p><p><b>[Press the space bar to continue]</b></p></div>","32","","","","","","","","","","","","","","","","","","","","","","",""
"","audio-keyboard-response","78","462512","0.0-49.0-2.0","""event"",""trial"",""time""
""fullscreenenter"",""0"",""15187""
","
","
","""event"",""trial"",""time""
""fullscreenenter"",""0"",""15187""
","
","7784.5999999940395","run_exp/static/audio/clip_20_q2.m4a","49","","","","","","","","","","","","","","","","","","","","","","",""
"","q2_err","79","468018","0.0-50.0-0.0","""event"",""trial"",""time""
""fullscreenenter"",""0"",""15187""
","
","
","""event"",""trial"",""time""
""fullscreenenter"",""0"",""15187""
","
","null","run_exp/static/audio/clip_21_wrong_q2.m4a","null","","","","","<div class='center'><p>That’s incorrect. Which pirate is the best may change during your time on the island.</p></div>","","","","","","","","","","","","","","","","","",""
"","html-keyboard-response","80","469447","0.0-50.0-1.0","""event"",""trial"",""time""
""fullscreenenter"",""0"",""15187""
","
","
","""event"",""trial"",""time""
""fullscreenenter"",""0"",""15187""
","
","1428.0999999940395","<div class='center'><p>That’s incorrect. Which pirate is the best may change during your time on the island.</p><p><b>[Press the space bar to continue]</b></p></div>","32","","","","","","","","","","","","","","","","","","","","","","",""
"","audio-keyboard-response","81","476047","0.0-50.0-2.0","""event"",""trial"",""time""
""fullscreenenter"",""0"",""15187""
","
","
","""event"",""trial"",""time""
""fullscreenenter"",""0"",""15187""
","
","6598.800000011921","run_exp/static/audio/clip_22_q3.m4a","50","","","","","","","","","","","","","","","","","","","","","","",""
"","correct","82","478466","0.0-51.0-0.0","""event"",""trial"",""time""
""fullscreenenter"",""0"",""15187""
","
","
","""event"",""trial"",""time""
""fullscreenenter"",""0"",""15187""
","
","null","run_exp/static/audio/clip_18_correct.m4a","null","","","","","<div class='center'><p>That's correct!</p></div>","","","","","","","","","","","","","","","","","",""
"","html-keyboard-response","83","480010","0.0-51.0-1.0","""event"",""trial"",""time""
""fullscreenenter"",""0"",""15187""
","
","
","""event"",""trial"",""time""
""fullscreenenter"",""0"",""15187""
","
","1542.2000000178814","<div class='center'><p>That's correct!</p><p><b>[Press the space bar to continue]</b></p></div>","32","","","","","","","","","","","","","","","","","","","","","","",""
"","audio-keyboard-response","84","498336","0.0-51.0-2.0","""event"",""trial"",""time""
""fullscreenenter"",""0"",""15187""
","
","
","""event"",""trial"",""time""
""fullscreenenter"",""0"",""15187""
","
","18324.80000001192","run_exp/static/audio/clip_24_q4.m4a","49","","","","","","","","","","","","","","","","","","","","","","",""
"","correct","85","500738","0.0-52.0-0.0","""event"",""trial"",""time""
""fullscreenenter"",""0"",""15187""
","
","
","""event"",""trial"",""time""
""fullscreenenter"",""0"",""15187""
","
","null","run_exp/static/audio/clip_18_correct.m4a","null","","","","","<div class='center'><p>That's correct!</p></div>","","","","","","","","","","","","","","","","","",""
"","html-keyboard-response","86","502270","0.0-52.0-1.0","""event"",""trial"",""time""
""fullscreenenter"",""0"",""15187""
","
","
","""event"",""trial"",""time""
""fullscreenenter"",""0"",""15187""
","
","1531.199999988079","<div class='center'><p>That's correct!</p><p><b>[Press the space bar to continue]</b></p></div>","32","","","","","","","","","","","","","","","","","","","","","","",""
"","q_all_err","87","508470","0.0-53.0-0.0","""event"",""trial"",""time""
""fullscreenenter"",""0"",""15187""
","
","
","""event"",""trial"",""time""
""fullscreenenter"",""0"",""15187""
","
","null","run_exp/static/audio/clip_26_quiz_redo.m4a","null","","","","","<div class='center'><p>Oops, you missed some questions. Now that you’ve heard the correct answers. Try the quiz again! </p></div>","","","","","","","","","","","","","","","","","",""
"","html-keyboard-response","88","509880","0.0-53.0-1.0","""event"",""trial"",""time""
""fullscreenenter"",""0"",""15187""
","
","
","""event"",""trial"",""time""
""fullscreenenter"",""0"",""15187""
","
","1409.0999999940395","<div class='center'><p>Oops, you missed some questions. Now that you’ve heard the correct answers. Try the quiz again! </p><p><b>[Press the space bar to continue]</b></p></div>","32","","","","","","","","","","","","","","","","","","","","","","",""
"","audio-keyboard-response","89","512443","0.0-53.0-2.0","""event"",""trial"",""time""
""fullscreenenter"",""0"",""15187""
","
","
","""event"",""trial"",""time""
""fullscreenenter"",""0"",""15187""
","
","2560.9000000059605","run_exp/static/audio/clip_17_q1.m4a","49","","","","","","","","","","","","","","","","","","","","","","",""
"","correct","90","514855","0.0-54.0-0.0","""event"",""trial"",""time""
""fullscreenenter"",""0"",""15187""
","
","
","""event"",""trial"",""time""
""fullscreenenter"",""0"",""15187""
","
","null","run_exp/static/audio/clip_18_correct.m4a","null","","","","","<div class='center'><p>That's correct!</p></div>","","","","","","","","","","","","","","","","","",""
"","html-keyboard-response","91","515920","0.0-54.0-1.0","""event"",""trial"",""time""
""fullscreenenter"",""0"",""15187""
","
","
","""event"",""trial"",""time""
""fullscreenenter"",""0"",""15187""
","
","1063.5","<div class='center'><p>That's correct!</p><p><b>[Press the space bar to continue]</b></p></div>","32","","","","","","","","","","","","","","","","","","","","","","",""
"","audio-keyboard-response","92","518410","0.0-54.0-2.0","""event"",""trial"",""time""
""fullscreenenter"",""0"",""15187""
","
","
","""event"",""trial"",""time""
""fullscreenenter"",""0"",""15187""
","
","2489.300000011921","run_exp/static/audio/clip_20_q2.m4a","50","","","","","","","","","","","","","","","","","","","","","","",""
"","correct","93","520823","0.0-55.0-0.0","""event"",""trial"",""time""
""fullscreenenter"",""0"",""15187""
","
","
","""event"",""trial"",""time""
""fullscreenenter"",""0"",""15187""
","
","null","run_exp/static/audio/clip_18_correct.m4a","null","","","","","<div class='center'><p>That's correct!</p></div>","","","","","","","","","","","","","","","","","",""
"","html-keyboard-response","94","521148","0.0-55.0-1.0","""event"",""trial"",""time""
""fullscreenenter"",""0"",""15187""
","
","
","""event"",""trial"",""time""
""fullscreenenter"",""0"",""15187""
","
","323.90000000596046","<div class='center'><p>That's correct!</p><p><b>[Press the space bar to continue]</b></p></div>","32","","","","","","","","","","","","","","","","","","","","","","",""
"","audio-keyboard-response","95","523662","0.0-55.0-2.0","""event"",""trial"",""time""
""fullscreenenter"",""0"",""15187""
","
","
","""event"",""trial"",""time""
""fullscreenenter"",""0"",""15187""
","
","2512.4000000059605","run_exp/static/audio/clip_22_q3.m4a","50","","","","","","","","","","","","","","","","","","","","","","",""
"","correct","96","526071","0.0-56.0-0.0","""event"",""trial"",""time""
""fullscreenenter"",""0"",""15187""
","
","
","""event"",""trial"",""time""
""fullscreenenter"",""0"",""15187""
","
","null","run_exp/static/audio/clip_18_correct.m4a","null","","","","","<div class='center'><p>That's correct!</p></div>","","","","","","","","","","","","","","","","","",""
"","html-keyboard-response","97","526354","0.0-56.0-1.0","""event"",""trial"",""time""
""fullscreenenter"",""0"",""15187""
","
","
","""event"",""trial"",""time""
""fullscreenenter"",""0"",""15187""
","
","281.90000000596046","<div class='center'><p>That's correct!</p><p><b>[Press the space bar to continue]</b></p></div>","32","","","","","","","","","","","","","","","","","","","","","","",""
"","audio-keyboard-response","98","528063","0.0-56.0-2.0","""event"",""trial"",""time""
""fullscreenenter"",""0"",""15187""
","
","
","""event"",""trial"",""time""
""fullscreenenter"",""0"",""15187""
","
","1707.7999999821186","run_exp/static/audio/clip_24_q4.m4a","49","","","","","","","","","","","","","","","","","","","","","","",""
"","correct","99","530506","0.0-57.0-0.0","""event"",""trial"",""time""
""fullscreenenter"",""0"",""15187""
","
","
","""event"",""trial"",""time""
""fullscreenenter"",""0"",""15187""
","
","null","run_exp/static/audio/clip_18_correct.m4a","null","","","","","<div class='center'><p>That's correct!</p></div>","","","","","","","","","","","","","","","","","",""
"","html-keyboard-response","100","530829","0.0-57.0-1.0","""event"",""trial"",""time""
""fullscreenenter"",""0"",""15187""
","
","
","""event"",""trial"",""time""
""fullscreenenter"",""0"",""15187""
","
","321.40000000596046","<div class='center'><p>That's correct!</p><p><b>[Press the space bar to continue]</b></p></div>","32","","","","","","","","","","","","","","","","","","","","","","",""
"","q_all_corr","101","539330","0.0-58.0-0.0","""event"",""trial"",""time""
""fullscreenenter"",""0"",""15187""
","
","
","""event"",""trial"",""time""
""fullscreenenter"",""0"",""15187""
","
","null","run_exp/static/audio/clip_27_quiz_all_correct.m4a","null","","","","","<div class='center'><p>Good job! You’re now ready to move on to the real game! Remember this game will be difficult but don't get discouraged and try your best!</p></div>","","","","","","","","","","","","","","","","","",""
"","html-keyboard-response","102","540590","0.0-58.0-1.0","""event"",""trial"",""time""
""fullscreenenter"",""0"",""15187""
","
","
","""event"",""trial"",""time""
""fullscreenenter"",""0"",""15187""
","
","1259.2999999821186","<div class='center'><p>Good job! You’re now ready to move on to the real game! Remember this game will be difficult but don't get discouraged and try your best!</p><p><b>[Press the space bar to continue]</b></p></div>","32","","","","","","","","","","","","","","","","","","","","","","",""
"","do_welcome","103","544601","0.0-59.0-0.0","""event"",""trial"",""time""
""fullscreenenter"",""0"",""15187""
","
","
","""event"",""trial"",""time""
""fullscreenenter"",""0"",""15187""
","
","null","","","","","","","","null","","","","","","","","","","","","","","","","",""
"","do_trial","104","550695","0.0-60.0-0.0","""event"",""trial"",""time""
""fullscreenenter"",""0"",""15187""
","
","
","""event"",""trial"",""time""
""fullscreenenter"",""0"",""15187""
","
","1548.3999999761581","","","","","","","","49","0,0,0","0","countryside","0","probe-219","0.6","0.3","0.1","0","","","","","","","",""
"","html-keyboard-response","105","551699","0.0-60.0-1.0","""event"",""trial"",""time""
""fullscreenenter"",""0"",""15187""
","
","
","""event"",""trial"",""time""
""fullscreenenter"",""0"",""15187""
","
","null","<p></p>","null","","","","","","","","","","","","","","","","","","","","","","",""
"","do_trial","106","556732","0.0-61.0-0.0","""event"",""trial"",""time""
""fullscreenenter"",""0"",""15187""
","
","
","""event"",""trial"",""time""
""fullscreenenter"",""0"",""15187""
","
","488.60000002384186","","","","","","","","50","1,0,0","0","countryside","1","probe-194","0.6306033318389627","0.21753038680958475","0.1622028684534058","0","","","","","","","",""
"","html-keyboard-response","107","557738","0.0-61.0-1.0","""event"",""trial"",""time""
""fullscreenenter"",""0"",""15187""
","
","
","""event"",""trial"",""time""
""fullscreenenter"",""0"",""15187""
","
","null","<p></p>","null","","","","","","","","","","","","","","","","","","","","","","",""
"","do_trial","108","562788","0.0-62.0-0.0","""event"",""trial"",""time""
""fullscreenenter"",""0"",""15187""
","
","
","""event"",""trial"",""time""
""fullscreenenter"",""0"",""15187""
","
","505.40000000596046","","","","","","","","51","0,1,0","0","countryside","2","probe-230","0.5340042437187591","0.3505894783772594","0.07787156134658998","0","","","","","","","",""
"","html-keyboard-response","109","563794","0.0-62.0-1.0","""event"",""trial"",""time""
""fullscreenenter"",""0"",""15187""
","
","
","""event"",""trial"",""time""
""fullscreenenter"",""0"",""15187""
","
","null","<p></p>","null","","","","","","","","","","","","","","","","","","","","","","",""
"","do_trial","110","569285","0.0-63.0-0.0","""event"",""trial"",""time""
""fullscreenenter"",""0"",""15187""
","
","
","""event"",""trial"",""time""
""fullscreenenter"",""0"",""15187""
","
","944.3000000119209","","","","","","","","50","1,0,0","0","countryside","3","probe-28","0.6063012304788451","0.268474153352027","0.11837057827367937","0","","","","","","","",""
"","html-keyboard-response","111","570287","0.0-63.0-1.0","""event"",""trial"",""time""
""fullscreenenter"",""0"",""15187""
","
","
","""event"",""trial"",""time""
""fullscreenenter"",""0"",""15187""
","
","null","<p></p>","null","","","","","","","","","","","","","","","","","","","","","","",""
"","do_trial","112","575230","0.0-64.0-0.0","""event"",""trial"",""time""
""fullscreenenter"",""0"",""15187""
","
","
","""event"",""trial"",""time""
""fullscreenenter"",""0"",""15187""
","
","395.80000001192093","","","","","","","","51","1,1,0","0","countryside","4","probe-116","0.5637596475205134","0.41889522716036565","0.11447580274197312","0","","","","","","","",""
"","html-keyboard-response","113","576236","0.0-64.0-1.0","""event"",""trial"",""time""
""fullscreenenter"",""0"",""15187""
","
","
","""event"",""trial"",""time""
""fullscreenenter"",""0"",""15187""
","
","null","<p></p>","null","","","","","","","","","","","","","","","","","","","","","","",""
"","do_trial","114","581157","0.0-65.0-0.0","""event"",""trial"",""time""
""fullscreenenter"",""0"",""15187""
","
","
","""event"",""trial"",""time""
""fullscreenenter"",""0"",""15187""
","
","375.7000000178814","","","","","","","","49","0,0,0","0","countryside","5","probe-137","0.5162708014874328","0.16185219179159302","0.10827925942951275","0","","","","","","","",""
"","html-keyboard-response","115","582162","0.0-65.0-1.0","""event"",""trial"",""time""
""fullscreenenter"",""0"",""15187""
","
","
","""event"",""trial"",""time""
""fullscreenenter"",""0"",""15187""
","
","null","<p></p>","null","","","","","","","","","","","","","","","","","","","","","","",""
"","do_trial","116","588373","0.0-66.0-0.0","""event"",""trial"",""time""
""fullscreenenter"",""0"",""15187""
","
","
","""event"",""trial"",""time""
""fullscreenenter"",""0"",""15187""
","
","1664.7000000178814","","","","","","","","51","1,0,1","0","countryside","6","probe-53","0.5653704488298774","0.19699808380025624","0.08778793675000643","1","","","","","","","",""
"","html-keyboard-response","117","589376","0.0-66.0-1.0","""event"",""trial"",""time""
""fullscreenenter"",""0"",""15187""
","
","
","""event"",""trial"",""time""
""fullscreenenter"",""0"",""15187""
","
","null","<p></p>","null","","","","","","","","","","","","","","","","","","","","","","",""
"","do_trial","118","595092","0.0-67.0-0.0","""event"",""trial"",""time""
""fullscreenenter"",""0"",""15187""
","
","
","""event"",""trial"",""time""
""fullscreenenter"",""0"",""15187""
","
","1171.199999988079","","","","","","","","50","1,1,0","0","countryside","7","probe-182","0.5109089326846374","0.24960452906573918","0.1547274961420782","1","","","","","","","",""
"","html-keyboard-response","119","596094","0.0-67.0-1.0","""event"",""trial"",""time""
""fullscreenenter"",""0"",""15187""
","
","
","""event"",""trial"",""time""
""fullscreenenter"",""0"",""15187""
","
","null","<p></p>","null","","","","","","","","","","","","","","","","","","","","","","",""
"","do_trial","120","601491","0.0-68.0-0.0","""event"",""trial"",""time""
""fullscreenenter"",""0"",""15187""
","
","
","""event"",""trial"",""time""
""fullscreenenter"",""0"",""15187""
","
","846.5999999940395","","","","","","","","50","0,0,1","0","countryside","8","probe-135","0.4919591022085939","0.22953366712774728","0.21244145912577528","0","","","","","","","",""
"","html-keyboard-response","121","602494","0.0-68.0-1.0","""event"",""trial"",""time""
""fullscreenenter"",""0"",""15187""
","
","
","""event"",""trial"",""time""
""fullscreenenter"",""0"",""15187""
","
","null","<p></p>","null","","","","","","","","","","","","","","","","","","","","","","",""
"","do_trial","122","608499","0.0-69.0-0.0","""event"",""trial"",""time""
""fullscreenenter"",""0"",""15187""
","
","
","""event"",""trial"",""time""
""fullscreenenter"",""0"",""15187""
","
","1464.4000000059605","","","","","","","","51","0,0,0","0","countryside","9","probe-214","0.6168206080680081","0.09273956361067033","0.2161527184504289","0","","","","","","","",""
"","html-keyboard-response","123","609504","0.0-69.0-1.0","""event"",""trial"",""time""
""fullscreenenter"",""0"",""15187""
","
","
","""event"",""trial"",""time""
""fullscreenenter"",""0"",""15187""
","
","null","<p></p>","null","","","","","","","","","","","","","","","","","","","","","","",""
"","do_trial","124","614591","0.0-70.0-0.0","""event"",""trial"",""time""
""fullscreenenter"",""0"",""15187""
","
","
","""event"",""trial"",""time""
""fullscreenenter"",""0"",""15187""
","
","541","","","","","","","","49","1,0,0","0","countryside","10","probe-118","0.6399733020419422","0.14882758934951582","0.31418252010250075","1","","","","","","","",""
"","html-keyboard-response","125","615598","0.0-70.0-1.0","""event"",""trial"",""time""
""fullscreenenter"",""0"",""15187""
","
","
","""event"",""trial"",""time""
""fullscreenenter"",""0"",""15187""
","
","null","<p></p>","null","","","","","","","","","","","","","","","","","","","","","","",""
"","do_trial","126","622924","0.0-71.0-0.0","""event"",""trial"",""time""
""fullscreenenter"",""0"",""15187""
","
","
","""event"",""trial"",""time""
""fullscreenenter"",""0"",""15187""
","
","2780.5999999940395","","","","","","","","50","1,0,0","0","countryside","11","probe-124","0.7040169165961987","0.21731623422032914","0.3076812721475297","0","","","","","","","",""
"","html-keyboard-response","127","623929","0.0-71.0-1.0","""event"",""trial"",""time""
""fullscreenenter"",""0"",""15187""
","
","
","""event"",""trial"",""time""
""fullscreenenter"",""0"",""15187""
","
","null","<p></p>","null","","","","","","","","","","","","","","","","","","","","","","",""
"","do_trial","128","629117","0.0-72.0-0.0","""event"",""trial"",""time""
""fullscreenenter"",""0"",""15187""
","
","
","""event"",""trial"",""time""
""fullscreenenter"",""0"",""15187""
","
","642.0999999940395","","","","","","","","51","0,0,0","0","countryside","12","probe-08","0.6666920280485147","0.1777844241636518","0.06043448071154518","0","","","","","","","",""
"","html-keyboard-response","129","630118","0.0-72.0-1.0","""event"",""trial"",""time""
""fullscreenenter"",""0"",""15187""
","
","
","""event"",""trial"",""time""
""fullscreenenter"",""0"",""15187""
","
","null","<p></p>","null","","","","","","","","","","","","","","","","","","","","","","",""
"","do_trial","130","635674","0.0-73.0-0.0","""event"",""trial"",""time""
""fullscreenenter"",""0"",""15187""
","
","
","""event"",""trial"",""time""
""fullscreenenter"",""0"",""15187""
","
","1009.9000000059605","","","","","","","","50","1,0,0","0","countryside","13","probe-62","0.7056518885866695","0.30449573880927266","0.08585941153683856","0","","","","","","","",""
"","html-keyboard-response","131","636680","0.0-73.0-1.0","""event"",""trial"",""time""
""fullscreenenter"",""0"",""15187""
","
","
","""event"",""trial"",""time""
""fullscreenenter"",""0"",""15187""
","
","null","<p></p>","null","","","","","","","","","","","","","","","","","","","","","","",""
"","do_trial","132","642227","0.0-74.0-0.0","""event"",""trial"",""time""
""fullscreenenter"",""0"",""15187""
","
","
","""event"",""trial"",""time""
""fullscreenenter"",""0"",""15187""
","
","997.4000000059605","","","","","","","","51","1,0,0","0","countryside","14","probe-18","0.5458763957586487","0.19200159481865695","0.17318904735075208","0","","","","","","","",""
"","html-keyboard-response","133","643233","0.0-74.0-1.0","""event"",""trial"",""time""
""fullscreenenter"",""0"",""15187""
","
","
","""event"",""trial"",""time""
""fullscreenenter"",""0"",""15187""
","
","null","<p></p>","null","","","","","","","","","","","","","","","","","","","","","","",""
"","do_trial","134","648789","0.0-75.0-0.0","""event"",""trial"",""time""
""fullscreenenter"",""0"",""15187""
","
","
","""event"",""trial"",""time""
""fullscreenenter"",""0"",""15187""
","
","1012.3000000119209","","","","","","","","49","1,0,0","0","countryside","15","probe-71","0.6212245724636943","0.2465021245987694","0.07538278595430604","1","","","","","","","",""
"","html-keyboard-response","135","649796","0.0-75.0-1.0","""event"",""trial"",""time""
""fullscreenenter"",""0"",""15187""
","
","
","""event"",""trial"",""time""
""fullscreenenter"",""0"",""15187""
","
","null","<p></p>","null","","","","","","","","","","","","","","","","","","","","","","",""
"","do_trial","136","655232","0.0-76.0-0.0","""event"",""trial"",""time""
""fullscreenenter"",""0"",""15187""
","
","
","""event"",""trial"",""time""
""fullscreenenter"",""0"",""15187""
","
","890.8000000119209","","","","","","","","50","0,0,0","0","countryside","16","probe-217","0.743979794227563","0.43964429497939206","0.13937245742524337","0","","","","","","","",""
"","html-keyboard-response","137","656238","0.0-76.0-1.0","""event"",""trial"",""time""
""fullscreenenter"",""0"",""15187""
","
","
","""event"",""trial"",""time""
""fullscreenenter"",""0"",""15187""
","
","null","<p></p>","null","","","","","","","","","","","","","","","","","","","","","","",""
"","do_trial","138","663134","0.0-77.0-0.0","""event"",""trial"",""time""
""fullscreenenter"",""0"",""15187""
","
","
","""event"",""trial"",""time""
""fullscreenenter"",""0"",""15187""
","
","2353.100000023842","","","","","","","","51","0,1,1","0","countryside","17","probe-107","0.7188827423254281","0.5142656279866374","0.12670908440983752","1","","","","","","","",""
"","html-keyboard-response","139","664141","0.0-77.0-1.0","""event"",""trial"",""time""
""fullscreenenter"",""0"",""15187""
","
","
","""event"",""trial"",""time""
""fullscreenenter"",""0"",""15187""
","
","null","<p></p>","null","","","","","","","","","","","","","","","","","","","","","","",""
"","do_trial","140","668702","0.0-78.0-0.0","""event"",""trial"",""time""
""fullscreenenter"",""0"",""15187""
","
","
","""event"",""trial"",""time""
""fullscreenenter"",""0"",""15187""
","
","14.699999988079071","","","","","","","","50","0,1,0","0","countryside","18","probe-27","0.5219538791986148","0.4163148034680734","0.2388104424256769","1","","","","","","","",""
"","html-keyboard-response","141","669709","0.0-78.0-1.0","""event"",""trial"",""time""
""fullscreenenter"",""0"",""15187""
","
","
","""event"",""trial"",""time""
""fullscreenenter"",""0"",""15187""
","
","null","<p></p>","null","","","","","","","","","","","","","","","","","","","","","","",""
"","do_trial","142","674866","0.0-79.0-0.0","""event"",""trial"",""time""
""fullscreenenter"",""0"",""15187""
","
","
","""event"",""trial"",""time""
""fullscreenenter"",""0"",""15187""
","
","615.0999999940395","","","","","","","","50","1,0,0","0","countryside","19","probe-76","0.5944195238698063","0.33531165756202913","0.15063773091368668","0","","","","","","","",""
"","html-keyboard-response","143","675872","0.0-79.0-1.0","""event"",""trial"",""time""
""fullscreenenter"",""0"",""15187""
","
","
","""event"",""trial"",""time""
""fullscreenenter"",""0"",""15187""
","
","null","<p></p>","null","","","","","","","","","","","","","","","","","","","","","","",""
"","do_trial","144","680811","0.0-80.0-0.0","""event"",""trial"",""time""
""fullscreenenter"",""0"",""15187""
","
","
","""event"",""trial"",""time""
""fullscreenenter"",""0"",""15187""
","
","392.19999998807907","","","","","","","","49","0,1,0","0","countryside","20","probe-144","0.4740806185456652","0.43814699879122115","0.11198049033176989","0","","","","","","","",""
"","html-keyboard-response","145","681817","0.0-80.0-1.0","""event"",""trial"",""time""
""fullscreenenter"",""0"",""15187""
","
","
","""event"",""trial"",""time""
""fullscreenenter"",""0"",""15187""
","
","null","<p></p>","null","","","","","","","","","","","","","","","","","","","","","","",""
"","do_trial","146","688792","0.0-81.0-0.0","""event"",""trial"",""time""
""fullscreenenter"",""0"",""15187""
","
","
","""event"",""trial"",""time""
""fullscreenenter"",""0"",""15187""
","
","2431.5999999940395","","","","","","","","50","1,1,0","0","countryside","21","probe-10","0.5659174147750116","0.4671859801081141","0.10111572749994124","1","","","","","","","",""
"","html-keyboard-response","147","689795","0.0-81.0-1.0","""event"",""trial"",""time""
""fullscreenenter"",""0"",""15187""
","
","
","""event"",""trial"",""time""
""fullscreenenter"",""0"",""15187""
","
","null","<p></p>","null","","","","","","","","","","","","","","","","","","","","","","",""
"","do_trial","148","695637","0.0-82.0-0.0","""event"",""trial"",""time""
""fullscreenenter"",""0"",""15187""
","
","
","""event"",""trial"",""time""
""fullscreenenter"",""0"",""15187""
","
","1299.2999999821186","","","","","","","","51","0,0,1","0","countryside","22","probe-74","0.6292176720070303","0.4112852362150518","0.18758984468540568","1","","","","","","","",""
"","html-keyboard-response","149","696643","0.0-82.0-1.0","""event"",""trial"",""time""
""fullscreenenter"",""0"",""15187""
","
","
","""event"",""trial"",""time""
""fullscreenenter"",""0"",""15187""
","
","null","<p></p>","null","","","","","","","","","","","","","","","","","","","","","","",""
"","do_trial","150","702076","0.0-83.0-0.0","""event"",""trial"",""time""
""fullscreenenter"",""0"",""15187""
","
","
","""event"",""trial"",""time""
""fullscreenenter"",""0"",""15187""
","
","885.9000000059605","","","","","","","","49","0,0,0","0","countryside","23","probe-221","0.7049080293731662","0.31097143069859573","0.16337977014876168","0","","","","","","","",""
"","html-keyboard-response","151","703082","0.0-83.0-1.0","""event"",""trial"",""time""
""fullscreenenter"",""0"",""15187""
","
","
","""event"",""trial"",""time""
""fullscreenenter"",""0"",""15187""
","
","null","<p></p>","null","","","","","","","","","","","","","","","","","","","","","","",""
"","do_trial","152","708569","0.0-84.0-0.0","""event"",""trial"",""time""
""fullscreenenter"",""0"",""15187""
","
","
","""event"",""trial"",""time""
""fullscreenenter"",""0"",""15187""
","
","934","","","","","","","","51","1,0,0","0","countryside","24","probe-152","0.6171239495367553","0.1150528667166617","0.2211693732024373","0","","","","","","","",""
"","html-keyboard-response","153","709576","0.0-84.0-1.0","""event"",""trial"",""time""
""fullscreenenter"",""0"",""15187""
","
","
","""event"",""trial"",""time""
""fullscreenenter"",""0"",""15187""
","
","null","<p></p>","null","","","","","","","","","","","","","","","","","","","","","","",""
"","do_trial","154","715627","0.0-85.0-0.0","""event"",""trial"",""time""
""fullscreenenter"",""0"",""15187""
","
","
","""event"",""trial"",""time""
""fullscreenenter"",""0"",""15187""
","
","null","","","","","","","","null","1,0,0","0","countryside","25","probe-103","0.6850672380780983","0.19549802926612234","0.24302953455993964","","","","","","","","",""
"","html-keyboard-response","155","716634","0.0-85.0-1.0","""event"",""trial"",""time""
""fullscreenenter"",""0"",""15187""
","
","
","""event"",""trial"",""time""
""fullscreenenter"",""0"",""15187""
","
","null","<p></p>","null","","","","","","","","","","","","","","","","","","","","","","",""
"","do_trial","156","721750","0.0-86.0-0.0","""event"",""trial"",""time""
""fullscreenenter"",""0"",""15187""
","
","
","""event"",""trial"",""time""
""fullscreenenter"",""0"",""15187""
","
","568.0999999940395","","","","","","","","50","1,0,0","0","countryside","26","probe-150","0.8184495891821345","0.2599067349771452","0.19482942981403686","0","","","","","","","",""
"","html-keyboard-response","157","722754","0.0-86.0-1.0","""event"",""trial"",""time""
""fullscreenenter"",""0"",""15187""
","
","
","""event"",""trial"",""time""
""fullscreenenter"",""0"",""15187""
","
","null","<p></p>","null","","","","","","","","","","","","","","","","","","","","","","",""
"","do_trial","158","730121","0.0-87.0-0.0","""event"",""trial"",""time""
""fullscreenenter"",""0"",""15187""
","
","
","""event"",""trial"",""time""
""fullscreenenter"",""0"",""15187""
","
","2817.5999999940395","","","","","","","","51","1,0,0","0","countryside","27","probe-26","0.831739829884577","0.3028563461427818","0.14418551826241133","0","","","","","","","",""
"","html-keyboard-response","159","731127","0.0-87.0-1.0","""event"",""trial"",""time""
""fullscreenenter"",""0"",""15187""
","
","
","""event"",""trial"",""time""
""fullscreenenter"",""0"",""15187""
","
","null","<p></p>","null","","","","","","","","","","","","","","","","","","","","","","",""
"","do_trial","160","736538","0.0-88.0-0.0","""event"",""trial"",""time""
""fullscreenenter"",""0"",""15187""
","
","
","""event"",""trial"",""time""
""fullscreenenter"",""0"",""15187""
","
","864.9000000059605","","","","","","","","49","0,1,0","0","countryside","28","probe-141","0.7989586393739745","0.22781652634700847","0.1183853111440335","0","","","","","","","",""
"","html-keyboard-response","161","737544","0.0-88.0-1.0","""event"",""trial"",""time""
""fullscreenenter"",""0"",""15187""
","
","
","""event"",""trial"",""time""
""fullscreenenter"",""0"",""15187""
","
","null","<p></p>","null","","","","","","","","","","","","","","","","","","","","","","",""
"","do_trial","162","742750","0.0-89.0-0.0","""event"",""trial"",""time""
""fullscreenenter"",""0"",""15187""
","
","
","""event"",""trial"",""time""
""fullscreenenter"",""0"",""15187""
","
","653.8000000119209","","","","","","","","50","0,0,0","0","countryside","29","probe-127","0.8727693594023177","0.36821167168253793","0.09865232464328226","0","","","","","","","",""
"","html-keyboard-response","163","743753","0.0-89.0-1.0","""event"",""trial"",""time""
""fullscreenenter"",""0"",""15187""
","
","
","""event"",""trial"",""time""
""fullscreenenter"",""0"",""15187""
","
","null","<p></p>","null","","","","","","","","","","","","","","","","","","","","","","",""
"","do_bye","164","745259","0.0-90.0-0.0","""event"",""trial"",""time""
""fullscreenenter"",""0"",""15187""
","
","
","""event"",""trial"",""time""
""fullscreenenter"",""0"",""15187""
","
","null","","","","","","","","null","","","","","","","","","","","","","","","","",""
"","break","165","844956","0.0-90.0-1.0","""event"",""trial"",""time""
""fullscreenenter"",""0"",""15187""
","
","
","""event"",""trial"",""time""
""fullscreenenter"",""0"",""15187""
","
","99695.5","<div class='center'><p>Time to take a quick break! You have 2 minutes to rest, but you can move on sooner if you'd like.</p><p> Press the <b>space bar</b> to continue.</p></div>","32","","","","","","","","","","","","","","","","","","","","","","",""
"","do_travel","166","853960","0.0-91.0-0.0","""event"",""trial"",""time""
""fullscreenenter"",""0"",""15187""
","
","
","""event"",""trial"",""time""
""fullscreenenter"",""0"",""15187""
","
","null","","","","","","","","null","","","","","","","","","","","","","","","","",""
"","do_welcome","167","857972","0.0-91.0-1.0","""event"",""trial"",""time""
""fullscreenenter"",""0"",""15187""
","
","
","""event"",""trial"",""time""
""fullscreenenter"",""0"",""15187""
","
","null","","","","","","","","null","","","","","","","","","","","","","","","","",""
"","do_trial","168","863944","0.0-92.0-0.0","""event"",""trial"",""time""
""fullscreenenter"",""0"",""15187""
","
","
","""event"",""trial"",""time""
""fullscreenenter"",""0"",""15187""
","
","1422","","","","","","","","49","1,0,0","1","mountain","30","probe-210","1","0.2537433673362192","0.14179210940532186","1","","","","","","","",""
"","html-keyboard-response","169","864950","0.0-92.0-1.0","""event"",""trial"",""time""
""fullscreenenter"",""0"",""15187""
","
","
","""event"",""trial"",""time""
""fullscreenenter"",""0"",""15187""
","
","null","<p></p>","null","","","","","","","","","","","","","","","","","","","","","","",""
"","do_trial","170","870038","0.0-93.0-0.0","""event"",""trial"",""time""
""fullscreenenter"",""0"",""15187""
","
","
","""event"",""trial"",""time""
""fullscreenenter"",""0"",""15187""
","
","533.7000000178814","","","","","","","","50","1,0,0","1","mountain","31","probe-05","1","0.3069837009798593","0.2264685142778636","0","","","","","","","",""
"","html-keyboard-response","171","871041","0.0-93.0-1.0","""event"",""trial"",""time""
""fullscreenenter"",""0"",""15187""
","
","
","""event"",""trial"",""time""
""fullscreenenter"",""0"",""15187""
","
","null","<p></p>","null","","","","","","","","","","","","","","","","","","","","","","",""
"","do_trial","172","876144","0.0-94.0-0.0","""event"",""trial"",""time""
""fullscreenenter"",""0"",""15187""
","
","
","""event"",""trial"",""time""
""fullscreenenter"",""0"",""15187""
","
","556.6000000238419","","","","","","","","50","1,0,0","1","mountain","32","probe-12","1","0.3345785994527046","0.2291913339192312","0","","","","","","","",""
"","html-keyboard-response","173","877151","0.0-94.0-1.0","""event"",""trial"",""time""
""fullscreenenter"",""0"",""15187""
","
","
","""event"",""trial"",""time""
""fullscreenenter"",""0"",""15187""
","
","null","<p></p>","null","","","","","","","","","","","","","","","","","","","","","","",""
"","do_trial","174","883203","0.0-95.0-0.0","""event"",""trial"",""time""
""fullscreenenter"",""0"",""15187""
","
","
","""event"",""trial"",""time""
""fullscreenenter"",""0"",""15187""
","
","null","","","","","","","","null","1,0,1","1","mountain","33","probe-208","0.9387242748869177","0.2577454532235214","0.24887445147356232","","","","","","","","",""
"","html-keyboard-response","175","884205","0.0-95.0-1.0","""event"",""trial"",""time""
""fullscreenenter"",""0"",""15187""
","
","
","""event"",""trial"",""time""
""fullscreenenter"",""0"",""15187""
","
","null","<p></p>","null","","","","","","","","","","","","","","","","","","","","","","",""
"","do_trial","176","889330","0.0-96.0-0.0","""event"",""trial"",""time""
""fullscreenenter"",""0"",""15187""
","
","
","""event"",""trial"",""time""
""fullscreenenter"",""0"",""15187""
","
","583.8000000119209","","","","","","","","50","0,0,1","1","mountain","34","probe-117","0.7921626849312987","0.25949662347093294","0.21022948367024838","0","","","","","","","",""
"","html-keyboard-response","177","890333","0.0-96.0-1.0","""event"",""trial"",""time""
""fullscreenenter"",""0"",""15187""
","
","
","""event"",""trial"",""time""
""fullscreenenter"",""0"",""15187""
","
","null","<p></p>","null","","","","","","","","","","","","","","","","","","","","","","",""
"","do_trial","178","895399","0.0-97.0-0.0","""event"",""trial"",""time""
""fullscreenenter"",""0"",""15187""
","
","
","""event"",""trial"",""time""
""fullscreenenter"",""0"",""15187""
","
","516.3000000119209","","","","","","","","50","1,1,1","1","mountain","35","probe-190","0.7693838637407864","0.33314080702092486","0.15941548867110863","1","","","","","","","",""
"","html-keyboard-response","179","896406","0.0-97.0-1.0","""event"",""trial"",""time""
""fullscreenenter"",""0"",""15187""
","
","
","""event"",""trial"",""time""
""fullscreenenter"",""0"",""15187""
","
","null","<p></p>","null","","","","","","","","","","","","","","","","","","","","","","",""
"","do_trial","180","901831","0.0-98.0-0.0","""event"",""trial"",""time""
""fullscreenenter"",""0"",""15187""
","
","
","""event"",""trial"",""time""
""fullscreenenter"",""0"",""15187""
","
","881.0999999940395","","","","","","","","51","0,0,0","1","mountain","36","probe-130","0.6886883347945505","0.2025422096932085","0.13282344106865207","0","","","","","","","",""
"","html-keyboard-response","181","902833","0.0-98.0-1.0","""event"",""trial"",""time""
""fullscreenenter"",""0"",""15187""
","
","
","""event"",""trial"",""time""
""fullscreenenter"",""0"",""15187""
","
","null","<p></p>","null","","","","","","","","","","","","","","","","","","","","","","",""
"","do_trial","182","908957","0.0-99.0-0.0","""event"",""trial"",""time""
""fullscreenenter"",""0"",""15187""
","
","
","""event"",""trial"",""time""
""fullscreenenter"",""0"",""15187""
","
","1579","","","","","","","","49","0,0,0","1","mountain","37","probe-131","0.6009652230360419","0.1500841297193446","0.14093475821986864","0","","","","","","","",""
"","html-keyboard-response","183","909963","0.0-99.0-1.0","""event"",""trial"",""time""
""fullscreenenter"",""0"",""15187""
","
","
","""event"",""trial"",""time""
""fullscreenenter"",""0"",""15187""
","
","null","<p></p>","null","","","","","","","","","","","","","","","","","","","","","","",""
"","do_trial","184","915007","0.0-100.0-0.0","""event"",""trial"",""time""
""fullscreenenter"",""0"",""15187""
","
","
","""event"",""trial"",""time""
""fullscreenenter"",""0"",""15187""
","
","498.5","","","","","","","","50","1,0,0","1","mountain","38","probe-178","0.6236279675102119","0.09377954145808495","0.11606374864384672","0","","","","","","","",""
"","html-keyboard-response","185","916009","0.0-100.0-1.0","""event"",""trial"",""time""
""fullscreenenter"",""0"",""15187""
","
","
","""event"",""trial"",""time""
""fullscreenenter"",""0"",""15187""
","
","null","<p></p>","null","","","","","","","","","","","","","","","","","","","","","","",""
"","do_trial","186","921063","0.0-101.0-0.0","""event"",""trial"",""time""
""fullscreenenter"",""0"",""15187""
","
","
","""event"",""trial"",""time""
""fullscreenenter"",""0"",""15187""
","
","507.19999998807907","","","","","","","","49","0,0,0","1","mountain","39","probe-157","0.556517254362658","0.05349130409946719","0.0817743476370274","0","","","","","","","",""
"","html-keyboard-response","187","922070","0.0-101.0-1.0","""event"",""trial"",""time""
""fullscreenenter"",""0"",""15187""
","
","
","""event"",""trial"",""time""
""fullscreenenter"",""0"",""15187""
","
","null","<p></p>","null","","","","","","","","","","","","","","","","","","","","","","",""
"","do_trial","188","927456","0.0-102.0-0.0","""event"",""trial"",""time""
""fullscreenenter"",""0"",""15187""
","
","
","""event"",""trial"",""time""
""fullscreenenter"",""0"",""15187""
","
","840.0999999940395","","","","","","","","49","0,0,0","1","mountain","40","probe-187","0.4742164189200766","0.22679191141063446","0.07286688490256431","0","","","","","","","",""
"","html-keyboard-response","189","928462","0.0-102.0-1.0","""event"",""trial"",""time""
""fullscreenenter"",""0"",""15187""
","
","
","""event"",""trial"",""time""
""fullscreenenter"",""0"",""15187""
","
","null","<p></p>","null","","","","","","","","","","","","","","","","","","","","","","",""
"","do_trial","190","933696","0.0-103.0-0.0","""event"",""trial"",""time""
""fullscreenenter"",""0"",""15187""
","
","
","""event"",""trial"",""time""
""fullscreenenter"",""0"",""15187""
","
","689.9000000059605","","","","","","","","51","0,0,0","1","mountain","41","probe-46","0.5389582883613637","0.08360097408509361","0.07079645723177666","0","","","","","","","",""
"","html-keyboard-response","191","934703","0.0-103.0-1.0","""event"",""trial"",""time""
""fullscreenenter"",""0"",""15187""
","
","
","""event"",""trial"",""time""
""fullscreenenter"",""0"",""15187""
","
","null","<p></p>","null","","","","","","","","","","","","","","","","","","","","","","",""
"","do_trial","192","939724","0.0-104.0-0.0","""event"",""trial"",""time""
""fullscreenenter"",""0"",""15187""
","
","
","""event"",""trial"",""time""
""fullscreenenter"",""0"",""15187""
","
","477.19999998807907","","","","","","","","50","1,0,0","1","mountain","42","probe-07","0.329220859418739","0.16068708562390846","0.3861747064394684","0","","","","","","","",""
"","html-keyboard-response","193","940726","0.0-104.0-1.0","""event"",""trial"",""time""
""fullscreenenter"",""0"",""15187""
","
","
","""event"",""trial"",""time""
""fullscreenenter"",""0"",""15187""
","
","null","<p></p>","null","","","","","","","","","","","","","","","","","","","","","","",""
"","do_trial","194","945783","0.0-105.0-0.0","""event"",""trial"",""time""
""fullscreenenter"",""0"",""15187""
","
","
","""event"",""trial"",""time""
""fullscreenenter"",""0"",""15187""
","
","515.4000000059605","","","","","","","","49","0,0,1","1","mountain","43","probe-198","0.25635517093518867","0.1565586027398598","0.4946327086316285","0","","","","","","","",""
"","html-keyboard-response","195","946786","0.0-105.0-1.0","""event"",""trial"",""time""
""fullscreenenter"",""0"",""15187""
","
","
","""event"",""trial"",""time""
""fullscreenenter"",""0"",""15187""
","
","null","<p></p>","null","","","","","","","","","","","","","","","","","","","","","","",""
"","do_trial","196","952725","0.0-106.0-0.0","""event"",""trial"",""time""
""fullscreenenter"",""0"",""15187""
","
","
","""event"",""trial"",""time""
""fullscreenenter"",""0"",""15187""
","
","1395.300000011921","","","","","","","","50","1,0,0","1","mountain","44","probe-193","0.3219611385381923","0.2639759555957216","0.50636073985397","0","","","","","","","",""
"","html-keyboard-response","197","953731","0.0-106.0-1.0","""event"",""trial"",""time""
""fullscreenenter"",""0"",""15187""
","
","
","""event"",""trial"",""time""
""fullscreenenter"",""0"",""15187""
","
","null","<p></p>","null","","","","","","","","","","","","","","","","","","","","","","",""
"","do_trial","198","959243","0.0-107.0-0.0","""event"",""trial"",""time""
""fullscreenenter"",""0"",""15187""
","
","
","""event"",""trial"",""time""
""fullscreenenter"",""0"",""15187""
","
","967.0999999940395","","","","","","","","49","1,0,0","1","mountain","45","probe-224","0.3201980334333911","0.08136878726230919","0.48588286444440465","1","","","","","","","",""
"","html-keyboard-response","199","960250","0.0-107.0-1.0","""event"",""trial"",""time""
""fullscreenenter"",""0"",""15187""
","
","
","""event"",""trial"",""time""
""fullscreenenter"",""0"",""15187""
","
","null","<p></p>","null","","","","","","","","","","","","","","","","","","","","","","",""
"","do_trial","200","966273","0.0-108.0-0.0","""event"",""trial"",""time""
""fullscreenenter"",""0"",""15187""
","
","
","""event"",""trial"",""time""
""fullscreenenter"",""0"",""15187""
","
","1480.5999999940395","","","","","","","","51","0,0,0","1","mountain","46","probe-22","0.29100459230484516","0.07635110101008134","0.6775785267183774","0","","","","","","","",""
"","html-keyboard-response","201","967277","0.0-108.0-1.0","""event"",""trial"",""time""
""fullscreenenter"",""0"",""15187""
","
","
","""event"",""trial"",""time""
""fullscreenenter"",""0"",""15187""
","
","null","<p></p>","null","","","","","","","","","","","","","","","","","","","","","","",""
"","do_trial","202","973011","0.0-109.0-0.0","""event"",""trial"",""time""
""fullscreenenter"",""0"",""15187""
","
","
","""event"",""trial"",""time""
""fullscreenenter"",""0"",""15187""
","
","1191","","","","","","","","49","0,0,0","1","mountain","47","probe-04","0.3703619312173793","0.11865183683272325","0.6580029708656921","0","","","","","","","",""
"","html-keyboard-response","203","974017","0.0-109.0-1.0","""event"",""trial"",""time""
""fullscreenenter"",""0"",""15187""
","
","
","""event"",""trial"",""time""
""fullscreenenter"",""0"",""15187""
","
","null","<p></p>","null","","","","","","","","","","","","","","","","","","","","","","",""
"","do_trial","204","979985","0.0-110.0-0.0","""event"",""trial"",""time""
""fullscreenenter"",""0"",""15187""
","
","
","""event"",""trial"",""time""
""fullscreenenter"",""0"",""15187""
","
","1424.800000011921","","","","","","","","50","0,0,1","1","mountain","48","probe-63","0.19501481095126122","0.20509116446148226","0.5756222133782972","0","","","","","","","",""
"","html-keyboard-response","205","980991","0.0-110.0-1.0","""event"",""trial"",""time""
""fullscreenenter"",""0"",""15187""
","
","
","""event"",""trial"",""time""
""fullscreenenter"",""0"",""15187""
","
","null","<p></p>","null","","","","","","","","","","","","","","","","","","","","","","",""
"","do_trial","206","986882","0.0-111.0-0.0","""event"",""trial"",""time""
""fullscreenenter"",""0"",""15187""
","
","
","""event"",""trial"",""time""
""fullscreenenter"",""0"",""15187""
","
","1346.5","","","","","","","","51","0,0,0","1","mountain","49","probe-132","0.24190613176232142","0.09134613133306389","0.5717642590017826","0","","","","","","","",""
"","html-keyboard-response","207","987889","0.0-111.0-1.0","""event"",""trial"",""time""
""fullscreenenter"",""0"",""15187""
","
","
","""event"",""trial"",""time""
""fullscreenenter"",""0"",""15187""
","
","null","<p></p>","null","","","","","","","","","","","","","","","","","","","","","","",""
"","do_trial","208","993642","0.0-112.0-0.0","""event"",""trial"",""time""
""fullscreenenter"",""0"",""15187""
","
","
","""event"",""trial"",""time""
""fullscreenenter"",""0"",""15187""
","
","1210.9000000059605","","","","","","","","50","0,0,0","1","mountain","50","probe-126","0.3050643607602112","0.09264189223622005","0.579808293964637","0","","","","","","","",""
"","html-keyboard-response","209","994648","0.0-112.0-1.0","""event"",""trial"",""time""
""fullscreenenter"",""0"",""15187""
","
","
","""event"",""trial"",""time""
""fullscreenenter"",""0"",""15187""
","
","null","<p></p>","null","","","","","","","","","","","","","","","","","","","","","","",""
"","do_trial","210","1000027","0.0-113.0-0.0","""event"",""trial"",""time""
""fullscreenenter"",""0"",""15187""
","
","
","""event"",""trial"",""time""
""fullscreenenter"",""0"",""15187""
","
","830.3000000119209","","","","","","","","49","0,0,1","1","mountain","51","probe-112","0.23036831199615374","0.17558059313470725","0.482793332640024","0","","","","","","","",""
"","html-keyboard-response","211","1001032","0.0-113.0-1.0","""event"",""trial"",""time""
""fullscreenenter"",""0"",""15187""
","
","
","""event"",""trial"",""time""
""fullscreenenter"",""0"",""15187""
","
","null","<p></p>","null","","","","","","","","","","","","","","","","","","","","","","",""
"","do_trial","212","1006316","0.0-114.0-0.0","""event"",""trial"",""time""
""fullscreenenter"",""0"",""15187""
","
","
","""event"",""trial"",""time""
""fullscreenenter"",""0"",""15187""
","
","736.6000000238419","","","","","","","","51","0,1,1","1","mountain","52","probe-38","0.18881593066388963","0.1798432664672623","0.5456241033994225","1","","","","","","","",""
"","html-keyboard-response","213","1007318","0.0-114.0-1.0","""event"",""trial"",""time""
""fullscreenenter"",""0"",""15187""
","
","
","""event"",""trial"",""time""
""fullscreenenter"",""0"",""15187""
","
","null","<p></p>","null","","","","","","","","","","","","","","","","","","","","","","",""
"","do_trial","214","1012280","0.0-115.0-0.0","""event"",""trial"",""time""
""fullscreenenter"",""0"",""15187""
","
","
","""event"",""trial"",""time""
""fullscreenenter"",""0"",""15187""
","
","418.80000001192093","","","","","","","","51","0,0,0","1","mountain","53","probe-37","0.3003990575343596","0.08338152580006292","0.5362110544052473","0","","","","","","","",""
"","html-keyboard-response","215","1013287","0.0-115.0-1.0","""event"",""trial"",""time""
""fullscreenenter"",""0"",""15187""
","
","
","""event"",""trial"",""time""
""fullscreenenter"",""0"",""15187""
","
","null","<p></p>","null","","","","","","","","","","","","","","","","","","","","","","",""
"","do_trial","216","1018697","0.0-116.0-0.0","""event"",""trial"",""time""
""fullscreenenter"",""0"",""15187""
","
","
","""event"",""trial"",""time""
""fullscreenenter"",""0"",""15187""
","
","868.1999999880791","","","","","","","","51","0,0,0","1","mountain","54","probe-92","0.22456924576519563","0.22639333834259334","0.37032526463475846","0","","","","","","","",""
"","html-keyboard-response","217","1019703","0.0-116.0-1.0","""event"",""trial"",""time""
""fullscreenenter"",""0"",""15187""
","
","
","""event"",""trial"",""time""
""fullscreenenter"",""0"",""15187""
","
","null","<p></p>","null","","","","","","","","","","","","","","","","","","","","","","",""
"","do_trial","218","1025332","0.0-117.0-0.0","""event"",""trial"",""time""
""fullscreenenter"",""0"",""15187""
","
","
","""event"",""trial"",""time""
""fullscreenenter"",""0"",""15187""
","
","1083.4000000059605","","","","","","","","51","0,0,1","1","mountain","55","probe-84","0.191835310504568","0.06944743897879298","0.5376735772475002","1","","","","","","","",""
"","html-keyboard-response","219","1026337","0.0-117.0-1.0","""event"",""trial"",""time""
""fullscreenenter"",""0"",""15187""
","
","
","""event"",""trial"",""time""
""fullscreenenter"",""0"",""15187""
","
","null","<p></p>","null","","","","","","","","","","","","","","","","","","","","","","",""
"","do_trial","220","1031426","0.0-118.0-0.0","""event"",""trial"",""time""
""fullscreenenter"",""0"",""15187""
","
","
","""event"",""trial"",""time""
""fullscreenenter"",""0"",""15187""
","
","544.5","","","","","","","","51","0,0,1","1","mountain","56","probe-179","0.08136332901052837","0.06934824168424665","0.5154756619657326","1","","","","","","","",""
"","html-keyboard-response","221","1032429","0.0-118.0-1.0","""event"",""trial"",""time""
""fullscreenenter"",""0"",""15187""
","
","
","""event"",""trial"",""time""
""fullscreenenter"",""0"",""15187""
","
","null","<p></p>","null","","","","","","","","","","","","","","","","","","","","","","",""
"","do_trial","222","1037306","0.0-119.0-0.0","""event"",""trial"",""time""
""fullscreenenter"",""0"",""15187""
","
","
","""event"",""trial"",""time""
""fullscreenenter"",""0"",""15187""
","
","335.2000000178814","","","","","","","","51","0,0,1","1","mountain","57","probe-01","0.08437431667084573","0.0621944958852466","0.4314599100519409","1","","","","","","","",""
"","html-keyboard-response","223","1038310","0.0-119.0-1.0","""event"",""trial"",""time""
""fullscreenenter"",""0"",""15187""
","
","
","""event"",""trial"",""time""
""fullscreenenter"",""0"",""15187""
","
","null","<p></p>","null","","","","","","","","","","","","","","","","","","","","","","",""
"","do_trial","224","1043512","0.0-120.0-0.0","""event"",""trial"",""time""
""fullscreenenter"",""0"",""15187""
","
","
","""event"",""trial"",""time""
""fullscreenenter"",""0"",""15187""
","
","656.4000000059605","","","","","","","","51","0,0,0","1","mountain","58","probe-218","0.22837884553102647","0.1890232085384767","0.5574788442594423","0","","","","","","","",""
"","html-keyboard-response","225","1044518","0.0-120.0-1.0","""event"",""trial"",""time""
""fullscreenenter"",""0"",""15187""
","
","
","""event"",""trial"",""time""
""fullscreenenter"",""0"",""15187""
","
","null","<p></p>","null","","","","","","","","","","","","","","","","","","","","","","",""
"","do_trial","226","1050176","0.0-121.0-0.0","""event"",""trial"",""time""
""fullscreenenter"",""0"",""15187""
","
","
","""event"",""trial"",""time""
""fullscreenenter"",""0"",""15187""
","
","1113.4000000059605","","","","","","","","51","1,0,1","1","mountain","59","probe-45","0.34665323048875657","0.1488335885497262","0.6270087616615051","1","","","","","","","",""
"","html-keyboard-response","227","1051182","0.0-121.0-1.0","""event"",""trial"",""time""
""fullscreenenter"",""0"",""15187""
","
","
","""event"",""trial"",""time""
""fullscreenenter"",""0"",""15187""
","
","null","<p></p>","null","","","","","","","","","","","","","","","","","","","","","","",""
"","do_trial","228","1057315","0.0-122.0-0.0","""event"",""trial"",""time""
""fullscreenenter"",""0"",""15187""
","
","
","""event"",""trial"",""time""
""fullscreenenter"",""0"",""15187""
","
","1588.9000000059605","","","","","","","","51","0,0,1","1","mountain","60","probe-143","0.34055466992607897","0.08311213374883517","0.5732564888720113","1","","","","","","","",""
"","html-keyboard-response","229","1058317","0.0-122.0-1.0","""event"",""trial"",""time""
""fullscreenenter"",""0"",""15187""
","
","
","""event"",""trial"",""time""
""fullscreenenter"",""0"",""15187""
","
","null","<p></p>","null","","","","","","","","","","","","","","","","","","","","","","",""
"","do_trial","230","1063366","0.0-123.0-0.0","""event"",""trial"",""time""
""fullscreenenter"",""0"",""15187""
","
","
","""event"",""trial"",""time""
""fullscreenenter"",""0"",""15187""
","
","506.80000001192093","","","","","","","","51","0,0,0","1","mountain","61","probe-212","0.25532245172688284","0.06522657775858547","0.5322942126107334","0","","","","","","","",""
"","html-keyboard-response","231","1064370","0.0-123.0-1.0","""event"",""trial"",""time""
""fullscreenenter"",""0"",""15187""
","
","
","""event"",""trial"",""time""
""fullscreenenter"",""0"",""15187""
","
","null","<p></p>","null","","","","","","","","","","","","","","","","","","","","","","",""
"","do_trial","232","1069230","0.0-124.0-0.0","""event"",""trial"",""time""
""fullscreenenter"",""0"",""15187""
","
","
","""event"",""trial"",""time""
""fullscreenenter"",""0"",""15187""
","
","313.5","","","","","","","","51","0,0,0","1","mountain","62","probe-55","0.13642307278025104","0.10896795391299628","0.5795627921215681","0","","","","","","","",""
"","html-keyboard-response","233","1070235","0.0-124.0-1.0","""event"",""trial"",""time""
""fullscreenenter"",""0"",""15187""
","
","
","""event"",""trial"",""time""
""fullscreenenter"",""0"",""15187""
","
","null","<p></p>","null","","","","","","","","","","","","","","","","","","","","","","",""
"","do_trial","234","1075914","0.0-125.0-0.0","""event"",""trial"",""time""
""fullscreenenter"",""0"",""15187""
","
","
","""event"",""trial"",""time""
""fullscreenenter"",""0"",""15187""
","
","1134.9000000059605","","","","","","","","51","0,0,0","1","mountain","63","probe-66","0.3425846925654618","0.18754967103514092","0.5311550848338551","0","","","","","","","",""
"","html-keyboard-response","235","1076921","0.0-125.0-1.0","""event"",""trial"",""time""
""fullscreenenter"",""0"",""15187""
","
","
","""event"",""trial"",""time""
""fullscreenenter"",""0"",""15187""
","
","null","<p></p>","null","","","","","","","","","","","","","","","","","","","","","","",""
"","do_trial","236","1082319","0.0-126.0-0.0","""event"",""trial"",""time""
""fullscreenenter"",""0"",""15187""
","
","
","""event"",""trial"",""time""
""fullscreenenter"",""0"",""15187""
","
","852","","","","","","","","51","1,0,0","1","mountain","64","probe-158","0.31001992487156144","0.20824958562001175","0.6216784741480708","0","","","","","","","",""
"","html-keyboard-response","237","1083325","0.0-126.0-1.0","""event"",""trial"",""time""
""fullscreenenter"",""0"",""15187""
","
","
","""event"",""trial"",""time""
""fullscreenenter"",""0"",""15187""
","
","null","<p></p>","null","","","","","","","","","","","","","","","","","","","","","","",""
"","do_trial","238","1089209","0.0-127.0-0.0","""event"",""trial"",""time""
""fullscreenenter"",""0"",""15187""
","
","
","""event"",""trial"",""time""
""fullscreenenter"",""0"",""15187""
","
","1337.4000000059605","","","","","","","","51","0,0,0","1","mountain","65","probe-111","0.2352455791685622","0.17001458533288286","0.4586439371139211","0","","","","","","","",""
"","html-keyboard-response","239","1090215","0.0-127.0-1.0","""event"",""trial"",""time""
""fullscreenenter"",""0"",""15187""
","
","
","""event"",""trial"",""time""
""fullscreenenter"",""0"",""15187""
","
","null","<p></p>","null","","","","","","","","","","","","","","","","","","","","","","",""
"","do_trial","240","1095375","0.0-128.0-0.0","""event"",""trial"",""time""
""fullscreenenter"",""0"",""15187""
","
","
","""event"",""trial"",""time""
""fullscreenenter"",""0"",""15187""
","
","610.9000000059605","","","","","","","","51","0,0,0","1","mountain","66","probe-03","0.11566401525770474","0.21958699080652028","0.5299255392830657","0","","","","","","","",""
"","html-keyboard-response","241","1096378","0.0-128.0-1.0","""event"",""trial"",""time""
""fullscreenenter"",""0"",""15187""
","
","
","""event"",""trial"",""time""
""fullscreenenter"",""0"",""15187""
","
","null","<p></p>","null","","","","","","","","","","","","","","","","","","","","","","",""
"","do_trial","242","1101646","0.0-129.0-0.0","""event"",""trial"",""time""
""fullscreenenter"",""0"",""15187""
","
","
","""event"",""trial"",""time""
""fullscreenenter"",""0"",""15187""
","
","720.3000000119209","","","","","","","","51","0,1,1","1","mountain","67","probe-24","0.05529719108510813","0.22076866400552983","0.5229288002112095","1","","","","","","","",""
"","html-keyboard-response","243","1102651","0.0-129.0-1.0","""event"",""trial"",""time""
""fullscreenenter"",""0"",""15187""
","
","
","""event"",""trial"",""time""
""fullscreenenter"",""0"",""15187""
","
","null","<p></p>","null","","","","","","","","","","","","","","","","","","","","","","",""
"","do_trial","244","1107620","0.0-130.0-0.0","""event"",""trial"",""time""
""fullscreenenter"",""0"",""15187""
","
","
","""event"",""trial"",""time""
""fullscreenenter"",""0"",""15187""
","
","426.40000000596046","","","","","","","","51","0,0,1","1","mountain","68","probe-225","0.10859340518054261","0.1927440719022179","0.4614107584886824","1","","","","","","","",""
"","html-keyboard-response","245","1108627","0.0-130.0-1.0","""event"",""trial"",""time""
""fullscreenenter"",""0"",""15187""
","
","
","""event"",""trial"",""time""
""fullscreenenter"",""0"",""15187""
","
","null","<p></p>","null","","","","","","","","","","","","","","","","","","","","","","",""
"","do_trial","246","1114151","0.0-131.0-0.0","""event"",""trial"",""time""
""fullscreenenter"",""0"",""15187""
","
","
","""event"",""trial"",""time""
""fullscreenenter"",""0"",""15187""
","
","972","","","","","","","","50","0,0,1","1","mountain","69","probe-202","0.18310171512968493","0.17775068706843136","0.5457444837883537","0","","","","","","","",""
"","html-keyboard-response","247","1115157","0.0-131.0-1.0","""event"",""trial"",""time""
""fullscreenenter"",""0"",""15187""
","
","
","""event"",""trial"",""time""
""fullscreenenter"",""0"",""15187""
","
","null","<p></p>","null","","","","","","","","","","","","","","","","","","","","","","",""
"","do_bye","248","1116668","0.0-132.0-0.0","""event"",""trial"",""time""
""fullscreenenter"",""0"",""15187""
","
","
","""event"",""trial"",""time""
""fullscreenenter"",""0"",""15187""
","
","null","","","","","","","","null","","","","","","","","","","","","","","","","",""
"","break","249","1236672","0.0-132.0-1.0","""event"",""trial"",""time""
""fullscreenenter"",""0"",""15187""
","
","
","""event"",""trial"",""time""
""fullscreenenter"",""0"",""15187""
","
","null","<div class='center'><p>Time to take a quick break! You have 2 minutes to rest, but you can move on sooner if you'd like.</p><p> Press the <b>space bar</b> to continue.</p></div>","null","","","","","","","","","","","","","","","","","","","","","","",""
"","do_travel","250","1245680","0.0-133.0-0.0","""event"",""trial"",""time""
""fullscreenenter"",""0"",""15187""
","
","
","""event"",""trial"",""time""
""fullscreenenter"",""0"",""15187""
","
","null","","","","","","","","null","","","","","","","","","","","","","","","","",""
"","do_welcome","251","1249692","0.0-133.0-1.0","""event"",""trial"",""time""
""fullscreenenter"",""0"",""15187""
","
","
","""event"",""trial"",""time""
""fullscreenenter"",""0"",""15187""
","
","null","","","","","","","","null","","","","","","","","","","","","","","","","",""
"","do_trial","252","1255403","0.0-134.0-0.0","""event"",""trial"",""time""
""fullscreenenter"",""0"",""15187""
","
","
","""event"",""trial"",""time""
""fullscreenenter"",""0"",""15187""
","
","1164.8999999761581","","","","","","","","49","0,1,1","2","coast","70","probe-174","0.09939551094880761","0.29095746631529823","1","0","","","","","","","",""
"","html-keyboard-response","253","1256407","0.0-134.0-1.0","""event"",""trial"",""time""
""fullscreenenter"",""0"",""15187""
","
","
","""event"",""trial"",""time""
""fullscreenenter"",""0"",""15187""
","
","null","<p></p>","null","","","","","","","","","","","","","","","","","","","","","","",""
"","do_trial","254","1261559","0.0-135.0-0.0","""event"",""trial"",""time""
""fullscreenenter"",""0"",""15187""
","
","
","""event"",""trial"",""time""
""fullscreenenter"",""0"",""15187""
","
","608.2999999821186","","","","","","","","50","0,0,1","2","coast","71","probe-65","0.19458787697842753","0.19755198581545788","1","0","","","","","","","",""
"","html-keyboard-response","255","1262564","0.0-135.0-1.0","""event"",""trial"",""time""
""fullscreenenter"",""0"",""15187""
","
","
","""event"",""trial"",""time""
""fullscreenenter"",""0"",""15187""
","
","null","<p></p>","null","","","","","","","","","","","","","","","","","","","","","","",""
"","do_trial","256","1270007","0.0-136.0-0.0","""event"",""trial"",""time""
""fullscreenenter"",""0"",""15187""
","
","
","""event"",""trial"",""time""
""fullscreenenter"",""0"",""15187""
","
