"success","trial_type","trial_index","time_elapsed","internal_node_id","interactions","blur_events","focus_events","fullscreenenter_events","fullscreenexit_events","rt","stimulus","key_press","subject_id","participant_id","age","gender","prompt","response","choice_outcomes","context_n","context_img_id","trial_n","probe_img_id","pR_red","pR_white","pR_black","outcome","contextArray_ind","validImageProbes","invalidImageProbes","pRew_Red","pRew_White","pRew_Black","availableForMemProbe","choice_blocks"
"true","fullscreen","0","5147","0.0-0.0","""event"",""trial"",""time""
""fullscreenenter"",""0"",""4179""
","
","
","""event"",""trial"",""time""
""fullscreenenter"",""0"",""4179""
","
","","","","","","","","","","","","","","","","","","","","","","","","","",""
"","pavlovia","1","5160","0.0-1.0","""event"",""trial"",""time""
""fullscreenenter"",""0"",""4179""
","
","
","""event"",""trial"",""time""
""fullscreenenter"",""0"",""4179""
","
","","","","","","","","","","","","","","","","","","","","","","","","","",""
"","instruc1","2","51478","0.0-2.0","""event"",""trial"",""time""
""fullscreenenter"",""0"",""4179""
","
","
","""event"",""trial"",""time""
""fullscreenenter"",""0"",""4179""
","
","null","run_exp/static/audio/clip_1_welcome.m4a","null","730","859","10","Female","<div class='center'><p>Welcome! This is the first part of the study. It will last ~30 minutes. In part 1 and part 2 of the study, you are the head captain of a pirate ship traveling around the world to different islands. You will play a few different games throughout these two parts. Here is an overview of them:</p><br><p>Part 1 (today)</p><p>1. Instructions, practice game, and quiz</p><p>2. Pick a pirate game on 6 different islands</p><br><p>Part 2 (tomorrow)</p><p>3. Pick a pirate game and memory game</p><p>4. Where did you see this ship? </p></div>","","","","","","","","","","","","","","","","","",""
"","html-keyboard-response","3","52298","0.0-3.0","""event"",""trial"",""time""
""fullscreenenter"",""0"",""4179""
","
","
","""event"",""trial"",""time""
""fullscreenenter"",""0"",""4179""
","
","814.7000000476837","<div class='center'><p>Welcome! This is the first part of the study. It will last ~30 minutes. In part 1 and part 2 of the study, you are the head captain of a pirate ship traveling around the world to different islands. You will play a few different games throughout these two parts. Here is an overview of them:</p><br><p>Part 1 (today)</p><p>1. Instructions, practice game, and quiz</p><p>2. Pick a pirate game on 6 different islands</p><br><p>Part 2 (tomorrow)</p><p>3. Pick a pirate game and memory game</p><p>4. Where did you see this ship? </p><p><b>[Press the space bar to continue]</b></p></div>","32","","","","","","","","","","","","","","","","","","","","","","",""
"","instruc2","4","57636","0.0-4.0","""event"",""trial"",""time""
""fullscreenenter"",""0"",""4179""
","
","
","""event"",""trial"",""time""
""fullscreenenter"",""0"",""4179""
","
","null","run_exp/static/audio/clip_2_different_places.m4a","null","","","","","<div class='center'><p>Today, you’ll visit these 6 islands on your journey. You'll be able to see these islands from your ship.</p><p><img src='run_exp/static/images/contexts/all_contexts.png' height='500'></p></div>","","","","","","","","","","","","","","","","","",""
"","html-keyboard-response","5","60040","0.0-5.0","""event"",""trial"",""time""
""fullscreenenter"",""0"",""4179""
","
","
","""event"",""trial"",""time""
""fullscreenenter"",""0"",""4179""
","
","2397.800000190735","<div class='center'><p>Today, you’ll visit these 6 islands on your journey. You'll be able to see these islands from your ship.</p><p><img src='run_exp/static/images/contexts/all_contexts.png' height='500'></p><p><b>[Press the space bar to continue]</b></p></div>","32","","","","","","","","","","","","","","","","","","","","","","",""
"","instruc3","6","69757","0.0-6.0","""event"",""trial"",""time""
""fullscreenenter"",""0"",""4179""
","
","
","""event"",""trial"",""time""
""fullscreenenter"",""0"",""4179""
","
","null","run_exp/static/audio/clip_3_goal_of_game_1.m4a","null","","","","","<div class='center'><p> The pirates on your ship will rob other ships as they leave the island.</p> These ships have just sold their goods to the islanders, so they will be filled with lots and lots of gold.</p><p><img src='run_exp/static/images/tutorial/ship_center.png' height='400'></p></div>","","","","","","","","","","","","","","","","","",""
"","html-keyboard-response","7","70723","0.0-7.0","""event"",""trial"",""time""
""fullscreenenter"",""0"",""4179""
","
","
","""event"",""trial"",""time""
""fullscreenenter"",""0"",""4179""
","
","963.5","<div class='center'><p> The pirates on your ship will rob other ships as they leave the island.</p> These ships have just sold their goods to the islanders, so they will be filled with lots and lots of gold.</p><p><img src='run_exp/static/images/tutorial/ship_center.png' height='400'></p><p><b>[Press the space bar to continue]</b></p></div>","32","","","","","","","","","","","","","","","","","","","","","","",""
"","instruc4","8","98737","0.0-8.0","""event"",""trial"",""time""
""fullscreenenter"",""0"",""4179""
","
","
","""event"",""trial"",""time""
""fullscreenenter"",""0"",""4179""
","
","null","run_exp/static/audio/clip_4_goal_of_game_2.m4a","null","","","","","<div class='center'><p>As the head captain, you do not have to rob any ships yourself. Another pirate will be doing the robbing for you. First, you will choose a pirate to rob the next ship.</p><p><img src='run_exp/static/images/tutorial/pirates_all_crop.png' height='200'></p><p>Then, you'll see if the pirate successfully robbed the ship of their gold. If they were successful, then you'll get a stack of gold coins like this:</p><p><img src='run_exp/static/images/tutorial/reward.png' height='150'></p><p> If they were <b>not</b> successful, then you'll get no gold coins, and you'll see a big red x like this: </p><p><img src='run_exp/static/images/tutorial/reward_no.png' height='150'></p><p> How much bonus money you make is based on how many gold coins you collect.</p><div>","","","","","","","","","","","","","","","","","",""
"","html-keyboard-response","9","101286","0.0-9.0","""event"",""trial"",""time""
""fullscreenenter"",""0"",""4179""
","
","
","""event"",""trial"",""time""
""fullscreenenter"",""0"",""4179""
","
","2544.7999999523163","<div class='center'><p>As the head captain, you do not have to rob any ships yourself. Another pirate will be doing the robbing for you. First, you will choose a pirate to rob the next ship.</p><p><img src='run_exp/static/images/tutorial/pirates_all_crop.png' height='200'></p><p>Then, you'll see if the pirate successfully robbed the ship of their gold. If they were successful, then you'll get a stack of gold coins like this:</p><p><img src='run_exp/static/images/tutorial/reward.png' height='150'></p><p> If they were <b>not</b> successful, then you'll get no gold coins, and you'll see a big red x like this: </p><p><img src='run_exp/static/images/tutorial/reward_no.png' height='150'></p><p> How much bonus money you make is based on how many gold coins you collect.</p<p><b>[Press the space bar to continue]</b></p></div>","32","","","","","","","","","","","","","","","","","","","","","","",""
"","instruc5","10","122645","0.0-10.0","""event"",""trial"",""time""
""fullscreenenter"",""0"",""4179""
","
","
","""event"",""trial"",""time""
""fullscreenenter"",""0"",""4179""
","
","21355.200000047684","run_exp/static/audio/clip_5_probabilistic.m4a","49","","","","","<div class='center'><p>Even the most skilled pirate can not rob EVERY ship.</p><p> Some ships will have very strong protections against pirate attacks.</p><p> Blue beard, here, is very, very good at robbing ships, but he won't be successful every time he tries to rob one.</p><p> You can press the <b>‘1’</b> key on the keyboard to choose him.</p><p> Try choosing him 10 times to see how often he succeeds at robbing a ship. </p><p><img src='run_exp/static/images/tutorial/blue.png' height='500'></p></div>","","","","","","","","","","","","","","","","","",""
"","html-keyboard-response","11","124160","0.0-11.0","""event"",""trial"",""time""
""fullscreenenter"",""0"",""4179""
","
","
","""event"",""trial"",""time""
""fullscreenenter"",""0"",""4179""
","
","null","<div class='center'><p><img src='run_exp/static/images/tutorial/blue_win.png' height='500'></p></div>","null","","","","","","","","","","","","","","","","","","","","","","",""
"","html-keyboard-response","12","124458","0.0-12.0","""event"",""trial"",""time""
""fullscreenenter"",""0"",""4179""
","
","
","""event"",""trial"",""time""
""fullscreenenter"",""0"",""4179""
","
","294.2999999523163","<div class='center'><img src='run_exp/static/images/tutorial/blue.png' height='500'></p></div>","49","","","","","","","","","","","","","","","","","","","","","","",""
"","html-keyboard-response","13","125964","0.0-13.0","""event"",""trial"",""time""
""fullscreenenter"",""0"",""4179""
","
","
","""event"",""trial"",""time""
""fullscreenenter"",""0"",""4179""
","
","null","<div class='center'><p><img src='run_exp/static/images/tutorial/blue_win.png' height='500'></p></div>","null","","","","","","","","","","","","","","","","","","","","","","",""
"","html-keyboard-response","14","126845","0.0-14.0","""event"",""trial"",""time""
""fullscreenenter"",""0"",""4179""
","
","
","""event"",""trial"",""time""
""fullscreenenter"",""0"",""4179""
","
","878.7000000476837","<div class='center'><img src='run_exp/static/images/tutorial/blue.png' height='500'></p></div>","49","","","","","","","","","","","","","","","","","","","","","","",""
"","html-keyboard-response","15","128362","0.0-15.0","""event"",""trial"",""time""
""fullscreenenter"",""0"",""4179""
","
","
","""event"",""trial"",""time""
""fullscreenenter"",""0"",""4179""
","
","null","<div class='center'><p><img src='run_exp/static/images/tutorial/blue_win.png' height='500'></p></div>","null","","","","","","","","","","","","","","","","","","","","","","",""
"","html-keyboard-response","16","129442","0.0-16.0","""event"",""trial"",""time""
""fullscreenenter"",""0"",""4179""
","
","
","""event"",""trial"",""time""
""fullscreenenter"",""0"",""4179""
","
","1078.4000000953674","<div class='center'><img src='run_exp/static/images/tutorial/blue.png' height='500'></p></div>","49","","","","","","","","","","","","","","","","","","","","","","",""
"","html-keyboard-response","17","130960","0.0-17.0","""event"",""trial"",""time""
""fullscreenenter"",""0"",""4179""
","
","
","""event"",""trial"",""time""
""fullscreenenter"",""0"",""4179""
","
","null","<div class='center'><p><img src='run_exp/static/images/tutorial/blue_no_win.png' height='500'></p></div>","null","","","","","","","","","","","","","","","","","","","","","","",""
"","html-keyboard-response","18","131168","0.0-18.0","""event"",""trial"",""time""
""fullscreenenter"",""0"",""4179""
","
","
","""event"",""trial"",""time""
""fullscreenenter"",""0"",""4179""
","
","204.5","<div class='center'><img src='run_exp/static/images/tutorial/blue.png' height='500'></p></div>","49","","","","","","","","","","","","","","","","","","","","","","",""
"","html-keyboard-response","19","132680","0.0-19.0","""event"",""trial"",""time""
""fullscreenenter"",""0"",""4179""
","
","
","""event"",""trial"",""time""
""fullscreenenter"",""0"",""4179""
","
","null","<div class='center'><p><img src='run_exp/static/images/tutorial/blue_win.png' height='500'></p></div>","null","","","","","","","","","","","","","","","","","","","","","","",""
"","html-keyboard-response","20","133267","0.0-20.0","""event"",""trial"",""time""
""fullscreenenter"",""0"",""4179""
","
","
","""event"",""trial"",""time""
""fullscreenenter"",""0"",""4179""
","
","584","<div class='center'><img src='run_exp/static/images/tutorial/blue.png' height='500'></p></div>","49","","","","","","","","","","","","","","","","","","","","","","",""
"","html-keyboard-response","21","134783","0.0-21.0","""event"",""trial"",""time""
""fullscreenenter"",""0"",""4179""
","
","
","""event"",""trial"",""time""
""fullscreenenter"",""0"",""4179""
","
","null","<div class='center'><p><img src='run_exp/static/images/tutorial/blue_win.png' height='500'></p></div>","null","","","","","","","","","","","","","","","","","","","","","","",""
"","html-keyboard-response","22","135455","0.0-22.0","""event"",""trial"",""time""
""fullscreenenter"",""0"",""4179""
","
","
","""event"",""trial"",""time""
""fullscreenenter"",""0"",""4179""
","
","669.5","<div class='center'><img src='run_exp/static/images/tutorial/blue.png' height='500'></p></div>","49","","","","","","","","","","","","","","","","","","","","","","",""
"","html-keyboard-response","23","136964","0.0-23.0","""event"",""trial"",""time""
""fullscreenenter"",""0"",""4179""
","
","
","""event"",""trial"",""time""
""fullscreenenter"",""0"",""4179""
","
","null","<div class='center'><p><img src='run_exp/static/images/tutorial/blue_win.png' height='500'></p></div>","null","","","","","","","","","","","","","","","","","","","","","","",""
"","html-keyboard-response","24","137642","0.0-24.0","""event"",""trial"",""time""
""fullscreenenter"",""0"",""4179""
","
","
","""event"",""trial"",""time""
""fullscreenenter"",""0"",""4179""
","
","676.4000000953674","<div class='center'><img src='run_exp/static/images/tutorial/blue.png' height='500'></p></div>","49","","","","","","","","","","","","","","","","","","","","","","",""
"","html-keyboard-response","25","139149","0.0-25.0","""event"",""trial"",""time""
""fullscreenenter"",""0"",""4179""
","
","
","""event"",""trial"",""time""
""fullscreenenter"",""0"",""4179""
","
","null","<div class='center'><p><img src='run_exp/static/images/tutorial/blue_no_win.png' height='500'></p></div>","null","","","","","","","","","","","","","","","","","","","","","","",""
"","html-keyboard-response","26","139738","0.0-26.0","""event"",""trial"",""time""
""fullscreenenter"",""0"",""4179""
","
","
","""event"",""trial"",""time""
""fullscreenenter"",""0"",""4179""
","
","587.3999998569489","<div class='center'><img src='run_exp/static/images/tutorial/blue.png' height='500'></p></div>","49","","","","","","","","","","","","","","","","","","","","","","",""
"","html-keyboard-response","27","141251","0.0-27.0","""event"",""trial"",""time""
""fullscreenenter"",""0"",""4179""
","
","
","""event"",""trial"",""time""
""fullscreenenter"",""0"",""4179""
","
","null","<div class='center'><p><img src='run_exp/static/images/tutorial/blue_win.png' height='500'></p></div>","null","","","","","","","","","","","","","","","","","","","","","","",""
"","html-keyboard-response","28","143321","0.0-28.0","""event"",""trial"",""time""
""fullscreenenter"",""0"",""4179""
","
","
","""event"",""trial"",""time""
""fullscreenenter"",""0"",""4179""
","
","2067.5999999046326","<div class='center'><img src='run_exp/static/images/tutorial/blue.png' height='500'></p></div>","49","","","","","","","","","","","","","","","","","","","","","","",""
"","html-keyboard-response","29","144833","0.0-29.0","""event"",""trial"",""time""
""fullscreenenter"",""0"",""4179""
","
","
","""event"",""trial"",""time""
""fullscreenenter"",""0"",""4179""
","
","null","<div class='center'><p><img src='run_exp/static/images/tutorial/blue_win.png' height='500'></p></div>","null","","","","","","","","","","","","","","","","","","","","","","",""
"","instruc6","30","151583","0.0-30.0","""event"",""trial"",""time""
""fullscreenenter"",""0"",""4179""
","
","
","""event"",""trial"",""time""
""fullscreenenter"",""0"",""4179""
","
","null","run_exp/static/audio/clip_6_blue_beard_outcome.m4a","null","","","","","<div class='center'><p> See, he succeeded in robbing the ships most of the time but not every time. </p></div>","","","","","","","","","","","","","","","","","",""
"","html-keyboard-response","31","152928","0.0-31.0","""event"",""trial"",""time""
""fullscreenenter"",""0"",""4179""
","
","
","""event"",""trial"",""time""
""fullscreenenter"",""0"",""4179""
","
","1343.0999999046326","<div class='center'><p> See, he succeeded in robbing the ships most of the time but not every time. </p><p><b>[Press the space bar to continue]</b></p></div>","32","","","","","","","","","","","","","","","","","","","","","","",""
"","audio-keyboard-response","32","168166","0.0-32.0","""event"",""trial"",""time""
""fullscreenenter"",""0"",""4179""
","
","
","""event"",""trial"",""time""
""fullscreenenter"",""0"",""4179""
","
","15234.799999952316","run_exp/static/audio/clip_7_pick_pirate.m4a","51","","","","","","","","","","","","","","","","","","","","","","",""
"","audio-keyboard-response","33","170316","0.0-33.0-0.0","""event"",""trial"",""time""
""fullscreenenter"",""0"",""4179""
","
","
","""event"",""trial"",""time""
""fullscreenenter"",""0"",""4179""
","
","2142.7000000476837","run_exp/static/audio/clip_8_chosen_pirate_win.m4a","32","","","","","","","","","","","","","","","","","","","","","","",""
"","audio-keyboard-response","34","171894","0.0-33.0-1.0","""event"",""trial"",""time""
""fullscreenenter"",""0"",""4179""
","
","
","""event"",""trial"",""time""
""fullscreenenter"",""0"",""4179""
","
","1573.6000001430511","run_exp/static/audio/clip_9_pick_a_pirate_again.m4a","50","","","","","","","","","","","","","","","","","","","","","","",""
"","audio-keyboard-response","35","173206","0.0-34.0-0.0","""event"",""trial"",""time""
""fullscreenenter"",""0"",""4179""
","
","
","""event"",""trial"",""time""
""fullscreenenter"",""0"",""4179""
","
","1307.2999999523163","run_exp/static/audio/clip_10_chosen_pirate_loss.m4a","32","","","","","","","","","","","","","","","","","","","","","","",""
"","instruc9","36","178725","0.0-35.0-0.0","""event"",""trial"",""time""
""fullscreenenter"",""0"",""4179""
","
","
","""event"",""trial"",""time""
""fullscreenenter"",""0"",""4179""
","
","null","run_exp/static/audio/clip_11_time_out.m4a","null","","","","","<div class='center'><p>If you don’t make your choice fast enough, you’ll have to wait a few seconds before you can make another one. </p><p><img src='run_exp/static/images/miscellaneous/hurry_up.png' height='500'></p></div>","","","","","","","","","","","","","","","","","",""
"","html-keyboard-response","37","180116","0.0-35.0-1.0","""event"",""trial"",""time""
""fullscreenenter"",""0"",""4179""
","
","
","""event"",""trial"",""time""
""fullscreenenter"",""0"",""4179""
","
","1388.2999999523163","<div class='center'><p>If you don’t make your choice fast enough, you’ll have to wait a few seconds before you can make another one. </p><p><img src='run_exp/static/images/miscellaneous/hurry_up.png' height='500'></p><p><b>[Press the space bar to continue]</b></p></div>","32","","","","","","","","","","","","","","","","","","","","","","",""
"","instruc10","38","219226","0.0-35.0-2.0","""event"",""trial"",""time""
""fullscreenenter"",""0"",""4179""
","
","
","""event"",""trial"",""time""
""fullscreenenter"",""0"",""4179""
","
","null","run_exp/static/audio/clip_12_probe.m4a","null","","","","","<div class='center'><p>Once you've chosen a pirate, you’ll be shown the ship they are robbing. You will never rob the same ship twice. Ships can be told apart from one another by the image on them. These are the goods that they sell. See, this ship has a travel mug on it. </p><p> You’ll have to remember which island you saw each ship on. You will win more gold coins and hence more bonus money if you remember correctly! To help you remember, you can imagine a story. For example, here, you could imagine a mug full of water in the desert. Or, as another example, if on the forest island, your pirate robbed a ship with an apple on it, you could imagine an apple falling from a tree in the forest. </p><p><img src='run_exp/static/images/tutorial/example_probe.png' height='500'></p></div>","","","","","","","","","","","","","","","","","",""
"","html-keyboard-response","39","224463","0.0-35.0-3.0","""event"",""trial"",""time""
""fullscreenenter"",""0"",""4179""
","
","
","""event"",""trial"",""time""
""fullscreenenter"",""0"",""4179""
","
","5233.299999952316","<div class='center'><p>Once you've chosen a pirate, you’ll be shown the ship they are robbing. You will never rob the same ship twice. Ships can be told apart from one another by the image on them. These are the goods that they sell. See, this ship has a travel mug on it. </p><p> You’ll have to remember which island you saw each ship on. You will win more gold coins and hence more bonus money if you remember correctly! To help you remember, you can imagine a story. For example, here, you could imagine a mug full of water in the desert. Or, as another example, if on the forest island, your pirate robbed a ship with an apple on it, you could imagine an apple falling from a tree in the forest. </p><p><img src='run_exp/static/images/tutorial/example_probe.png' height='500'></p><p><b>[Press the space bar to continue]</b></p></div>","32","","","","","","","","","","","","","","","","","","","","","","",""
"","instruc11","40","240906","0.0-35.0-4.0","""event"",""trial"",""time""
""fullscreenenter"",""0"",""4179""
","
","
","""event"",""trial"",""time""
""fullscreenenter"",""0"",""4179""
","
","null","run_exp/static/audio/clip_13_changepoint.m4a","null","","","","","<div class='center'><p>How successful a pirate is at robbing ships will depend on the island you’re on.</p><p> A pirate may have visited this island many times before and gained a lot of practice robbing ships there.</p><p>So, they’re more likely to be successful than a pirate who has never visited the island before.</p></div>","","","","","","","","","","","","","","","","","",""
"","html-keyboard-response","41","243377","0.0-35.0-5.0","""event"",""trial"",""time""
""fullscreenenter"",""0"",""4179""
","
","
","""event"",""trial"",""time""
""fullscreenenter"",""0"",""4179""
","
","2468.9000000953674","<div class='center'><p>How successful a pirate is at robbing ships will depend on the island you’re on.</p><p> A pirate may have visited this island many times before and gained a lot of practice robbing ships there.</p><p>So, they’re more likely to be successful than a pirate who has never visited the island before.</p><p><b>[Press the space bar to continue]</b></p></div>","32","","","","","","","","","","","","","","","","","","","","","","",""
"","instruc12","42","284488","0.0-35.0-6.0","""event"",""trial"",""time""
""fullscreenenter"",""0"",""4179""
","
","
","""event"",""trial"",""time""
""fullscreenenter"",""0"",""4179""
","
","null","run_exp/static/audio/clip_14_drift.m4a","null","","","","","<div class='center'><p>How successful a pirate is at robbing ships can also change over the time spent on the island. </p><p> Ships may hear from islanders about the pirates coming and will improve their protections against the attack. This may make it harder to rob them.</p><p> Ships may also become lazy and weaken the strength of their protections. This may make it easier to rob them.</p><br><p>Things are always changing on the high seas! So, try your best to pay attention!</p><p><img src='run_exp/static/images/tutorial/contingency.png' height='500'></p></div>","","","","","","","","","","","","","","","","","",""
"","html-keyboard-response","43","287405","0.0-35.0-7.0","""event"",""trial"",""time""
""fullscreenenter"",""0"",""4179""
","
","
","""event"",""trial"",""time""
""fullscreenenter"",""0"",""4179""
","
","2912.2999999523163","<div class='center'><p>How successful a pirate is at robbing ships can also change over the time spent on the island. </p><p> Ships may hear from islanders about the pirates coming and will improve their protections against the attack. This may make it harder to rob them.</p><p> Ships may also become lazy and weaken the strength of their protections. This may make it easier to rob them.</p><br><p>Things are always changing on the high seas! So, try your best to pay attention!</p><p><img src='run_exp/static/images/tutorial/contingency.png' height='500'></p><p><b>[Press the space bar to continue]</b></p></div>","32","","","","","","","","","","","","","","","","","","","","","","",""
"","instruc13","44","322626","0.0-35.0-8.0","""event"",""trial"",""time""
""fullscreenenter"",""0"",""4179""
","
","
","""event"",""trial"",""time""
""fullscreenenter"",""0"",""4179""
","
","null","run_exp/static/audio/clip_15_summary.m4a","null","","","","","<div class='center'><p>Let's go over the instructions quickly again. You have two important things to do: </p><b><p> 1. Pick the pirate who is the best at robbing ships on the current island. </p></b><b><p> 2. Remember on which island a ship was robbed.</p> </b><p>The amount of bonus money you can win depends on both.</p><p><br><p>Let’s try a practice game. The game will start by showing you the pirates. First, pick a pirate using the <b> 1, 2, 3 </b> keys on your keyboard. When you are shown a ship, try to remember which island you’re on by making up a story.</p><p>This is just a practice game, so you’re not playing for money. </p><p> Good luck! This game will be very difficult but try your best!</p></div>","","","","","","","","","","","","","","","","","",""
"","html-keyboard-response","45","324377","0.0-35.0-9.0","""event"",""trial"",""time""
""fullscreenenter"",""0"",""4179""
","
","
","""event"",""trial"",""time""
""fullscreenenter"",""0"",""4179""
","
","1748.1999998092651","<div class='center'><p>Let's go over the instructions quickly again. You have two important things to do: </p><b><p> 1. Pick the pirate who is the best at robbing ships on the current island. </p></b><b><p> 2. Remember on which island a ship was robbed.</p> </b><p>The amount of bonus money you can win depends on both.</p><p><br><p>Let’s try a practice game. The game will start by showing you the pirates. First, pick a pirate using the <b> 1, 2, 3 </b> keys on your keyboard. When you are shown a ship, try to remember which island you’re on by making up a story.</p><p>This is just a practice game, so you’re not playing for money. </p><p> Good luck! This game will be very difficult but try your best!</p><p><b>[Press the space bar to continue]</b></p></div>","32","","","","","","","","","","","","","","","","","","","","","","",""
"","do_welcome","46","328400","0.0-35.0-10.0","""event"",""trial"",""time""
""fullscreenenter"",""0"",""4179""
","
","
","""event"",""trial"",""time""
""fullscreenenter"",""0"",""4179""
","
","null","","","","","","","","null","","","","","","","","","","","","","","","","",""
"","do_trial","47","334684","0.0-35.0-11.0","""event"",""trial"",""time""
""fullscreenenter"",""0"",""4179""
","
","
","""event"",""trial"",""time""
""fullscreenenter"",""0"",""4179""
","
","1755.3999998569489","","","","","","","","50","1,0,0","","","","","","","","","","","","","","","",""
"","html-keyboard-response","48","335695","0.0-36.0-0.0","""event"",""trial"",""time""
""fullscreenenter"",""0"",""4179""
","
","
","""event"",""trial"",""time""
""fullscreenenter"",""0"",""4179""
","
","null","<p></p>","null","","","","","","","","","","","","","","","","","","","","","","",""
"","do_trial","49","342042","0.0-36.0-1.0","""event"",""trial"",""time""
""fullscreenenter"",""0"",""4179""
","
","
","""event"",""trial"",""time""
""fullscreenenter"",""0"",""4179""
","
","1822.2999999523163","","","","","","","","51","1,1,0","","","","","","","","","","","","","","","",""
"","html-keyboard-response","50","343056","0.0-37.0-0.0","""event"",""trial"",""time""
""fullscreenenter"",""0"",""4179""
","
","
","""event"",""trial"",""time""
""fullscreenenter"",""0"",""4179""
","
","null","<p></p>","null","","","","","","","","","","","","","","","","","","","","","","",""
"","do_trial","51","349174","0.0-37.0-1.0","""event"",""trial"",""time""
""fullscreenenter"",""0"",""4179""
","
","
","""event"",""trial"",""time""
""fullscreenenter"",""0"",""4179""
","
","1601.8999998569489","","","","","","","","49","1,0,1","","","","","","","","","","","","","","","",""
"","html-keyboard-response","52","350188","0.0-38.0-0.0","""event"",""trial"",""time""
""fullscreenenter"",""0"",""4179""
","
","
","""event"",""trial"",""time""
""fullscreenenter"",""0"",""4179""
","
","null","<p></p>","null","","","","","","","","","","","","","","","","","","","","","","",""
"","do_trial","53","355772","0.0-38.0-1.0","""event"",""trial"",""time""
""fullscreenenter"",""0"",""4179""
","
","
","""event"",""trial"",""time""
""fullscreenenter"",""0"",""4179""
","
","1063.2000000476837","","","","","","","","49","0,1,0","","","","","","","","","","","","","","","",""
"","html-keyboard-response","54","356783","0.0-39.0-0.0","""event"",""trial"",""time""
""fullscreenenter"",""0"",""4179""
","
","
","""event"",""trial"",""time""
""fullscreenenter"",""0"",""4179""
","
","null","<p></p>","null","","","","","","","","","","","","","","","","","","","","","","",""
"","do_trial","55","361856","0.0-39.0-1.0","""event"",""trial"",""time""
""fullscreenenter"",""0"",""4179""
","
","
","""event"",""trial"",""time""
""fullscreenenter"",""0"",""4179""
","
","558.7999999523163","","","","","","","","50","1,0,0","","","","","","","","","","","","","","","",""
"","do_bye","56","363378","0.0-40.0-0.0","""event"",""trial"",""time""
""fullscreenenter"",""0"",""4179""
","
","
","""event"",""trial"",""time""
""fullscreenenter"",""0"",""4179""
","
","null","","","","","","","","null","","","","","","","","","","","","","","","","",""
"","do_travel","57","372396","0.0-40.0-1.0","""event"",""trial"",""time""
""fullscreenenter"",""0"",""4179""
","
","
","""event"",""trial"",""time""
""fullscreenenter"",""0"",""4179""
","
","null","","","","","","","","null","","","","","","","","","","","","","","","","",""
"","do_welcome","58","376430","0.0-40.0-2.0","""event"",""trial"",""time""
""fullscreenenter"",""0"",""4179""
","
","
","""event"",""trial"",""time""
""fullscreenenter"",""0"",""4179""
","
","null","","","","","","","","null","","","","","","","","","","","","","","","","",""
"","do_trial","59","382495","0.0-40.0-3.0","""event"",""trial"",""time""
""fullscreenenter"",""0"",""4179""
","
","
","""event"",""trial"",""time""
""fullscreenenter"",""0"",""4179""
","
","1529.8000001907349","","","","","","","","49","1,0,0","","","","","","","","","","","","","","","",""
"","html-keyboard-response","60","383500","0.0-41.0-0.0","""event"",""trial"",""time""
""fullscreenenter"",""0"",""4179""
","
","
","""event"",""trial"",""time""
""fullscreenenter"",""0"",""4179""
","
","null","<p></p>","null","","","","","","","","","","","","","","","","","","","","","","",""
"","do_trial","61","389317","0.0-41.0-1.0","""event"",""trial"",""time""
""fullscreenenter"",""0"",""4179""
","
","
","""event"",""trial"",""time""
""fullscreenenter"",""0"",""4179""
","
","1285.3999998569489","","","","","","","","49","1,0,1","","","","","","","","","","","","","","","",""
"","html-keyboard-response","62","390327","0.0-42.0-0.0","""event"",""trial"",""time""
""fullscreenenter"",""0"",""4179""
","
","
","""event"",""trial"",""time""
""fullscreenenter"",""0"",""4179""
","
","null","<p></p>","null","","","","","","","","","","","","","","","","","","","","","","",""
"","do_trial","63","395616","0.0-42.0-1.0","""event"",""trial"",""time""
""fullscreenenter"",""0"",""4179""
","
","
","""event"",""trial"",""time""
""fullscreenenter"",""0"",""4179""
","
","759.2999999523163","","","","","","","","49","1,1,0","","","","","","","","","","","","","","","",""
"","html-keyboard-response","64","396629","0.0-43.0-0.0","""event"",""trial"",""time""
""fullscreenenter"",""0"",""4179""
","
","
","""event"",""trial"",""time""
""fullscreenenter"",""0"",""4179""
","
","null","<p></p>","null","","","","","","","","","","","","","","","","","","","","","","",""
"","do_trial","65","401954","0.0-43.0-1.0","""event"",""trial"",""time""
""fullscreenenter"",""0"",""4179""
","
","
","""event"",""trial"",""time""
""fullscreenenter"",""0"",""4179""
","
","799.9000000953674","","","","","","","","49","0,0,1","","","","","","","","","","","","","","","",""
"","html-keyboard-response","66","402968","0.0-44.0-0.0","""event"",""trial"",""time""
""fullscreenenter"",""0"",""4179""
","
","
","""event"",""trial"",""time""
""fullscreenenter"",""0"",""4179""
","
","null","<p></p>","null","","","","","","","","","","","","","","","","","","","","","","",""
"","do_trial","67","408732","0.0-44.0-1.0","""event"",""trial"",""time""
""fullscreenenter"",""0"",""4179""
","
","
","""event"",""trial"",""time""
""fullscreenenter"",""0"",""4179""
","
","1235.2999999523163","","","","","","","","49","1,0,1","","","","","","","","","","","","","","","",""
"","html-keyboard-response","68","411743","0.0-45.0-0.0","""event"",""trial"",""time""
""fullscreenenter"",""0"",""4179""
","
","
","""event"",""trial"",""time""
""fullscreenenter"",""0"",""4179""
","
","3008.5999999046326","<div class='center'><p><img src='run_exp/static/images/tutorial/prac_best_pirate.png'  height='500'></p></div>","49","","","","","","","","","","","","","","","","","","","","","","",""
"","html-keyboard-response","69","414041","0.0-46.0-0.0","""event"",""trial"",""time""
""fullscreenenter"",""0"",""4179""
","
","
","""event"",""trial"",""time""
""fullscreenenter"",""0"",""4179""
","
","2294.9000000953674","<div class='center'><p>That's correct! Red beard was the best.</p><p><b>[Press the space bar to continue]</b></p></div>","32","","","","","","","","","","","","","","","","","","","","","","",""
"","html-keyboard-response","70","418205","0.0-46.0-1.0","""event"",""trial"",""time""
""fullscreenenter"",""0"",""4179""
","
","
","""event"",""trial"",""time""
""fullscreenenter"",""0"",""4179""
","
","4162.200000047684","<div class='center'><p><img src='run_exp/static/images/tutorial/prac_source.png'  height='500'></p></div>","50","","","","","","","","","","","","","","","","","","","","","","",""
"","html-keyboard-response","71","420442","0.0-47.0-0.0","""event"",""trial"",""time""
""fullscreenenter"",""0"",""4179""
","
","
","""event"",""trial"",""time""
""fullscreenenter"",""0"",""4179""
","
","2234.5999999046326","<div class='center'><p>That's correct! You saw this ship on the cavern island.</p><p><b>[Press the space bar to continue]</b></p></div>","32","","","","","","","","","","","","","","","","","","","","","","",""
"","quiz_beginning","72","432992","0.0-47.0-1.0","""event"",""trial"",""time""
""fullscreenenter"",""0"",""4179""
","
","
","""event"",""trial"",""time""
""fullscreenenter"",""0"",""4179""
","
","null","run_exp/static/audio/clip_16_quiz_intro.m4a","null","","","","","<div class='center'><p>Good job on the practice game! Now, you will be asked some true or false questions to make sure you really understand the rules of the game.</p><p> Press <b>'1'</b> on the keyboard for true and press <b>'2'</b> for false.</p></div>","","","","","","","","","","","","","","","","","",""
"","audio-keyboard-response","73","453437","0.0-47.0-2.0","""event"",""trial"",""time""
""fullscreenenter"",""0"",""4179""
","
","
","""event"",""trial"",""time""
""fullscreenenter"",""0"",""4179""
","
","20441.5","run_exp/static/audio/clip_17_q1.m4a","49","","","","","","","","","","","","","","","","","","","","","","",""
"","correct","74","456128","0.0-48.0-0.0","""event"",""trial"",""time""
""fullscreenenter"",""0"",""4179""
","
","
","""event"",""trial"",""time""
""fullscreenenter"",""0"",""4179""
","
","null","run_exp/static/audio/clip_18_correct.m4a","null","","","","","<div class='center'><p>That's correct!</p></div>","","","","","","","","","","","","","","","","","",""
"","html-keyboard-response","75","458023","0.0-48.0-1.0","""event"",""trial"",""time""
""fullscreenenter"",""0"",""4179""
","
","
","""event"",""trial"",""time""
""fullscreenenter"",""0"",""4179""
","
","1894.0999999046326","<div class='center'><p>That's correct!</p><p><b>[Press the space bar to continue]</b></p></div>","32","","","","","","","","","","","","","","","","","","","","","","",""
"","audio-keyboard-response","76","465510","0.0-48.0-2.0","""event"",""trial"",""time""
""fullscreenenter"",""0"",""4179""
","
","
","""event"",""trial"",""time""
""fullscreenenter"",""0"",""4179""
","
","7481.299999952316","run_exp/static/audio/clip_20_q2.m4a","50","","","","","","","","","","","","","","","","","","","","","","",""
"","correct","77","467909","0.0-49.0-0.0","""event"",""trial"",""time""
""fullscreenenter"",""0"",""4179""
","
","
","""event"",""trial"",""time""
""fullscreenenter"",""0"",""4179""
","
","null","run_exp/static/audio/clip_18_correct.m4a","null","","","","","<div class='center'><p>That's correct!</p></div>","","","","","","","","","","","","","","","","","",""
"","html-keyboard-response","78","469168","0.0-49.0-1.0","""event"",""trial"",""time""
""fullscreenenter"",""0"",""4179""
","
","
","""event"",""trial"",""time""
""fullscreenenter"",""0"",""4179""
","
","1257.6000001430511","<div class='center'><p>That's correct!</p><p><b>[Press the space bar to continue]</b></p></div>","32","","","","","","","","","","","","","","","","","","","","","","",""
"","audio-keyboard-response","79","473604","0.0-49.0-2.0","""event"",""trial"",""time""
""fullscreenenter"",""0"",""4179""
","
","
","""event"",""trial"",""time""
""fullscreenenter"",""0"",""4179""
","
","4432","run_exp/static/audio/clip_22_q3.m4a","50","","","","","","","","","","","","","","","","","","","","","","",""
"","correct","80","476009","0.0-50.0-0.0","""event"",""trial"",""time""
""fullscreenenter"",""0"",""4179""
","
","
","""event"",""trial"",""time""
""fullscreenenter"",""0"",""4179""
","
","null","run_exp/static/audio/clip_18_correct.m4a","null","","","","","<div class='center'><p>That's correct!</p></div>","","","","","","","","","","","","","","","","","",""
"","html-keyboard-response","81","477251","0.0-50.0-1.0","""event"",""trial"",""time""
""fullscreenenter"",""0"",""4179""
","
","
","""event"",""trial"",""time""
""fullscreenenter"",""0"",""4179""
","
","1240.0999999046326","<div class='center'><p>That's correct!</p><p><b>[Press the space bar to continue]</b></p></div>","32","","","","","","","","","","","","","","","","","","","","","","",""
"","audio-keyboard-response","82","481649","0.0-50.0-2.0","""event"",""trial"",""time""
""fullscreenenter"",""0"",""4179""
","
","
","""event"",""trial"",""time""
""fullscreenenter"",""0"",""4179""
","
","4391.200000047684","run_exp/static/audio/clip_24_q4.m4a","50","","","","","","","","","","","","","","","","","","","","","","",""
"","q4_err","83","491747","0.0-51.0-0.0","""event"",""trial"",""time""
""fullscreenenter"",""0"",""4179""
","
","
","""event"",""trial"",""time""
""fullscreenenter"",""0"",""4179""
","
","null","run_exp/static/audio/clip_25_wrong_q4.m4a","null","","","","","<div class='center'><p>That’s incorrect. You should remember the island where a pirate robbed a ship. To help you remember, you can make up a story associating the object on the ship with the island.</p></div>","","","","","","","","","","","","","","","","","",""
"","html-keyboard-response","84","492082","0.0-51.0-1.0","""event"",""trial"",""time""
""fullscreenenter"",""0"",""4179""
","
","
","""event"",""trial"",""time""
""fullscreenenter"",""0"",""4179""
","
","333.60000014305115","<div class='center'><p>That’s incorrect. You should remember the island where a pirate robbed a ship. To help you remember, you can make up a story associating the object on the ship with the island.</p><p><b>[Press the space bar to continue]</b></p></div>","32","","","","","","","","","","","","","","","","","","","","","","",""
"","q_all_err","85","498329","0.0-52.0-0.0","""event"",""trial"",""time""
""fullscreenenter"",""0"",""4179""
","
","
","""event"",""trial"",""time""
""fullscreenenter"",""0"",""4179""
","
","null","run_exp/static/audio/clip_26_quiz_redo.m4a","null","","","","","<div class='center'><p>Oops, you missed some questions. Now that you’ve heard the correct answers. Try the quiz again! </p></div>","","","","","","","","","","","","","","","","","",""
"","html-keyboard-response","86","499490","0.0-52.0-1.0","""event"",""trial"",""time""
""fullscreenenter"",""0"",""4179""
","
","
","""event"",""trial"",""time""
""fullscreenenter"",""0"",""4179""
","
","1157.7999999523163","<div class='center'><p>Oops, you missed some questions. Now that you’ve heard the correct answers. Try the quiz again! </p><p><b>[Press the space bar to continue]</b></p></div>","32","","","","","","","","","","","","","","","","","","","","","","",""
"","audio-keyboard-response","87","506484","0.0-52.0-2.0","""event"",""trial"",""time""
""fullscreenenter"",""0"",""4179""
","
","
","""event"",""trial"",""time""
""fullscreenenter"",""0"",""4179""
","
","6990.700000047684","run_exp/static/audio/clip_17_q1.m4a","49","","","","","","","","","","","","","","","","","","","","","","",""
"","correct","88","508947","0.0-53.0-0.0","""event"",""trial"",""time""
""fullscreenenter"",""0"",""4179""
","
","
","""event"",""trial"",""time""
""fullscreenenter"",""0"",""4179""
","
","null","run_exp/static/audio/clip_18_correct.m4a","null","","","","","<div class='center'><p>That's correct!</p></div>","","","","","","","","","","","","","","","","","",""
"","html-keyboard-response","89","510359","0.0-53.0-1.0","""event"",""trial"",""time""
""fullscreenenter"",""0"",""4179""
","
","
","""event"",""trial"",""time""
""fullscreenenter"",""0"",""4179""
","
","1410.5","<div class='center'><p>That's correct!</p><p><b>[Press the space bar to continue]</b></p></div>","32","","","","","","","","","","","","","","","","","","","","","","",""
"","audio-keyboard-response","90","513272","0.0-53.0-2.0","""event"",""trial"",""time""
""fullscreenenter"",""0"",""4179""
","
","
","""event"",""trial"",""time""
""fullscreenenter"",""0"",""4179""
","
","2908.9000000953674","run_exp/static/audio/clip_20_q2.m4a","50","","","","","","","","","","","","","","","","","","","","","","",""
"","correct","91","515669","0.0-54.0-0.0","""event"",""trial"",""time""
""fullscreenenter"",""0"",""4179""
","
","
","""event"",""trial"",""time""
""fullscreenenter"",""0"",""4179""
","
","null","run_exp/static/audio/clip_18_correct.m4a","null","","","","","<div class='center'><p>That's correct!</p></div>","","","","","","","","","","","","","","","","","",""
"","html-keyboard-response","92","516519","0.0-54.0-1.0","""event"",""trial"",""time""
""fullscreenenter"",""0"",""4179""
","
","
","""event"",""trial"",""time""
""fullscreenenter"",""0"",""4179""
","
","847.7000000476837","<div class='center'><p>That's correct!</p><p><b>[Press the space bar to continue]</b></p></div>","32","","","","","","","","","","","","","","","","","","","","","","",""
"","audio-keyboard-response","93","519939","0.0-54.0-2.0","""event"",""trial"",""time""
""fullscreenenter"",""0"",""4179""
","
","
","""event"",""trial"",""time""
""fullscreenenter"",""0"",""4179""
","
","3416.7000000476837","run_exp/static/audio/clip_22_q3.m4a","50","","","","","","","","","","","","","","","","","","","","","","",""
"","correct","94","522350","0.0-55.0-0.0","""event"",""trial"",""time""
""fullscreenenter"",""0"",""4179""
","
","
","""event"",""trial"",""time""
""fullscreenenter"",""0"",""4179""
","
","null","run_exp/static/audio/clip_18_correct.m4a","null","","","","","<div class='center'><p>That's correct!</p></div>","","","","","","","","","","","","","","","","","",""
"","html-keyboard-response","95","523027","0.0-55.0-1.0","""event"",""trial"",""time""
""fullscreenenter"",""0"",""4179""
","
","
","""event"",""trial"",""time""
""fullscreenenter"",""0"",""4179""
","
","674.0999999046326","<div class='center'><p>That's correct!</p><p><b>[Press the space bar to continue]</b></p></div>","32","","","","","","","","","","","","","","","","","","","","","","",""
"","audio-keyboard-response","96","526804","0.0-55.0-2.0","""event"",""trial"",""time""
""fullscreenenter"",""0"",""4179""
","
","
","""event"",""trial"",""time""
""fullscreenenter"",""0"",""4179""
","
","3773.0999999046326","run_exp/static/audio/clip_24_q4.m4a","49","","","","","","","","","","","","","","","","","","","","","","",""
"","correct","97","529410","0.0-56.0-0.0","""event"",""trial"",""time""
""fullscreenenter"",""0"",""4179""
","
","
","""event"",""trial"",""time""
""fullscreenenter"",""0"",""4179""
","
","null","run_exp/static/audio/clip_18_correct.m4a","null","","","","","<div class='center'><p>That's correct!</p></div>","","","","","","","","","","","","","","","","","",""
"","html-keyboard-response","98","530320","0.0-56.0-1.0","""event"",""trial"",""time""
""fullscreenenter"",""0"",""4179""
","
","
","""event"",""trial"",""time""
""fullscreenenter"",""0"",""4179""
","
","903","<div class='center'><p>That's correct!</p><p><b>[Press the space bar to continue]</b></p></div>","32","","","","","","","","","","","","","","","","","","","","","","",""
"","q_all_corr","99","538891","0.0-57.0-0.0","""event"",""trial"",""time""
""fullscreenenter"",""0"",""4179""
","
","
","""event"",""trial"",""time""
""fullscreenenter"",""0"",""4179""
","
","null","run_exp/static/audio/clip_27_quiz_all_correct.m4a","null","","","","","<div class='center'><p>Good job! You’re now ready to move on to the real game! Remember this game will be difficult but don't get discouraged and try your best!</p></div>","","","","","","","","","","","","","","","","","",""
"","html-keyboard-response","100","544621","0.0-57.0-1.0","""event"",""trial"",""time""
""fullscreenenter"",""0"",""4179""
","
","
","""event"",""trial"",""time""
""fullscreenenter"",""0"",""4179""
","
","5727.600000143051","<div class='center'><p>Good job! You’re now ready to move on to the real game! Remember this game will be difficult but don't get discouraged and try your best!</p><p><b>[Press the space bar to continue]</b></p></div>","32","","","","","","","","","","","","","","","","","","","","","","",""
"","do_welcome","101","548656","0.0-58.0-0.0","""event"",""trial"",""time""
""fullscreenenter"",""0"",""4179""
","
","
","""event"",""trial"",""time""
""fullscreenenter"",""0"",""4179""
","
","null","","","","","","","","null","","","","","","","","","","","","","","","","",""
"","do_trial","102","554919","0.0-59.0-0.0","""event"",""trial"",""time""
""fullscreenenter"",""0"",""4179""
","
","
","""event"",""trial"",""time""
""fullscreenenter"",""0"",""4179""
","
","1625.2000000476837","","","","","","","","49","1,1,0","0","countryside","0","probe-210","0.6","0.3","0.1","1","","","","","","","",""
"","html-keyboard-response","103","555929","0.0-59.0-1.0","""event"",""trial"",""time""
""fullscreenenter"",""0"",""4179""
","
","
","""event"",""trial"",""time""
""fullscreenenter"",""0"",""4179""
","
","null","<p></p>","null","","","","","","","","","","","","","","","","","","","","","","",""
"","do_trial","104","561384","0.0-60.0-0.0","""event"",""trial"",""time""
""fullscreenenter"",""0"",""4179""
","
","
","""event"",""trial"",""time""
""fullscreenenter"",""0"",""4179""
","
","767.0999999046326","","","","","","","","49","1,0,0","0","countryside","1","probe-37","0.6014551315530013","0.2285092752723149","0.1506223535152349","1","","","","","","","",""
"","html-keyboard-response","105","562392","0.0-60.0-1.0","""event"",""trial"",""time""
""fullscreenenter"",""0"",""4179""
","
","
","""event"",""trial"",""time""
""fullscreenenter"",""0"",""4179""
","
","null","<p></p>","null","","","","","","","","","","","","","","","","","","","","","","",""
"","do_trial","106","567346","0.0-61.0-0.0","""event"",""trial"",""time""
""fullscreenenter"",""0"",""4179""
","
","
","""event"",""trial"",""time""
""fullscreenenter"",""0"",""4179""
","
","360.80000019073486","","","","","","","","49","0,0,1","0","countryside","2","probe-146","0.5894377780199753","0.20044969094089357","0.23384413939943927","0","","","","","","","",""
"","html-keyboard-response","107","568355","0.0-61.0-1.0","""event"",""trial"",""time""
""fullscreenenter"",""0"",""4179""
","
","
","""event"",""trial"",""time""
""fullscreenenter"",""0"",""4179""
","
","null","<p></p>","null","","","","","","","","","","","","","","","","","","","","","","",""
"","do_trial","108","574092","0.0-62.0-0.0","""event"",""trial"",""time""
""fullscreenenter"",""0"",""4179""
","
","
","""event"",""trial"",""time""
""fullscreenenter"",""0"",""4179""
","
","1152.2999999523163","","","","","","","","49","1,0,1","0","countryside","3","probe-163","0.6811501512534105","0.07451559337471092","0.23317366412737767","1","","","","","","","",""
"","html-keyboard-response","109","575110","0.0-62.0-1.0","""event"",""trial"",""time""
""fullscreenenter"",""0"",""4179""
","
","
","""event"",""trial"",""time""
""fullscreenenter"",""0"",""4179""
","
","null","<p></p>","null","","","","","","","","","","","","","","","","","","","","","","",""
"","do_trial","110","581547","0.0-63.0-0.0","""event"",""trial"",""time""
""fullscreenenter"",""0"",""4179""
","
","
","""event"",""trial"",""time""
""fullscreenenter"",""0"",""4179""
","
","1836.1000001430511","","","","","","","","49","1,0,0","0","countryside","4","probe-128","0.6977230261243438","0.13899086525829452","0.2856870217396789","1","","","","","","","",""
"","html-keyboard-response","111","582553","0.0-63.0-1.0","""event"",""trial"",""time""
""fullscreenenter"",""0"",""4179""
","
","
","""event"",""trial"",""time""
""fullscreenenter"",""0"",""4179""
","
","null","<p></p>","null","","","","","","","","","","","","","","","","","","","","","","",""
"","do_trial","112","587374","0.0-64.0-0.0","""event"",""trial"",""time""
""fullscreenenter"",""0"",""4179""
","
","
","""event"",""trial"",""time""
""fullscreenenter"",""0"",""4179""
","
","196.19999980926514","","","","","","","","49","1,0,0","0","countryside","5","probe-111","0.633409491439802","0.18584371541114364","0.2071587166444604","1","","","","","","","",""
"","html-keyboard-response","113","588384","0.0-64.0-1.0","""event"",""trial"",""time""
""fullscreenenter"",""0"",""4179""
","
","
","""event"",""trial"",""time""
""fullscreenenter"",""0"",""4179""
","
","null","<p></p>","null","","","","","","","","","","","","","","","","","","","","","","",""
"","do_trial","114","594031","0.0-65.0-0.0","""event"",""trial"",""time""
""fullscreenenter"",""0"",""4179""
","
","
","""event"",""trial"",""time""
""fullscreenenter"",""0"",""4179""
","
","1046","","","","","","","","49","0,1,0","0","countryside","6","probe-72","0.5406890497789288","0.310130876415816","0.17850354331412696","0","","","","","","","",""
"","html-keyboard-response","115","595044","0.0-65.0-1.0","""event"",""trial"",""time""
""fullscreenenter"",""0"",""4179""
","
","
","""event"",""trial"",""time""
""fullscreenenter"",""0"",""4179""
","
","null","<p></p>","null","","","","","","","","","","","","","","","","","","","","","","",""
"","do_trial","116","601165","0.0-66.0-0.0","""event"",""trial"",""time""
""fullscreenenter"",""0"",""4179""
","
","
","""event"",""trial"",""time""
""fullscreenenter"",""0"",""4179""
","
","null","","","","","","","","null","1,1,0","0","countryside","7","probe-09","0.4981989437198511","0.4181875964289135","0.16697716007494687","","","","","","","","",""
"","html-keyboard-response","117","602176","0.0-66.0-1.0","""event"",""trial"",""time""
""fullscreenenter"",""0"",""4179""
","
","
","""event"",""trial"",""time""
""fullscreenenter"",""0"",""4179""
","
","null","<p></p>","null","","","","","","","","","","","","","","","","","","","","","","",""
"","do_trial","118","607317","0.0-67.0-0.0","""event"",""trial"",""time""
""fullscreenenter"",""0"",""4179""
","
","
","""event"",""trial"",""time""
""fullscreenenter"",""0"",""4179""
","
","567.2000000476837","","","","","","","","49","1,1,0","0","countryside","8","probe-99","0.5655962218320351","0.41149536212283855","0.19656096752872987","1","","","","","","","",""
"","html-keyboard-response","119","608324","0.0-67.0-1.0","""event"",""trial"",""time""
""fullscreenenter"",""0"",""4179""
","
","
","""event"",""trial"",""time""
""fullscreenenter"",""0"",""4179""
","
","null","<p></p>","null","","","","","","","","","","","","","","","","","","","","","","",""
"","do_trial","120","613341","0.0-68.0-0.0","""event"",""trial"",""time""
""fullscreenenter"",""0"",""4179""
","
","
","""event"",""trial"",""time""
""fullscreenenter"",""0"",""4179""
","
","412","","","","","","","","50","1,0,0","0","countryside","9","probe-125","0.7398578374428145","0.26220732210155984","0.12351878676377212","0","","","","","","","",""
"","html-keyboard-response","121","614353","0.0-68.0-1.0","""event"",""trial"",""time""
""fullscreenenter"",""0"",""4179""
","
","
","""event"",""trial"",""time""
""fullscreenenter"",""0"",""4179""
","
","null","<p></p>","null","","","","","","","","","","","","","","","","","","","","","","",""
"","do_trial","122","618957","0.0-69.0-0.0","""event"",""trial"",""time""
""fullscreenenter"",""0"",""4179""
","
","
","""event"",""trial"",""time""
""fullscreenenter"",""0"",""4179""
","
","0.20000004768371582","","","","","","","","49","1,0,0","0","countryside","10","probe-186","0.7326725824518293","0.1331783574703664","0.12688250457785785","1","","","","","","","",""
"","html-keyboard-response","123","619966","0.0-69.0-1.0","""event"",""trial"",""time""
""fullscreenenter"",""0"",""4179""
","
","
","""event"",""trial"",""time""
""fullscreenenter"",""0"",""4179""
","
","null","<p></p>","null","","","","","","","","","","","","","","","","","","","","","","",""
"","do_trial","124","624815","0.0-70.0-0.0","""event"",""trial"",""time""
""fullscreenenter"",""0"",""4179""
","
","
","""event"",""trial"",""time""
""fullscreenenter"",""0"",""4179""
","
","270.5","","","","","","","","49","1,1,0","0","countryside","11","probe-47","0.6830938679114713","0.17403783508908327","0.13059557179541692","1","","","","","","","",""
"","html-keyboard-response","125","625823","0.0-70.0-1.0","""event"",""trial"",""time""
""fullscreenenter"",""0"",""4179""
","
","
","""event"",""trial"",""time""
""fullscreenenter"",""0"",""4179""
","
","null","<p></p>","null","","","","","","","","","","","","","","","","","","","","","","",""
"","do_trial","126","630616","0.0-71.0-0.0","""event"",""trial"",""time""
""fullscreenenter"",""0"",""4179""
","
","
","""event"",""trial"",""time""
""fullscreenenter"",""0"",""4179""
","
","184.09999990463257","","","","","","","","49","0,0,0","0","countryside","12","probe-35","0.8212401166986724","0.06940975199797261","0.10951860728131319","0","","","","","","","",""
"","html-keyboard-response","127","631625","0.0-71.0-1.0","""event"",""trial"",""time""
""fullscreenenter"",""0"",""4179""
","
","
","""event"",""trial"",""time""
""fullscreenenter"",""0"",""4179""
","
","null","<p></p>","null","","","","","","","","","","","","","","","","","","","","","","",""
"","do_trial","128","637085","0.0-72.0-0.0","""event"",""trial"",""time""
""fullscreenenter"",""0"",""4179""
","
","
","""event"",""trial"",""time""
""fullscreenenter"",""0"",""4179""
","
","832.7999999523163","","","","","","","","49","1,0,1","0","countryside","13","probe-101","0.7703458442132768","0.3321127138575797","0.14737837877967036","1","","","","","","","",""
"","html-keyboard-response","129","638095","0.0-72.0-1.0","""event"",""trial"",""time""
""fullscreenenter"",""0"",""4179""
","
","
","""event"",""trial"",""time""
""fullscreenenter"",""0"",""4179""
","
","null","<p></p>","null","","","","","","","","","","","","","","","","","","","","","","",""
"","do_trial","130","642902","0.0-73.0-0.0","""event"",""trial"",""time""
""fullscreenenter"",""0"",""4179""
","
","
","""event"",""trial"",""time""
""fullscreenenter"",""0"",""4179""
","
","216.29999995231628","","","","","","","","49","0,1,1","0","countryside","14","probe-228","0.5523933182094304","0.3592279018271918","0.1236324141198405","0","","","","","","","",""
"","html-keyboard-response","131","643911","0.0-73.0-1.0","""event"",""trial"",""time""
""fullscreenenter"",""0"",""4179""
","
","
","""event"",""trial"",""time""
""fullscreenenter"",""0"",""4179""
","
","null","<p></p>","null","","","","","","","","","","","","","","","","","","","","","","",""
"","do_trial","132","648841","0.0-74.0-0.0","""event"",""trial"",""time""
""fullscreenenter"",""0"",""4179""
","
","
","""event"",""trial"",""time""
""fullscreenenter"",""0"",""4179""
","
","340.7999999523163","","","","","","","","49","1,0,0","0","countryside","15","probe-90","0.5271901236083536","0.5344137544422471","0.15027205903055132","1","","","","","","","",""
"","html-keyboard-response","133","649852","0.0-74.0-1.0","""event"",""trial"",""time""
""fullscreenenter"",""0"",""4179""
","
","
","""event"",""trial"",""time""
""fullscreenenter"",""0"",""4179""
","
","null","<p></p>","null","","","","","","","","","","","","","","","","","","","","","","",""
"","do_trial","134","655368","0.0-75.0-0.0","""event"",""trial"",""time""
""fullscreenenter"",""0"",""4179""
","
","
","""event"",""trial"",""time""
""fullscreenenter"",""0"",""4179""
","
","897","","","","","","","","49","1,0,0","0","countryside","16","probe-118","0.583168742140057","0.40206328915486006","0.15557027102720206","1","","","","","","","",""
"","html-keyboard-response","135","656378","0.0-75.0-1.0","""event"",""trial"",""time""
""fullscreenenter"",""0"",""4179""
","
","
","""event"",""trial"",""time""
""fullscreenenter"",""0"",""4179""
","
","null","<p></p>","null","","","","","","","","","","","","","","","","","","","","","","",""
"","do_trial","136","661013","0.0-76.0-0.0","""event"",""trial"",""time""
""fullscreenenter"",""0"",""4179""
","
","
","""event"",""trial"",""time""
""fullscreenenter"",""0"",""4179""
","
","44.39999985694885","","","","","","","","49","0,0,0","0","countryside","17","probe-204","0.7003544855257287","0.39976482395493695","0.25807665683588626","0","","","","","","","",""
"","html-keyboard-response","137","662016","0.0-76.0-1.0","""event"",""trial"",""time""
""fullscreenenter"",""0"",""4179""
","
","
","""event"",""trial"",""time""
""fullscreenenter"",""0"",""4179""
","
","null","<p></p>","null","","","","","","","","","","","","","","","","","","","","","","",""
"","do_trial","138","666695","0.0-77.0-0.0","""event"",""trial"",""time""
""fullscreenenter"",""0"",""4179""
","
","
","""event"",""trial"",""time""
""fullscreenenter"",""0"",""4179""
","
","57.89999985694885","","","","","","","","49","1,0,1","0","countryside","18","probe-06","0.682845687510399","0.344848326612278","0.33973433678530823","1","","","","","","","",""
"","html-keyboard-response","139","667708","0.0-77.0-1.0","""event"",""trial"",""time""
""fullscreenenter"",""0"",""4179""
","
","
","""event"",""trial"",""time""
""fullscreenenter"",""0"",""4179""
","
","null","<p></p>","null","","","","","","","","","","","","","","","","","","","","","","",""
"","do_trial","140","672759","0.0-78.0-0.0","""event"",""trial"",""time""
""fullscreenenter"",""0"",""4179""
","
","
","""event"",""trial"",""time""
""fullscreenenter"",""0"",""4179""
","
","478.09999990463257","","","","","","","","49","1,0,0","0","countryside","19","probe-24","0.66530964974895","0.17977840305890586","0.24523643600189496","1","","","","","","","",""
"","html-keyboard-response","141","673767","0.0-78.0-1.0","""event"",""trial"",""time""
""fullscreenenter"",""0"",""4179""
","
","
","""event"",""trial"",""time""
""fullscreenenter"",""0"",""4179""
","
","null","<p></p>","null","","","","","","","","","","","","","","","","","","","","","","",""
"","do_trial","142","678697","0.0-79.0-0.0","""event"",""trial"",""time""
""fullscreenenter"",""0"",""4179""
","
","
","""event"",""trial"",""time""
""fullscreenenter"",""0"",""4179""
","
","330.2999999523163","","","","","","","","49","1,0,0","0","countryside","20","probe-16","0.6896940480454263","0.12155674253893164","0.18205801798005752","1","","","","","","","",""
"","html-keyboard-response","143","679708","0.0-79.0-1.0","""event"",""trial"",""time""
""fullscreenenter"",""0"",""4179""
","
","
","""event"",""trial"",""time""
""fullscreenenter"",""0"",""4179""
","
","null","<p></p>","null","","","","","","","","","","","","","","","","","","","","","","",""
"","do_trial","144","685688","0.0-80.0-0.0","""event"",""trial"",""time""
""fullscreenenter"",""0"",""4179""
","
","
","""event"",""trial"",""time""
""fullscreenenter"",""0"",""4179""
","
","1423.7000000476837","","","","","","","","49","1,0,1","0","countryside","21","probe-133","0.5919513977210579","0.15091306251913364","0.09271930741868287","1","","","","","","","",""
"","html-keyboard-response","145","686697","0.0-80.0-1.0","""event"",""trial"",""time""
""fullscreenenter"",""0"",""4179""
","
","
","""event"",""trial"",""time""
""fullscreenenter"",""0"",""4179""
","
","null","<p></p>","null","","","","","","","","","","","","","","","","","","","","","","",""
"","do_trial","146","692124","0.0-81.0-0.0","""event"",""trial"",""time""
""fullscreenenter"",""0"",""4179""
","
","
","""event"",""trial"",""time""
""fullscreenenter"",""0"",""4179""
","
","825.2999999523163","","","","","","","","49","1,0,0","0","countryside","22","probe-178","0.551732908517858","0.1290576397218277","0.052450247729843816","1","","","","","","","",""
"","html-keyboard-response","147","693129","0.0-81.0-1.0","""event"",""trial"",""time""
""fullscreenenter"",""0"",""4179""
","
","
","""event"",""trial"",""time""
""fullscreenenter"",""0"",""4179""
","
","null","<p></p>","null","","","","","","","","","","","","","","","","","","","","","","",""
"","do_trial","148","698716","0.0-82.0-0.0","""event"",""trial"",""time""
""fullscreenenter"",""0"",""4179""
","
","
","""event"",""trial"",""time""
""fullscreenenter"",""0"",""4179""
","
","966.7999999523163","","","","","","","","49","1,1,0","0","countryside","23","probe-64","0.5956450207627372","0.1775928605628547","0.1891149411120661","1","","","","","","","",""
"","html-keyboard-response","149","699727","0.0-82.0-1.0","""event"",""trial"",""time""
""fullscreenenter"",""0"",""4179""
","
","
","""event"",""trial"",""time""
""fullscreenenter"",""0"",""4179""
","
","null","<p></p>","null","","","","","","","","","","","","","","","","","","","","","","",""
"","do_trial","150","705878","0.0-83.0-0.0","""event"",""trial"",""time""
""fullscreenenter"",""0"",""4179""
","
","
","""event"",""trial"",""time""
""fullscreenenter"",""0"",""4179""
","
","1555.2000000476837","","","","","","","","49","1,0,1","0","countryside","24","probe-40","0.622026744679813","0.2946486842583243","0.29664145561798627","1","","","","","","","",""
"","html-keyboard-response","151","706883","0.0-83.0-1.0","""event"",""trial"",""time""
""fullscreenenter"",""0"",""4179""
","
","
","""event"",""trial"",""time""
""fullscreenenter"",""0"",""4179""
","
","null","<p></p>","null","","","","","","","","","","","","","","","","","","","","","","",""
"","do_trial","152","712061","0.0-84.0-0.0","""event"",""trial"",""time""
""fullscreenenter"",""0"",""4179""
","
","
","""event"",""trial"",""time""
""fullscreenenter"",""0"",""4179""
","
","568","","","","","","","","49","1,0,1","0","countryside","25","probe-154","0.6524927805392357","0.3817696863579403","0.1328570331083402","1","","","","","","","",""
"","html-keyboard-response","153","713073","0.0-84.0-1.0","""event"",""trial"",""time""
""fullscreenenter"",""0"",""4179""
","
","
","""event"",""trial"",""time""
""fullscreenenter"",""0"",""4179""
","
","null","<p></p>","null","","","","","","","","","","","","","","","","","","","","","","",""
"","do_trial","154","718976","0.0-85.0-0.0","""event"",""trial"",""time""
""fullscreenenter"",""0"",""4179""
","
","
","""event"",""trial"",""time""
""fullscreenenter"",""0"",""4179""
","
","1303.2999999523163","","","","","","","","49","1,1,0","0","countryside","26","probe-49","0.7029134575048593","0.4680986808598858","0.10868235386911179","1","","","","","","","",""
"","html-keyboard-response","155","719986","0.0-85.0-1.0","""event"",""trial"",""time""
""fullscreenenter"",""0"",""4179""
","
","
","""event"",""trial"",""time""
""fullscreenenter"",""0"",""4179""
","
","null","<p></p>","null","","","","","","","","","","","","","","","","","","","","","","",""
"","do_trial","156","724874","0.0-86.0-0.0","""event"",""trial"",""time""
""fullscreenenter"",""0"",""4179""
","
","
","""event"",""trial"",""time""
""fullscreenenter"",""0"",""4179""
","
","318.39999985694885","","","","","","","","49","1,1,0","0","countryside","27","probe-131","0.7133388067357227","0.371589862674462","0.18892749461093378","1","","","","","","","",""
"","html-keyboard-response","157","725886","0.0-86.0-1.0","""event"",""trial"",""time""
""fullscreenenter"",""0"",""4179""
","
","
","""event"",""trial"",""time""
""fullscreenenter"",""0"",""4179""
","
","null","<p></p>","null","","","","","","","","","","","","","","","","","","","","","","",""
"","do_trial","158","731415","0.0-87.0-0.0","""event"",""trial"",""time""
""fullscreenenter"",""0"",""4179""
","
","
","""event"",""trial"",""time""
""fullscreenenter"",""0"",""4179""
","
","921","","","","","","","","49","1,0,0","0","countryside","28","probe-20","0.5942685485274001","0.17548571687112421","0.210064319736561","1","","","","","","","",""
"","html-keyboard-response","159","732424","0.0-87.0-1.0","""event"",""trial"",""time""
""fullscreenenter"",""0"",""4179""
","
","
","""event"",""trial"",""time""
""fullscreenenter"",""0"",""4179""
","
","null","<p></p>","null","","","","","","","","","","","","","","","","","","","","","","",""
"","do_trial","160","738073","0.0-88.0-0.0","""event"",""trial"",""time""
""fullscreenenter"",""0"",""4179""
","
","
","""event"",""trial"",""time""
""fullscreenenter"",""0"",""4179""
","
","1064.7999999523163","","","","","","","","49","1,0,0","0","countryside","29","probe-206","0.540098174138579","0.290180892541688","0.32859560589967635","1","","","","","","","",""
"","html-keyboard-response","161","739081","0.0-88.0-1.0","""event"",""trial"",""time""
""fullscreenenter"",""0"",""4179""
","
","
","""event"",""trial"",""time""
""fullscreenenter"",""0"",""4179""
","
","null","<p></p>","null","","","","","","","","","","","","","","","","","","","","","","",""
"","do_bye","162","740594","0.0-89.0-0.0","""event"",""trial"",""time""
""fullscreenenter"",""0"",""4179""
","
","
","""event"",""trial"",""time""
""fullscreenenter"",""0"",""4179""
","
","null","","","","","","","","null","","","","","","","","","","","","","","","","",""
"","break","163","766034","0.0-89.0-1.0","""event"",""trial"",""time""
""fullscreenenter"",""0"",""4179""
","
","
","""event"",""trial"",""time""
""fullscreenenter"",""0"",""4179""
","
","25438.5","<div class='center'><p>Time to take a quick break! You have 2 minutes to rest, but you can move on sooner if you'd like.</p><p> Press the <b>space bar</b> to continue.</p></div>","32","","","","","","","","","","","","","","","","","","","","","","",""
"","do_travel","164","775053","0.0-90.0-0.0","""event"",""trial"",""time""
""fullscreenenter"",""0"",""4179""
","
","
","""event"",""trial"",""time""
""fullscreenenter"",""0"",""4179""
","
","null","","","","","","","","null","","","","","","","","","","","","","","","","",""
"","do_welcome","165","779077","0.0-90.0-1.0","""event"",""trial"",""time""
""fullscreenenter"",""0"",""4179""
","
","
","""event"",""trial"",""time""
""fullscreenenter"",""0"",""4179""
","
","null","","","","","","","","null","","","","","","","","","","","","","","","","",""
"","do_trial","166","785052","0.0-91.0-0.0","""event"",""trial"",""time""
""fullscreenenter"",""0"",""4179""
","
","
","""event"",""trial"",""time""
""fullscreenenter"",""0"",""4179""
","
","1369.3999998569489","","","","","","","","49","1,1,1","1","city","30","probe-193","1","0.3256427561597541","0.23725600918213163","1","","","","","","","",""
"","html-keyboard-response","167","786064","0.0-91.0-1.0","""event"",""trial"",""time""
""fullscreenenter"",""0"",""4179""
","
","
","""event"",""trial"",""time""
""fullscreenenter"",""0"",""4179""
","
","null","<p></p>","null","","","","","","","","","","","","","","","","","","","","","","",""
"","do_trial","168","792161","0.0-92.0-0.0","""event"",""trial"",""time""
""fullscreenenter"",""0"",""4179""
","
","
","""event"",""trial"",""time""
""fullscreenenter"",""0"",""4179""
","
","1514.7000000476837","","","","","","","","49","1,0,0","1","city","31","probe-226","1","0.2505351018710733","0.15231297294651142","1","","","","","","","",""
"","html-keyboard-response","169","793173","0.0-92.0-1.0","""event"",""trial"",""time""
""fullscreenenter"",""0"",""4179""
","
","
","""event"",""trial"",""time""
""fullscreenenter"",""0"",""4179""
","
","null","<p></p>","null","","","","","","","","","","","","","","","","","","","","","","",""
"","do_trial","170","797921","0.0-93.0-0.0","""event"",""trial"",""time""
""fullscreenenter"",""0"",""4179""
","
","
","""event"",""trial"",""time""
""fullscreenenter"",""0"",""4179""
","
","153.70000004768372","","","","","","","","49","1,0,0","1","city","32","probe-33","1","0.2582413252505396","0.16368739435749013","1","","","","","","","",""
"","html-keyboard-response","171","798932","0.0-93.0-1.0","""event"",""trial"",""time""
""fullscreenenter"",""0"",""4179""
","
","
","""event"",""trial"",""time""
""fullscreenenter"",""0"",""4179""
","
","null","<p></p>","null","","","","","","","","","","","","","","","","","","","","","","",""
"","do_trial","172","803551","0.0-94.0-0.0","""event"",""trial"",""time""
""fullscreenenter"",""0"",""4179""
","
","
","""event"",""trial"",""time""
""fullscreenenter"",""0"",""4179""
","
","0.19999980926513672","","","","","","","","49","1,0,1","1","city","33","probe-61","0.7424524619662785","0.23226692349840178","0.1705681247486613","1","","","","","","","",""
"","html-keyboard-response","173","804561","0.0-94.0-1.0","""event"",""trial"",""time""
""fullscreenenter"",""0"",""4179""
","
","
","""event"",""trial"",""time""
""fullscreenenter"",""0"",""4179""
","
","null","<p></p>","null","","","","","","","","","","","","","","","","","","","","","","",""
"","do_trial","174","809172","0.0-95.0-0.0","""event"",""trial"",""time""
""fullscreenenter"",""0"",""4179""
","
","
","""event"",""trial"",""time""
""fullscreenenter"",""0"",""4179""
","
","8.799999952316284","","","","","","","","49","1,1,0","1","city","34","probe-67","0.594918821274198","0.2812384910021502","0.289710993118438","1","","","","","","","",""
"","html-keyboard-response","175","810179","0.0-95.0-1.0","""event"",""trial"",""time""
""fullscreenenter"",""0"",""4179""
","
","
","""event"",""trial"",""time""
""fullscreenenter"",""0"",""4179""
","
","null","<p></p>","null","","","","","","","","","","","","","","","","","","","","","","",""
"","do_trial","176","815994","0.0-96.0-0.0","""event"",""trial"",""time""
""fullscreenenter"",""0"",""4179""
","
","
","""event"",""trial"",""time""
""fullscreenenter"",""0"",""4179""
","
","1268.2999999523163","","","","","","","","49","0,0,0","1","city","35","probe-107","0.5544351752970935","0.19323379642263114","0.22362923236398258","0","","","","","","","",""
"","html-keyboard-response","177","816999","0.0-96.0-1.0","""event"",""trial"",""time""
""fullscreenenter"",""0"",""4179""
","
","
","""event"",""trial"",""time""
""fullscreenenter"",""0"",""4179""
","
","null","<p></p>","null","","","","","","","","","","","","","","","","","","","","","","",""
"","do_trial","178","822581","0.0-97.0-0.0","""event"",""trial"",""time""
""fullscreenenter"",""0"",""4179""
","
","
","""event"",""trial"",""time""
""fullscreenenter"",""0"",""4179""
","
","995.7999999523163","","","","","","","","49","1,0,0","1","city","36","probe-149","0.611993266640093","0.3084465967407137","0.267792897478521","1","","","","","","","",""
"","html-keyboard-response","179","823584","0.0-97.0-1.0","""event"",""trial"",""time""
""fullscreenenter"",""0"",""4179""
","
","
","""event"",""trial"",""time""
""fullscreenenter"",""0"",""4179""
","
","null","<p></p>","null","","","","","","","","","","","","","","","","","","","","","","",""
"","do_trial","180","828310","0.0-98.0-0.0","""event"",""trial"",""time""
""fullscreenenter"",""0"",""4179""
","
","
","""event"",""trial"",""time""
""fullscreenenter"",""0"",""4179""
","
","132.90000009536743","","","","","","","","49","1,0,0","1","city","37","probe-218","0.6727871791404043","0.16910720309984442","0.24505003615210538","1","","","","","","","",""
"","html-keyboard-response","181","829317","0.0-98.0-1.0","""event"",""trial"",""time""
""fullscreenenter"",""0"",""4179""
","
","
","""event"",""trial"",""time""
""fullscreenenter"",""0"",""4179""
","
","null","<p></p>","null","","","","","","","","","","","","","","","","","","","","","","",""
"","do_trial","182","834492","0.0-99.0-0.0","""event"",""trial"",""time""
""fullscreenenter"",""0"",""4179""
","
","
","""event"",""trial"",""time""
""fullscreenenter"",""0"",""4179""
","
","565.7999999523163","","","","","","","","49","0,0,1","1","city","38","probe-164","0.6740863066079371","0.23582549388187765","0.26593961801277","0","","","","","","","",""
"","html-keyboard-response","183","835500","0.0-99.0-1.0","""event"",""trial"",""time""
""fullscreenenter"",""0"",""4179""
","
","
","""event"",""trial"",""time""
""fullscreenenter"",""0"",""4179""
","
","null","<p></p>","null","","","","","","","","","","","","","","","","","","","","","","",""
"","do_trial","184","840427","0.0-100.0-0.0","""event"",""trial"",""time""
""fullscreenenter"",""0"",""4179""
","
","
","""event"",""trial"",""time""
""fullscreenenter"",""0"",""4179""
","
","328.59999990463257","","","","","","","","49","1,0,0","1","city","39","probe-176","0.6268075931973487","0.12988288302242265","0.14264778250040364","1","","","","","","","",""
"","html-keyboard-response","185","841435","0.0-100.0-1.0","""event"",""trial"",""time""
""fullscreenenter"",""0"",""4179""
","
","
","""event"",""trial"",""time""
""fullscreenenter"",""0"",""4179""
","
","null","<p></p>","null","","","","","","","","","","","","","","","","","","","","","","",""
"","do_trial","186","847794","0.0-101.0-0.0","""event"",""trial"",""time""
""fullscreenenter"",""0"",""4179""
","
","
","""event"",""trial"",""time""
""fullscreenenter"",""0"",""4179""
","
","1719.4000000953674","","","","","","","","49","1,1,0","1","city","40","probe-73","0.541119217516042","0.13502073143706622","0.06191114235590634","1","","","","","","","",""
"","html-keyboard-response","187","848798","0.0-101.0-1.0","""event"",""trial"",""time""
""fullscreenenter"",""0"",""4179""
","
","
","""event"",""trial"",""time""
""fullscreenenter"",""0"",""4179""
","
","null","<p></p>","null","","","","","","","","","","","","","","","","","","","","","","",""
"","do_trial","188","854795","0.0-102.0-0.0","""event"",""trial"",""time""
""fullscreenenter"",""0"",""4179""
","
","
","""event"",""trial"",""time""
""fullscreenenter"",""0"",""4179""
","
","1383.0999999046326","","","","","","","","49","0,0,1","1","city","41","probe-102","0.4980152018341508","0.27936586019487086","0.2039676406099235","0","","","","","","","",""
"","html-keyboard-response","189","855801","0.0-102.0-1.0","""event"",""trial"",""time""
""fullscreenenter"",""0"",""4179""
","
","
","""event"",""trial"",""time""
""fullscreenenter"",""0"",""4179""
","
","null","<p></p>","null","","","","","","","","","","","","","","","","","","","","","","",""
"","do_trial","190","861433","0.0-103.0-0.0","""event"",""trial"",""time""
""fullscreenenter"",""0"",""4179""
","
","
","""event"",""trial"",""time""
""fullscreenenter"",""0"",""4179""
","
","1030.1000001430511","","","","","","","","50","1,1,0","1","city","42","probe-95","0.38791493165574564","0.3881467208641638","0.24205584129956761","1","","","","","","","",""
"","html-keyboard-response","191","862442","0.0-103.0-1.0","""event"",""trial"",""time""
""fullscreenenter"",""0"",""4179""
","
","
","""event"",""trial"",""time""
""fullscreenenter"",""0"",""4179""
","
","null","<p></p>","null","","","","","","","","","","","","","","","","","","","","","","",""
"","do_trial","192","867464","0.0-104.0-0.0","""event"",""trial"",""time""
""fullscreenenter"",""0"",""4179""
","
","
","""event"",""trial"",""time""
""fullscreenenter"",""0"",""4179""
","
","401.2999999523163","","","","","","","","49","0,0,0","1","city","43","probe-207","0.3337619909898073","0.42430955901822964","0.3030144959625739","0","","","","","","","",""
"","html-keyboard-response","193","868479","0.0-104.0-1.0","""event"",""trial"",""time""
""fullscreenenter"",""0"",""4179""
","
","
","""event"",""trial"",""time""
""fullscreenenter"",""0"",""4179""
","
","null","<p></p>","null","","","","","","","","","","","","","","","","","","","","","","",""
"","do_trial","194","874190","0.0-105.0-0.0","""event"",""trial"",""time""
""fullscreenenter"",""0"",""4179""
","
","
","""event"",""trial"",""time""
""fullscreenenter"",""0"",""4179""
","
","1114.7000000476837","","","","","","","","49","0,1,0","1","city","44","probe-08","0.13584151430132418","0.4653734270889314","0.3662444553298694","0","","","","","","","",""
"","html-keyboard-response","195","875198","0.0-105.0-1.0","""event"",""trial"",""time""
""fullscreenenter"",""0"",""4179""
","
","
","""event"",""trial"",""time""
""fullscreenenter"",""0"",""4179""
","
","null","<p></p>","null","","","","","","","","","","","","","","","","","","","","","","",""
"","do_trial","196","880020","0.0-106.0-0.0","""event"",""trial"",""time""
""fullscreenenter"",""0"",""4179""
","
","
","""event"",""trial"",""time""
""fullscreenenter"",""0"",""4179""
","
","215.89999985694885","","","","","","","","50","0,0,0","1","city","45","probe-86","0.0765506397732217","0.6189953494647009","0.29596131045134344","0","","","","","","","",""
"","html-keyboard-response","197","881037","0.0-106.0-1.0","""event"",""trial"",""time""
""fullscreenenter"",""0"",""4179""
","
","
","""event"",""trial"",""time""
""fullscreenenter"",""0"",""4179""
","
","null","<p></p>","null","","","","","","","","","","","","","","","","","","","","","","",""
"","do_trial","198","886687","0.0-107.0-0.0","""event"",""trial"",""time""
""fullscreenenter"",""0"",""4179""
","
","
","""event"",""trial"",""time""
""fullscreenenter"",""0"",""4179""
","
","994.5","","","","","","","","50","0,1,1","1","city","46","probe-22","0.08897900912036759","0.5782834419882885","0.16736071145348225","1","","","","","","","",""
"","html-keyboard-response","199","887699","0.0-107.0-1.0","""event"",""trial"",""time""
""fullscreenenter"",""0"",""4179""
","
","
","""event"",""trial"",""time""
""fullscreenenter"",""0"",""4179""
","
","null","<p></p>","null","","","","","","","","","","","","","","","","","","","","","","",""
"","do_trial","200","893602","0.0-108.0-0.0","""event"",""trial"",""time""
""fullscreenenter"",""0"",""4179""
","
","
","""event"",""trial"",""time""
""fullscreenenter"",""0"",""4179""
","
","1298","","","","","","","","50","0,1,0","1","city","47","probe-53","0.14224058554247043","0.5956918921049849","0.2445686315895826","1","","","","","","","",""
"","html-keyboard-response","201","894610","0.0-108.0-1.0","""event"",""trial"",""time""
""fullscreenenter"",""0"",""4179""
","
","
","""event"",""trial"",""time""
""fullscreenenter"",""0"",""4179""
","
","null","<p></p>","null","","","","","","","","","","","","","","","","","","","","","","",""
"","do_trial","202","900942","0.0-109.0-0.0","""event"",""trial"",""time""
""fullscreenenter"",""0"",""4179""
","
","
","""event"",""trial"",""time""
""fullscreenenter"",""0"",""4179""
","
","1733.3999998569489","","","","","","","","50","0,0,0","1","city","48","probe-112","0.08764624960677321","0.44044028902636195","0.3571021196168597","0","","","","","","","",""
"","html-keyboard-response","203","901954","0.0-109.0-1.0","""event"",""trial"",""time""
""fullscreenenter"",""0"",""4179""
","
","
","""event"",""trial"",""time""
""fullscreenenter"",""0"",""4179""
","
","null","<p></p>","null","","","","","","","","","","","","","","","","","","","","","","",""
"","do_trial","204","908028","0.0-110.0-0.0","""event"",""trial"",""time""
""fullscreenenter"",""0"",""4179""
","
","
","""event"",""trial"",""time""
""fullscreenenter"",""0"",""4179""
","
","1477.2000000476837","","","","","","","","50","0,1,0","1","city","49","probe-121","0.10668864087500912","0.579465766876051","0.29893965820046675","1","","","","","","","",""
"","html-keyboard-response","205","909039","0.0-110.0-1.0","""event"",""trial"",""time""
""fullscreenenter"",""0"",""4179""
","
","
","""event"",""trial"",""time""
""fullscreenenter"",""0"",""4179""
","
","null","<p></p>","null","","","","","","","","","","","","","","","","","","","","","","",""
"","do_trial","206","914529","0.0-111.0-0.0","""event"",""trial"",""time""
""fullscreenenter"",""0"",""4179""
","
","
","""event"",""trial"",""time""
""fullscreenenter"",""0"",""4179""
","
","888.7999999523163","","","","","","","","50","0,1,0","1","city","50","probe-189","0.1314943091802132","0.6741875257854159","0.31684400622192466","1","","","","","","","",""
"","html-keyboard-response","207","915535","0.0-111.0-1.0","""event"",""trial"",""time""
""fullscreenenter"",""0"",""4179""
","
","
","""event"",""trial"",""time""
""fullscreenenter"",""0"",""4179""
","
","null","<p></p>","null","","","","","","","","","","","","","","","","","","","","","","",""
"","do_trial","208","920521","0.0-112.0-0.0","""event"",""trial"",""time""
""fullscreenenter"",""0"",""4179""
","
","
","""event"",""trial"",""time""
""fullscreenenter"",""0"",""4179""
","
","413.7000000476837","","","","","","","","50","0,1,0","1","city","51","probe-124","0.051643312295138175","0.7278964786353116","0.09380298868920114","1","","","","","","","",""
"","html-keyboard-response","209","921525","0.0-112.0-1.0","""event"",""trial"",""time""
""fullscreenenter"",""0"",""4179""
","
","
","""event"",""trial"",""time""
""fullscreenenter"",""0"",""4179""
","
","null","<p></p>","null","","","","","","","","","","","","","","","","","","","","","","",""
"","do_trial","210","926541","0.0-113.0-0.0","""event"",""trial"",""time""
""fullscreenenter"",""0"",""4179""
","
","
","""event"",""trial"",""time""
""fullscreenenter"",""0"",""4179""
","
","416.2000000476837","","","","","","","","50","0,0,0","1","city","52","probe-87","0.10116920273466234","0.6407719982244412","0.21049452973335625","0","","","","","","","",""
"","html-keyboard-response","211","927551","0.0-113.0-1.0","""event"",""trial"",""time""
""fullscreenenter"",""0"",""4179""
","
","
","""event"",""trial"",""time""
""fullscreenenter"",""0"",""4179""
","
","null","<p></p>","null","","","","","","","","","","","","","","","","","","","","","","",""
"","do_trial","212","933715","0.0-114.0-0.0","""event"",""trial"",""time""
""fullscreenenter"",""0"",""4179""
","
","
","""event"",""trial"",""time""
""fullscreenenter"",""0"",""4179""
","
","1570.1000001430511","","","","","","","","50","0,0,0","1","city","53","probe-229","0.07627256006289679","0.5544489623596109","0.1564551810080794","0","","","","","","","",""
"","html-keyboard-response","213","934721","0.0-114.0-1.0","""event"",""trial"",""time""
""fullscreenenter"",""0"",""4179""
","
","
","""event"",""trial"",""time""
""fullscreenenter"",""0"",""4179""
","
","null","<p></p>","null","","","","","","","","","","","","","","","","","","","","","","",""
"","do_trial","214","940306","0.0-115.0-0.0","""event"",""trial"",""time""
""fullscreenenter"",""0"",""4179""
","
","
","""event"",""trial"",""time""
""fullscreenenter"",""0"",""4179""
","
","946.3999998569489","","","","","","","","50","0,1,0","1","city","54","probe-169","0.13215903755130118","0.5438654985643707","0.2802538579073467","1","","","","","","","",""
"","html-keyboard-response","215","941312","0.0-115.0-1.0","""event"",""trial"",""time""
""fullscreenenter"",""0"",""4179""
","
","
","""event"",""trial"",""time""
""fullscreenenter"",""0"",""4179""
","
","null","<p></p>","null","","","","","","","","","","","","","","","","","","","","","","",""
"","do_trial","216","948440","0.0-116.0-0.0","""event"",""trial"",""time""
""fullscreenenter"",""0"",""4179""
","
","
","""event"",""trial"",""time""
""fullscreenenter"",""0"",""4179""
","
","2505.100000143051","","","","","","","","50","0,1,1","1","city","55","probe-135","0.12388813414413827","0.6238424420111032","0.34490114174799646","1","","","","","","","",""
"","html-keyboard-response","217","949449","0.0-116.0-1.0","""event"",""trial"",""time""
""fullscreenenter"",""0"",""4179""
","
","
","""event"",""trial"",""time""
""fullscreenenter"",""0"",""4179""
","
","null","<p></p>","null","","","","","","","","","","","","","","","","","","","","","","",""
"","do_trial","218","954231","0.0-117.0-0.0","""event"",""trial"",""time""
""fullscreenenter"",""0"",""4179""
","
","
","""event"",""trial"",""time""
""fullscreenenter"",""0"",""4179""
","
","156.19999980926514","","","","","","","","50","0,1,0","1","city","56","probe-07","0.14951069964267336","0.5344399771178596","0.41325099299816404","1","","","","","","","",""
"","html-keyboard-response","219","955237","0.0-117.0-1.0","""event"",""trial"",""time""
""fullscreenenter"",""0"",""4179""
","
","
","""event"",""trial"",""time""
""fullscreenenter"",""0"",""4179""
","
","null","<p></p>","null","","","","","","","","","","","","","","","","","","","","","","",""
"","do_trial","220","960418","0.0-118.0-0.0","""event"",""trial"",""time""
""fullscreenenter"",""0"",""4179""
","
","
","""event"",""trial"",""time""
""fullscreenenter"",""0"",""4179""
","
","586.0999999046326","","","","","","","","50","0,1,1","1","city","57","probe-45","0.05078830593606117","0.575354068493108","0.4912289444247636","1","","","","","","","",""
"","html-keyboard-response","221","961426","0.0-118.0-1.0","""event"",""trial"",""time""
""fullscreenenter"",""0"",""4179""
","
","
","""event"",""trial"",""time""
""fullscreenenter"",""0"",""4179""
","
","null","<p></p>","null","","","","","","","","","","","","","","","","","","","","","","",""
"","do_trial","222","966348","0.0-119.0-0.0","""event"",""trial"",""time""
""fullscreenenter"",""0"",""4179""
","
","
","""event"",""trial"",""time""
""fullscreenenter"",""0"",""4179""
","
","310.60000014305115","","","","","","","","50","0,0,1","1","city","58","probe-114","0.06684481071005599","0.5441521650198186","0.5680538963890646","0","","","","","","","",""
"","html-keyboard-response","223","967358","0.0-119.0-1.0","""event"",""trial"",""time""
""fullscreenenter"",""0"",""4179""
","
","
","""event"",""trial"",""time""
""fullscreenenter"",""0"",""4179""
","
","null","<p></p>","null","","","","","","","","","","","","","","","","","","","","","","",""
"","do_trial","224","972772","0.0-120.0-0.0","""event"",""trial"",""time""
""fullscreenenter"",""0"",""4179""
","
","
","""event"",""trial"",""time""
""fullscreenenter"",""0"",""4179""
","
","830","","","","","","","","50","1,1,0","1","city","59","probe-134","0.06175306936447369","0.6900695236036988","0.557338938366966","1","","","","","","","",""
"","html-keyboard-response","225","973779","0.0-120.0-1.0","""event"",""trial"",""time""
""fullscreenenter"",""0"",""4179""
","
","
","""event"",""trial"",""time""
""fullscreenenter"",""0"",""4179""
","
","null","<p></p>","null","","","","","","","","","","","","","","","","","","","","","","",""
"","do_trial","226","979914","0.0-121.0-0.0","""event"",""trial"",""time""
""fullscreenenter"",""0"",""4179""
","
","
","""event"",""trial"",""time""
""fullscreenenter"",""0"",""4179""
","
","1547.1000001430511","","","","","","","","50","0,0,1","1","city","60","probe-01","0.06984046955467152","0.6555390656233087","0.5044200582901227","0","","","","","","","",""
"","html-keyboard-response","227","980923","0.0-121.0-1.0","""event"",""trial"",""time""
""fullscreenenter"",""0"",""4179""
","
","
","""event"",""trial"",""time""
""fullscreenenter"",""0"",""4179""
","
","null","<p></p>","null","","","","","","","","","","","","","","","","","","","","","","",""
"","do_trial","228","986522","0.0-122.0-0.0","""event"",""trial"",""time""
""fullscreenenter"",""0"",""4179""
","
","
","""event"",""trial"",""time""
""fullscreenenter"",""0"",""4179""
","
","987","","","","","","","","50","0,1,0","1","city","61","probe-225","0.06457922344013539","0.5752825436177246","0.3456472026820029","1","","","","","","","",""
"","html-keyboard-response","229","987535","0.0-122.0-1.0","""event"",""trial"",""time""
""fullscreenenter"",""0"",""4179""
","
","
","""event"",""trial"",""time""
""fullscreenenter"",""0"",""4179""
","
","null","<p></p>","null","","","","","","","","","","","","","","","","","","","","","","",""
"","do_trial","230","993958","0.0-123.0-0.0","""event"",""trial"",""time""
""fullscreenenter"",""0"",""4179""
","
","
","""event"",""trial"",""time""
""fullscreenenter"",""0"",""4179""
","
","1782.0999999046326","","","","","","","","50","1,1,0","1","city","62","probe-15","0.09835368842579698","0.48996127297795683","0.27224590048954944","1","","","","","","","",""
"","html-keyboard-response","231","994969","0.0-123.0-1.0","""event"",""trial"",""time""
""fullscreenenter"",""0"",""4179""
","
","
","""event"",""trial"",""time""
""fullscreenenter"",""0"",""4179""
","
","null","<p></p>","null","","","","","","","","","","","","","","","","","","","","","","",""
"","do_trial","232","1000854","0.0-124.0-0.0","""event"",""trial"",""time""
""fullscreenenter"",""0"",""4179""
","
","
","""event"",""trial"",""time""
""fullscreenenter"",""0"",""4179""
","
","1279.9000000953674","","","","","","","","50","1,0,0","1","city","63","probe-106","0.20194676673522347","0.46679218365246383","0.2630136858360702","0","","","","","","","",""
"","html-keyboard-response","233","1001864","0.0-124.0-1.0","""event"",""trial"",""time""
""fullscreenenter"",""0"",""4179""
","
","
","""event"",""trial"",""time""
""fullscreenenter"",""0"",""4179""
","
","null","<p></p>","null","","","","","","","","","","","","","","","","","","","","","","",""
"","do_trial","234","1006919","0.0-125.0-0.0","""event"",""trial"",""time""
""fullscreenenter"",""0"",""4179""
","
","
","""event"",""trial"",""time""
""fullscreenenter"",""0"",""4179""
","
","445.2000000476837","","","","","","","","50","0,1,0","1","city","64","probe-113","0.060927621732786846","0.6211525224666118","0.3070970317954334","1","","","","","","","",""
"","html-keyboard-response","235","1007931","0.0-125.0-1.0","""event"",""trial"",""time""
""fullscreenenter"",""0"",""4179""
","
","
","""event"",""trial"",""time""
""fullscreenenter"",""0"",""4179""
","
","null","<p></p>","null","","","","","","","","","","","","","","","","","","","","","","",""
"","do_trial","236","1013697","0.0-126.0-0.0","""event"",""trial"",""time""
""fullscreenenter"",""0"",""4179""
","
","
","""event"",""trial"",""time""
""fullscreenenter"",""0"",""4179""
","
","1161.5999999046326","","","","","","","","50","0,1,0","1","city","65","probe-27","0.2773181489255461","0.5865506814272181","0.34655014650110555","1","","","","","","","",""
"","html-keyboard-response","237","1014700","0.0-126.0-1.0","""event"",""trial"",""time""
""fullscreenenter"",""0"",""4179""
","
","
","""event"",""trial"",""time""
""fullscreenenter"",""0"",""4179""
","
","null","<p></p>","null","","","","","","","","","","","","","","","","","","","","","","",""
"","do_trial","238","1019606","0.0-127.0-0.0","""event"",""trial"",""time""
""fullscreenenter"",""0"",""4179""
","
","
","""event"",""trial"",""time""
""fullscreenenter"",""0"",""4179""
","
","330.40000009536743","","","","","","","","50","0,1,0","1","city","66","probe-02","0.12885261904358633","0.5797280477432282","0.35167144370428793","1","","","","","","","",""
"","html-keyboard-response","239","1020618","0.0-127.0-1.0","""event"",""trial"",""time""
""fullscreenenter"",""0"",""4179""
","
","
","""event"",""trial"",""time""
""fullscreenenter"",""0"",""4179""
","
","null","<p></p>","null","","","","","","","","","","","","","","","","","","","","","","",""
"","do_trial","240","1026331","0.0-128.0-0.0","""event"",""trial"",""time""
""fullscreenenter"",""0"",""4179""
","
","
","""event"",""trial"",""time""
""fullscreenenter"",""0"",""4179""
","
","1149.4000000953674","","","","","","","","50","1,1,1","1","city","67","probe-140","0.10224113617933402","0.6032685597283591","0.28870176894117905","1","","","","","","","",""
"","html-keyboard-response","241","1027342","0.0-128.0-1.0","""event"",""trial"",""time""
""fullscreenenter"",""0"",""4179""
","
","
","""event"",""trial"",""time""
""fullscreenenter"",""0"",""4179""
","
","null","<p></p>","null","","","","","","","","","","","","","","","","","","","","","","",""
"","do_trial","242","1033672","0.0-129.0-0.0","""event"",""trial"",""time""
""fullscreenenter"",""0"",""4179""
","
","
","""event"",""trial"",""time""
""fullscreenenter"",""0"",""4179""
","
","1738","","","","","","","","50","0,1,0","1","city","68","probe-203","0.07246396532791069","0.7579959250721798","0.23280557284598477","1","","","","","","","",""
"","html-keyboard-response","243","1034684","0.0-129.0-1.0","""event"",""trial"",""time""
""fullscreenenter"",""0"",""4179""
","
","
","""event"",""trial"",""time""
""fullscreenenter"",""0"",""4179""
","
","null","<p></p>","null","","","","","","","","","","","","","","","","","","","","","","",""
"","do_trial","244","1039946","0.0-130.0-0.0","""event"",""trial"",""time""
""fullscreenenter"",""0"",""4179""
","
","
","""event"",""trial"",""time""
""fullscreenenter"",""0"",""4179""
","
","664.8000001907349","","","","","","","","50","0,1,0","1","city","69","probe-19","0.05598524634462261","0.7780677483510163","0.3007136696232247","1","","","","","","","",""
"","html-keyboard-response","245","1040956","0.0-130.0-1.0","""event"",""trial"",""time""
""fullscreenenter"",""0"",""4179""
","
","
","""event"",""trial"",""time""
""fullscreenenter"",""0"",""4179""
","
","null","<p></p>","null","","","","","","","","","","","","","","","","","","","","","","",""
"","do_bye","246","1042472","0.0-131.0-0.0","""event"",""trial"",""time""
""fullscreenenter"",""0"",""4179""
","
","
","""event"",""trial"",""time""
""fullscreenenter"",""0"",""4179""
","
","null","","","","","","","","null","","","","","","","","","","","","","","","","",""
"","break","247","1047906","0.0-131.0-1.0","""event"",""trial"",""time""
""fullscreenenter"",""0"",""4179""
","
","
","""event"",""trial"",""time""
""fullscreenenter"",""0"",""4179""
","
","5430.600000143051","<div class='center'><p>Time to take a quick break! You have 2 minutes to rest, but you can move on sooner if you'd like.</p><p> Press the <b>space bar</b> to continue.</p></div>","32","","","","","","","","","","","","","","","","","","","","","","",""
"","do_travel","248","1056918","0.0-132.0-0.0","""event"",""trial"",""time""
""fullscreenenter"",""0"",""4179""
","
","
","""event"",""trial"",""time""
""fullscreenenter"",""0"",""4179""
","
","null","","","","","","","","null","","","","","","","","","","","","","","","","",""
"","do_welcome","249","1060943","0.0-132.0-1.0","""event"",""trial"",""time""
""fullscreenenter"",""0"",""4179""
","
","
","""event"",""trial"",""time""
""fullscreenenter"",""0"",""4179""
","
","null","","","","","","","","null","","","","","","","","","","","","","","","","",""
"","do_trial","250","1068031","0.0-133.0-0.0","""event"",""trial"",""time""
""fullscreenenter"",""0"",""4179""
","
","
","""event"",""trial"",""time""
""fullscreenenter"",""0"",""4179""
","
","2456.2999999523163","","","","","","","","51","0,1,0","2","highway","70","probe-138","0.25451985862142273","1","0.2260333592633508","0","","","","","","","",""
"","html-keyboard-response","251","1069048","0.0-133.0-1.0","""event"",""trial"",""time""
""fullscreenenter"",""0"",""4179""
","
","
","""event"",""trial"",""time""
""fullscreenenter"",""0"",""4179""
","
","null","<p></p>","null","","","","","","","","","","","","","","","","","","","","","","",""
"","do_trial","252","1076467","0.0-134.0-0.0","""event"",""trial"",""time""
""fullscreenenter"",""0"",""4179""
","
","
","""event"",""trial"",""time""
""fullscreenenter"",""0"",""4179""
","
","2843.899999856949","","","","","","","","50","1,1,1","2","highway","71","probe-54","0.23061753999832094","1","0.2017924808374224","1","","","","","","","",""
"","html-keyboard-response","253","1077472","0.0-134.0-1.0","""event"",""trial"",""time""
""fullscreenenter"",""0"",""4179""
","
","
","""event"",""trial"",""time""
""fullscreenenter"",""0"",""4179""
","
","null","<p></p>","null","","","","","","","","","","","","","","","","","","","","","","",""
"","do_trial","254","1083571","0.0-135.0-0.0","""event"",""trial"",""time""
""fullscreenenter"",""0"",""4179""
","
","
","""event"",""trial"",""time""
""fullscreenenter"",""0"",""4179""
","
","null","","","","","","","","null","0,1,0","2","highway","72","probe-69","0.15587619404937417","0.7633472783482167","0.258525856779871","","","","","","","","",""
"","html-keyboard-response","255","1084587","0.0-135.0-1.0","""event"",""trial"",""time""
""fullscreenenter"",""0"",""4179""
","
","
","""event"",""trial"",""time""
""fullscreenenter"",""0"",""4179""
","
","null","<p></p>","null","","","","","","","","","","","","","","","","","","","","","","",""
"","do_trial","256","1090674","0.0-136.0-0.0","""event"",""trial"",""time""
""fullscreenenter"",""0"",""4179""
","
","
","""event"",""trial"",""time""
""fullscreenenter"",""0"",""4179""
","
","1486.0999999046326","","","","","","","","50","0,0,0","2","highway","73","probe-129","0.11210540097561443","0.6766639420837158","0.37166626648345075","0","","","","","","","",""
"","html-keyboard-response","257","1091682","0.0-136.0-1.0","""event"",""trial"",""time""
""fullscreenenter"",""0"",""4179""
","
","
","""event"",""trial"",""time""
""fullscreenenter"",""0"",""4179""
","
","null","<p></p>","null","","","","","","","","","","","","","","","","","","","","","","",""
"","do_trial","258","1097051","0.0-137.0-0.0","""event"",""trial"",""time""
""fullscreenenter"",""0"",""4179""
","
","
","""event"",""trial"",""time""
