"success","trial_type","trial_index","time_elapsed","internal_node_id","rt","stimulus","key_press","subject_id","response","choice_outcomes","context_n","context_img_id","trial_n","probe_img_id","pR_red","pR_white","pR_black","outcome","contextArray_ind","validImageProbes","invalidImageProbes","pRew_Red","pRew_White","pRew_Black","availableForMemProbe","choice_blocks"
"true","fullscreen","0","9876","0.0-0.0","","","","","","","","","","","","","","","","","","","","","",""
"","pavlovia","1","9884","0.0-1.0","","","","","","","","","","","","","","","","","","","","","",""
"","html-keyboard-response","2","37857","0.0-2.0","27967.10000014305","<div class='center'><p>Welcome! This is the first day of the experiment which will last ~30 minutes. In this experiment, you are the head captain of a pirate ship traveling around the world to different places. You will complete several different tasks during this experiment. Here is an overview of these tasks:</p><br><p>Day 1</p><p>1. Tutorial and quiz</p><p>2. Pick a pirate game in 6 different places</p><br><p>Day 2</p><p>3. Pick a pirate game and memory game</p><p>4. Final questions and payment</p><br><p>If you complete the entire experiment, you will receive $15 and a possible bonus payment.</p><p><b>[Press the space bar to begin the tutorial]</b></p></div>","32","6110bae2a45ceab03f2912e0","","","","","","","","","","","","","","","","","",""
"","html-keyboard-response","3","55941","0.0-3.0","18080.799999952316","<div class='center'><p>You’ll stop at these 6 islands on your journey. You'll be able to see them in the distance from your ship.</p><p><img src='run_exp/static/images/contexts/all_contexts.png' height='500'></p><p><b>[Press the space bar to continue]</b></p></div>","32","","","","","","","","","","","","","","","","","","",""
"","html-keyboard-response","4","64873","0.0-4.0","8929.400000095367","<div class='center'><p> The pirates on your ship will rob other ships as they leave island</p> These ships have just sold their things to the people living on the island, so they will have lots and lots of gold on them.</p><p><img src='run_exp/static/images/tutorial/ship_center.png' height='400'></p><p><b>[Press the space bar to continue]</b></p></div>","32","","","","","","","","","","","","","","","","","","",""
"","html-keyboard-response","5","103005","0.0-5.0","38128.5","<div class='center'><p>As the head captain, you do not have to rob any ships yourself.</p><p>Another pirate will be doing the robbing for you. </p><p><img src='run_exp/static/images/tutorial/pirates_all_crop.png' height='200'></p><p>If they could rob the ship, then you will get a stack of gold coins like this:</p><p><img src='run_exp/static/images/tutorial/reward.png' height='150'></p><p> If they couldn't rob the ship, then you will get no gold coins and you'll see a big red x like this: </p><p><img src='run_exp/static/images/tutorial/reward_no.png' height='150'></p><p> How much bonus money you make is based on how many gold coins you collect.</p><p><b>[Press the space bar to continue]</b></p><div>","32","","","","","","","","","","","","","","","","","","",""
"","html-keyboard-response","6","123113","0.0-6.0","20104.400000095367","<div class='center'><p>Even the most skilled pirate can not rob EVERY ship.</p><p> Some ships will have very strong defenses against pirate attacks.</p><p> For example, blue beard, here, is very, very good at robbing ships.</p><p> You can press the <b>‘1’</b> button on the keyboard to choose him.</p><p> Try choosing him 10 times to see how often he can rob a ship. </p><p><img src='run_exp/static/images/tutorial/blue.png' height='500'></p></div>","49","","","","","","","","","","","","","","","","","","",""
"","html-keyboard-response","7","124616","0.0-7.0","null","<div class='center'><p><img src='run_exp/static/images/tutorial/blue_win.png' height='500'></p></div>","null","","","","","","","","","","","","","","","","","","",""
"","html-keyboard-response","8","128214","0.0-8.0","3596.300000190735","<div class='center'><img src='run_exp/static/images/tutorial/blue.png' height='500'></p></div>","49","","","","","","","","","","","","","","","","","","",""
"","html-keyboard-response","9","129725","0.0-9.0","null","<div class='center'><p><img src='run_exp/static/images/tutorial/blue_win.png' height='500'></p></div>","null","","","","","","","","","","","","","","","","","","",""
"","html-keyboard-response","10","132473","0.0-10.0","2746.4000000953674","<div class='center'><img src='run_exp/static/images/tutorial/blue.png' height='500'></p></div>","49","","","","","","","","","","","","","","","","","","",""
"","html-keyboard-response","11","133979","0.0-11.0","null","<div class='center'><p><img src='run_exp/static/images/tutorial/blue_win.png' height='500'></p></div>","null","","","","","","","","","","","","","","","","","","",""
"","html-keyboard-response","12","134517","0.0-12.0","536.7000000476837","<div class='center'><img src='run_exp/static/images/tutorial/blue.png' height='500'></p></div>","49","","","","","","","","","","","","","","","","","","",""
"","html-keyboard-response","13","136030","0.0-13.0","null","<div class='center'><p><img src='run_exp/static/images/tutorial/blue_no_win.png' height='500'></p></div>","null","","","","","","","","","","","","","","","","","","",""
"","html-keyboard-response","14","138848","0.0-14.0","2816","<div class='center'><img src='run_exp/static/images/tutorial/blue.png' height='500'></p></div>","49","","","","","","","","","","","","","","","","","","",""
"","html-keyboard-response","15","140363","0.0-15.0","null","<div class='center'><p><img src='run_exp/static/images/tutorial/blue_win.png' height='500'></p></div>","null","","","","","","","","","","","","","","","","","","",""
"","html-keyboard-response","16","141397","0.0-16.0","1032.3999998569489","<div class='center'><img src='run_exp/static/images/tutorial/blue.png' height='500'></p></div>","49","","","","","","","","","","","","","","","","","","",""
"","html-keyboard-response","17","142909","0.0-17.0","null","<div class='center'><p><img src='run_exp/static/images/tutorial/blue_win.png' height='500'></p></div>","null","","","","","","","","","","","","","","","","","","",""
"","html-keyboard-response","18","143912","0.0-18.0","1001.2999999523163","<div class='center'><img src='run_exp/static/images/tutorial/blue.png' height='500'></p></div>","49","","","","","","","","","","","","","","","","","","",""
"","html-keyboard-response","19","145428","0.0-19.0","null","<div class='center'><p><img src='run_exp/static/images/tutorial/blue_win.png' height='500'></p></div>","null","","","","","","","","","","","","","","","","","","",""
"","html-keyboard-response","20","147706","0.0-20.0","2276.100000143051","<div class='center'><img src='run_exp/static/images/tutorial/blue.png' height='500'></p></div>","49","","","","","","","","","","","","","","","","","","",""
"","html-keyboard-response","21","149217","0.0-21.0","null","<div class='center'><p><img src='run_exp/static/images/tutorial/blue_no_win.png' height='500'></p></div>","null","","","","","","","","","","","","","","","","","","",""
"","html-keyboard-response","22","150586","0.0-22.0","1367.6999998092651","<div class='center'><img src='run_exp/static/images/tutorial/blue.png' height='500'></p></div>","49","","","","","","","","","","","","","","","","","","",""
"","html-keyboard-response","23","152089","0.0-23.0","null","<div class='center'><p><img src='run_exp/static/images/tutorial/blue_win.png' height='500'></p></div>","null","","","","","","","","","","","","","","","","","","",""
"","html-keyboard-response","24","152866","0.0-24.0","776","<div class='center'><img src='run_exp/static/images/tutorial/blue.png' height='500'></p></div>","49","","","","","","","","","","","","","","","","","","",""
"","html-keyboard-response","25","154367","0.0-25.0","null","<div class='center'><p><img src='run_exp/static/images/tutorial/blue_win.png' height='500'></p></div>","null","","","","","","","","","","","","","","","","","","",""
"","html-keyboard-response","26","158370","0.0-26.0","4002.2999999523163","<div class='center'><p> See, he could rob the ships most of the time but not every time. </p><p><b>[Press the space bar to continue]</b></p></div>","32","","","","","","","","","","","","","","","","","","",""
"","html-keyboard-response","27","174299","0.0-27.0","15927.799999952316","<div class='center'><p>You will get to choose which of three pirates you want to rob the next ship. <p>Press the <b>‘1’</b> button on your keyboard to pick the pirate with the red beard.</p><p> Press <b>‘2’</b> to pick the pirate with the white beard.</p><p> Press <b>‘3’</b> to pick the pirate with the black beard.</p><p>Try picking a pirate now!</p><p><img src='run_exp/static/images/tutorial/all_pirates.png' height='500'></p></div>","50","","","","","","","","","","","","","","","","","","",""
"","html-keyboard-response","28","177604","0.0-28.0-0.0","3301.7000000476837","<div class='center'><p>This pirate could rob the ship!</p><p><img src='run_exp/static/images/tutorial/white_win.png' height='500'></p><p><b>[Press the space bar to continue]</b></p></div>","32","","","","","","","","","","","","","","","","","","",""
"","html-keyboard-response","29","181536","0.0-28.0-1.0","3930.199999809265","<div class='center'><p>Now try choosing another</p><p><img src='run_exp/static/images/tutorial/all_pirates.png' height='500'></p></div>","51","","","","","","","","","","","","","","","","","","",""
"","html-keyboard-response","30","183607","0.0-29.0-0.0","2067.7999999523163","<div class='center'><p>This pirate could not rob the ship!</p><p><img src='run_exp/static/images/tutorial/black_no_win.png' height='500'></p><p><b>[Press the space bar to continue]</b></p></div>","32","","","","","","","","","","","","","","","","","","",""
"","html-keyboard-response","31","189889","0.0-30.0-0.0","6280.400000095367","<div class='center'><p>If you don’t make your choice fast enough, you’ll have to wait a few seconds before you can make another one. </p><p>You can’t collect more gold coins. You just have to sit and wait.</p><p><img src='run_exp/static/images/miscellaneous/hurry_up.png' height='500'></p><p><b>[Press the space bar to continue]</b></p></div>","32","","","","","","","","","","","","","","","","","","",""
"","html-keyboard-response","32","228836","0.0-30.0-1.0","38944.299999952316","<div class='center'><p>Once you choose a pirate, you’ll be shown the ship they are robbing.</p><p>You will never rob the same ship twice.</p><p>Ships can be told apart from one another by the image on them.</p><p> Every time you see a ship, you will have to remember on which island you saw it.</p><p> Remembering correctly will help you win more bonus money!</p><p>A helpful strategy is to try to come up with a story of the object on the ship interacting with the current island scene.</p><p> For example, here, you could imagine a mug full of water in the desert. </p><p>For a ship with an apple on it on the forest island, you could imagine an apple falling from a tree in the forest.</p><p><img src='run_exp/static/images/tutorial/example_probe.png' height='500'></p><p><b>[Press the space bar to continue]</b></p></div>","32","","","","","","","","","","","","","","","","","","",""
"","html-keyboard-response","33","236213","0.0-30.0-2.0","7375.399999856949","<div class='center'><p>How good a pirate is at robbing ships will depend on the current island.</p><p> A pirate may have visited the island many times before and gained a lot of practice robbing ships there.</p><p>So, they're more likely to bring back gold coins than a pirate who has never visited this island before. </p><p><b>[Press the space bar to continue]</b></p></div>","32","","","","","","","","","","","","","","","","","","",""
"","html-keyboard-response","34","251531","0.0-30.0-3.0","15317.200000047684","<div class='center'><p>How good a pirate is at robbing ships can also change over the time spent on the island<p> Ships may hear from islanders about the pirates coming and will improve their protection against the attack. This may make it harder to rob them.</p><p> Ships may also become lazy and lower their protection. This may make it easier to rob them.</p><br><p>Things are always changing on the high seas! So, try your best to pay attention!</p><p><img src='run_exp/static/images/tutorial/contingency.png' height='500'></p><p><b>[Press the space bar to continue]</b></p></div>","32","","","","","","","","","","","","","","","","","","",""
"","html-keyboard-response","35","289983","0.0-30.0-4.0","38451.200000047684","<div class='center'><p>Let's go over the instructions quickly again.You have two important things to do: </p><b><p> 1. Pick the pirate who is the best at robbing ships on the current island.</p></b><b><p> 2. Remember on which island a ship was robbed.</p> </b><p>How much bonus money you make is based on both. </p><br><p>Let’s try a practice game. The game will start by showing you the pirates. First pick a pirate using the <b> 1, 2, 3 </b> buttons on your keyboard. When you are shown a ship, try to remember the island you’re on by making up a story.</p><p> You only have 3 seconds to pick a pirate, so please make a choice quickly! If you are too slow, you’ll have to wait a bit during the time out.</p><p> Don’t feel rushed, but please do try to make a choice every time.</p><p>This is just a practice game, so you’re not playing for money. </p><p> Good luck, remember press <b>'1'</b> to choose red beard, <b>'2'</b> to choose white beard, and <b>'3'</b> to choose black beard</p><p><b>[Press the space bar to begin the practice game]</b></p></div>","32","","","","","","","","","","","","","","","","","","",""
"","do_welcome","36","291498","0.0-30.0-5.0","null","","","","null","","","","","","","","","","","","","","","","",""
"","do_trial","37","296871","0.0-30.0-6.0","849.1999998092651","","","","50","1,0,0","","","","","","","","","","","","","","","",""
"","html-keyboard-response","38","297880","0.0-31.0-0.0","null","<p></p>","null","","","","","","","","","","","","","","","","","","",""
"","do_trial","39","305265","0.0-31.0-1.0","2871.9000000953674","","","","49","1,1,0","","","","","","","","","","","","","","","",""
"","html-keyboard-response","40","306277","0.0-32.0-0.0","null","<p></p>","null","","","","","","","","","","","","","","","","","","",""
"","do_trial","41","313094","0.0-32.0-1.0","2295.199999809265","","","","49","1,0,1","","","","","","","","","","","","","","","",""
"","html-keyboard-response","42","314108","0.0-33.0-0.0","null","<p></p>","null","","","","","","","","","","","","","","","","","","",""
"","do_trial","43","321210","0.0-33.0-1.0","2584.399999856949","","","","49","0,1,0","","","","","","","","","","","","","","","",""
"","html-keyboard-response","44","322221","0.0-34.0-0.0","null","<p></p>","null","","","","","","","","","","","","","","","","","","",""
"","do_trial","45","327751","0.0-34.0-1.0","1017.5","","","","51","1,0,0","","","","","","","","","","","","","","","",""
"","do_bye","46","329270","0.0-35.0-0.0","null","","","","null","","","","","","","","","","","","","","","","",""
"","do_travel","47","335276","0.0-35.0-1.0","null","","","","null","","","","","","","","","","","","","","","","",""
"","do_welcome","48","336799","0.0-35.0-2.0","null","","","","null","","","","","","","","","","","","","","","","",""
"","do_trial","49","342359","0.0-35.0-3.0","1040.7000000476837","","","","50","1,0,0","","","","","","","","","","","","","","","",""
"","html-keyboard-response","50","343363","0.0-36.0-0.0","null","<p></p>","null","","","","","","","","","","","","","","","","","","",""
"","do_trial","51","348246","0.0-36.0-1.0","362.2000000476837","","","","51","1,0,1","","","","","","","","","","","","","","","",""
"","html-keyboard-response","52","349254","0.0-37.0-0.0","null","<p></p>","null","","","","","","","","","","","","","","","","","","",""
"","do_trial","53","354170","0.0-37.0-1.0","377.7000000476837","","","","51","1,1,0","","","","","","","","","","","","","","","",""
"","html-keyboard-response","54","355183","0.0-38.0-0.0","null","<p></p>","null","","","","","","","","","","","","","","","","","","",""
"","do_trial","55","360759","0.0-38.0-1.0","1060.3000001907349","","","","49","0,0,1","","","","","","","","","","","","","","","",""
"","html-keyboard-response","56","361769","0.0-39.0-0.0","null","<p></p>","null","","","","","","","","","","","","","","","","","","",""
"","do_trial","57","366627","0.0-39.0-1.0","334.09999990463257","","","","50","1,0,1","","","","","","","","","","","","","","","",""
"","html-keyboard-response","58","373274","0.0-40.0-0.0","6644.399999856949","<div class='center'><p><img src='run_exp/static/images/tutorial/prac_best_pirate.png'  height='500'></p></div>","49","","","","","","","","","","","","","","","","","","",""
"","html-keyboard-response","59","378209","0.0-41.0-0.0","4933.799999952316","<div class='center'><p>That's correct! Red beard was the best.</p><p><b>[Press the space bar to continue]</b></p></div>","32","","","","","","","","","","","","","","","","","","",""
"","html-keyboard-response","60","392395","0.0-41.0-1.0","14183.899999856949","<div class='center'><p><img src='run_exp/static/images/tutorial/prac_source.png'  height='500'></p></div>","50","","","","","","","","","","","","","","","","","","",""
"","html-keyboard-response","61","393626","0.0-42.0-0.0","1228.7000000476837","<div class='center'><p>That's correct! You saw this ship on the cavern island.</p><p><b>[Press the space bar to continue]</b></p></div>","32","","","","","","","","","","","","","","","","","","",""
"","html-keyboard-response","62","400611","0.0-42.0-1.0","6983.5","<div class='center'><p>Good job on the practice game! Now, you will be asked you some true or false questions to make sure you really understand the rules of the game.</p><p> Press <b>'1'</b> on the keyboard for true and press <b>'2'</b> for false.</p><p><b>[Press the space bar to begin the quiz]</b></p></div>","32","","","","","","","","","","","","","","","","","","",""
"","html-keyboard-response","63","404504","0.0-42.0-2.0","3892.100000143051","<div class='center'><p>You win bonus money by making choices as fast as possible.</p><p>Press 1 for true and press  2 for false.</p></div>","50","","","","","","","","","","","","","","","","","","",""
"","html-keyboard-response","64","405361","0.0-43.0-0.0","854.1000001430511","<div class='center'><p>That's correct!</p> <p><b>[press the space bar to continue with the quiz]</b></p></div>","32","","","","","","","","","","","","","","","","","","",""
"","html-keyboard-response","65","410411","0.0-43.0-1.0","5049.900000095367","<div class='center'><p>You press the <b>‘3’</b> button on the keyboard to choose the red bearded pirate. </p><p>Press 1 for true and press  2 for false.</p></div>","50","","","","","","","","","","","","","","","","","","",""
"","html-keyboard-response","66","411588","0.0-44.0-0.0","1174.6999998092651","<div class='center'><p>That's correct!</p> <p><b>[press the space bar to continue with the quiz]</b></p></div>","32","","","","","","","","","","","","","","","","","","",""
"","html-keyboard-response","67","416230","0.0-44.0-1.0","4640.299999952316","<div class='center'><p>The pirate who is the best at robbing ships on the first island will be the best on every other island.</p><p>Press 1 for true and press  2 for false.</p></div>","50","","","","","","","","","","","","","","","","","","",""
"","html-keyboard-response","68","416977","0.0-45.0-0.0","745","<div class='center'><p>That's correct!</p> <p><b>[press the space bar to continue with the quiz]</b></p></div>","32","","","","","","","","","","","","","","","","","","",""
"","html-keyboard-response","69","421275","0.0-45.0-1.0","4296.599999904633","<div class='center'><p>You should remember the island where a pirate robbed a ship.</p><p>Press 1 for true and press  2 for false.</p></div>","49","","","","","","","","","","","","","","","","","","",""
"","html-keyboard-response","70","421815","0.0-46.0-0.0","533.7999999523163","<div class='center'><p>That's correct!</p> <p><b>[press the space bar to continue with the quiz]</b></p></div>","32","","","","","","","","","","","","","","","","","","",""
"","html-keyboard-response","71","434778","0.0-47.0-0.0","12961","<div class='center'><p>Good job! You’re now ready to move on to the real game!</p> <p><br>[press the space bar to begin!]</br></p></div>","32","","","","","","","","","","","","","","","","","","",""
"","do_welcome","72","436301","0.0-48.0-0.0","null","","","","null","","","","","","","","","","","","","","","","",""
"","do_trial","73","442396","0.0-49.0-0.0","null","","","","null","1,0,1","0","city","0","probe-219","0.6","0.3","0.1","","","","","","","","",""
"","html-keyboard-response","74","443405","0.0-49.0-1.0","null","<p></p>","null","","","","","","","","","","","","","","","","","","",""
"","do_trial","75","448630","0.0-50.0-0.0","676","","","","50","0,0,1","0","city","1","probe-93","0.8073426107678455","0.2411553404568282","0.15021220202324007","0","","","","","","","",""
"","html-keyboard-response","76","449642","0.0-50.0-1.0","null","<p></p>","null","","","","","","","","","","","","","","","","","","",""
"","do_trial","77","454523","0.0-51.0-0.0","327","","","","49","0,0,0","0","city","2","probe-51","0.8065527721018864","0.21218599660083187","0.1465099839122397","0","","","","","","","",""
"","html-keyboard-response","78","455535","0.0-51.0-1.0","null","<p></p>","null","","","","","","","","","","","","","","","","","","",""
"","do_trial","79","460510","0.0-52.0-0.0","427.5","","","","51","1,0,0","0","city","3","probe-187","0.5832457141476612","0.30438477386844703","0.14472485706737254","0","","","","","","","",""
"","html-keyboard-response","80","461517","0.0-52.0-1.0","null","<p></p>","null","","","","","","","","","","","","","","","","","","",""
"","do_trial","81","466636","0.0-53.0-0.0","563.9000000953674","","","","50","1,0,0","0","city","4","probe-203","0.5203773841057735","0.39660175691670324","0.11509692632694404","0","","","","","","","",""
"","html-keyboard-response","82","467644","0.0-53.0-1.0","null","<p></p>","null","","","","","","","","","","","","","","","","","","",""
"","do_trial","83","474166","0.0-54.0-0.0","1918","","","","49","1,0,0","0","city","5","probe-127","0.5387957488518983","0.22701563437824085","0.07405516266704662","1","","","","","","","",""
"","html-keyboard-response","84","475174","0.0-54.0-1.0","null","<p></p>","null","","","","","","","","","","","","","","","","","","",""
"","do_trial","85","480395","0.0-55.0-0.0","601.9000000953674","","","","49","1,0,0","0","city","6","probe-40","0.6044208174147121","0.29016869914721977","0.3040561069797238","1","","","","","","","",""
"","html-keyboard-response","86","481402","0.0-55.0-1.0","null","<p></p>","null","","","","","","","","","","","","","","","","","","",""
"","do_trial","87","486718","0.0-56.0-0.0","735.0999999046326","","","","49","1,1,0","0","city","7","probe-224","0.6181524111194807","0.4402429548559533","0.2870613160745717","1","","","","","","","",""
"","html-keyboard-response","88","487723","0.0-56.0-1.0","null","<p></p>","null","","","","","","","","","","","","","","","","","","",""
"","do_trial","89","493311","0.0-57.0-0.0","1026.5999999046326","","","","49","1,0,0","0","city","8","probe-28","0.6218046287507402","0.47177291533185217","0.1702301287352902","1","","","","","","","",""
"","html-keyboard-response","90","494316","0.0-57.0-1.0","null","<p></p>","null","","","","","","","","","","","","","","","","","","",""
"","do_trial","91","499321","0.0-58.0-0.0","451.59999990463257","","","","49","1,0,0","0","city","9","probe-66","0.5700377947155245","0.37125948993648095","0.24970516972751022","1","","","","","","","",""
"","html-keyboard-response","92","500330","0.0-58.0-1.0","null","<p></p>","null","","","","","","","","","","","","","","","","","","",""
"","do_trial","93","505517","0.0-59.0-0.0","629.8999998569489","","","","49","0,0,1","0","city","10","probe-117","0.517784702755322","0.35416502016158424","0.19134326929801349","0","","","","","","","",""
"","html-keyboard-response","94","506529","0.0-59.0-1.0","null","<p></p>","null","","","","","","","","","","","","","","","","","","",""
"","do_trial","95","512387","0.0-60.0-0.0","1308","","","","49","0,1,0","0","city","11","probe-19","0.5866199509389116","0.4526118416901364","0.1329299704508046","0","","","","","","","",""
"","html-keyboard-response","96","513398","0.0-60.0-1.0","null","<p></p>","null","","","","","","","","","","","","","","","","","","",""
"","do_trial","97","518360","0.0-61.0-0.0","377.7000000476837","","","","51","1,1,0","0","city","12","probe-202","0.6336361226290795","0.4802936621842019","0.1315459158123359","0","","","","","","","",""
"","html-keyboard-response","98","519376","0.0-61.0-1.0","null","<p></p>","null","","","","","","","","","","","","","","","","","","",""
"","do_trial","99","524683","0.0-62.0-0.0","767.3999998569489","","","","50","1,0,0","0","city","13","probe-35","0.6501535509855851","0.40567421447144214","0.1194987112535751","0","","","","","","","",""
"","html-keyboard-response","100","525689","0.0-62.0-1.0","null","<p></p>","null","","","","","","","","","","","","","","","","","","",""
"","do_trial","101","531447","0.0-63.0-0.0","1162.4000000953674","","","","49","1,1,0","0","city","14","probe-161","0.4813061061165827","0.42261471582058546","0.07456987859146383","1","","","","","","","",""
"","html-keyboard-response","102","532460","0.0-63.0-1.0","null","<p></p>","null","","","","","","","","","","","","","","","","","","",""
"","do_trial","103","537488","0.0-64.0-0.0","451.39999985694885","","","","49","1,1,0","0","city","15","probe-31","0.4525090561350495","0.3402982471693261","0.07657756775437559","1","","","","","","","",""
"","html-keyboard-response","104","538500","0.0-64.0-1.0","null","<p></p>","null","","","","","","","","","","","","","","","","","","",""
"","do_trial","105","543431","0.0-65.0-0.0","327","","","","49","0,1,0","0","city","16","probe-213","0.44059552534847984","0.43337851555463747","0.11028627759351381","0","","","","","","","",""
"","html-keyboard-response","106","544438","0.0-65.0-1.0","null","<p></p>","null","","","","","","","","","","","","","","","","","","",""
"","do_trial","107","549311","0.0-66.0-0.0","304.7999999523163","","","","49","1,0,0","0","city","17","probe-86","0.4891718920005548","0.428289968805385","0.22256476767922706","1","","","","","","","",""
"","html-keyboard-response","108","550326","0.0-66.0-1.0","null","<p></p>","null","","","","","","","","","","","","","","","","","","",""
"","do_trial","109","556409","0.0-67.0-0.0","1540.1999998092651","","","","49","1,0,0","0","city","18","probe-152","0.4955229989564594","0.34856193534245244","0.06899470838192917","1","","","","","","","",""
"","html-keyboard-response","110","557418","0.0-67.0-1.0","null","<p></p>","null","","","","","","","","","","","","","","","","","","",""
"","do_trial","111","562618","0.0-68.0-0.0","606.2000000476837","","","","49","0,0,0","0","city","19","probe-69","0.5346529019728898","0.36625791503993954","0.1682361165400239","0","","","","","","","",""
"","html-keyboard-response","112","563628","0.0-68.0-1.0","null","<p></p>","null","","","","","","","","","","","","","","","","","","",""
"","do_trial","113","568571","0.0-69.0-0.0","372.40000009536743","","","","49","0,0,1","0","city","20","probe-49","0.6186618119149162","0.38278837396541254","0.11804489348976986","0","","","","","","","",""
"","html-keyboard-response","114","569583","0.0-69.0-1.0","null","<p></p>","null","","","","","","","","","","","","","","","","","","",""
"","do_trial","115","575137","0.0-70.0-0.0","910.1000001430511","","","","49","0,0,0","0","city","21","probe-77","0.6883501344945883","0.3311532635647453","0.06022770097404201","0","","","","","","","",""
"","html-keyboard-response","116","576149","0.0-70.0-1.0","null","<p></p>","null","","","","","","","","","","","","","","","","","","",""
"","do_trial","117","581003","0.0-71.0-0.0","285.10000014305115","","","","50","1,0,0","0","city","22","probe-41","0.7049397518522728","0.22107660868697993","0.12273286175542836","0","","","","","","","",""
"","html-keyboard-response","118","582017","0.0-71.0-1.0","null","<p></p>","null","","","","","","","","","","","","","","","","","","",""
"","do_trial","119","586981","0.0-72.0-0.0","377","","","","51","1,1,0","0","city","23","probe-116","0.6998310015336244","0.28605789594873543","0.1639678331713511","0","","","","","","","",""
"","html-keyboard-response","120","587994","0.0-72.0-1.0","null","<p></p>","null","","","","","","","","","","","","","","","","","","",""
"","do_trial","121","592924","0.0-73.0-0.0","300.7000000476837","","","","49","1,0,0","0","city","24","probe-52","0.5533290871445266","0.3621804679897413","0.0719690189203955","1","","","","","","","",""
"","html-keyboard-response","122","593930","0.0-73.0-1.0","null","<p></p>","null","","","","","","","","","","","","","","","","","","",""
"","do_trial","123","599454","0.0-74.0-0.0","940.0999999046326","","","","49","1,0,0","0","city","25","probe-50","0.5956518613944148","0.346485005848983","0.12389871789722261","1","","","","","","","",""
"","html-keyboard-response","124","600461","0.0-74.0-1.0","null","<p></p>","null","","","","","","","","","","","","","","","","","","",""
"","do_trial","125","606495","0.0-75.0-0.0","1418.2999999523163","","","","49","1,0,0","0","city","26","probe-12","0.5600080075779069","0.30467801647408244","0.1268358063945991","1","","","","","","","",""
"","html-keyboard-response","126","607503","0.0-75.0-1.0","null","<p></p>","null","","","","","","","","","","","","","","","","","","",""
"","do_trial","127","614343","0.0-76.0-0.0","2244.7999999523163","","","","49","0,1,0","0","city","27","probe-129","0.5718403389608454","0.4559153694865769","0.08580824932110119","0","","","","","","","",""
"","html-keyboard-response","128","615354","0.0-76.0-1.0","null","<p></p>","null","","","","","","","","","","","","","","","","","","",""
"","do_trial","129","620841","0.0-77.0-0.0","932.5999999046326","","","","49","0,1,0","0","city","28","probe-132","0.5644875561258141","0.4702191229270147","0.0610649979000047","0","","","","","","","",""
"","html-keyboard-response","130","621846","0.0-77.0-1.0","null","<p></p>","null","","","","","","","","","","","","","","","","","","",""
"","do_trial","131","626830","0.0-78.0-0.0","386","","","","49","0,1,0","0","city","29","probe-10","0.551463758274618","0.3526203277979126","0.22751160270766302","0","","","","","","","",""
"","html-keyboard-response","132","627842","0.0-78.0-1.0","null","<p></p>","null","","","","","","","","","","","","","","","","","","",""
"","do_bye","133","629361","0.0-79.0-0.0","null","","","","null","","","","","","","","","","","","","","","","",""
"","do_travel","134","635370","0.0-80.0-0.0","null","","","","null","","","","","","","","","","","","","","","","",""
"","do_welcome","135","636893","0.0-80.0-1.0","null","","","","null","","","","","","","","","","","","","","","","",""
"","do_trial","136","642564","0.0-81.0-0.0","1117.2999999523163","","","","51","1,0,0","1","highway","30","probe-80","1","0.361023991587966","0.3366126321175779","0","","","","","","","",""
"","html-keyboard-response","137","643577","0.0-81.0-1.0","null","<p></p>","null","","","","","","","","","","","","","","","","","","",""
"","do_trial","138","648518","0.0-82.0-0.0","330.89999985694885","","","","51","1,0,0","1","highway","31","probe-22","1","0.31989681785198804","0.23781702118551662","0","","","","","","","",""
"","html-keyboard-response","139","649531","0.0-82.0-1.0","null","<p></p>","null","","","","","","","","","","","","","","","","","","",""
"","do_trial","140","654416","0.0-83.0-0.0","336.60000014305115","","","","50","1,0,1","1","highway","32","probe-98","1","0.2931061317600671","0.23212444297604098","0","","","","","","","",""
"","html-keyboard-response","141","655423","0.0-83.0-1.0","null","<p></p>","null","","","","","","","","","","","","","","","","","","",""
"","do_trial","142","660849","0.0-84.0-0.0","847.8999998569489","","","","50","1,0,0","1","highway","33","probe-11","0.8873443870065727","0.21846792953495772","0.1355549115833437","0","","","","","","","",""
"","html-keyboard-response","143","661860","0.0-84.0-1.0","null","<p></p>","null","","","","","","","","","","","","","","","","","","",""
"","do_trial","144","666734","0.0-85.0-0.0","328.5","","","","49","1,0,0","1","highway","34","probe-149","0.7526993299281189","0.14737676603813196","0.17049121676331644","1","","","","","","","",""
"","html-keyboard-response","145","667746","0.0-85.0-1.0","null","<p></p>","null","","","","","","","","","","","","","","","","","","",""
"","do_trial","146","672682","0.0-86.0-0.0","366.7999999523163","","","","49","1,0,0","1","highway","35","probe-100","0.5919924243518158","0.10640108497461735","0.09351100466502259","1","","","","","","","",""
"","html-keyboard-response","147","673691","0.0-86.0-1.0","null","<p></p>","null","","","","","","","","","","","","","","","","","","",""
"","do_trial","148","678806","0.0-87.0-0.0","564.7000000476837","","","","49","1,0,1","1","highway","36","probe-139","0.5537143730024104","0.14007058991204438","0.18485783359993793","1","","","","","","","",""
"","html-keyboard-response","149","679816","0.0-87.0-1.0","null","<p></p>","null","","","","","","","","","","","","","","","","","","",""
"","do_trial","150","684720","0.0-88.0-0.0","295.5","","","","49","1,1,0","1","highway","37","probe-72","0.5983377711491663","0.1460203407559114","0.13135778597155465","1","","","","","","","",""
"","html-keyboard-response","151","685733","0.0-88.0-1.0","null","<p></p>","null","","","","","","","","","","","","","","","","","","",""
"","do_trial","152","690986","0.0-89.0-0.0","681.3000001907349","","","","49","1,0,0","1","highway","38","probe-131","0.7260797465915301","0.18960881640318572","0.20259793921408714","1","","","","","","","",""
"","html-keyboard-response","153","691997","0.0-89.0-1.0","null","<p></p>","null","","","","","","","","","","","","","","","","","","",""
"","do_trial","154","697719","0.0-90.0-0.0","1133.7000000476837","","","","49","0,0,0","1","highway","39","probe-122","0.5971999176731141","0.381443448393281","0.1679363047237514","0","","","","","","","",""
"","html-keyboard-response","155","698730","0.0-90.0-1.0","null","<p></p>","null","","","","","","","","","","","","","","","","","","",""
"","do_trial","156","704189","0.0-91.0-0.0","862.5999999046326","","","","49","0,1,0","1","highway","40","probe-82","0.5695991289677622","0.295960851444415","0.20936623490969117","0","","","","","","","",""
"","html-keyboard-response","157","705200","0.0-91.0-1.0","null","<p></p>","null","","","","","","","","","","","","","","","","","","",""
"","do_trial","158","710356","0.0-92.0-0.0","573.5","","","","49","1,0,0","1","highway","41","probe-136","0.5515034607157263","0.2641704440586522","0.2588090752376245","1","","","","","","","",""
"","html-keyboard-response","159","711363","0.0-92.0-1.0","null","<p></p>","null","","","","","","","","","","","","","","","","","","",""
"","do_trial","160","716426","0.0-93.0-0.0","449.09999990463257","","","","49","0,1,0","1","highway","42","probe-15","0.33253674027188035","0.36330738101849513","0.37565962918840984","0","","","","","","","",""
"","html-keyboard-response","161","717439","0.0-93.0-1.0","null","<p></p>","null","","","","","","","","","","","","","","","","","","",""
"","do_trial","162","722649","0.0-94.0-0.0","629.5","","","","49","0,0,1","1","highway","43","probe-75","0.28777792951218834","0.49221875988582314","0.4408269401600969","0","","","","","","","",""
"","html-keyboard-response","163","723658","0.0-94.0-1.0","null","<p></p>","null","","","","","","","","","","","","","","","","","","",""
"","do_trial","164","729253","0.0-95.0-0.0","971.2999999523163","","","","49","1,1,0","1","highway","44","probe-73","0.20482426032014378","0.5485996803308223","0.5749717086976813","1","","","","","","","",""
"","html-keyboard-response","165","730262","0.0-95.0-1.0","null","<p></p>","null","","","","","","","","","","","","","","","","","","",""
"","do_trial","166","735481","0.0-96.0-0.0","631.1999998092651","","","","49","0,0,1","1","highway","45","probe-103","0.20461621890778964","0.5568514165796608","0.53607830317871","0","","","","","","","",""
"","html-keyboard-response","167","736490","0.0-96.0-1.0","null","<p></p>","null","","","","","","","","","","","","","","","","","","",""
"","do_trial","168","742869","0.0-97.0-0.0","1783.6999998092651","","","","49","0,1,1","1","highway","46","probe-147","0.1873646410677482","0.5747890984900474","0.39628022151973574","0","","","","","","","",""
"","html-keyboard-response","169","743879","0.0-97.0-1.0","null","<p></p>","null","","","","","","","","","","","","","","","","","","",""
"","do_trial","170","750172","0.0-98.0-0.0","1737.5999999046326","","","","49","0,0,1","1","highway","47","probe-09","0.13452225694071296","0.5511890165612529","0.39769506757306367","0","","","","","","","",""
"","html-keyboard-response","171","751181","0.0-98.0-1.0","null","<p></p>","null","","","","","","","","","","","","","","","","","","",""
"","do_trial","172","757315","0.0-99.0-0.0","1536.3999998569489","","","","50","0,1,0","1","highway","48","probe-54","0.08089802286357321","0.6011814149314981","0.35945545856566624","1","","","","","","","",""
"","html-keyboard-response","173","758326","0.0-99.0-1.0","null","<p></p>","null","","","","","","","","","","","","","","","","","","",""
"","do_trial","174","763897","0.0-100.0-0.0","992.4000000953674","","","","50","0,1,0","1","highway","49","probe-27","0.3119335148464475","0.6364401086561209","0.26934114079914084","1","","","","","","","",""
"","html-keyboard-response","175","764906","0.0-100.0-1.0","null","<p></p>","null","","","","","","","","","","","","","","","","","","",""
"","do_trial","176","770318","0.0-101.0-0.0","816.8999998569489","","","","50","0,0,0","1","highway","50","probe-17","0.2461126796358441","0.6522111906445207","0.2975190281783117","0","","","","","","","",""
"","html-keyboard-response","177","771326","0.0-101.0-1.0","null","<p></p>","null","","","","","","","","","","","","","","","","","","",""
"","do_trial","178","776338","0.0-102.0-0.0","409.90000009536743","","","","49","1,1,1","1","highway","51","probe-08","0.22651432723068432","0.8226407929178257","0.30383714724201194","1","","","","","","","",""
"","html-keyboard-response","179","777349","0.0-102.0-1.0","null","<p></p>","null","","","","","","","","","","","","","","","","","","",""
"","do_trial","180","782406","0.0-103.0-0.0","444.5","","","","49","0,1,1","1","highway","52","probe-199","0.2504779188441129","0.7013791610186785","0.23371719294464527","0","","","","","","","",""
"","html-keyboard-response","181","783413","0.0-103.0-1.0","null","<p></p>","null","","","","","","","","","","","","","","","","","","",""
"","do_trial","182","788383","0.0-104.0-0.0","373.80000019073486","","","","50","0,1,1","1","highway","53","probe-159","0.2662810519358373","0.591022832294823","0.26888654115258454","1","","","","","","","",""
"","html-keyboard-response","183","789397","0.0-104.0-1.0","null","<p></p>","null","","","","","","","","","","","","","","","","","","",""
"","do_trial","184","795630","0.0-105.0-0.0","1664.9000000953674","","","","50","0,0,0","1","highway","54","probe-223","0.2259641392707217","0.6699705839463976","0.28002653969122976","0","","","","","","","",""
"","html-keyboard-response","185","796641","0.0-105.0-1.0","null","<p></p>","null","","","","","","","","","","","","","","","","","","",""
"","do_trial","186","801958","0.0-106.0-0.0","762.6999998092651","","","","51","0,1,0","1","highway","55","probe-126","0.12772658628439332","0.5832857681482623","0.3153965028707649","0","","","","","","","",""
"","html-keyboard-response","187","802965","0.0-106.0-1.0","null","<p></p>","null","","","","","","","","","","","","","","","","","","",""
"","do_trial","188","807832","0.0-107.0-0.0","316.2999999523163","","","","49","0,1,0","1","highway","56","probe-192","0.12340931397808015","0.6094329230331507","0.35054333363697354","0","","","","","","","",""
"","html-keyboard-response","189","808841","0.0-107.0-1.0","null","<p></p>","null","","","","","","","","","","","","","","","","","","",""
"","do_trial","190","813932","0.0-108.0-0.0","519.3999998569489","","","","50","1,0,0","1","highway","57","probe-170","0.10634284231746129","0.6637647099159165","0.3608922783013509","0","","","","","","","",""
"","html-keyboard-response","191","814945","0.0-108.0-1.0","null","<p></p>","null","","","","","","","","","","","","","","","","","","",""
"","do_trial","192","820188","0.0-109.0-0.0","692.4000000953674","","","","49","0,1,1","1","highway","58","probe-188","0.08197496714025165","0.6717805415360637","0.22211807374214204","0","","","","","","","",""
"","html-keyboard-response","193","821190","0.0-109.0-1.0","null","<p></p>","null","","","","","","","","","","","","","","","","","","",""
"","do_trial","194","826253","0.0-110.0-0.0","514.4000000953674","","","","49","0,0,0","1","highway","59","probe-212","0.055352431624222015","0.6223441544116541","0.40624204337251213","0","","","","","","","",""
"","html-keyboard-response","195","827267","0.0-110.0-1.0","null","<p></p>","null","","","","","","","","","","","","","","","","","","",""
"","do_trial","196","832267","0.0-111.0-0.0","457.09999990463257","","","","50","1,0,1","1","highway","60","probe-112","0.08068061362576114","0.6146750136539304","0.36107734094914135","0","","","","","","","",""
"","html-keyboard-response","197","833278","0.0-111.0-1.0","null","<p></p>","null","","","","","","","","","","","","","","","","","","",""
"","do_trial","198","838313","0.0-112.0-0.0","453.2999999523163","","","","51","0,0,0","1","highway","61","probe-120","0.1171463307191733","0.6101911619013631","0.33902740581981133","0","","","","","","","",""
"","html-keyboard-response","199","839321","0.0-112.0-1.0","null","<p></p>","null","","","","","","","","","","","","","","","","","","",""
"","do_trial","200","844608","0.0-113.0-0.0","705.5","","","","50","0,1,0","1","highway","62","probe-91","0.09405314621777489","0.6148956491524833","0.4122774195698116","1","","","","","","","",""
"","html-keyboard-response","201","845622","0.0-113.0-1.0","null","<p></p>","null","","","","","","","","","","","","","","","","","","",""
"","do_trial","202","850915","0.0-114.0-0.0","720.6000001430511","","","","50","1,0,1","1","highway","63","probe-189","0.08675111946648174","0.6658319577421743","0.4142720440514214","0","","","","","","","",""
"","html-keyboard-response","203","851925","0.0-114.0-1.0","null","<p></p>","null","","","","","","","","","","","","","","","","","","",""
"","do_trial","204","856762","0.0-115.0-0.0","287.7000000476837","","","","49","0,0,1","1","highway","64","probe-183","0.12609487908446165","0.6859255085017033","0.4855551245435043","0","","","","","","","",""
"","html-keyboard-response","205","857772","0.0-115.0-1.0","null","<p></p>","null","","","","","","","","","","","","","","","","","","",""
"","do_trial","206","862797","0.0-116.0-0.0","471.09999990463257","","","","50","0,1,1","1","highway","65","probe-191","0.11665021181119674","0.6969280396212766","0.48662499560030487","1","","","","","","","",""
"","html-keyboard-response","207","863808","0.0-116.0-1.0","null","<p></p>","null","","","","","","","","","","","","","","","","","","",""
"","do_trial","208","870202","0.0-117.0-0.0","1822.9000000953674","","","","50","0,0,1","1","highway","66","probe-13","0.1774522715337292","0.8670871644596776","0.4456146902660991","0","","","","","","","",""
"","html-keyboard-response","209","871213","0.0-117.0-1.0","null","<p></p>","null","","","","","","","","","","","","","","","","","","",""
"","do_trial","210","877774","0.0-118.0-0.0","1983","","","","50","0,0,0","1","highway","67","probe-137","0.2734292410426961","0.7962974775360883","0.36041158076942525","0","","","","","","","",""
"","html-keyboard-response","211","878785","0.0-118.0-1.0","null","<p></p>","null","","","","","","","","","","","","","","","","","","",""
"","do_trial","212","883789","0.0-119.0-0.0","381","","","","50","0,1,1","1","highway","68","probe-226","0.15553381656797485","0.7268727624978044","0.3077194645976842","1","","","","","","","",""
"","html-keyboard-response","213","884800","0.0-119.0-1.0","null","<p></p>","null","","","","","","","","","","","","","","","","","","",""
"","do_trial","214","889917","0.0-120.0-0.0","472.7000000476837","","","","50","0,1,1","1","highway","69","probe-211","0.14541286222663108","0.7185530319081904","0.3637655194088867","1","","","","","","","",""
"","html-keyboard-response","215","890925","0.0-120.0-1.0","null","<p></p>","null","","","","","","","","","","","","","","","","","","",""
"","do_bye","216","892438","0.0-121.0-0.0","null","","","","null","","","","","","","","","","","","","","","","",""
"","do_travel","217","898456","0.0-122.0-0.0","null","","","","null","","","","","","","","","","","","","","","","",""
"","do_welcome","218","899981","0.0-122.0-1.0","null","","","","null","","","","","","","","","","","","","","","","",""
"","do_trial","219","905574","0.0-123.0-0.0","1001.5","","","","51","0,1,0","2","countryside","70","probe-43","0.1189559078489169","1","0.26708194888631376","0","","","","","","","",""
"","html-keyboard-response","220","906581","0.0-123.0-1.0","null","<p></p>","null","","","","","","","","","","","","","","","","","","",""
"","do_trial","221","911510","0.0-124.0-0.0","320.2999999523163","","","","51","0,1,0","2","countryside","71","probe-26","0.05106679561074461","1","0.2090404353918789","0","","","","","","","",""
"","html-keyboard-response","222","912521","0.0-124.0-1.0","null","<p></p>","null","","","","","","","","","","","","","","","","","","",""
"","do_trial","223","917193","0.0-125.0-0.0","127.69999980926514","","","","49","0,1,0","2","countryside","72","probe-157","0.07845654971236796","0.7685897287909933","0.12908360640041777","0","","","","","","","",""
"","html-keyboard-response","224","918203","0.0-125.0-1.0","null","<p></p>","null","","","","","","","","","","","","","","","","","","",""
"","do_trial","225","923400","0.0-126.0-0.0","554.5","","","","50","0,1,0","2","countryside","73","probe-225","0.09287487512663291","0.6588472175755006","0.10863838517789816","1","","","","","","","",""
"","html-keyboard-response","226","924407","0.0-126.0-1.0","null","<p></p>","null","","","","","","","","","","","","","","","","","","",""
"","do_trial","227","929518","0.0-127.0-0.0","514.5","","","","50","1,1,0","2","countryside","74","probe-07","0.0850136523696049","0.8269981434998639","0.23127037890680374","1","","","","","","","",""
"","html-keyboard-response","228","930529","0.0-127.0-1.0","null","<p></p>","null","","","","","","","","","","","","","","","","","","",""
"","do_trial","229","935581","0.0-128.0-0.0","458.59999990463257","","","","50","0,1,0","2","countryside","75","probe-155","0.06660240353946957","0.7391230764039386","0.3442332682781898","1","","","","","","","",""
"","html-keyboard-response","230","936592","0.0-128.0-1.0","null","<p></p>","null","","","","","","","","","","","","","","","","","","",""
"","do_trial","231","941847","0.0-129.0-0.0","649.5","","","","50","0,1,1","2","countryside","76","probe-229","0.14548521026229305","0.7643785997072348","0.42116201334348363","1","","","","","","","",""
"","html-keyboard-response","232","942860","0.0-129.0-1.0","null","<p></p>","null","","","","","","","","","","","","","","","","","","",""
"","do_trial","233","948295","0.0-130.0-0.0","876.8999998569489","","","","50","0,0,1","2","countryside","77","probe-02","0.08397385212538995","0.4677221270526009","0.45991905916180886","0","","","","","","","",""
"","html-keyboard-response","234","949306","0.0-130.0-1.0","null","<p></p>","null","","","","","","","","","","","","","","","","","","",""
"","do_trial","235","954310","0.0-131.0-0.0","421.7000000476837","","","","51","0,0,1","2","countryside","78","probe-81","0.11167740788902139","0.5574059011785819","0.284702030460396","1","","","","","","","",""
"","html-keyboard-response","236","955316","0.0-131.0-1.0","null","<p></p>","null","","","","","","","","","","","","","","","","","","",""
"","do_trial","237","960323","0.0-132.0-0.0","417.10000014305115","","","","51","0,0,0","2","countryside","79","probe-185","0.05748043487169498","0.5303338966331658","0.3768943513392937","0","","","","","","","",""
"","html-keyboard-response","238","961332","0.0-132.0-1.0","null","<p></p>","null","","","","","","","","","","","","","","","","","","",""
"","do_trial","239","966166","0.0-133.0-0.0","270.7999999523163","","","","50","0,0,1","2","countryside","80","probe-168","0.09940018835212587","0.4616892425480134","0.3226234573846537","0","","","","","","","",""
"","html-keyboard-response","240","967174","0.0-133.0-1.0","null","<p></p>","null","","","","","","","","","","","","","","","","","","",""
"","do_trial","241","972160","0.0-134.0-0.0","380.39999985694885","","","","49","0,0,0","2","countryside","81","probe-230","0.193406224755014","0.4227811291374994","0.37639692874598707","0","","","","","","","",""
"","html-keyboard-response","242","973171","0.0-134.0-1.0","null","<p></p>","null","","","","","","","","","","","","","","","","","","",""
"","do_trial","243","978216","0.0-135.0-0.0","422.7999999523163","","","","51","0,1,0","2","countryside","82","probe-151","0.37323931158521556","0.4636264060114099","0.19789169286327205","0","","","","","","","",""
"","html-keyboard-response","244","979227","0.0-135.0-1.0","null","<p></p>","null","","","","","","","","","","","","","","","","","","",""
"","do_trial","245","984045","0.0-136.0-0.0","265","","","","50","1,0,0","2","countryside","83","probe-42","0.42452110691884837","0.3051566327417208","0.1894622369814037","0","","","","","","","",""
"","html-keyboard-response","246","985054","0.0-136.0-1.0","null","<p></p>","null","","","","","","","","","","","","","","","","","","",""
"","do_trial","247","990660","0.0-137.0-0.0","1010.4000000953674","","","","50","1,0,1","2","countryside","84","probe-105","0.49543767019693535","0.3080651756450275","0.23145502797976342","0","","","","","","","",""
"","html-keyboard-response","248","991672","0.0-137.0-1.0","null","<p></p>","null","","","","","","","","","","","","","","","","","","",""
"","do_trial","249","997311","0.0-138.0-0.0","1048.2000000476837","","","","51","1,0,0","2","countryside","85","probe-177","0.48132017376098846","0.30298541967999804","0.063918133277195","0","","","","","","","",""
"","html-keyboard-response","250","998322","0.0-138.0-1.0","null","<p></p>","null","","","","","","","","","","","","","","","","","","",""
"","do_trial","251","1005090","0.0-139.0-0.0","2181.7999999523163","","","","51","1,0,1","2","countryside","86","probe-67","0.5326422099305004","0.2513014950109094","0.099157311278963","1","","","","","","","",""
"","html-keyboard-response","252","1006100","0.0-139.0-1.0","null","<p></p>","null","","","","","","","","","","","","","","","","","","",""
"","do_trial","253","1011159","0.0-140.0-0.0","475.2000000476837","","","","51","0,0,0","2","countryside","87","probe-92","0.5641595110233711","0.2563633276149994","0.07583320371459334","0","","","","","","","",""
"","html-keyboard-response","254","1012172","0.0-140.0-1.0","null","<p></p>","null","","","","","","","","","","","","","","","","","","",""
"","do_trial","255","1017045","0.0-141.0-0.0","265.40000009536743","","","","51","1,0,0","2","countryside","88","probe-179","0.5523726986696613","0.19312334415393587","0.16208241093986528","0","","","","","","","",""
"","html-keyboard-response","256","1018054","0.0-141.0-1.0","null","<p></p>","null","","","","","","","","","","","","","","","","","","",""
"","do_trial","257","1023334","0.0-142.0-0.0","717.5","","","","50","1,1,0","2","countryside","89","probe-29","0.7021051507208361","0.31493488096166133","0.07070182452212069","1","","","","","","","",""
"","html-keyboard-response","258","1024349","0.0-142.0-1.0","null","<p></p>","null","","","","","","","","","","","","","","","","","","",""
"","do_trial","259","1030841","0.0-143.0-0.0","1872.7999999523163","","","","50","1,0,0","2","countryside","90","probe-74","0.64281889113196","0.3227622132633265","0.07950685770659682","0","","","","","","","",""
"","html-keyboard-response","260","1031854","0.0-143.0-1.0","null","<p></p>","null","","","","","","","","","","","","","","","","","","",""
"","do_trial","261","1037481","0.0-144.0-0.0","1011.7000000476837","","","","50","0,0,0","2","countryside","91","probe-01","0.6614451913573198","0.40711051035572604","0.12206357989034648","0","","","","","","","",""
"","html-keyboard-response","262","1038488","0.0-144.0-1.0","null","<p></p>","null","","","","","","","","","","","","","","","","","","",""
"","do_trial","263","1044707","0.0-145.0-0.0","1656.9000000953674","","","","50","1,0,0","2","countryside","92","probe-95","0.6929476089810973","0.3589007553311746","0.1512987453349807","0","","","","","","","",""
"","html-keyboard-response","264","1045719","0.0-145.0-1.0","null","<p></p>","null","","","","","","","","","","","","","","","","","","",""
"","do_trial","265","1051285","0.0-146.0-0.0","1024.0999999046326","","","","51","0,0,0","2","countryside","93","probe-167","0.5680272420471196","0.33045402054558987","0.12382053840462132","0","","","","","","","",""
"","html-keyboard-response","266","1052299","0.0-146.0-1.0","null","<p></p>","null","","","","","","","","","","","","","","","","","","",""
"","do_trial","267","1057149","0.0-147.0-0.0","285.7999999523163","","","","49","0,0,1","2","countryside","94","probe-78","0.4484417178469271","0.46150248189684456","0.15306646923283762","0","","","","","","","",""
"","html-keyboard-response","268","1058156","0.0-147.0-1.0","null","<p></p>","null","","","","","","","","","","","","","","","","","","",""
"","do_trial","269","1063080","0.0-148.0-0.0","317.2999999523163","","","","49","0,1,0","2","countryside","95","probe-113","0.5353661265236219","0.3788772400928617","0.2008594059816305","0","","","","","","","",""
"","html-keyboard-response","270","1064091","0.0-148.0-1.0","null","<p></p>","null","","","","","","","","","","","","","","","","","","",""
"","do_trial","271","1069179","0.0-149.0-0.0","479.09999990463257","","","","50","1,0,0","2","countryside","96","probe-197","0.5249394983531477","0.39617038701646734","0.26388975788615243","0","","","","","","","",""
"","html-keyboard-response","272","1070188","0.0-149.0-1.0","null","<p></p>","null","","","","","","","","","","","","","","","","","","",""
"","do_trial","273","1075163","0.0-150.0-0.0","391.89999985694885","","","","51","1,1,1","2","countryside","97","probe-39","0.4678106971839898","0.3604079528621392","0.2509293152066022","1","","","","","","","",""
"","html-keyboard-response","274","1076176","0.0-150.0-1.0","null","<p></p>","null","","","","","","","","","","","","","","","","","","",""
"","do_trial","275","1081020","0.0-151.0-0.0","291.40000009536743","","","","51","1,0,0","2","countryside","98","probe-166","0.4113544954510307","0.5151439686311643","0.1205272546395842","0","","","","","","","",""
"","html-keyboard-response","276","1082027","0.0-151.0-1.0","null","<p></p>","null","","","","","","","","","","","","","","","","","","",""
"","do_trial","277","1086608","0.0-152.0-0.0","0.09999990463256836","","","","51","1,0,0","2","countryside","99","probe-90","0.5943068145168305","0.455014784013349","0.05609982058014407","0","","","","","","","",""
"","html-keyboard-response","278","1087619","0.0-152.0-1.0","null","<p></p>","null","","","","","","","","","","","","","","","","","","",""
"","do_trial","279","1092848","0.0-153.0-0.0","626.6000001430511","","","","50","0,0,0","2","countryside","100","probe-175","0.6055227956286605","0.32697212618301486","0.09580969617269457","0","","","","","","","",""
"","html-keyboard-response","280","1093861","0.0-153.0-1.0","null","<p></p>","null","","","","","","","","","","","","","","","","","","",""
"","do_trial","281","1098685","0.0-154.0-0.0","269.30000019073486","","","","51","1,0,0","2","countryside","101","probe-222","0.57782193956675","0.3092486778712837","0.22080442420930943","0","","","","","","","",""
"","html-keyboard-response","282","1099700","0.0-154.0-1.0","null","<p></p>","null","","","","","","","","","","","","","","","","","","",""
"","do_trial","283","1104910","0.0-155.0-0.0","625.4000000953674","","","","49","1,0,0","2","countryside","102","probe-123","0.4560974516796006","0.3714369590848435","0.20768819032103825","1","","","","","","","",""
"","html-keyboard-response","284","1105927","0.0-155.0-1.0","null","<p></p>","null","","","","","","","","","","","","","","","","","","",""
"","do_trial","285","1111200","0.0-156.0-0.0","674.5999999046326","","","","49","1,0,1","2","countryside","103","probe-158","0.49353472372479384","0.3483918483982898","0.07115549146854028","1","","","","","","","",""
"","html-keyboard-response","286","1112202","0.0-156.0-1.0","null","<p></p>","null","","","","","","","","","","","","","","","","","","",""
"","do_trial","287","1117150","0.0-157.0-0.0","367.09999990463257","","","","49","1,0,0","2","countryside","104","probe-20","0.47667547413422656","0.33627281713608853","0.24223091519229437","1","","","","","","","",""
"","html-keyboard-response","288","1118159","0.0-157.0-1.0","null","<p></p>","null","","","","","","","","","","","","","","","","","","",""
"","do_trial","289","1123533","0.0-158.0-0.0","777.5999999046326","","","","49","1,0,1","2","countryside","105","probe-111","0.583011565240503","0.24246656469038896","0.292722642550176","1","","","","","","","",""
"","html-keyboard-response","290","1124544","0.0-158.0-1.0","null","<p></p>","null","","","","","","","","","","","","","","","","","","",""
"","do_trial","291","1129799","0.0-159.0-0.0","655.2000000476837","","","","49","1,0,0","2","countryside","106","probe-228","0.5877553168462093","0.0913485774118815","0.18185013534112826","1","","","","","","","",""
"","html-keyboard-response","292","1130815","0.0-159.0-1.0","null","<p></p>","null","","","","","","","","","","","","","","","","","","",""
"","do_trial","293","1135738","0.0-160.0-0.0","374.5","","","","49","0,0,0","2","countryside","107","probe-130","0.5418463650805663","0.16500821748838282","0.192531185063144","0","","","","","","","",""
"","html-keyboard-response","294","1136749","0.0-160.0-1.0","null","<p></p>","null","","","","","","","","","","","","","","","","","","",""
"","do_trial","295","1142135","0.0-161.0-0.0","800.2000000476837","","","","49","1,0,0","2","countryside","108","probe-18","0.6857901613472217","0.18405096239018912","0.14927041607086686","1","","","","","","","",""
"","html-keyboard-response","296","1143144","0.0-161.0-1.0","null","<p></p>","null","","","","","","","","","","","","","","","","","","",""
"","do_trial","297","1148325","0.0-162.0-0.0","610.0999999046326","","","","49","1,0,0","2","countryside","109","probe-186","0.6512796489094275","0.27340479646546373","0.12817472242574587","1","","","","","","","",""
"","html-keyboard-response","298","1149335","0.0-162.0-1.0","null","<p></p>","null","","","","","","","","","","","","","","","","","","",""
"","do_bye","299","1150859","0.0-163.0-0.0","null","","","","null","","","","","","","","","","","","","","","","",""
"","do_travel","300","1156868","0.0-164.0-0.0","null","","","","null","","","","","","","","","","","","","","","","",""
"","do_welcome","301","1158390","0.0-164.0-1.0","null","","","","null","","","","","","","","","","","","","","","","",""
"","do_trial","302","1164751","0.0-165.0-0.0","1754.7000000476837","","","","50","1,1,0","3","coast","110","probe-76","1","0.3970855669530022","0.14571595480362196","1","","","","","","","",""
"","html-keyboard-response","303","1165760","0.0-165.0-1.0","null","<p></p>","null","","","","","","","","","","","","","","","","","","",""
"","do_trial","304","1171201","0.0-166.0-0.0","847.8999998569489","","","","50","1,0,1","3","coast","111","probe-143","1","0.3477906626193944","0.24178624415667926","0","","","","","","","",""
"","html-keyboard-response","305","1172205","0.0-166.0-1.0","null","<p></p>","null","","","","","","","","","","","","","","","","","","",""
"","do_trial","306","1177165","0.0-167.0-0.0","377.2999999523163","","","","50","1,0,1","3","coast","112","probe-190","0.8993952347787609","0.34485446424362615","0.1680016140132508","0","","","","","","","",""
"","html-keyboard-response","307","1178175","0.0-167.0-1.0","null","<p></p>","null","","","","","","","","","","","","","","","","","","",""
"","do_trial","308","1183183","0.0-168.0-0.0","426.59999990463257","","","","51","0,1,0","3","coast","113","probe-204","0.7479289516954313","0.40341401866715315","0.1838106977509847","0","","","","","","","",""
"","html-keyboard-response","309","1184193","0.0-168.0-1.0","null","<p></p>","null","","","","","","","","","","","","","","","","","","",""
"","do_trial","310","1189134","0.0-169.0-0.0","354.5","","","","49","1,0,0","3","coast","114","probe-63","0.5957684947679551","0.24866706990685217","0.16610169979343603","1","","","","","","","",""
"","html-keyboard-response","311","1190144","0.0-169.0-1.0","null","<p></p>","null","","","","","","","","","","","","","","","","","","",""
"","do_trial","312","1195186","0.0-170.0-0.0","436.2000000476837","","","","49","1,0,0","3","coast","115","probe-184","0.6082498226974902","0.16378439408451662","0.15695199134372656","1","","","","","","","",""
"","html-keyboard-response","313","1196200","0.0-170.0-1.0","null","<p></p>","null","","","","","","","","","","","","","","","","","","",""
"","do_trial","314","1201872","0.0-171.0-0.0","1076.9000000953674","","","","49","0,0,1","3","coast","116","probe-171","0.5530816661918894","0.35941287684859974","0.26661481291056854","0","","","","","","","",""
"","html-keyboard-response","315","1202878","0.0-171.0-1.0","null","<p></p>","null","","","","","","","","","","","","","","","","","","",""
"","do_trial","316","1207892","0.0-172.0-0.0","412.5","","","","50","0,1,0","3","coast","117","probe-06","0.6137699287952683","0.39425320933902797","0.14238249222698207","1","","","","","","","",""
"","html-keyboard-response","317","1208909","0.0-172.0-1.0","null","<p></p>","null","","","","","","","","","","","","","","","","","","",""
"","do_trial","318","1213839","0.0-173.0-0.0","323.2999999523163","","","","50","1,0,1","3","coast","118","probe-153","0.5891708813751552","0.4034710037275361","0.1452573679324747","0","","","","","","","",""
"","html-keyboard-response","319","1214851","0.0-173.0-1.0","null","<p></p>","null","","","","","","","","","","","","","","","","","","",""
"","do_trial","320","1220945","0.0-174.0-0.0","null","","","","null","0,0,1","3","coast","119","probe-53","0.4692070344927941","0.43027644866413395","0.1397552511465204","","","","","","","","",""
"","html-keyboard-response","321","1221955","0.0-174.0-1.0","null","<p></p>","null","","","","","","","","","","","","","","","","","","",""
"","do_trial","322","1227129","0.0-175.0-0.0","587.6000001430511","","","","50","0,0,0","3","coast","120","probe-205","0.5249993754053408","0.4135757309158975","0.1769439310934459","0","","","","","","","",""
"","html-keyboard-response","323","1228141","0.0-175.0-1.0","null","<p></p>","null","","","","","","","","","","","","","","","","","","",""
"","do_trial","324","1233001","0.0-176.0-0.0","312.39999985694885","","","","49","0,1,0","3","coast","121","probe-128","0.48363862231963134","0.4861879639441166","0.15659372299803728","0","","","","","","","",""
"","html-keyboard-response","325","1234005","0.0-176.0-1.0","null","<p></p>","null","","","","","","","","","","","","","","","","","","",""
"","do_trial","326","1238942","0.0-177.0-0.0","381.19999980926514","","","","51","1,1,0","3","coast","122","probe-38","0.23860839476321272","0.3882273150081842","0.32622086234039066","0","","","","","","","",""
"","html-keyboard-response","327","1239951","0.0-177.0-1.0","null","<p></p>","null","","","","","","","","","","","","","","","","","","",""
"","do_trial","328","1245073","0.0-178.0-0.0","534.6000001430511","","","","50","0,0,1","3","coast","123","probe-107","0.3505748229698672","0.2350953136619664","0.35997730772566505","0","","","","","","","",""
"","html-keyboard-response","329","1246090","0.0-178.0-1.0","null","<p></p>","null","","","","","","","","","","","","","","","","","","",""
"","do_trial","330","1251375","0.0-179.0-0.0","736.7000000476837","","","","49","0,0,0","3","coast","124","probe-25","0.26559033744840876","0.27551306590777974","0.3528785998122626","0","","","","","","","",""
"","html-keyboard-response","331","1252376","0.0-179.0-1.0","null","<p></p>","null","","","","","","","","","","","","","","","","","","",""
"","do_trial","332","1257469","0.0-180.0-0.0","540","","","","50","0,0,1","3","coast","125","probe-05","0.3829231414421386","0.2633215154478766","0.44777749311121945","0","","","","","","","",""
"","html-keyboard-response","333","1258486","0.0-180.0-1.0","null","<p></p>","null","","","","","","","","","","","","","","","","","","",""
"","do_trial","334","1263655","0.0-181.0-0.0","567.5","","","","50","0,0,1","3","coast","126","probe-71","0.43573322511935614","0.2681168566125868","0.5892397429044351","0","","","","","","","",""
"","html-keyboard-response","335","1264664","0.0-181.0-1.0","null","<p></p>","null","","","","","","","","","","","","","","","","","","",""
"","do_trial","336","1269508","0.0-182.0-0.0","259.7000000476837","","","","50","1,0,0","3","coast","127","probe-200","0.46465604920384196","0.1411144898713008","0.46447681471463576","0","","","","","","","",""
"","html-keyboard-response","337","1270519","0.0-182.0-1.0","null","<p></p>","null","","","","","","","","","","","","","","","","","","",""
"","do_trial","338","1276827","0.0-183.0-0.0","1734.9000000953674","","","","50","0,0,1","3","coast","128","probe-201","0.36339250965271364","0.11504509543329483","0.5368291543562599","0","","","","","","","",""
"","html-keyboard-response","339","1277842","0.0-183.0-1.0","null","<p></p>","null","","","","","","","","","","","","","","","","","","",""
"","do_trial","340","1282769","0.0-184.0-0.0","321.7000000476837","","","","49","1,0,0","3","coast","129","probe-135","0.47781510800141336","0.09343037363965831","0.5141721531097381","1","","","","","","","",""
"","html-keyboard-response","341","1283785","0.0-184.0-1.0","null","<p></p>","null","","","","","","","","","","","","","","","","","","",""
"","do_trial","342","1289395","0.0-185.0-0.0","1061.6000001430511","","","","49","1,1,1","3","coast","130","probe-141","0.5250434700769746","0.12296944273086331","0.5787340685433906","1","","","","","","","",""
"","html-keyboard-response","343","1290404","0.0-185.0-1.0","null","<p></p>","null","","","","","","","","","","","","","","","","","","",""
"","do_trial","344","1296449","0.0-186.0-0.0","1452.3999998569489","","","","49","0,0,0","3","coast","131","probe-119","0.3969608590124107","0.05131895774454549","0.6306215488207846","0","","","","","","","",""
"","html-keyboard-response","345","1297458","0.0-186.0-1.0","null","<p></p>","null","","","","","","","","","","","","","","","","","","",""
"","do_trial","346","1303033","0.0-187.0-0.0","951.0999999046326","","","","49","0,0,1","3","coast","132","probe-140","0.5008968521807644","0.11059064908889918","0.6478143108435804","0","","","","","","","",""
"","html-keyboard-response","347","1304043","0.0-187.0-1.0","null","<p></p>","null","","","","","","","","","","","","","","","","","","",""
"","do_trial","348","1310084","0.0-188.0-0.0","1437.2000000476837","","","","49","0,0,0","3","coast","133","probe-220","0.4611743030694407","0.14437149249305434","0.4659307053375605","0","","","","","","","",""
"","html-keyboard-response","349","1311096","0.0-188.0-1.0","null","<p></p>","null","","","","","","","","","","","","","","","","","","",""
"","do_trial","350","1315688","0.0-189.0-0.0","41.40000009536743","","","","49","0,0,1","3","coast","134","probe-96","0.4606891618693601","0.2107971631509772","0.5400843336028296","0","","","","","","","",""
"","html-keyboard-response","351","1316700","0.0-189.0-1.0","null","<p></p>","null","","","","","","","","","","","","","","","","","","",""
"","do_trial","352","1322214","0.0-190.0-0.0","959.8999998569489","","","","49","0,0,1","3","coast","135","probe-84","0.44121877476818505","0.09583661841479088","0.49259374466351896","0","","","","","","","",""
"","html-keyboard-response","353","1323230","0.0-190.0-1.0","null","<p></p>","null","","","","","","","","","","","","","","","","","","",""
"","do_trial","354","1328171","0.0-191.0-0.0","355.80000019073486","","","","50","1,0,0","3","coast","136","probe-46","0.4012391325844818","0.07634239607114829","0.47006155954871","0","","","","","","","",""
"","html-keyboard-response","355","1329181","0.0-191.0-1.0","null","<p></p>","null","","","","","","","","","","","","","","","","","","",""
"","do_trial","356","1335701","0.0-192.0-0.0","1977.5","","","","49","1,0,1","3","coast","137","probe-89","0.4582641009343892","0.11686107451408512","0.6800779150596992","1","","","","","","","",""
"","html-keyboard-response","357","1336706","0.0-192.0-1.0","null","<p></p>","null","","","","","","","","","","","","","","","","","","",""
"","do_trial","358","1342458","0.0-193.0-0.0","1176.2999999523163","","","","49","1,1,1","3","coast","138","probe-176","0.3956035702214938","0.17798867178524744","0.5643144721296617","1","","","","","","","",""
"","html-keyboard-response","359","1343468","0.0-193.0-1.0","null","<p></p>","null","","","","","","","","","","","","","","","","","","",""
"","do_trial","360","1349609","0.0-194.0-0.0","1540.7999999523163","","","","49","1,0,1","3","coast","139","probe-97","0.36053325986210555","0.07656047787535435","0.566473524549525","1","","","","","","","",""
"","html-keyboard-response","361","1350619","0.0-194.0-1.0","null","<p></p>","null","","","","","","","","","","","","","","","","","","",""
"","do_trial","362","1355736","0.0-195.0-0.0","490.59999990463257","","","","49","0,0,1","3","coast","140","probe-165","0.23302500902291148","0.13408240495699011","0.5974391771411129","0","","","","","","","",""
"","html-keyboard-response","363","1356752","0.0-195.0-1.0","null","<p></p>","null","","","","","","","","","","","","","","","","","","",""
"","do_trial","364","1362044","0.0-196.0-0.0","696.5","","","","49","1,0,0","3","coast","141","probe-173","0.3846980737380408","0.18970981381940874","0.5834783363641795","1","","","","","","","",""
"","html-keyboard-response","365","1363055","0.0-196.0-1.0","null","<p></p>","null","","","","","","","","","","","","","","","","","","",""
"","do_trial","366","1370075","0.0-197.0-0.0","2397.5","","","","49","0,1,0","3","coast","142","probe-160","0.2625617306027084","0.17241025922219697","0.6019031351203284","0","","","","","","","",""
"","html-keyboard-response","367","1371118","0.0-197.0-1.0","null","<p></p>","null","","","","","","","","","","","","","","","","","","",""
"","do_trial","368","1376308","0.0-198.0-0.0","636.8999998569489","","","","49","0,0,1","3","coast","143","probe-133","0.30401248179888885","0.1699220493799288","0.7573478655436678","0","","","","","","","",""
"","html-keyboard-response","369","1377319","0.0-198.0-1.0","null","<p></p>","null","","","","","","","","","","","","","","","","","","",""
"","do_trial","370","1382485","0.0-199.0-0.0","577.7999999523163","","","","49","1,0,1","3","coast","144","probe-194","0.45434861158270295","0.11930665062734132","0.7713615830900752","1","","","","","","","",""
"","html-keyboard-response","371","1383498","0.0-199.0-1.0","null","<p></p>","null","","","","","","","","","","","","","","","","","","",""
"","do_trial","372","1388622","0.0-200.0-0.0","502.90000009536743","","","","49","0,0,1","3","coast","145","probe-169","0.3911506384754828","0.0973434730062852","0.5764090613897876","0","","","","","","","",""
"","html-keyboard-response","373","1389635","0.0-200.0-1.0","null","<p></p>","null","","","","","","","","","","","","","","","","","","",""
"","do_trial","374","1395108","0.0-201.0-0.0","842.7999999523163","","","","49","1,1,1","3","coast","146","probe-56","0.49555285591978376","0.14259215742874115","0.5966853951822249","1","","","","","","","",""
"","html-keyboard-response","375","1396118","0.0-201.0-1.0","null","<p></p>","null","","","","","","","","","","","","","","","","","","",""
"","do_trial","376","1402202","0.0-202.0-0.0","1470.1000001430511","","","","49","0,0,1","3","coast","147","probe-180","0.46824551096276573","0.2789922743195161","0.6338472906795528","0","","","","","","","",""
"","html-keyboard-response","377","1403208","0.0-202.0-1.0","null","<p></p>","null","","","","","","","","","","","","","","","","","","",""
"","do_trial","378","1408346","0.0-203.0-0.0","552.5999999046326","","","","49","0,0,0","3","coast","148","probe-154","0.297059110245881","0.16856990238068117","0.590558526403793","0","","","","","","","",""
"","html-keyboard-response","379","1409354","0.0-203.0-1.0","null","<p></p>","null","","","","","","","","","","","","","","","","","","",""
"","do_trial","380","1414576","0.0-204.0-0.0","605.7999999523163","","","","49","0,0,0","3","coast","149","probe-14","0.2683278071354312","0.19211687109776862","0.6245661300608387","0","","","","","","","",""
"","html-keyboard-response","381","1415587","0.0-204.0-1.0","null","<p></p>","null","","","","","","","","","","","","","","","","","","",""
"","do_bye","382","1417096","0.0-205.0-0.0","null","","","","null","","","","","","","","","","","","","","","","",""
"","do_travel","383","1423106","0.0-206.0-0.0","null","","","","null","","","","","","","","","","","","","","","","",""
"","do_welcome","384","1424627","0.0-206.0-1.0","null","","","","null","","","","","","","","","","","","","","","","",""
"","do_trial","385","1430358","0.0-207.0-0.0","1140.5","","","","50","0,0,1","4","mountain","150","probe-68","0.20223442495409644","0.17418901261080794","1","0","","","","","","","",""
"","html-keyboard-response","386","1431375","0.0-207.0-1.0","null","<p></p>","null","","","","","","","","","","","","","","","","","","",""
"","do_trial","387","1437050","0.0-208.0-0.0","1066.3000001907349","","","","50","0,1,1","4","mountain","151","probe-182","0.12443687925912933","0.2004705998324846","1","1","","","","","","","",""
"","html-keyboard-response","388","1438061","0.0-208.0-1.0","null","<p></p>","null","","","","","","","","","","","","","","","","","","",""
"","do_trial","389","1443188","0.0-209.0-0.0","496.30000019073486","","","","50","0,0,1","4","mountain","152","probe-110","0.13751341662445413","0.1424340369877837","0.9422463120167277","0","","","","","","","",""
"","html-keyboard-response","390","1444192","0.0-209.0-1.0","null","<p></p>","null","","","","","","","","","","","","","","","","","","",""
"","do_trial","391","1449703","0.0-210.0-0.0","952.4000000953674","","","","50","0,1,1","4","mountain","153","probe-65","0.16717315450464448","0.19657635697418954","0.7418305831215808","1","","","","","","","",""
"","html-keyboard-response","392","1450713","0.0-210.0-1.0","null","<p></p>","null","","","","","","","","","","","","","","","","","","",""
"","do_trial","393","1456237","0.0-211.0-0.0","952.7000000476837","","","","50","0,0,1","4","mountain","154","probe-23","0.08870664559219262","0.12424401005308176","0.7411021542259134","0","","","","","","","",""
"","html-keyboard-response","394","1457251","0.0-211.0-1.0","null","<p></p>","null","","","","","","","","","","","","","","","","","","",""
"","do_trial","395","1462922","0.0-212.0-0.0","1117.3000001907349","","","","50","0,0,0","4","mountain","155","probe-44","0.18640518719033577","0.13822373098336763","0.46220913610373104","0","","","","","","","",""
"","html-keyboard-response","396","1463926","0.0-212.0-1.0","null","<p></p>","null","","","","","","","","","","","","","","","","","","",""
"","do_trial","397","1470258","0.0-213.0-0.0","1771.9000000953674","","","","50","1,0,1","4","mountain","156","probe-121","0.1932853360059446","0.21944224650859653","0.5705219143196105","0","","","","","","","",""
"","html-keyboard-response","398","1471270","0.0-213.0-1.0","null","<p></p>","null","","","","","","","","","","","","","","","","","","",""
"","do_trial","399","1476101","0.0-214.0-0.0","267.80000019073486","","","","49","0,0,1","4","mountain","157","probe-209","0.24301932935445109","0.2635991986651253","0.41634567114024834","0","","","","","","","",""
"","html-keyboard-response","400","1477111","0.0-214.0-1.0","null","<p></p>","null","","","","","","","","","","","","","","","","","","",""
"","do_trial","401","1482221","0.0-215.0-0.0","562.1000001430511","","","","49","0,0,0","4","mountain","158","probe-198","0.29885868835627094","0.1420507423798153","0.5051983171057153","0","","","","","","","",""
"","html-keyboard-response","402","1483235","0.0-215.0-1.0","null","<p></p>","null","","","","","","","","","","","","","","","","","","",""
"","do_trial","403","1488598","0.0-216.0-0.0","748.4000000953674","","","","49","1,0,0","4","mountain","159","probe-102","0.37152491083153616","0.09440351141735633","0.6336224451006592","1","","","","","","","",""
"","html-keyboard-response","404","1489610","0.0-216.0-1.0","null","<p></p>","null","","","","","","","","","","","","","","","","","","",""
"","do_trial","405","1494490","0.0-217.0-0.0","297.90000009536743","","","","49","0,0,0","4","mountain","160","probe-104","0.46808757280914004","0.14381706246306164","0.5605262181226638","0","","","","","","","",""
"","html-keyboard-response","406","1495502","0.0-217.0-1.0","null","<p></p>","null","","","","","","","","","","","","","","","","","","",""
"","do_trial","407","1500626","0.0-218.0-0.0","554.5999999046326","","","","51","0,0,0","4","mountain","161","probe-114","0.4836821043492537","0.16659328683210867","0.4840371707518616","0","","","","","","","",""
"","html-keyboard-response","408","1501636","0.0-218.0-1.0","null","<p></p>","null","","","","","","","","","","","","","","","","","","",""
"","do_trial","409","1506724","0.0-219.0-0.0","506.2999999523163","","","","50","1,0,0","4","mountain","162","probe-94","0.5775568392751016","0.17000705099249303","0.3749644777781389","0","","","","","","","",""
"","html-keyboard-response","410","1507729","0.0-219.0-1.0","null","<p></p>","null","","","","","","","","","","","","","","","","","","",""
"","do_trial","411","1512851","0.0-220.0-0.0","552.0999999046326","","","","50","1,0,0","4","mountain","163","probe-118","0.5321923358374662","0.13526028041302235","0.32366540911192615","0","","","","","","","",""
"","html-keyboard-response","412","1513858","0.0-220.0-1.0","null","<p></p>","null","","","","","","","","","","","","","","","","","","",""
"","do_trial","413","1518962","0.0-221.0-0.0","500.7999999523163","","","","49","0,0,0","4","mountain","164","probe-214","0.46715242311468763","0.07512214362858749","0.4366778860743116","0","","","","","","","",""
"","html-keyboard-response","414","1519973","0.0-221.0-1.0","null","<p></p>","null","","","","","","","","","","","","","","","","","","",""
"","do_trial","415","1525082","0.0-222.0-0.0","504","","","","49","0,0,1","4","mountain","165","probe-30","0.4975079943462452","0.08555110455056546","0.4964907386650615","0","","","","","","","",""
"","html-keyboard-response","416","1526089","0.0-222.0-1.0","null","<p></p>","null","","","","","","","","","","","","","","","","","","",""
"","do_trial","417","1531194","0.0-223.0-0.0","507.5","","","","49","0,1,0","4","mountain","166","probe-208","0.4413845252337164","0.09221605922732623","0.5125052654386952","0","","","","","","","",""
"","html-keyboard-response","418","1532210","0.0-223.0-1.0","null","<p></p>","null","","","","","","","","","","","","","","","","","","",""
"","do_trial","419","1537772","0.0-224.0-0.0","994","","","","49","1,0,1","4","mountain","167","probe-195","0.5424967187856808","0.29962445837035917","0.325818616369781","1","","","","","","","",""
"","html-keyboard-response","420","1538779","0.0-224.0-1.0","null","<p></p>","null","","","","","","","","","","","","","","","","","","",""
"","do_trial","421","1543905","0.0-225.0-0.0","562.7999999523163","","","","49","1,0,0","4","mountain","168","probe-181","0.6538507922314011","0.209866061715886","0.42580167941402436","1","","","","","","","",""
"","html-keyboard-response","422","1544919","0.0-225.0-1.0","null","<p></p>","null","","","","","","","","","","","","","","","","","","",""
"","do_trial","423","1551022","0.0-226.0-0.0","null","","","","null","1,0,1","4","mountain","169","probe-125","0.4908778183710726","0.29565340533180023","0.3876755649793631","","","","","","","","",""
"","html-keyboard-response","424","1552024","0.0-226.0-1.0","null","<p></p>","null","","","","","","","","","","","","","","","","","","",""
"","do_trial","425","1557083","0.0-227.0-0.0","505.40000009536743","","","","49","0,0,0","4","mountain","170","probe-210","0.4806833470975694","0.14516954685176367","0.4240508999377014","0","","","","","","","",""
"","html-keyboard-response","426","1558091","0.0-227.0-1.0","null","<p></p>","null","","","","","","","","","","","","","","","","","","",""
"","do_trial","427","1563139","0.0-228.0-0.0","465","","","","49","1,0,0","4","mountain","171","probe-145","0.5753512039397454","0.0918465069780687","0.2973715114409412","1","","","","","","","",""
"","html-keyboard-response","428","1564154","0.0-228.0-1.0","null","<p></p>","null","","","","","","","","","","","","","","","","","","",""
"","do_trial","429","1569877","0.0-229.0-0.0","1116.7999999523163","","","","49","0,0,1","4","mountain","172","probe-216","0.5365291141010916","0.14779201981047313","0.336165070826274","0","","","","","","","",""
"","html-keyboard-response","430","1570890","0.0-229.0-1.0","null","<p></p>","null","","","","","","","","","","","","","","","","","","",""
"","do_trial","431","1576302","0.0-230.0-0.0","791.7000000476837","","","","49","1,0,1","4","mountain","173","probe-87","0.5835111224754409","0.13087186837283032","0.3268423947776686","1","","","","","","","",""
"","html-keyboard-response","432","1577313","0.0-230.0-1.0","null","<p></p>","null","","","","","","","","","","","","","","","","","","",""
"","do_trial","433","1582749","0.0-231.0-0.0","854","","","","49","1,0,0","4","mountain","174","probe-206","0.541222017048093","0.06696847352365028","0.22086194172938364","1","","","","","","","",""
"","html-keyboard-response","434","1583757","0.0-231.0-1.0","null","<p></p>","null","","","","","","","","","","","","","","","","","","",""
"","do_trial","435","1589313","0.0-232.0-0.0","973","","","","49","0,0,1","4","mountain","175","probe-45","0.4745007229285762","0.05155459952176271","0.3306014072095694","0","","","","","","","",""
"","html-keyboard-response","436","1590329","0.0-232.0-1.0","null","<p></p>","null","","","","","","","","","","","","","","","","","","",""
"","do_trial","437","1597552","0.0-233.0-0.0","2627.7999999523163","","","","49","1,0,0","4","mountain","176","probe-109","0.6316768403585343","0.07872169156026908","0.3350380603312683","1","","","","","","","",""
"","html-keyboard-response","438","1598569","0.0-233.0-1.0","null","<p></p>","null","","","","","","","","","","","","","","","","","","",""
"","do_trial","439","1604139","0.0-234.0-0.0","997.4000000953674","","","","49","1,0,0","4","mountain","177","probe-115","0.7269585310009242","0.13372223364376967","0.5126135283067255","1","","","","","","","",""
"","html-keyboard-response","440","1605148","0.0-234.0-1.0","null","<p></p>","null","","","","","","","","","","","","","","","","","","",""
"","do_trial","441","1610606","0.0-235.0-0.0","844.5","","","","49","1,0,1","4","mountain","178","probe-124","0.8056926993398351","0.09693043534498225","0.448544945854497","1","","","","","","","",""
"","html-keyboard-response","442","1611622","0.0-235.0-1.0","null","<p></p>","null","","","","","","","","","","","","","","","","","","",""
"","do_trial","443","1617348","0.0-236.0-0.0","1171.3000001907349","","","","49","1,0,0","4","mountain","179","probe-70","0.7145498214366672","0.09075503885810543","0.29762288407712784","1","","","","","","","",""
"","html-keyboard-response","444","1618352","0.0-236.0-1.0","null","<p></p>","null","","","","","","","","","","","","","","","","","","",""
"","do_trial","445","1623753","0.0-237.0-0.0","856.2000000476837","","","","49","0,0,0","4","mountain","180","probe-142","0.750867460347083","0.09459109306968172","0.2010430795387605","0","","","","","","","",""
"","html-keyboard-response","446","1624766","0.0-237.0-1.0","null","<p></p>","null","","","","","","","","","","","","","","","","","","",""
"","do_trial","447","1630074","0.0-238.0-0.0","699.7000000476837","","","","49","0,0,0","4","mountain","181","probe-148","0.7221523432486182","0.10283951603777557","0.31549749804826305","0","","","","","","","",""
"","html-keyboard-response","448","1631083","0.0-238.0-1.0","null","<p></p>","null","","","","","","","","","","","","","","","","","","",""
"","do_trial","449","1636369","0.0-239.0-0.0","729.5999999046326","","","","49","0,0,0","4","mountain","182","probe-24","0.731196650084723","0.054599801043385895","0.20517977285672892","0","","","","","","","",""
"","html-keyboard-response","450","1637379","0.0-239.0-1.0","null","<p></p>","null","","","","","","","","","","","","","","","","","","",""
"","do_trial","451","1642481","0.0-240.0-0.0","561.4000000953674","","","","49","1,1,0","4","mountain","183","probe-193","0.6803785936948803","0.22410925321370243","0.29675951513116255","1","","","","","","","",""
"","html-keyboard-response","452","1643488","0.0-240.0-1.0","null","<p></p>","null","","","","","","","","","","","","","","","","","","",""
"","do_trial","453","1649239","0.0-241.0-0.0","1173.5999999046326","","","","49","0,0,1","4","mountain","184","probe-215","0.7338980689970049","0.2474514332207259","0.20991268968448865","0","","","","","","","",""
"","html-keyboard-response","454","1650253","0.0-241.0-1.0","null","<p></p>","null","","","","","","","","","","","","","","","","","","",""
"","do_trial","455","1655640","0.0-242.0-0.0","816.7999999523163","","","","49","1,0,0","4","mountain","185","probe-156","0.6506125457325039","0.24310015883582922","0.28521632828920296","1","","","","","","","",""
"","html-keyboard-response","456","1656656","0.0-242.0-1.0","null","<p></p>","null","","","","","","","","","","","","","","","","","","",""
"","do_trial","457","1661778","0.0-243.0-0.0","578.9000000953674","","","","49","0,0,0","4","mountain","186","probe-162","0.6761232259724952","0.27036283363950847","0.26310171917381076","0","","","","","","","",""
"","html-keyboard-response","458","1662791","0.0-243.0-1.0","null","<p></p>","null","","","","","","","","","","","","","","","","","","",""
"","do_trial","459","1668011","0.0-244.0-0.0","654.8000001907349","","","","49","1,0,1","4","mountain","187","probe-101","0.6292117057981236","0.06696690342423443","0.15288194381754167","1","","","","","","","",""
"","html-keyboard-response","460","1669024","0.0-244.0-1.0","null","<p></p>","null","","","","","","","","","","","","","","","","","","",""
"","do_trial","461","1674330","0.0-245.0-0.0","705.8999998569489","","","","49","1,0,0","4","mountain","188","probe-146","0.549488816170712","0.07440721773662796","0.25796590066165664","1","","","","","","","",""
"","html-keyboard-response","462","1675338","0.0-245.0-1.0","null","<p></p>","null","","","","","","","","","","","","","","","","","","",""
"","do_trial","463","1680828","0.0-246.0-0.0","910.5","","","","49","0,0,0","4","mountain","189","probe-88","0.525442926646108","0.10297818825482727","0.30509849399181327","0","","","","","","","",""
"","html-keyboard-response","464","1681842","0.0-246.0-1.0","null","<p></p>","null","","","","","","","","","","","","","","","","","","",""
"","do_bye","465","1683351","0.0-247.0-0.0","null","","","","null","","","","","","","","","","","","","","","","",""
"","do_travel","466","1689371","0.0-248.0-0.0","null","","","","null","","","","","","","","","","","","","","","","",""
"","do_welcome","467","1690884","0.0-248.0-1.0","null","","","","null","","","","","","","","","","","","","","","","",""
"","do_trial","468","1697003","0.0-249.0-0.0","null","","","","null","1,0,0","5","forest","190","probe-207","1","0.1555687913539758","0.2902246749160107","","","","","","","","",""
"","html-keyboard-response","469","1698013","0.0-249.0-1.0","null","<p></p>","null","","","","","","","","","","","","","","","","","","",""
"","do_trial","470","1703081","0.0-250.0-0.0","514.2000000476837","","","","49","1,0,0","5","forest","191","probe-32","1","0.08447494750193422","0.31290827474055044","1","","","","","","","",""
"","html-keyboard-response","471","1704092","0.0-250.0-1.0","null","<p></p>","null","","","","","","","","","","","","","","","","","","",""
"","do_trial","472","1709161","0.0-251.0-0.0","455.7999999523163","","","","49","1,0,0","5","forest","192","probe-106","0.7112850580150104","0.05498557459805279","0.3590940840651917","1","","","","","","","",""
"","html-keyboard-response","473","1710164","0.0-251.0-1.0","null","<p></p>","null","","","","","","","","","","","","","","","","","","",""
"","do_trial","474","1715722","0.0-252.0-0.0","969.2999999523163","","","","49","0,0,0","5","forest","193","probe-196","0.641325334931894","0.1154726880760087","0.4166951701214084","0","","","","","","","",""
"","html-keyboard-response","475","1716738","0.0-252.0-1.0","null","<p></p>","null","","","","","","","","","","","","","","","","","","",""
"","do_trial","476","1721904","0.0-253.0-0.0","591.2999999523163","","","","50","1,0,0","5","forest","194","probe-61","0.7983804251010134","0.16634640351083727","0.5475008193526465","0","","","","","","","",""
"","html-keyboard-response","477","1722922","0.0-253.0-1.0","null","<p></p>","null","","","","","","","","","","","","","","","","","","",""
"","do_trial","478","1727736","0.0-254.0-0.0","266.10000014305115","","","","51","0,0,1","5","forest","195","probe-134","0.7071158503215511","0.15382698082684756","0.5547509887491223","1","","","","","","","",""
"","html-keyboard-response","479","1728748","0.0-254.0-1.0","null","<p></p>","null","","","","","","","","","","","","","","","","","","",""
"","do_trial","480","1733932","0.0-255.0-0.0","636.8000001907349","","","","51","0,0,0","5","forest","196","probe-150","0.6880311941941419","0.1298894013039408","0.5014541948197162","0","","","","","","","",""
"","html-keyboard-response","481","1734948","0.0-255.0-1.0","null","<p></p>","null","","","","","","","","","","","","","","","","","","",""
"","do_trial","482","1740298","0.0-256.0-0.0","718.8999998569489","","","","49","1,1,0","5","forest","197","probe-221","0.6531695544130092","0.08054728452515568","0.5307808572299092","1","","","","","","","",""
"","html-keyboard-response","483","1741314","0.0-256.0-1.0","null","<p></p>","null","","","","","","","","","","","","","","","","","","",""
"","do_trial","484","1746790","0.0-257.0-0.0","909.7000000476837","","","","51","1,0,0","5","forest","198","probe-178","0.6847166527820454","0.06061990092612513","0.4990716785588286","0","","","","","","","",""
"","html-keyboard-response","485","1747817","0.0-257.0-1.0","null","<p></p>","null","","","","","","","","","","","","","","","","","","",""
"","do_trial","486","1753063","0.0-258.0-0.0","661.4000000953674","","","","49","0,0,1","5","forest","199","probe-79","0.5821980611383524","0.0630143949888228","0.4697558407460899","0","","","","","","","",""
"","html-keyboard-response","487","1754079","0.0-258.0-1.0","null","<p></p>","null","","","","","","","","","","","","","","","","","","",""
"","do_trial","488","1760284","0.0-259.0-0.0","1652.7999999523163","","","","51","0,0,1","5","forest","200","probe-33","0.5420361795104035","0.09890104373218116","0.38010023140685956","1","","","","","","","",""
"","html-keyboard-response","489","1761300","0.0-259.0-1.0","null","<p></p>","null","","","","","","","","","","","","","","","","","","",""
"","do_trial","490","1766609","0.0-260.0-0.0","731.8999998569489","","","","51","1,0,0","5","forest","201","probe-138","0.45674465382349605","0.189419231816497","0.2472678050155684","0","","","","","","","",""
"","html-keyboard-response","491","1767613","0.0-260.0-1.0","null","<p></p>","null","","","","","","","","","","","","","","","","","","",""
"","do_trial","492","1773378","0.0-261.0-0.0","1201.2000000476837","","","","51","0,1,0","5","forest","202","probe-37","0.2792450608744772","0.3637417425330116","0.2998656312521176","0","","","","","","","",""
"","html-keyboard-response","493","1774416","0.0-261.0-1.0","null","<p></p>","null","","","","","","","","","","","","","","","","","","",""
"","do_trial","494","1779706","0.0-262.0-0.0","739.7000000476837","","","","49","1,1,1","5","forest","203","probe-83","0.19556610802805405","0.39024972711626427","0.20820449100803745","1","","","","","","","",""
"","html-keyboard-response","495","1780712","0.0-262.0-1.0","null","<p></p>","null","","","","","","","","","","","","","","","","","","",""
"","do_trial","496","1785954","0.0-263.0-0.0","683.7999999523163","","","","49","1,1,0","5","forest","204","probe-99","0.26104126251580284","0.47375053149532975","0.236906610298434","1","","","","","","","",""
"","html-keyboard-response","497","1786979","0.0-263.0-1.0","null","<p></p>","null","","","","","","","","","","","","","","","","","","",""
"","do_trial","498","1792154","0.0-264.0-0.0","600","","","","49","0,0,0","5","forest","205","probe-217","0.1643789235228762","0.3668649175988582","0.050550724919292696","0","","","","","","","",""
"","html-keyboard-response","499","1793159","0.0-264.0-1.0","null","<p></p>","null","","","","","","","","","","","","","","","","","","",""
"","do_trial","500","1798776","0.0-265.0-0.0","1064.2999999523163","","","","49","1,1,0","5","forest","206","probe-16","0.13937937908030856","0.5434883240197921","0.12946204111514648","1","","","","","","","",""
"","html-keyboard-response","501","1799790","0.0-265.0-1.0","null","<p></p>","null","","","","","","","","","","","","","","","","","","",""
"","do_trial","502","1805167","0.0-266.0-0.0","819.7000000476837","","","","49","0,0,1","5","forest","207","probe-85","0.13618372917484273","0.5989077387904553","0.3228099455041012","0","","","","","","","",""
"","html-keyboard-response","503","1806182","0.0-266.0-1.0","null","<p></p>","null","","","","","","","","","","","","","","","","","","",""
"","do_trial","504","1811100","0.0-267.0-0.0","371.2999999523163","","","","49","0,1,1","5","forest","208","probe-58","0.10641072804216256","0.5162400449844046","0.3178654204307216","0","","","","","","","",""
"","html-keyboard-response","505","1812112","0.0-267.0-1.0","null","<p></p>","null","","","","","","","","","","","","","","","","","","",""
"","do_trial","506","1817359","0.0-268.0-0.0","696.0999999046326","","","","49","0,0,1","5","forest","209","probe-47","0.15754455803896034","0.5831794360716147","0.2580991236378107","0","","","","","","","",""
"","html-keyboard-response","507","1818362","0.0-268.0-1.0","null","<p></p>","null","","","","","","","","","","","","","","","","","","",""
"","do_trial","508","1823957","0.0-269.0-0.0","1038.6999998092651","","","","49","0,1,1","5","forest","210","probe-48","0.20579182936998855","0.7514835517372177","0.2527972639481681","0","","","","","","","",""
"","html-keyboard-response","509","1824972","0.0-269.0-1.0","null","<p></p>","null","","","","","","","","","","","","","","","","","","",""
"","do_trial","510","1830425","0.0-270.0-0.0","901.5","","","","49","1,0,0","5","forest","211","probe-163","0.1633664876953498","0.7486886408854776","0.14958810411111176","1","","","","","","","",""
"","html-keyboard-response","511","1831440","0.0-270.0-1.0","null","<p></p>","null","","","","","","","","","","","","","","","","","","",""
"","do_trial","512","1837071","0.0-271.0-0.0","1026.8000001907349","","","","49","0,0,0","5","forest","212","probe-34","0.25523852439172445","0.6470219077741021","0.17707455049474405","0","","","","","","","",""
"","html-keyboard-response","513","1838078","0.0-271.0-1.0","null","<p></p>","null","","","","","","","","","","","","","","","","","","",""
"","do_trial","514","1843264","0.0-272.0-0.0","590.5","","","","49","0,0,1","5","forest","213","probe-36","0.20853545598742418","0.6731095492941422","0.31240134139658216","0","","","","","","","",""
"","html-keyboard-response","515","1844271","0.0-272.0-1.0","null","<p></p>","null","","","","","","","","","","","","","","","","","","",""
"","do_trial","516","1850350","0.0-273.0-0.0","1531.2999999523163","","","","49","0,1,0","5","forest","214","probe-218","0.19081952827679416","0.7511713122566848","0.19672594041960045","0","","","","","","","",""
"","html-keyboard-response","517","1851362","0.0-273.0-1.0","null","<p></p>","null","","","","","","","","","","","","","","","","","","",""
"","do_trial","518","1856889","0.0-274.0-0.0","941.5999999046326","","","","49","0,1,1","5","forest","215","probe-21","0.21968334590964017","0.7751892949489152","0.2685522552399989","0","","","","","","","",""
"","html-keyboard-response","519","1857911","0.0-274.0-1.0","null","<p></p>","null","","","","","","","","","","","","","","","","","","",""
"","do_trial","520","1863173","0.0-275.0-0.0","693.7999999523163","","","","49","0,0,1","5","forest","216","probe-164","0.20927021999109513","0.7236224462115187","0.3330698199228624","0","","","","","","","",""
"","html-keyboard-response","521","1864176","0.0-275.0-1.0","null","<p></p>","null","","","","","","","","","","","","","","","","","","",""
"","do_trial","522","1869308","0.0-276.0-0.0","557.6999998092651","","","","50","0,1,0","5","forest","217","probe-174","0.10546958994489745","0.662826572984955","0.399767970104516","1","","","","","","","",""
"","html-keyboard-response","523","1870314","0.0-276.0-1.0","null","<p></p>","null","","","","","","","","","","","","","","","","","","",""
"","do_trial","524","1875378","0.0-277.0-0.0","482","","","","50","0,0,0","5","forest","218","probe-03","0.07426206742354537","0.6731459495533325","0.2747385161428037","0","","","","","","","",""
"","html-keyboard-response","525","1876394","0.0-277.0-1.0","null","<p></p>","null","","","","","","","","","","","","","","","","","","",""
"","do_trial","526","1881722","0.0-278.0-0.0","779.8999998569489","","","","51","0,1,0","5","forest","219","probe-04","0.0706878716920496","0.628626923719377","0.34653883582556544","0","","","","","","","",""
"","html-keyboard-response","527","1882733","0.0-278.0-1.0","null","<p></p>","null","","","","","","","","","","","","","","","","","","",""
"","do_trial","528","1888495","0.0-279.0-0.0","1204.2999999523163","","","","49","0,1,0","5","forest","220","probe-59","0.15088563265204513","0.6853307793895816","0.3035075513498302","0","","","","","","","",""
"","html-keyboard-response","529","1889510","0.0-279.0-1.0","null","<p></p>","null","","","","","","","","","","","","","","","","","","",""
