"success","trial_type","trial_index","time_elapsed","internal_node_id","interactions","blur_events","focus_events","fullscreenenter_events","fullscreenexit_events","rt","stimulus","key_press","subject_id","participant_id","age","gender","prompt","response","choice_outcomes","context_n","context_img_id","trial_n","probe_img_id","pR_red","pR_white","pR_black","outcome","contextArray_ind","validImageProbes","invalidImageProbes","pRew_Red","pRew_White","pRew_Black","availableForMemProbe","choice_blocks"
"true","fullscreen","0","4674","0.0-0.0","""event"",""trial"",""time""
""fullscreenenter"",""0"",""3758""
","
","
","""event"",""trial"",""time""
""fullscreenenter"",""0"",""3758""
","
","","","","","","","","","","","","","","","","","","","","","","","","","",""
"","pavlovia","1","4680","0.0-1.0","""event"",""trial"",""time""
""fullscreenenter"",""0"",""3758""
","
","
","""event"",""trial"",""time""
""fullscreenenter"",""0"",""3758""
","
","","","","","","","","","","","","","","","","","","","","","","","","","",""
"","instruc1","2","50050","0.0-2.0","""event"",""trial"",""time""
""fullscreenenter"",""0"",""3758""
","
","
","""event"",""trial"",""time""
""fullscreenenter"",""0"",""3758""
","
","null","run_exp/static/audio/clip_1_welcome.m4a","null","388","618","25","Female","<div class='center'><p>Welcome! This is the first part of the study. It will last ~30 minutes. In part 1 and part 2 of the study, you are the head captain of a pirate ship traveling around the world to different islands. You will play a few different games throughout these two parts. Here is an overview of them:</p><br><p>Part 1 (today)</p><p>1. Instructions, practice game, and quiz</p><p>2. Pick a pirate game on 6 different islands</p><br><p>Part 2 (tomorrow)</p><p>3. Pick a pirate game and memory game</p><p>4. Where did you see this ship? </p></div>","","","","","","","","","","","","","","","","","",""
"","html-keyboard-response","3","50269","0.0-3.0","""event"",""trial"",""time""
""fullscreenenter"",""0"",""3758""
","
","
","""event"",""trial"",""time""
""fullscreenenter"",""0"",""3758""
","
","216.60000002384186","<div class='center'><p>Welcome! This is the first part of the study. It will last ~30 minutes. In part 1 and part 2 of the study, you are the head captain of a pirate ship traveling around the world to different islands. You will play a few different games throughout these two parts. Here is an overview of them:</p><br><p>Part 1 (today)</p><p>1. Instructions, practice game, and quiz</p><p>2. Pick a pirate game on 6 different islands</p><br><p>Part 2 (tomorrow)</p><p>3. Pick a pirate game and memory game</p><p>4. Where did you see this ship? </p><p><b>[Press the space bar to continue]</b></p></div>","32","","","","","","","","","","","","","","","","","","","","","","",""
"","instruc2","4","55619","0.0-4.0","""event"",""trial"",""time""
""fullscreenenter"",""0"",""3758""
","
","
","""event"",""trial"",""time""
""fullscreenenter"",""0"",""3758""
","
","null","run_exp/static/audio/clip_2_different_places.m4a","null","","","","","<div class='center'><p>Today, you’ll visit these 6 islands on your journey. You'll be able to see these islands from your ship.</p><p><img src='run_exp/static/images/contexts/all_contexts.png' height='500'></p></div>","","","","","","","","","","","","","","","","","",""
"","html-keyboard-response","5","58874","0.0-5.0","""event"",""trial"",""time""
""fullscreenenter"",""0"",""3758""
","
","
","""event"",""trial"",""time""
""fullscreenenter"",""0"",""3758""
","
","3244.899999976158","<div class='center'><p>Today, you’ll visit these 6 islands on your journey. You'll be able to see these islands from your ship.</p><p><img src='run_exp/static/images/contexts/all_contexts.png' height='500'></p><p><b>[Press the space bar to continue]</b></p></div>","32","","","","","","","","","","","","","","","","","","","","","","",""
"","instruc3","6","68630","0.0-6.0","""event"",""trial"",""time""
""fullscreenenter"",""0"",""3758""
","
","
","""event"",""trial"",""time""
""fullscreenenter"",""0"",""3758""
","
","null","run_exp/static/audio/clip_3_goal_of_game_1.m4a","null","","","","","<div class='center'><p> The pirates on your ship will rob other ships as they leave the island.</p> These ships have just sold their goods to the islanders, so they will be filled with lots and lots of gold.</p><p><img src='run_exp/static/images/tutorial/ship_center.png' height='400'></p></div>","","","","","","","","","","","","","","","","","",""
"","html-keyboard-response","7","70160","0.0-7.0","""event"",""trial"",""time""
""fullscreenenter"",""0"",""3758""
","
","
","""event"",""trial"",""time""
""fullscreenenter"",""0"",""3758""
","
","1528.5","<div class='center'><p> The pirates on your ship will rob other ships as they leave the island.</p> These ships have just sold their goods to the islanders, so they will be filled with lots and lots of gold.</p><p><img src='run_exp/static/images/tutorial/ship_center.png' height='400'></p><p><b>[Press the space bar to continue]</b></p></div>","32","","","","","","","","","","","","","","","","","","","","","","",""
"","instruc4","8","98218","0.0-8.0","""event"",""trial"",""time""
""fullscreenenter"",""0"",""3758""
","
","
","""event"",""trial"",""time""
""fullscreenenter"",""0"",""3758""
","
","null","run_exp/static/audio/clip_4_goal_of_game_2.m4a","null","","","","","<div class='center'><p>As the head captain, you do not have to rob any ships yourself. Another pirate will be doing the robbing for you. First, you will choose a pirate to rob the next ship.</p><p><img src='run_exp/static/images/tutorial/pirates_all_crop.png' height='200'></p><p>Then, you'll see if the pirate successfully robbed the ship of their gold. If they were successful, then you'll get a stack of gold coins like this:</p><p><img src='run_exp/static/images/tutorial/reward.png' height='150'></p><p> If they were <b>not</b> successful, then you'll get no gold coins, and you'll see a big red x like this: </p><p><img src='run_exp/static/images/tutorial/reward_no.png' height='150'></p><p> How much bonus money you make is based on how many gold coins you collect.</p><div>","","","","","","","","","","","","","","","","","",""
"","html-keyboard-response","9","99229","0.0-9.0","""event"",""trial"",""time""
""fullscreenenter"",""0"",""3758""
","
","
","""event"",""trial"",""time""
""fullscreenenter"",""0"",""3758""
","
","1008.7999999523163","<div class='center'><p>As the head captain, you do not have to rob any ships yourself. Another pirate will be doing the robbing for you. First, you will choose a pirate to rob the next ship.</p><p><img src='run_exp/static/images/tutorial/pirates_all_crop.png' height='200'></p><p>Then, you'll see if the pirate successfully robbed the ship of their gold. If they were successful, then you'll get a stack of gold coins like this:</p><p><img src='run_exp/static/images/tutorial/reward.png' height='150'></p><p> If they were <b>not</b> successful, then you'll get no gold coins, and you'll see a big red x like this: </p><p><img src='run_exp/static/images/tutorial/reward_no.png' height='150'></p><p> How much bonus money you make is based on how many gold coins you collect.</p<p><b>[Press the space bar to continue]</b></p></div>","32","","","","","","","","","","","","","","","","","","","","","","",""
"","instruc5","10","120513","0.0-10.0","""event"",""trial"",""time""
""fullscreenenter"",""0"",""3758""
","
","
","""event"",""trial"",""time""
""fullscreenenter"",""0"",""3758""
","
","21281.700000047684","run_exp/static/audio/clip_5_probabilistic.m4a","49","","","","","<div class='center'><p>Even the most skilled pirate can not rob EVERY ship.</p><p> Some ships will have very strong protections against pirate attacks.</p><p> Blue beard, here, is very, very good at robbing ships, but he won't be successful every time he tries to rob one.</p><p> You can press the <b>‘1’</b> key on the keyboard to choose him.</p><p> Try choosing him 10 times to see how often he succeeds at robbing a ship. </p><p><img src='run_exp/static/images/tutorial/blue.png' height='500'></p></div>","","","","","","","","","","","","","","","","","",""
"","html-keyboard-response","11","122015","0.0-11.0","""event"",""trial"",""time""
""fullscreenenter"",""0"",""3758""
","
","
","""event"",""trial"",""time""
""fullscreenenter"",""0"",""3758""
","
","null","<div class='center'><p><img src='run_exp/static/images/tutorial/blue_win.png' height='500'></p></div>","null","","","","","","","","","","","","","","","","","","","","","","",""
"","html-keyboard-response","12","123008","0.0-12.0","""event"",""trial"",""time""
""fullscreenenter"",""0"",""3758""
","
","
","""event"",""trial"",""time""
""fullscreenenter"",""0"",""3758""
","
","992","<div class='center'><img src='run_exp/static/images/tutorial/blue.png' height='500'></p></div>","49","","","","","","","","","","","","","","","","","","","","","","",""
"","html-keyboard-response","13","124510","0.0-13.0","""event"",""trial"",""time""
""fullscreenenter"",""0"",""3758""
","
","
","""event"",""trial"",""time""
""fullscreenenter"",""0"",""3758""
","
","null","<div class='center'><p><img src='run_exp/static/images/tutorial/blue_win.png' height='500'></p></div>","null","","","","","","","","","","","","","","","","","","","","","","",""
"","html-keyboard-response","14","125168","0.0-14.0","""event"",""trial"",""time""
""fullscreenenter"",""0"",""3758""
","
","
","""event"",""trial"",""time""
""fullscreenenter"",""0"",""3758""
","
","655.5","<div class='center'><img src='run_exp/static/images/tutorial/blue.png' height='500'></p></div>","49","","","","","","","","","","","","","","","","","","","","","","",""
"","html-keyboard-response","15","126670","0.0-15.0","""event"",""trial"",""time""
""fullscreenenter"",""0"",""3758""
","
","
","""event"",""trial"",""time""
""fullscreenenter"",""0"",""3758""
","
","null","<div class='center'><p><img src='run_exp/static/images/tutorial/blue_win.png' height='500'></p></div>","null","","","","","","","","","","","","","","","","","","","","","","",""
"","html-keyboard-response","16","127209","0.0-16.0","""event"",""trial"",""time""
""fullscreenenter"",""0"",""3758""
","
","
","""event"",""trial"",""time""
""fullscreenenter"",""0"",""3758""
","
","536.6000000238419","<div class='center'><img src='run_exp/static/images/tutorial/blue.png' height='500'></p></div>","49","","","","","","","","","","","","","","","","","","","","","","",""
"","html-keyboard-response","17","128713","0.0-17.0","""event"",""trial"",""time""
""fullscreenenter"",""0"",""3758""
","
","
","""event"",""trial"",""time""
""fullscreenenter"",""0"",""3758""
","
","null","<div class='center'><p><img src='run_exp/static/images/tutorial/blue_no_win.png' height='500'></p></div>","null","","","","","","","","","","","","","","","","","","","","","","",""
"","html-keyboard-response","18","129131","0.0-18.0","""event"",""trial"",""time""
""fullscreenenter"",""0"",""3758""
","
","
","""event"",""trial"",""time""
""fullscreenenter"",""0"",""3758""
","
","416.5","<div class='center'><img src='run_exp/static/images/tutorial/blue.png' height='500'></p></div>","49","","","","","","","","","","","","","","","","","","","","","","",""
"","html-keyboard-response","19","130637","0.0-19.0","""event"",""trial"",""time""
""fullscreenenter"",""0"",""3758""
","
","
","""event"",""trial"",""time""
""fullscreenenter"",""0"",""3758""
","
","null","<div class='center'><p><img src='run_exp/static/images/tutorial/blue_win.png' height='500'></p></div>","null","","","","","","","","","","","","","","","","","","","","","","",""
"","html-keyboard-response","20","130996","0.0-20.0","""event"",""trial"",""time""
""fullscreenenter"",""0"",""3758""
","
","
","""event"",""trial"",""time""
""fullscreenenter"",""0"",""3758""
","
","357.3000000715256","<div class='center'><img src='run_exp/static/images/tutorial/blue.png' height='500'></p></div>","49","","","","","","","","","","","","","","","","","","","","","","",""
"","html-keyboard-response","21","132500","0.0-21.0","""event"",""trial"",""time""
""fullscreenenter"",""0"",""3758""
","
","
","""event"",""trial"",""time""
""fullscreenenter"",""0"",""3758""
","
","null","<div class='center'><p><img src='run_exp/static/images/tutorial/blue_win.png' height='500'></p></div>","null","","","","","","","","","","","","","","","","","","","","","","",""
"","html-keyboard-response","22","132946","0.0-22.0","""event"",""trial"",""time""
""fullscreenenter"",""0"",""3758""
","
","
","""event"",""trial"",""time""
""fullscreenenter"",""0"",""3758""
","
","444.10000002384186","<div class='center'><img src='run_exp/static/images/tutorial/blue.png' height='500'></p></div>","49","","","","","","","","","","","","","","","","","","","","","","",""
"","html-keyboard-response","23","134452","0.0-23.0","""event"",""trial"",""time""
""fullscreenenter"",""0"",""3758""
","
","
","""event"",""trial"",""time""
""fullscreenenter"",""0"",""3758""
","
","null","<div class='center'><p><img src='run_exp/static/images/tutorial/blue_win.png' height='500'></p></div>","null","","","","","","","","","","","","","","","","","","","","","","",""
"","html-keyboard-response","24","134746","0.0-24.0","""event"",""trial"",""time""
""fullscreenenter"",""0"",""3758""
","
","
","""event"",""trial"",""time""
""fullscreenenter"",""0"",""3758""
","
","292.60000002384186","<div class='center'><img src='run_exp/static/images/tutorial/blue.png' height='500'></p></div>","49","","","","","","","","","","","","","","","","","","","","","","",""
"","html-keyboard-response","25","136248","0.0-25.0","""event"",""trial"",""time""
""fullscreenenter"",""0"",""3758""
","
","
","""event"",""trial"",""time""
""fullscreenenter"",""0"",""3758""
","
","null","<div class='center'><p><img src='run_exp/static/images/tutorial/blue_no_win.png' height='500'></p></div>","null","","","","","","","","","","","","","","","","","","","","","","",""
"","html-keyboard-response","26","136487","0.0-26.0","""event"",""trial"",""time""
""fullscreenenter"",""0"",""3758""
","
","
","""event"",""trial"",""time""
""fullscreenenter"",""0"",""3758""
","
","237.89999997615814","<div class='center'><img src='run_exp/static/images/tutorial/blue.png' height='500'></p></div>","49","","","","","","","","","","","","","","","","","","","","","","",""
"","html-keyboard-response","27","137989","0.0-27.0","""event"",""trial"",""time""
""fullscreenenter"",""0"",""3758""
","
","
","""event"",""trial"",""time""
""fullscreenenter"",""0"",""3758""
","
","null","<div class='center'><p><img src='run_exp/static/images/tutorial/blue_win.png' height='500'></p></div>","null","","","","","","","","","","","","","","","","","","","","","","",""
"","html-keyboard-response","28","138394","0.0-28.0","""event"",""trial"",""time""
""fullscreenenter"",""0"",""3758""
","
","
","""event"",""trial"",""time""
""fullscreenenter"",""0"",""3758""
","
","404.5","<div class='center'><img src='run_exp/static/images/tutorial/blue.png' height='500'></p></div>","49","","","","","","","","","","","","","","","","","","","","","","",""
"","html-keyboard-response","29","139897","0.0-29.0","""event"",""trial"",""time""
""fullscreenenter"",""0"",""3758""
","
","
","""event"",""trial"",""time""
""fullscreenenter"",""0"",""3758""
","
","null","<div class='center'><p><img src='run_exp/static/images/tutorial/blue_win.png' height='500'></p></div>","null","","","","","","","","","","","","","","","","","","","","","","",""
"","instruc6","30","145353","0.0-30.0","""event"",""trial"",""time""
""fullscreenenter"",""0"",""3758""
","
","
","""event"",""trial"",""time""
""fullscreenenter"",""0"",""3758""
","
","null","run_exp/static/audio/clip_6_blue_beard_outcome.m4a","null","","","","","<div class='center'><p> See, he succeeded in robbing the ships most of the time but not every time. </p></div>","","","","","","","","","","","","","","","","","",""
"","html-keyboard-response","31","146467","0.0-31.0","""event"",""trial"",""time""
""fullscreenenter"",""0"",""3758""
","
","
","""event"",""trial"",""time""
""fullscreenenter"",""0"",""3758""
","
","1113.3999999761581","<div class='center'><p> See, he succeeded in robbing the ships most of the time but not every time. </p><p><b>[Press the space bar to continue]</b></p></div>","32","","","","","","","","","","","","","","","","","","","","","","",""
"","audio-keyboard-response","32","161155","0.0-32.0","""event"",""trial"",""time""
""fullscreenenter"",""0"",""3758""
","
","
","""event"",""trial"",""time""
""fullscreenenter"",""0"",""3758""
","
","14697.5","run_exp/static/audio/clip_7_pick_pirate.m4a","49","","","","","","","","","","","","","","","","","","","","","","",""
"","audio-keyboard-response","33","165226","0.0-33.0-0.0","""event"",""trial"",""time""
""fullscreenenter"",""0"",""3758""
","
","
","""event"",""trial"",""time""
""fullscreenenter"",""0"",""3758""
","
","4073.399999976158","run_exp/static/audio/clip_8_chosen_pirate_win.m4a","32","","","","","","","","","","","","","","","","","","","","","","",""
"","audio-keyboard-response","34","166706","0.0-33.0-1.0","""event"",""trial"",""time""
""fullscreenenter"",""0"",""3758""
","
","
","""event"",""trial"",""time""
""fullscreenenter"",""0"",""3758""
","
","1479.5","run_exp/static/audio/clip_9_pick_a_pirate_again.m4a","50","","","","","","","","","","","","","","","","","","","","","","",""
"","audio-keyboard-response","35","168867","0.0-34.0-0.0","""event"",""trial"",""time""
""fullscreenenter"",""0"",""3758""
","
","
","""event"",""trial"",""time""
""fullscreenenter"",""0"",""3758""
","
","2160.6999999284744","run_exp/static/audio/clip_10_chosen_pirate_loss.m4a","32","","","","","","","","","","","","","","","","","","","","","","",""
"","instruc9","36","174426","0.0-35.0-0.0","""event"",""trial"",""time""
""fullscreenenter"",""0"",""3758""
","
","
","""event"",""trial"",""time""
""fullscreenenter"",""0"",""3758""
","
","null","run_exp/static/audio/clip_11_time_out.m4a","null","","","","","<div class='center'><p>If you don’t make your choice fast enough, you’ll have to wait a few seconds before you can make another one. </p><p><img src='run_exp/static/images/miscellaneous/hurry_up.png' height='500'></p></div>","","","","","","","","","","","","","","","","","",""
"","html-keyboard-response","37","175329","0.0-35.0-1.0","""event"",""trial"",""time""
""fullscreenenter"",""0"",""3758""
","
","
","""event"",""trial"",""time""
""fullscreenenter"",""0"",""3758""
","
","902.4000000953674","<div class='center'><p>If you don’t make your choice fast enough, you’ll have to wait a few seconds before you can make another one. </p><p><img src='run_exp/static/images/miscellaneous/hurry_up.png' height='500'></p><p><b>[Press the space bar to continue]</b></p></div>","32","","","","","","","","","","","","","","","","","","","","","","",""
"","instruc10","38","214458","0.0-35.0-2.0","""event"",""trial"",""time""
""fullscreenenter"",""0"",""3758""
","
","
","""event"",""trial"",""time""
""fullscreenenter"",""0"",""3758""
","
","null","run_exp/static/audio/clip_12_probe.m4a","null","","","","","<div class='center'><p>Once you've chosen a pirate, you’ll be shown the ship they are robbing. You will never rob the same ship twice. Ships can be told apart from one another by the image on them. These are the goods that they sell. See, this ship has a travel mug on it. </p><p> You’ll have to remember which island you saw each ship on. You will win more gold coins and hence more bonus money if you remember correctly! To help you remember, you can imagine a story. For example, here, you could imagine a mug full of water in the desert. Or, as another example, if on the forest island, your pirate robbed a ship with an apple on it, you could imagine an apple falling from a tree in the forest. </p><p><img src='run_exp/static/images/tutorial/example_probe.png' height='500'></p></div>","","","","","","","","","","","","","","","","","",""
"","html-keyboard-response","39","214914","0.0-35.0-3.0","""event"",""trial"",""time""
""fullscreenenter"",""0"",""3758""
","
","
","""event"",""trial"",""time""
""fullscreenenter"",""0"",""3758""
","
","453.8000000715256","<div class='center'><p>Once you've chosen a pirate, you’ll be shown the ship they are robbing. You will never rob the same ship twice. Ships can be told apart from one another by the image on them. These are the goods that they sell. See, this ship has a travel mug on it. </p><p> You’ll have to remember which island you saw each ship on. You will win more gold coins and hence more bonus money if you remember correctly! To help you remember, you can imagine a story. For example, here, you could imagine a mug full of water in the desert. Or, as another example, if on the forest island, your pirate robbed a ship with an apple on it, you could imagine an apple falling from a tree in the forest. </p><p><img src='run_exp/static/images/tutorial/example_probe.png' height='500'></p><p><b>[Press the space bar to continue]</b></p></div>","32","","","","","","","","","","","","","","","","","","","","","","",""
"","instruc11","40","231353","0.0-35.0-4.0","""event"",""trial"",""time""
""fullscreenenter"",""0"",""3758""
","
","
","""event"",""trial"",""time""
""fullscreenenter"",""0"",""3758""
","
","null","run_exp/static/audio/clip_13_changepoint.m4a","null","","","","","<div class='center'><p>How successful a pirate is at robbing ships will depend on the island you’re on.</p><p> A pirate may have visited this island many times before and gained a lot of practice robbing ships there.</p><p>So, they’re more likely to be successful than a pirate who has never visited the island before.</p></div>","","","","","","","","","","","","","","","","","",""
"","html-keyboard-response","41","232548","0.0-35.0-5.0","""event"",""trial"",""time""
""fullscreenenter"",""0"",""3758""
","
","
","""event"",""trial"",""time""
""fullscreenenter"",""0"",""3758""
","
","1193.7000000476837","<div class='center'><p>How successful a pirate is at robbing ships will depend on the island you’re on.</p><p> A pirate may have visited this island many times before and gained a lot of practice robbing ships there.</p><p>So, they’re more likely to be successful than a pirate who has never visited the island before.</p><p><b>[Press the space bar to continue]</b></p></div>","32","","","","","","","","","","","","","","","","","","","","","","",""
"","instruc12","42","273677","0.0-35.0-6.0","""event"",""trial"",""time""
""fullscreenenter"",""0"",""3758""
","
","
","""event"",""trial"",""time""
""fullscreenenter"",""0"",""3758""
","
","null","run_exp/static/audio/clip_14_drift.m4a","null","","","","","<div class='center'><p>How successful a pirate is at robbing ships can also change over the time spent on the island. </p><p> Ships may hear from islanders about the pirates coming and will improve their protections against the attack. This may make it harder to rob them.</p><p> Ships may also become lazy and weaken the strength of their protections. This may make it easier to rob them.</p><br><p>Things are always changing on the high seas! So, try your best to pay attention!</p><p><img src='run_exp/static/images/tutorial/contingency.png' height='500'></p></div>","","","","","","","","","","","","","","","","","",""
"","html-keyboard-response","43","274923","0.0-35.0-7.0","""event"",""trial"",""time""
""fullscreenenter"",""0"",""3758""
","
","
","""event"",""trial"",""time""
""fullscreenenter"",""0"",""3758""
","
","1244","<div class='center'><p>How successful a pirate is at robbing ships can also change over the time spent on the island. </p><p> Ships may hear from islanders about the pirates coming and will improve their protections against the attack. This may make it harder to rob them.</p><p> Ships may also become lazy and weaken the strength of their protections. This may make it easier to rob them.</p><br><p>Things are always changing on the high seas! So, try your best to pay attention!</p><p><img src='run_exp/static/images/tutorial/contingency.png' height='500'></p><p><b>[Press the space bar to continue]</b></p></div>","32","","","","","","","","","","","","","","","","","","","","","","",""
"","instruc13","44","310156","0.0-35.0-8.0","""event"",""trial"",""time""
""fullscreenenter"",""0"",""3758""
","
","
","""event"",""trial"",""time""
""fullscreenenter"",""0"",""3758""
","
","null","run_exp/static/audio/clip_15_summary.m4a","null","","","","","<div class='center'><p>Let's go over the instructions quickly again. You have two important things to do: </p><b><p> 1. Pick the pirate who is the best at robbing ships on the current island. </p></b><b><p> 2. Remember on which island a ship was robbed.</p> </b><p>The amount of bonus money you can win depends on both.</p><p><br><p>Let’s try a practice game. The game will start by showing you the pirates. First, pick a pirate using the <b> 1, 2, 3 </b> keys on your keyboard. When you are shown a ship, try to remember which island you’re on by making up a story.</p><p>This is just a practice game, so you’re not playing for money. </p><p> Good luck! This game will be very difficult but try your best!</p></div>","","","","","","","","","","","","","","","","","",""
"","html-keyboard-response","45","310651","0.0-35.0-9.0","""event"",""trial"",""time""
""fullscreenenter"",""0"",""3758""
","
","
","""event"",""trial"",""time""
""fullscreenenter"",""0"",""3758""
","
","493.6999999284744","<div class='center'><p>Let's go over the instructions quickly again. You have two important things to do: </p><b><p> 1. Pick the pirate who is the best at robbing ships on the current island. </p></b><b><p> 2. Remember on which island a ship was robbed.</p> </b><p>The amount of bonus money you can win depends on both.</p><p><br><p>Let’s try a practice game. The game will start by showing you the pirates. First, pick a pirate using the <b> 1, 2, 3 </b> keys on your keyboard. When you are shown a ship, try to remember which island you’re on by making up a story.</p><p>This is just a practice game, so you’re not playing for money. </p><p> Good luck! This game will be very difficult but try your best!</p><p><b>[Press the space bar to continue]</b></p></div>","32","","","","","","","","","","","","","","","","","","","","","","",""
"","do_welcome","46","314663","0.0-35.0-10.0","""event"",""trial"",""time""
""fullscreenenter"",""0"",""3758""
","
","
","""event"",""trial"",""time""
""fullscreenenter"",""0"",""3758""
","
","null","","","","","","","","null","","","","","","","","","","","","","","","","",""
"","do_trial","47","320544","0.0-35.0-11.0","""event"",""trial"",""time""
""fullscreenenter"",""0"",""3758""
","
","
","""event"",""trial"",""time""
""fullscreenenter"",""0"",""3758""
","
","1366.6000000238419","","","","","","","","50","1,0,0","","","","","","","","","","","","","","","",""
"","html-keyboard-response","48","321547","0.0-36.0-0.0","""event"",""trial"",""time""
""fullscreenenter"",""0"",""3758""
","
","
","""event"",""trial"",""time""
""fullscreenenter"",""0"",""3758""
","
","null","<p></p>","null","","","","","","","","","","","","","","","","","","","","","","",""
"","do_trial","49","326865","0.0-36.0-1.0","""event"",""trial"",""time""
""fullscreenenter"",""0"",""3758""
","
","
","""event"",""trial"",""time""
""fullscreenenter"",""0"",""3758""
","
","806.2999999523163","","","","","","","","49","1,1,0","","","","","","","","","","","","","","","",""
"","html-keyboard-response","50","327872","0.0-37.0-0.0","""event"",""trial"",""time""
""fullscreenenter"",""0"",""3758""
","
","
","""event"",""trial"",""time""
""fullscreenenter"",""0"",""3758""
","
","null","<p></p>","null","","","","","","","","","","","","","","","","","","","","","","",""
"","do_trial","51","332936","0.0-37.0-1.0","""event"",""trial"",""time""
""fullscreenenter"",""0"",""3758""
","
","
","""event"",""trial"",""time""
""fullscreenenter"",""0"",""3758""
","
","550.7000000476837","","","","","","","","49","1,0,1","","","","","","","","","","","","","","","",""
"","html-keyboard-response","52","333942","0.0-38.0-0.0","""event"",""trial"",""time""
""fullscreenenter"",""0"",""3758""
","
","
","""event"",""trial"",""time""
""fullscreenenter"",""0"",""3758""
","
","null","<p></p>","null","","","","","","","","","","","","","","","","","","","","","","",""
"","do_trial","53","339253","0.0-38.0-1.0","""event"",""trial"",""time""
""fullscreenenter"",""0"",""3758""
","
","
","""event"",""trial"",""time""
""fullscreenenter"",""0"",""3758""
","
","800.5","","","","","","","","49","0,1,0","","","","","","","","","","","","","","","",""
"","html-keyboard-response","54","340256","0.0-39.0-0.0","""event"",""trial"",""time""
""fullscreenenter"",""0"",""3758""
","
","
","""event"",""trial"",""time""
""fullscreenenter"",""0"",""3758""
","
","null","<p></p>","null","","","","","","","","","","","","","","","","","","","","","","",""
"","do_trial","55","345310","0.0-39.0-1.0","""event"",""trial"",""time""
""fullscreenenter"",""0"",""3758""
","
","
","""event"",""trial"",""time""
""fullscreenenter"",""0"",""3758""
","
","542.5","","","","","","","","49","1,0,0","","","","","","","","","","","","","","","",""
"","do_bye","56","346823","0.0-40.0-0.0","""event"",""trial"",""time""
""fullscreenenter"",""0"",""3758""
","
","
","""event"",""trial"",""time""
""fullscreenenter"",""0"",""3758""
","
","null","","","","","","","","null","","","","","","","","","","","","","","","","",""
"","do_travel","57","355831","0.0-40.0-1.0","""event"",""trial"",""time""
""fullscreenenter"",""0"",""3758""
","
","
","""event"",""trial"",""time""
""fullscreenenter"",""0"",""3758""
","
","null","","","","","","","","null","","","","","","","","","","","","","","","","",""
"","do_welcome","58","359842","0.0-40.0-2.0","""event"",""trial"",""time""
""fullscreenenter"",""0"",""3758""
","
","
","""event"",""trial"",""time""
""fullscreenenter"",""0"",""3758""
","
","null","","","","","","","","null","","","","","","","","","","","","","","","","",""
"","do_trial","59","365143","0.0-40.0-3.0","""event"",""trial"",""time""
""fullscreenenter"",""0"",""3758""
","
","
","""event"",""trial"",""time""
""fullscreenenter"",""0"",""3758""
","
","790.7999999523163","","","","","","","","51","1,0,0","","","","","","","","","","","","","","","",""
"","html-keyboard-response","60","366146","0.0-41.0-0.0","""event"",""trial"",""time""
""fullscreenenter"",""0"",""3758""
","
","
","""event"",""trial"",""time""
""fullscreenenter"",""0"",""3758""
","
","null","<p></p>","null","","","","","","","","","","","","","","","","","","","","","","",""
"","do_trial","61","371976","0.0-41.0-1.0","""event"",""trial"",""time""
""fullscreenenter"",""0"",""3758""
","
","
","""event"",""trial"",""time""
""fullscreenenter"",""0"",""3758""
","
","1316.8000000715256","","","","","","","","50","1,0,1","","","","","","","","","","","","","","","",""
"","html-keyboard-response","62","372982","0.0-42.0-0.0","""event"",""trial"",""time""
""fullscreenenter"",""0"",""3758""
","
","
","""event"",""trial"",""time""
""fullscreenenter"",""0"",""3758""
","
","null","<p></p>","null","","","","","","","","","","","","","","","","","","","","","","",""
"","do_trial","63","378054","0.0-42.0-1.0","""event"",""trial"",""time""
""fullscreenenter"",""0"",""3758""
","
","
","""event"",""trial"",""time""
""fullscreenenter"",""0"",""3758""
","
","561.6999999284744","","","","","","","","49","1,1,0","","","","","","","","","","","","","","","",""
"","html-keyboard-response","64","379061","0.0-43.0-0.0","""event"",""trial"",""time""
""fullscreenenter"",""0"",""3758""
","
","
","""event"",""trial"",""time""
""fullscreenenter"",""0"",""3758""
","
","null","<p></p>","null","","","","","","","","","","","","","","","","","","","","","","",""
"","do_trial","65","384259","0.0-43.0-1.0","""event"",""trial"",""time""
""fullscreenenter"",""0"",""3758""
","
","
","""event"",""trial"",""time""
""fullscreenenter"",""0"",""3758""
","
","688.0999999046326","","","","","","","","49","0,0,1","","","","","","","","","","","","","","","",""
"","html-keyboard-response","66","385264","0.0-44.0-0.0","""event"",""trial"",""time""
""fullscreenenter"",""0"",""3758""
","
","
","""event"",""trial"",""time""
""fullscreenenter"",""0"",""3758""
","
","null","<p></p>","null","","","","","","","","","","","","","","","","","","","","","","",""
"","do_trial","67","390185","0.0-44.0-1.0","""event"",""trial"",""time""
""fullscreenenter"",""0"",""3758""
","
","
","""event"",""trial"",""time""
""fullscreenenter"",""0"",""3758""
","
","406.10000002384186","","","","","","","","49","1,0,1","","","","","","","","","","","","","","","",""
"","html-keyboard-response","68","392856","0.0-45.0-0.0","""event"",""trial"",""time""
""fullscreenenter"",""0"",""3758""
","
","
","""event"",""trial"",""time""
""fullscreenenter"",""0"",""3758""
","
","2666.899999976158","<div class='center'><p><img src='run_exp/static/images/tutorial/prac_best_pirate.png'  height='500'></p></div>","49","","","","","","","","","","","","","","","","","","","","","","",""
"","html-keyboard-response","69","395527","0.0-46.0-0.0","""event"",""trial"",""time""
""fullscreenenter"",""0"",""3758""
","
","
","""event"",""trial"",""time""
""fullscreenenter"",""0"",""3758""
","
","2669.899999976158","<div class='center'><p>That's correct! Red beard was the best.</p><p><b>[Press the space bar to continue]</b></p></div>","32","","","","","","","","","","","","","","","","","","","","","","",""
"","html-keyboard-response","70","399533","0.0-46.0-1.0","""event"",""trial"",""time""
""fullscreenenter"",""0"",""3758""
","
","
","""event"",""trial"",""time""
""fullscreenenter"",""0"",""3758""
","
","4005.6999999284744","<div class='center'><p><img src='run_exp/static/images/tutorial/prac_source.png'  height='500'></p></div>","50","","","","","","","","","","","","","","","","","","","","","","",""
"","html-keyboard-response","71","400706","0.0-47.0-0.0","""event"",""trial"",""time""
""fullscreenenter"",""0"",""3758""
","
","
","""event"",""trial"",""time""
""fullscreenenter"",""0"",""3758""
","
","1170.6999999284744","<div class='center'><p>That's correct! You saw this ship on the cavern island.</p><p><b>[Press the space bar to continue]</b></p></div>","32","","","","","","","","","","","","","","","","","","","","","","",""
"","quiz_beginning","72","411960","0.0-47.0-1.0","""event"",""trial"",""time""
""fullscreenenter"",""0"",""3758""
","
","
","""event"",""trial"",""time""
""fullscreenenter"",""0"",""3758""
","
","null","run_exp/static/audio/clip_16_quiz_intro.m4a","null","","","","","<div class='center'><p>Good job on the practice game! Now, you will be asked some true or false questions to make sure you really understand the rules of the game.</p><p> Press <b>'1'</b> on the keyboard for true and press <b>'2'</b> for false.</p></div>","","","","","","","","","","","","","","","","","",""
"","audio-keyboard-response","73","414769","0.0-47.0-2.0","""event"",""trial"",""time""
""fullscreenenter"",""0"",""3758""
","
","
","""event"",""trial"",""time""
""fullscreenenter"",""0"",""3758""
","
","2808.100000023842","run_exp/static/audio/clip_17_q1.m4a","49","","","","","","","","","","","","","","","","","","","","","","",""
"","correct","74","417187","0.0-48.0-0.0","""event"",""trial"",""time""
""fullscreenenter"",""0"",""3758""
","
","
","""event"",""trial"",""time""
""fullscreenenter"",""0"",""3758""
","
","null","run_exp/static/audio/clip_18_correct.m4a","null","","","","","<div class='center'><p>That's correct!</p></div>","","","","","","","","","","","","","","","","","",""
"","html-keyboard-response","75","418265","0.0-48.0-1.0","""event"",""trial"",""time""
""fullscreenenter"",""0"",""3758""
","
","
","""event"",""trial"",""time""
""fullscreenenter"",""0"",""3758""
","
","1076.6999999284744","<div class='center'><p>That's correct!</p><p><b>[Press the space bar to continue]</b></p></div>","32","","","","","","","","","","","","","","","","","","","","","","",""
"","audio-keyboard-response","76","425770","0.0-48.0-2.0","""event"",""trial"",""time""
""fullscreenenter"",""0"",""3758""
","
","
","""event"",""trial"",""time""
""fullscreenenter"",""0"",""3758""
","
","7504.300000071526","run_exp/static/audio/clip_20_q2.m4a","50","","","","","","","","","","","","","","","","","","","","","","",""
"","correct","77","428172","0.0-49.0-0.0","""event"",""trial"",""time""
""fullscreenenter"",""0"",""3758""
","
","
","""event"",""trial"",""time""
""fullscreenenter"",""0"",""3758""
","
","null","run_exp/static/audio/clip_18_correct.m4a","null","","","","","<div class='center'><p>That's correct!</p></div>","","","","","","","","","","","","","","","","","",""
"","html-keyboard-response","78","428452","0.0-49.0-1.0","""event"",""trial"",""time""
""fullscreenenter"",""0"",""3758""
","
","
","""event"",""trial"",""time""
""fullscreenenter"",""0"",""3758""
","
","279.2000000476837","<div class='center'><p>That's correct!</p><p><b>[Press the space bar to continue]</b></p></div>","32","","","","","","","","","","","","","","","","","","","","","","",""
"","audio-keyboard-response","79","434404","0.0-49.0-2.0","""event"",""trial"",""time""
""fullscreenenter"",""0"",""3758""
","
","
","""event"",""trial"",""time""
""fullscreenenter"",""0"",""3758""
","
","5950.700000047684","run_exp/static/audio/clip_22_q3.m4a","50","","","","","","","","","","","","","","","","","","","","","","",""
"","correct","80","436833","0.0-50.0-0.0","""event"",""trial"",""time""
""fullscreenenter"",""0"",""3758""
","
","
","""event"",""trial"",""time""
""fullscreenenter"",""0"",""3758""
","
","null","run_exp/static/audio/clip_18_correct.m4a","null","","","","","<div class='center'><p>That's correct!</p></div>","","","","","","","","","","","","","","","","","",""
"","html-keyboard-response","81","437073","0.0-50.0-1.0","""event"",""trial"",""time""
""fullscreenenter"",""0"",""3758""
","
","
","""event"",""trial"",""time""
""fullscreenenter"",""0"",""3758""
","
","239.70000004768372","<div class='center'><p>That's correct!</p><p><b>[Press the space bar to continue]</b></p></div>","32","","","","","","","","","","","","","","","","","","","","","","",""
"","audio-keyboard-response","82","442364","0.0-50.0-2.0","""event"",""trial"",""time""
""fullscreenenter"",""0"",""3758""
","
","
","""event"",""trial"",""time""
""fullscreenenter"",""0"",""3758""
","
","5290.299999952316","run_exp/static/audio/clip_24_q4.m4a","49","","","","","","","","","","","","","","","","","","","","","","",""
"","correct","83","444812","0.0-51.0-0.0","""event"",""trial"",""time""
""fullscreenenter"",""0"",""3758""
","
","
","""event"",""trial"",""time""
""fullscreenenter"",""0"",""3758""
","
","null","run_exp/static/audio/clip_18_correct.m4a","null","","","","","<div class='center'><p>That's correct!</p></div>","","","","","","","","","","","","","","","","","",""
"","html-keyboard-response","84","445214","0.0-51.0-1.0","""event"",""trial"",""time""
""fullscreenenter"",""0"",""3758""
","
","
","""event"",""trial"",""time""
""fullscreenenter"",""0"",""3758""
","
","401.2000000476837","<div class='center'><p>That's correct!</p><p><b>[Press the space bar to continue]</b></p></div>","32","","","","","","","","","","","","","","","","","","","","","","",""
"","q_all_corr","85","453729","0.0-52.0-0.0","""event"",""trial"",""time""
""fullscreenenter"",""0"",""3758""
","
","
","""event"",""trial"",""time""
""fullscreenenter"",""0"",""3758""
","
","null","run_exp/static/audio/clip_27_quiz_all_correct.m4a","null","","","","","<div class='center'><p>Good job! You’re now ready to move on to the real game! Remember this game will be difficult but don't get discouraged and try your best!</p></div>","","","","","","","","","","","","","","","","","",""
"","html-keyboard-response","86","454262","0.0-52.0-1.0","""event"",""trial"",""time""
""fullscreenenter"",""0"",""3758""
","
","
","""event"",""trial"",""time""
""fullscreenenter"",""0"",""3758""
","
","531.1000000238419","<div class='center'><p>Good job! You’re now ready to move on to the real game! Remember this game will be difficult but don't get discouraged and try your best!</p><p><b>[Press the space bar to continue]</b></p></div>","32","","","","","","","","","","","","","","","","","","","","","","",""
"","do_welcome","87","458272","0.0-53.0-0.0","""event"",""trial"",""time""
""fullscreenenter"",""0"",""3758""
","
","
","""event"",""trial"",""time""
""fullscreenenter"",""0"",""3758""
","
","null","","","","","","","","null","","","","","","","","","","","","","","","","",""
"","do_trial","88","464111","0.0-54.0-0.0","""event"",""trial"",""time""
""fullscreenenter"",""0"",""3758""
","
","
","""event"",""trial"",""time""
""fullscreenenter"",""0"",""3758""
","
","1291.5","","","","","","","","50","0,1,0","0","city","0","probe-72","0.6","0.3","0.1","1","","","","","","","",""
"","html-keyboard-response","89","465117","0.0-54.0-1.0","""event"",""trial"",""time""
""fullscreenenter"",""0"",""3758""
","
","
","""event"",""trial"",""time""
""fullscreenenter"",""0"",""3758""
","
","null","<p></p>","null","","","","","","","","","","","","","","","","","","","","","","",""
"","do_trial","90","470121","0.0-55.0-0.0","""event"",""trial"",""time""
""fullscreenenter"",""0"",""3758""
","
","
","""event"",""trial"",""time""
""fullscreenenter"",""0"",""3758""
","
","450.6999999284744","","","","","","","","50","0,1,0","0","city","1","probe-194","0.57663588267447","0.3246543224763117","0.08087915479013086","1","","","","","","","",""
"","html-keyboard-response","91","471127","0.0-55.0-1.0","""event"",""trial"",""time""
""fullscreenenter"",""0"",""3758""
","
","
","""event"",""trial"",""time""
""fullscreenenter"",""0"",""3758""
","
","null","<p></p>","null","","","","","","","","","","","","","","","","","","","","","","",""
"","do_trial","92","476423","0.0-56.0-0.0","""event"",""trial"",""time""
""fullscreenenter"",""0"",""3758""
","
","
","""event"",""trial"",""time""
""fullscreenenter"",""0"",""3758""
","
","746","","","","","","","","50","1,0,0","0","city","2","probe-26","0.5990799657161905","0.24699162591067836","0.09552591334464518","0","","","","","","","",""
"","html-keyboard-response","93","477425","0.0-56.0-1.0","""event"",""trial"",""time""
""fullscreenenter"",""0"",""3758""
","
","
","""event"",""trial"",""time""
""fullscreenenter"",""0"",""3758""
","
","null","<p></p>","null","","","","","","","","","","","","","","","","","","","","","","",""
"","do_trial","94","482526","0.0-57.0-0.0","""event"",""trial"",""time""
""fullscreenenter"",""0"",""3758""
","
","
","""event"",""trial"",""time""
""fullscreenenter"",""0"",""3758""
","
","546.7000000476837","","","","","","","","50","1,0,0","0","city","3","probe-42","0.5858808089841461","0.2144520925888495","0.19285544788722128","0","","","","","","","",""
"","html-keyboard-response","95","483532","0.0-57.0-1.0","""event"",""trial"",""time""
""fullscreenenter"",""0"",""3758""
","
","
","""event"",""trial"",""time""
""fullscreenenter"",""0"",""3758""
","
","null","<p></p>","null","","","","","","","","","","","","","","","","","","","","","","",""
"","do_trial","96","488712","0.0-58.0-0.0","""event"",""trial"",""time""
""fullscreenenter"",""0"",""3758""
","
","
","""event"",""trial"",""time""
""fullscreenenter"",""0"",""3758""
","
","625.8999999761581","","","","","","","","51","1,0,0","0","city","4","probe-23","0.5843990284986483","0.2813124930642884","0.15790405329491303","0","","","","","","","",""
"","html-keyboard-response","97","489716","0.0-58.0-1.0","""event"",""trial"",""time""
""fullscreenenter"",""0"",""3758""
","
","
","""event"",""trial"",""time""
""fullscreenenter"",""0"",""3758""
","
","null","<p></p>","null","","","","","","","","","","","","","","","","","","","","","","",""
"","do_trial","98","494653","0.0-59.0-0.0","""event"",""trial"",""time""
""fullscreenenter"",""0"",""3758""
","
","
","""event"",""trial"",""time""
""fullscreenenter"",""0"",""3758""
","
","383.8000000715256","","","","","","","","49","1,1,0","0","city","5","probe-41","0.6403372917100942","0.3309622789343401","0.23160476563511773","1","","","","","","","",""
"","html-keyboard-response","99","495655","0.0-59.0-1.0","""event"",""trial"",""time""
""fullscreenenter"",""0"",""3758""
","
","
","""event"",""trial"",""time""
""fullscreenenter"",""0"",""3758""
","
","null","<p></p>","null","","","","","","","","","","","","","","","","","","","","","","",""
"","do_trial","100","500738","0.0-60.0-0.0","""event"",""trial"",""time""
""fullscreenenter"",""0"",""3758""
","
","
","""event"",""trial"",""time""
""fullscreenenter"",""0"",""3758""
","
","528.0999999046326","","","","","","","","49","1,0,0","0","city","6","probe-211","0.6256124524223151","0.32847138344437726","0.20844748284446474","1","","","","","","","",""
"","html-keyboard-response","101","501743","0.0-60.0-1.0","""event"",""trial"",""time""
""fullscreenenter"",""0"",""3758""
","
","
","""event"",""trial"",""time""
""fullscreenenter"",""0"",""3758""
","
","null","<p></p>","null","","","","","","","","","","","","","","","","","","","","","","",""
"","do_trial","102","507799","0.0-61.0-0.0","""event"",""trial"",""time""
""fullscreenenter"",""0"",""3758""
","
","
","""event"",""trial"",""time""
""fullscreenenter"",""0"",""3758""
","
","null","","","","","","","","null","1,0,0","0","city","7","probe-93","0.6973324907594354","0.33623699381079597","0.18778632611094176","","","","","","","","",""
"","html-keyboard-response","103","508803","0.0-61.0-1.0","""event"",""trial"",""time""
""fullscreenenter"",""0"",""3758""
","
","
","""event"",""trial"",""time""
""fullscreenenter"",""0"",""3758""
","
","null","<p></p>","null","","","","","","","","","","","","","","","","","","","","","","",""
"","do_trial","104","513977","0.0-62.0-0.0","""event"",""trial"",""time""
""fullscreenenter"",""0"",""3758""
","
","
","""event"",""trial"",""time""
""fullscreenenter"",""0"",""3758""
","
","625.2000000476837","","","","","","","","49","0,0,0","0","city","8","probe-153","0.687134402337998","0.4864570580729655","0.10583168864569946","0","","","","","","","",""
"","html-keyboard-response","105","514983","0.0-62.0-1.0","""event"",""trial"",""time""
""fullscreenenter"",""0"",""3758""
","
","
","""event"",""trial"",""time""
""fullscreenenter"",""0"",""3758""
","
","null","<p></p>","null","","","","","","","","","","","","","","","","","","","","","","",""
"","do_trial","106","520058","0.0-63.0-0.0","""event"",""trial"",""time""
""fullscreenenter"",""0"",""3758""
","
","
","""event"",""trial"",""time""
""fullscreenenter"",""0"",""3758""
","
","519.7000000476837","","","","","","","","50","1,1,0","0","city","9","probe-91","0.7155622593345757","0.4059956276153441","0.14195344801126905","1","","","","","","","",""
"","html-keyboard-response","107","521063","0.0-63.0-1.0","""event"",""trial"",""time""
""fullscreenenter"",""0"",""3758""
","
","
","""event"",""trial"",""time""
""fullscreenenter"",""0"",""3758""
","
","null","<p></p>","null","","","","","","","","","","","","","","","","","","","","","","",""
"","do_trial","108","526414","0.0-64.0-0.0","""event"",""trial"",""time""
""fullscreenenter"",""0"",""3758""
","
","
","""event"",""trial"",""time""
""fullscreenenter"",""0"",""3758""
","
","796.8999999761581","","","","","","","","50","1,0,0","0","city","10","probe-224","0.6218372847903727","0.23729017337455197","0.12290202734176758","0","","","","","","","",""
"","html-keyboard-response","109","527419","0.0-64.0-1.0","""event"",""trial"",""time""
""fullscreenenter"",""0"",""3758""
","
","
","""event"",""trial"",""time""
""fullscreenenter"",""0"",""3758""
","
","null","<p></p>","null","","","","","","","","","","","","","","","","","","","","","","",""
"","do_trial","110","532518","0.0-65.0-0.0","""event"",""trial"",""time""
""fullscreenenter"",""0"",""3758""
","
","
","""event"",""trial"",""time""
""fullscreenenter"",""0"",""3758""
","
","547.2999999523163","","","","","","","","49","0,0,1","0","city","11","probe-166","0.532558950919002","0.17764391122645215","0.1858650915405034","0","","","","","","","",""
"","html-keyboard-response","111","533524","0.0-65.0-1.0","""event"",""trial"",""time""
""fullscreenenter"",""0"",""3758""
","
","
","""event"",""trial"",""time""
""fullscreenenter"",""0"",""3758""
","
","null","<p></p>","null","","","","","","","","","","","","","","","","","","","","","","",""
"","do_trial","112","538460","0.0-66.0-0.0","""event"",""trial"",""time""
""fullscreenenter"",""0"",""3758""
","
","
","""event"",""trial"",""time""
""fullscreenenter"",""0"",""3758""
","
","381.10000002384186","","","","","","","","50","1,1,0","0","city","12","probe-143","0.5257126860352882","0.3036600392792242","0.05945928411862422","1","","","","","","","",""
"","html-keyboard-response","113","539466","0.0-66.0-1.0","""event"",""trial"",""time""
""fullscreenenter"",""0"",""3758""
","
","
","""event"",""trial"",""time""
""fullscreenenter"",""0"",""3758""
","
","null","<p></p>","null","","","","","","","","","","","","","","","","","","","","","","",""
"","do_trial","114","546983","0.0-67.0-0.0","""event"",""trial"",""time""
""fullscreenenter"",""0"",""3758""
","
","
","""event"",""trial"",""time""
""fullscreenenter"",""0"",""3758""
","
","2966.3000000715256","","","","","","","","50","1,0,0","0","city","13","probe-79","0.47969079478109566","0.2554999972329436","0.0924333164291901","0","","","","","","","",""
"","html-keyboard-response","115","547989","0.0-67.0-1.0","""event"",""trial"",""time""
""fullscreenenter"",""0"",""3758""
","
","
","""event"",""trial"",""time""
""fullscreenenter"",""0"",""3758""
","
","null","<p></p>","null","","","","","","","","","","","","","","","","","","","","","","",""
"","do_trial","116","553042","0.0-68.0-0.0","""event"",""trial"",""time""
""fullscreenenter"",""0"",""3758""
","
","
","""event"",""trial"",""time""
""fullscreenenter"",""0"",""3758""
","
","502.09999990463257","","","","","","","","50","1,0,0","0","city","14","probe-64","0.4961364156289113","0.24782161579866815","0.09864210900178902","0","","","","","","","",""
"","html-keyboard-response","117","554046","0.0-68.0-1.0","""event"",""trial"",""time""
""fullscreenenter"",""0"",""3758""
","
","
","""event"",""trial"",""time""
""fullscreenenter"",""0"",""3758""
","
","null","<p></p>","null","","","","","","","","","","","","","","","","","","","","","","",""
"","do_trial","118","559125","0.0-69.0-0.0","""event"",""trial"",""time""
""fullscreenenter"",""0"",""3758""
","
","
","""event"",""trial"",""time""
""fullscreenenter"",""0"",""3758""
","
","526.8000000715256","","","","","","","","49","1,0,0","0","city","15","probe-99","0.5439261371255332","0.2718331574874881","0.07419657663698376","1","","","","","","","",""
"","html-keyboard-response","119","560131","0.0-69.0-1.0","""event"",""trial"",""time""
""fullscreenenter"",""0"",""3758""
","
","
","""event"",""trial"",""time""
""fullscreenenter"",""0"",""3758""
","
","null","<p></p>","null","","","","","","","","","","","","","","","","","","","","","","",""
"","do_trial","120","565256","0.0-70.0-0.0","""event"",""trial"",""time""
""fullscreenenter"",""0"",""3758""
","
","
","""event"",""trial"",""time""
""fullscreenenter"",""0"",""3758""
","
","570.5","","","","","","","","49","1,0,1","0","city","16","probe-95","0.5324234696874387","0.4054782757913101","0.1064777646335053","1","","","","","","","",""
"","html-keyboard-response","121","566261","0.0-70.0-1.0","""event"",""trial"",""time""
""fullscreenenter"",""0"",""3758""
","
","
","""event"",""trial"",""time""
""fullscreenenter"",""0"",""3758""
","
","null","<p></p>","null","","","","","","","","","","","","","","","","","","","","","","",""
"","do_trial","122","571367","0.0-71.0-0.0","""event"",""trial"",""time""
""fullscreenenter"",""0"",""3758""
","
","
","""event"",""trial"",""time""
""fullscreenenter"",""0"",""3758""
","
","551.7000000476837","","","","","","","","49","1,0,0","0","city","17","probe-130","0.7187002611363914","0.33407400402307874","0.11550875982767236","1","","","","","","","",""
"","html-keyboard-response","123","572369","0.0-71.0-1.0","""event"",""trial"",""time""
""fullscreenenter"",""0"",""3758""
","
","
","""event"",""trial"",""time""
""fullscreenenter"",""0"",""3758""
","
","null","<p></p>","null","","","","","","","","","","","","","","","","","","","","","","",""
"","do_trial","124","577323","0.0-72.0-0.0","""event"",""trial"",""time""
""fullscreenenter"",""0"",""3758""
","
","
","""event"",""trial"",""time""
""fullscreenenter"",""0"",""3758""
","
","399","","","","","","","","49","1,0,0","0","city","18","probe-55","0.7797266652650532","0.2777756453726451","0.11464447582407024","1","","","","","","","",""
"","html-keyboard-response","125","578328","0.0-72.0-1.0","""event"",""trial"",""time""
""fullscreenenter"",""0"",""3758""
","
","
","""event"",""trial"",""time""
""fullscreenenter"",""0"",""3758""
","
","null","<p></p>","null","","","","","","","","","","","","","","","","","","","","","","",""
"","do_trial","126","583426","0.0-73.0-0.0","""event"",""trial"",""time""
""fullscreenenter"",""0"",""3758""
","
","
","""event"",""trial"",""time""
""fullscreenenter"",""0"",""3758""
","
","544.6000000238419","","","","","","","","49","0,0,0","0","city","19","probe-203","0.6031164419214272","0.2997384310657708","0.11957900383394636","0","","","","","","","",""
"","html-keyboard-response","127","584429","0.0-73.0-1.0","""event"",""trial"",""time""
""fullscreenenter"",""0"",""3758""
","
","
","""event"",""trial"",""time""
""fullscreenenter"",""0"",""3758""
","
","null","<p></p>","null","","","","","","","","","","","","","","","","","","","","","","",""
"","do_trial","128","589561","0.0-74.0-0.0","""event"",""trial"",""time""
""fullscreenenter"",""0"",""3758""
","
","
","""event"",""trial"",""time""
""fullscreenenter"",""0"",""3758""
","
","578.7999999523163","","","","","","","","49","1,1,0","0","city","20","probe-202","0.6163467683384143","0.32519330270918706","0.17587848858545155","1","","","","","","","",""
"","html-keyboard-response","129","590566","0.0-74.0-1.0","""event"",""trial"",""time""
""fullscreenenter"",""0"",""3758""
","
","
","""event"",""trial"",""time""
""fullscreenenter"",""0"",""3758""
","
","null","<p></p>","null","","","","","","","","","","","","","","","","","","","","","","",""
"","do_trial","130","595444","0.0-75.0-0.0","""event"",""trial"",""time""
""fullscreenenter"",""0"",""3758""
","
","
","""event"",""trial"",""time""
""fullscreenenter"",""0"",""3758""
","
","326.39999997615814","","","","","","","","49","1,0,0","0","city","21","probe-89","0.6057916512304279","0.12346624452959763","0.226840574240833","1","","","","","","","",""
"","html-keyboard-response","131","596448","0.0-75.0-1.0","""event"",""trial"",""time""
""fullscreenenter"",""0"",""3758""
","
","
","""event"",""trial"",""time""
""fullscreenenter"",""0"",""3758""
","
","null","<p></p>","null","","","","","","","","","","","","","","","","","","","","","","",""
"","do_trial","132","601381","0.0-76.0-0.0","""event"",""trial"",""time""
""fullscreenenter"",""0"",""3758""
","
","
","""event"",""trial"",""time""
""fullscreenenter"",""0"",""3758""
","
","377.89999997615814","","","","","","","","49","1,0,0","0","city","22","probe-18","0.6185219440559029","0.14674257680090608","0.20359386884017883","1","","","","","","","",""
"","html-keyboard-response","133","602386","0.0-76.0-1.0","""event"",""trial"",""time""
""fullscreenenter"",""0"",""3758""
","
","
","""event"",""trial"",""time""
""fullscreenenter"",""0"",""3758""
","
","null","<p></p>","null","","","","","","","","","","","","","","","","","","","","","","",""
"","do_trial","134","608447","0.0-77.0-0.0","""event"",""trial"",""time""
""fullscreenenter"",""0"",""3758""
","
","
","""event"",""trial"",""time""
""fullscreenenter"",""0"",""3758""
","
","null","","","","","","","","null","0,0,0","0","city","23","probe-16","0.6334260980592121","0.24800617419643545","0.15163756499945963","","","","","","","","",""
"","html-keyboard-response","135","609453","0.0-77.0-1.0","""event"",""trial"",""time""
""fullscreenenter"",""0"",""3758""
","
","
","""event"",""trial"",""time""
""fullscreenenter"",""0"",""3758""
","
","null","<p></p>","null","","","","","","","","","","","","","","","","","","","","","","",""
"","do_trial","136","614431","0.0-78.0-0.0","""event"",""trial"",""time""
""fullscreenenter"",""0"",""3758""
","
","
","""event"",""trial"",""time""
""fullscreenenter"",""0"",""3758""
","
","423.3000000715256","","","","","","","","50","0,0,0","0","city","24","probe-132","0.7008427512689238","0.3031461265865078","0.07822025817258084","0","","","","","","","",""
"","html-keyboard-response","137","615437","0.0-78.0-1.0","""event"",""trial"",""time""
""fullscreenenter"",""0"",""3758""
","
","
","""event"",""trial"",""time""
""fullscreenenter"",""0"",""3758""
","
","null","<p></p>","null","","","","","","","","","","","","","","","","","","","","","","",""
"","do_trial","138","620764","0.0-79.0-0.0","""event"",""trial"",""time""
""fullscreenenter"",""0"",""3758""
","
","
","""event"",""trial"",""time""
""fullscreenenter"",""0"",""3758""
","
","774.2000000476837","","","","","","","","50","1,0,0","0","city","25","probe-60","0.5683812463264073","0.343187343533816","0.11442372194657859","0","","","","","","","",""
"","html-keyboard-response","139","621770","0.0-79.0-1.0","""event"",""trial"",""time""
""fullscreenenter"",""0"",""3758""
","
","
","""event"",""trial"",""time""
""fullscreenenter"",""0"",""3758""
","
","null","<p></p>","null","","","","","","","","","","","","","","","","","","","","","","",""
"","do_trial","140","626628","0.0-80.0-0.0","""event"",""trial"",""time""
""fullscreenenter"",""0"",""3758""
","
","
","""event"",""trial"",""time""
""fullscreenenter"",""0"",""3758""
","
","303.5","","","","","","","","50","1,1,0","0","city","26","probe-135","0.6891140189750867","0.34401205262477375","0.05602688417657342","1","","","","","","","",""
"","html-keyboard-response","141","627634","0.0-80.0-1.0","""event"",""trial"",""time""
""fullscreenenter"",""0"",""3758""
","
","
","""event"",""trial"",""time""
""fullscreenenter"",""0"",""3758""
","
","null","<p></p>","null","","","","","","","","","","","","","","","","","","","","","","",""
"","do_trial","142","633162","0.0-81.0-0.0","""event"",""trial"",""time""
""fullscreenenter"",""0"",""3758""
","
","
","""event"",""trial"",""time""
""fullscreenenter"",""0"",""3758""
","
","975.6000000238419","","","","","","","","50","0,0,0","0","city","27","probe-19","0.722854730535032","0.24698686711914733","0.19231157597643397","0","","","","","","","",""
"","html-keyboard-response","143","634166","0.0-81.0-1.0","""event"",""trial"",""time""
""fullscreenenter"",""0"",""3758""
","
","
","""event"",""trial"",""time""
""fullscreenenter"",""0"",""3758""
","
","null","<p></p>","null","","","","","","","","","","","","","","","","","","","","","","",""
"","do_trial","144","639073","0.0-82.0-0.0","""event"",""trial"",""time""
""fullscreenenter"",""0"",""3758""
","
","
","""event"",""trial"",""time""
""fullscreenenter"",""0"",""3758""
","
","354.09999990463257","","","","","","","","50","0,0,0","0","city","28","probe-111","0.6944300839759555","0.2462706741003322","0.14390968369513168","0","","","","","","","",""
"","html-keyboard-response","145","640078","0.0-82.0-1.0","""event"",""trial"",""time""
""fullscreenenter"",""0"",""3758""
","
","
","""event"",""trial"",""time""
""fullscreenenter"",""0"",""3758""
","
","null","<p></p>","null","","","","","","","","","","","","","","","","","","","","","","",""
"","do_trial","146","645177","0.0-83.0-0.0","""event"",""trial"",""time""
""fullscreenenter"",""0"",""3758""
","
","
","""event"",""trial"",""time""
""fullscreenenter"",""0"",""3758""
","
","546.7000000476837","","","","","","","","50","0,1,0","0","city","29","probe-129","0.7394607708939296","0.35919716737918017","0.1864440585920575","1","","","","","","","",""
"","html-keyboard-response","147","646183","0.0-83.0-1.0","""event"",""trial"",""time""
""fullscreenenter"",""0"",""3758""
","
","
","""event"",""trial"",""time""
""fullscreenenter"",""0"",""3758""
","
","null","<p></p>","null","","","","","","","","","","","","","","","","","","","","","","",""
"","do_bye","148","647693","0.0-84.0-0.0","""event"",""trial"",""time""
""fullscreenenter"",""0"",""3758""
","
","
","""event"",""trial"",""time""
""fullscreenenter"",""0"",""3758""
","
","null","","","","","","","","null","","","","","","","","","","","","","","","","",""
"","break","149","660039","0.0-84.0-1.0","""event"",""trial"",""time""
""fullscreenenter"",""0"",""3758""
","
","
","""event"",""trial"",""time""
""fullscreenenter"",""0"",""3758""
","
","12345","<div class='center'><p>Time to take a quick break! You have 2 minutes to rest, but you can move on sooner if you'd like.</p><p> Press the <b>space bar</b> to continue.</p></div>","32","","","","","","","","","","","","","","","","","","","","","","",""
"","do_travel","150","669046","0.0-85.0-0.0","""event"",""trial"",""time""
""fullscreenenter"",""0"",""3758""
","
","
","""event"",""trial"",""time""
""fullscreenenter"",""0"",""3758""
","
","null","","","","","","","","null","","","","","","","","","","","","","","","","",""
"","do_welcome","151","673057","0.0-85.0-1.0","""event"",""trial"",""time""
""fullscreenenter"",""0"",""3758""
","
","
","""event"",""trial"",""time""
""fullscreenenter"",""0"",""3758""
","
","null","","","","","","","","null","","","","","","","","","","","","","","","","",""
"","do_trial","152","678341","0.0-86.0-0.0","""event"",""trial"",""time""
""fullscreenenter"",""0"",""3758""
","
","
","""event"",""trial"",""time""
""fullscreenenter"",""0"",""3758""
","
","733.7999999523163","","","","","","","","51","1,0,0","1","highway","30","probe-104","1","0.34838224560418246","0.21798637323517958","0","","","","","","","",""
"","html-keyboard-response","153","679342","0.0-86.0-1.0","""event"",""trial"",""time""
""fullscreenenter"",""0"",""3758""
","
","
","""event"",""trial"",""time""
""fullscreenenter"",""0"",""3758""
","
","null","<p></p>","null","","","","","","","","","","","","","","","","","","","","","","",""
"","do_trial","154","684407","0.0-87.0-0.0","""event"",""trial"",""time""
""fullscreenenter"",""0"",""3758""
","
","
","""event"",""trial"",""time""
""fullscreenenter"",""0"",""3758""
","
","511.09999990463257","","","","","","","","50","1,0,0","1","highway","31","probe-215","1","0.37704973375019946","0.2095370203630699","0","","","","","","","",""
"","html-keyboard-response","155","685414","0.0-87.0-1.0","""event"",""trial"",""time""
""fullscreenenter"",""0"",""3758""
","
","
","""event"",""trial"",""time""
""fullscreenenter"",""0"",""3758""
","
","null","<p></p>","null","","","","","","","","","","","","","","","","","","","","","","",""
"","do_trial","156","690586","0.0-88.0-0.0","""event"",""trial"",""time""
""fullscreenenter"",""0"",""3758""
","
","
","""event"",""trial"",""time""
""fullscreenenter"",""0"",""3758""
","
","615.2999999523163","","","","","","","","49","1,0,0","1","highway","32","probe-173","1","0.37758055148669767","0.09368219551158728","1","","","","","","","",""
"","html-keyboard-response","157","691593","0.0-88.0-1.0","""event"",""trial"",""time""
""fullscreenenter"",""0"",""3758""
","
","
","""event"",""trial"",""time""
""fullscreenenter"",""0"",""3758""
","
","null","<p></p>","null","","","","","","","","","","","","","","","","","","","","","","",""
"","do_trial","158","696731","0.0-89.0-0.0","""event"",""trial"",""time""
""fullscreenenter"",""0"",""3758""
","
","
","""event"",""trial"",""time""
""fullscreenenter"",""0"",""3758""
","
","583","","","","","","","","49","0,1,0","1","highway","33","probe-08","0.7897296358122201","0.37134403974125485","0.15853437354494038","0","","","","","","","",""
"","html-keyboard-response","159","697738","0.0-89.0-1.0","""event"",""trial"",""time""
""fullscreenenter"",""0"",""3758""
","
","
","""event"",""trial"",""time""
""fullscreenenter"",""0"",""3758""
","
","null","<p></p>","null","","","","","","","","","","","","","","","","","","","","","","",""
"","do_trial","160","702925","0.0-90.0-0.0","""event"",""trial"",""time""
""fullscreenenter"",""0"",""3758""
","
","
","""event"",""trial"",""time""
""fullscreenenter"",""0"",""3758""
","
","632.2999999523163","","","","","","","","51","1,1,0","1","highway","34","probe-116","0.6762734871595646","0.3712257556623796","0.2686961047965815","0","","","","","","","",""
"","html-keyboard-response","161","703930","0.0-90.0-1.0","""event"",""trial"",""time""
""fullscreenenter"",""0"",""3758""
","
","
","""event"",""trial"",""time""
""fullscreenenter"",""0"",""3758""
","
","null","<p></p>","null","","","","","","","","","","","","","","","","","","","","","","",""
"","do_trial","162","708881","0.0-91.0-0.0","""event"",""trial"",""time""
""fullscreenenter"",""0"",""3758""
","
","
","""event"",""trial"",""time""
""fullscreenenter"",""0"",""3758""
","
","396.10000002384186","","","","","","","","50","1,0,1","1","highway","35","probe-07","0.727667977763974","0.38427840120695606","0.11754439728052195","0","","","","","","","",""
"","html-keyboard-response","163","709886","0.0-91.0-1.0","""event"",""trial"",""time""
""fullscreenenter"",""0"",""3758""
","
","
","""event"",""trial"",""time""
""fullscreenenter"",""0"",""3758""
","
","null","<p></p>","null","","","","","","","","","","","","","","","","","","","","","","",""
"","do_trial","164","715050","0.0-92.0-0.0","""event"",""trial"",""time""
""fullscreenenter"",""0"",""3758""
","
","
","""event"",""trial"",""time""
""fullscreenenter"",""0"",""3758""
","
","608.7000000476837","","","","","","","","49","1,0,0","1","highway","36","probe-96","0.6277799361947451","0.4278510009890617","0.091128796841933","1","","","","","","","",""
"","html-keyboard-response","165","716056","0.0-92.0-1.0","""event"",""trial"",""time""
""fullscreenenter"",""0"",""3758""
","
","
","""event"",""trial"",""time""
""fullscreenenter"",""0"",""3758""
","
","null","<p></p>","null","","","","","","","","","","","","","","","","","","","","","","",""
"","do_trial","166","721376","0.0-93.0-0.0","""event"",""trial"",""time""
""fullscreenenter"",""0"",""3758""
","
","
","""event"",""trial"",""time""
""fullscreenenter"",""0"",""3758""
","
","766","","","","","","","","49","1,0,0","1","highway","37","probe-178","0.7141160922954172","0.4045384843463984","0.1446845088312756","1","","","","","","","",""
"","html-keyboard-response","167","722382","0.0-93.0-1.0","""event"",""trial"",""time""
""fullscreenenter"",""0"",""3758""
","
","
","""event"",""trial"",""time""
""fullscreenenter"",""0"",""3758""
","
","null","<p></p>","null","","","","","","","","","","","","","","","","","","","","","","",""
"","do_trial","168","727583","0.0-94.0-0.0","""event"",""trial"",""time""
""fullscreenenter"",""0"",""3758""
","
","
","""event"",""trial"",""time""
""fullscreenenter"",""0"",""3758""
","
","648.2000000476837","","","","","","","","49","1,1,0","1","highway","38","probe-103","0.7116239183114393","0.46693267366637986","0.1266890168165269","1","","","","","","","",""
"","html-keyboard-response","169","728588","0.0-94.0-1.0","""event"",""trial"",""time""
""fullscreenenter"",""0"",""3758""
","
","
","""event"",""trial"",""time""
""fullscreenenter"",""0"",""3758""
","
","null","<p></p>","null","","","","","","","","","","","","","","","","","","","","","","",""
"","do_trial","170","733984","0.0-95.0-0.0","""event"",""trial"",""time""
""fullscreenenter"",""0"",""3758""
","
","
","""event"",""trial"",""time""
""fullscreenenter"",""0"",""3758""
","
","839.7999999523163","","","","","","","","49","1,1,0","1","highway","39","probe-102","0.6639346849196762","0.44187924272899226","0.19500308099253308","1","","","","","","","",""
"","html-keyboard-response","171","734991","0.0-95.0-1.0","""event"",""trial"",""time""
""fullscreenenter"",""0"",""3758""
","
","
","""event"",""trial"",""time""
""fullscreenenter"",""0"",""3758""
","
","null","<p></p>","null","","","","","","","","","","","","","","","","","","","","","","",""
"","do_trial","172","739910","0.0-96.0-0.0","""event"",""trial"",""time""
""fullscreenenter"",""0"",""3758""
","
","
","""event"",""trial"",""time""
""fullscreenenter"",""0"",""3758""
","
","363.6999999284744","","","","","","","","49","1,0,0","1","highway","40","probe-61","0.6397845174806183","0.3846634839288527","0.18078132514647735","1","","","","","","","",""
"","html-keyboard-response","173","740914","0.0-96.0-1.0","""event"",""trial"",""time""
""fullscreenenter"",""0"",""3758""
","
","
","""event"",""trial"",""time""
""fullscreenenter"",""0"",""3758""
","
","null","<p></p>","null","","","","","","","","","","","","","","","","","","","","","","",""
"","do_trial","174","745999","0.0-97.0-0.0","""event"",""trial"",""time""
""fullscreenenter"",""0"",""3758""
","
","
","""event"",""trial"",""time""
""fullscreenenter"",""0"",""3758""
","
","515","","","","","","","","49","1,0,0","1","highway","41","probe-230","0.6609968061059344","0.20609273185578933","0.2843376511442348","1","","","","","","","",""
"","html-keyboard-response","175","747005","0.0-97.0-1.0","""event"",""trial"",""time""
""fullscreenenter"",""0"",""3758""
","
","
","""event"",""trial"",""time""
""fullscreenenter"",""0"",""3758""
","
","null","<p></p>","null","","","","","","","","","","","","","","","","","","","","","","",""
"","do_trial","176","752128","0.0-98.0-0.0","""event"",""trial"",""time""
""fullscreenenter"",""0"",""3758""
","
","
","""event"",""trial"",""time""
""fullscreenenter"",""0"",""3758""
","
","573.5","","","","","","","","49","1,0,0","1","highway","42","probe-142","0.46153984699148354","0.05760709498616956","0.45828047194570576","1","","","","","","","",""
"","html-keyboard-response","177","753132","0.0-98.0-1.0","""event"",""trial"",""time""
""fullscreenenter"",""0"",""3758""
","
","
","""event"",""trial"",""time""
""fullscreenenter"",""0"",""3758""
","
","null","<p></p>","null","","","","","","","","","","","","","","","","","","","","","","",""
"","do_trial","178","758133","0.0-99.0-0.0","""event"",""trial"",""time""
""fullscreenenter"",""0"",""3758""
","
","
","""event"",""trial"",""time""
""fullscreenenter"",""0"",""3758""
","
","445.2999999523163","","","","","","","","49","0,0,1","1","highway","43","probe-38","0.3732736136248924","0.11289168343443594","0.5867481108369532","0","","","","","","","",""
"","html-keyboard-response","179","759139","0.0-99.0-1.0","""event"",""trial"",""time""
""fullscreenenter"",""0"",""3758""
","
","
","""event"",""trial"",""time""
""fullscreenenter"",""0"",""3758""
","
","null","<p></p>","null","","","","","","","","","","","","","","","","","","","","","","",""
"","do_trial","180","764741","0.0-100.0-0.0","""event"",""trial"",""time""
""fullscreenenter"",""0"",""3758""
","
","
","""event"",""trial"",""time""
""fullscreenenter"",""0"",""3758""
","
","1048.4000000953674","","","","","","","","49","1,0,0","1","highway","44","probe-24","0.23642794682274548","0.1781251776032437","0.6073145976898472","1","","","","","","","",""
"","html-keyboard-response","181","765742","0.0-100.0-1.0","""event"",""trial"",""time""
""fullscreenenter"",""0"",""3758""
","
","
","""event"",""trial"",""time""
""fullscreenenter"",""0"",""3758""
","
","null","<p></p>","null","","","","","","","","","","","","","","","","","","","","","","",""
"","do_trial","182","770840","0.0-101.0-0.0","""event"",""trial"",""time""
""fullscreenenter"",""0"",""3758""
","
","
","""event"",""trial"",""time""
""fullscreenenter"",""0"",""3758""
","
","526.3999999761581","","","","","","","","49","0,0,1","1","highway","45","probe-98","0.24354765883146579","0.06643405643864878","0.6620251730715496","0","","","","","","","",""
"","html-keyboard-response","183","771844","0.0-101.0-1.0","""event"",""trial"",""time""
""fullscreenenter"",""0"",""3758""
","
","
","""event"",""trial"",""time""
""fullscreenenter"",""0"",""3758""
","
","null","<p></p>","null","","","","","","","","","","","","","","","","","","","","","","",""
"","do_trial","184","776890","0.0-102.0-0.0","""event"",""trial"",""time""
""fullscreenenter"",""0"",""3758""
","
","
","""event"",""trial"",""time""
""fullscreenenter"",""0"",""3758""
","
","492.89999997615814","","","","","","","","49","0,0,0","1","highway","46","probe-187","0.30358804282201984","0.06479894345844645","0.5675981208223813","0","","","","","","","",""
"","html-keyboard-response","185","777895","0.0-102.0-1.0","""event"",""trial"",""time""
""fullscreenenter"",""0"",""3758""
","
","
","""event"",""trial"",""time""
""fullscreenenter"",""0"",""3758""
","
","null","<p></p>","null","","","","","","","","","","","","","","","","","","","","","","",""
"","do_trial","186","783214","0.0-103.0-0.0","""event"",""trial"",""time""
""fullscreenenter"",""0"",""3758""
","
","
","""event"",""trial"",""time""
""fullscreenenter"",""0"",""3758""
","
","769.6000000238419","","","","","","","","49","0,0,1","1","highway","47","probe-87","0.2352980158976835","0.1255574652193731","0.5404988795470017","0","","","","","","","",""
"","html-keyboard-response","187","784220","0.0-103.0-1.0","""event"",""trial"",""time""
""fullscreenenter"",""0"",""3758""
","
","
","""event"",""trial"",""time""
""fullscreenenter"",""0"",""3758""
","
","null","<p></p>","null","","","","","","","","","","","","","","","","","","","","","","",""
"","do_trial","188","789285","0.0-104.0-0.0","""event"",""trial"",""time""
""fullscreenenter"",""0"",""3758""
","
","
","""event"",""trial"",""time""
""fullscreenenter"",""0"",""3758""
","
","511.5","","","","","","","","49","1,0,1","1","highway","48","probe-56","0.3987241575927577","0.06328019001492556","0.5495032112362092","1","","","","","","","",""
"","html-keyboard-response","189","790290","0.0-104.0-1.0","""event"",""trial"",""time""
""fullscreenenter"",""0"",""3758""
","
","
","""event"",""trial"",""time""
""fullscreenenter"",""0"",""3758""
","
","null","<p></p>","null","","","","","","","","","","","","","","","","","","","","","","",""
"","do_trial","190","795406","0.0-105.0-0.0","""event"",""trial"",""time""
""fullscreenenter"",""0"",""3758""
","
","
","""event"",""trial"",""time""
""fullscreenenter"",""0"",""3758""
","
","560.5999999046326","","","","","","","","49","0,1,0","1","highway","49","probe-184","0.3846366183847629","0.2649886790986282","0.7201135555534376","0","","","","","","","",""
"","html-keyboard-response","191","796411","0.0-105.0-1.0","""event"",""trial"",""time""
""fullscreenenter"",""0"",""3758""
","
","
","""event"",""trial"",""time""
""fullscreenenter"",""0"",""3758""
","
","null","<p></p>","null","","","","","","","","","","","","","","","","","","","","","","",""
"","do_trial","192","801514","0.0-106.0-0.0","""event"",""trial"",""time""
""fullscreenenter"",""0"",""3758""
","
","
","""event"",""trial"",""time""
""fullscreenenter"",""0"",""3758""
","
","550","","","","","","","","50","1,0,1","1","highway","50","probe-188","0.4044846506377903","0.19443141369736489","0.6481239401577891","0","","","","","","","",""
"","html-keyboard-response","193","802520","0.0-106.0-1.0","""event"",""trial"",""time""
""fullscreenenter"",""0"",""3758""
","
","
","""event"",""trial"",""time""
""fullscreenenter"",""0"",""3758""
","
","null","<p></p>","null","","","","","","","","","","","","","","","","","","","","","","",""
"","do_trial","194","807457","0.0-107.0-0.0","""event"",""trial"",""time""
""fullscreenenter"",""0"",""3758""
","
","
","""event"",""trial"",""time""
""fullscreenenter"",""0"",""3758""
","
","386.7000000476837","","","","","","","","49","0,0,1","1","highway","51","probe-131","0.5382927693139135","0.20016976990667126","0.7256663439056261","0","","","","","","","",""
"","html-keyboard-response","195","808462","0.0-107.0-1.0","""event"",""trial"",""time""
""fullscreenenter"",""0"",""3758""
","
","
","""event"",""trial"",""time""
""fullscreenenter"",""0"",""3758""
","
","null","<p></p>","null","","","","","","","","","","","","","","","","","","","","","","",""
"","do_trial","196","813991","0.0-108.0-0.0","""event"",""trial"",""time""
""fullscreenenter"",""0"",""3758""
","
","
","""event"",""trial"",""time""
""fullscreenenter"",""0"",""3758""
","
","974","","","","","","","","51","0,0,1","1","highway","52","probe-204","0.3602064290766795","0.13057096065165558","0.6863359357381985","1","","","","","","","",""
"","html-keyboard-response","197","814993","0.0-108.0-1.0","""event"",""trial"",""time""
""fullscreenenter"",""0"",""3758""
","
","
","""event"",""trial"",""time""
""fullscreenenter"",""0"",""3758""
","
","null","<p></p>","null","","","","","","","","","","","","","","","","","","","","","","",""
"","do_trial","198","820438","0.0-109.0-0.0","""event"",""trial"",""time""
""fullscreenenter"",""0"",""3758""
","
","
","""event"",""trial"",""time""
""fullscreenenter"",""0"",""3758""
","
","892.3999999761581","","","","","","","","51","1,0,1","1","highway","53","probe-190","0.34530757848389654","0.25099736512458715","0.7125126486695851","1","","","","","","","",""
"","html-keyboard-response","199","821440","0.0-109.0-1.0","""event"",""trial"",""time""
""fullscreenenter"",""0"",""3758""
","
","
","""event"",""trial"",""time""
""fullscreenenter"",""0"",""3758""
","
","null","<p></p>","null","","","","","","","","","","","","","","","","","","","","","","",""
"","do_trial","200","826672","0.0-110.0-0.0","""event"",""trial"",""time""
""fullscreenenter"",""0"",""3758""
","
","
","""event"",""trial"",""time""
""fullscreenenter"",""0"",""3758""
","
","678.6999999284744","","","","","","","","51","0,0,1","1","highway","54","probe-163","0.29340664000185945","0.20716501990292813","0.7044071058361374","1","","","","","","","",""
"","html-keyboard-response","201","827677","0.0-110.0-1.0","""event"",""trial"",""time""
""fullscreenenter"",""0"",""3758""
","
","
","""event"",""trial"",""time""
""fullscreenenter"",""0"",""3758""
","
","null","<p></p>","null","","","","","","","","","","","","","","","","","","","","","","",""
"","do_trial","202","832833","0.0-111.0-0.0","""event"",""trial"",""time""
""fullscreenenter"",""0"",""3758""
","
","
","""event"",""trial"",""time""
""fullscreenenter"",""0"",""3758""
","
","602.7000000476837","","","","","","","","51","1,0,1","1","highway","55","probe-27","0.3467300486950927","0.14613307020728086","0.6618702332497203","1","","","","","","","",""
"","html-keyboard-response","203","833838","0.0-111.0-1.0","""event"",""trial"",""time""
""fullscreenenter"",""0"",""3758""
","
","
","""event"",""trial"",""time""
""fullscreenenter"",""0"",""3758""
","
","null","<p></p>","null","","","","","","","","","","","","","","","","","","","","","","",""
"","do_trial","204","839034","0.0-112.0-0.0","""event"",""trial"",""time""
""fullscreenenter"",""0"",""3758""
","
","
","""event"",""trial"",""time""
""fullscreenenter"",""0"",""3758""
","
","645.7000000476837","","","","","","","","51","1,0,0","1","highway","56","probe-183","0.3766593934177621","0.20179625335115886","0.5951238356384876","0","","","","","","","",""
"","html-keyboard-response","205","840040","0.0-112.0-1.0","""event"",""trial"",""time""
""fullscreenenter"",""0"",""3758""
","
","
","""event"",""trial"",""time""
""fullscreenenter"",""0"",""3758""
","
","null","<p></p>","null","","","","","","","","","","","","","","","","","","","","","","",""
"","do_trial","206","845245","0.0-113.0-0.0","""event"",""trial"",""time""
""fullscreenenter"",""0"",""3758""
","
","
","""event"",""trial"",""time""
""fullscreenenter"",""0"",""3758""
","
","651.5","","","","","","","","51","0,0,0","1","highway","57","probe-45","0.2787949241596757","0.19443394803423433","0.5741116689840505","0","","","","","","","",""
"","html-keyboard-response","207","846251","0.0-113.0-1.0","""event"",""trial"",""time""
""fullscreenenter"",""0"",""3758""
","
","
","""event"",""trial"",""time""
""fullscreenenter"",""0"",""3758""
","
","null","<p></p>","null","","","","","","","","","","","","","","","","","","","","","","",""
"","do_trial","208","851667","0.0-114.0-0.0","""event"",""trial"",""time""
""fullscreenenter"",""0"",""3758""
","
","
","""event"",""trial"",""time""
""fullscreenenter"",""0"",""3758""
","
","860.1000000238419","","","","","","","","49","1,0,0","1","highway","58","probe-74","0.29167855634110884","0.21373683780374747","0.7294952228947983","1","","","","","","","",""
"","html-keyboard-response","209","852673","0.0-114.0-1.0","""event"",""trial"",""time""
""fullscreenenter"",""0"",""3758""
","
","
","""event"",""trial"",""time""
""fullscreenenter"",""0"",""3758""
","
","null","<p></p>","null","","","","","","","","","","","","","","","","","","","","","","",""
"","do_trial","210","858268","0.0-115.0-0.0","""event"",""trial"",""time""
""fullscreenenter"",""0"",""3758""
","
","
","""event"",""trial"",""time""
""fullscreenenter"",""0"",""3758""
","
","1044.3000000715256","","","","","","","","49","0,1,0","1","highway","59","probe-63","0.34560313982537016","0.23186325969978364","0.6838815729574589","0","","","","","","","",""
"","html-keyboard-response","211","859274","0.0-115.0-1.0","""event"",""trial"",""time""
""fullscreenenter"",""0"",""3758""
","
","
","""event"",""trial"",""time""
""fullscreenenter"",""0"",""3758""
","
","null","<p></p>","null","","","","","","","","","","","","","","","","","","","","","","",""
"","do_trial","212","864314","0.0-116.0-0.0","""event"",""trial"",""time""
""fullscreenenter"",""0"",""3758""
","
","
","""event"",""trial"",""time""
""fullscreenenter"",""0"",""3758""
","
","484.6999999284744","","","","","","","","49","0,0,0","1","highway","60","probe-229","0.32547793668807395","0.050360948255102685","0.6273949794994758","0","","","","","","","",""
"","html-keyboard-response","213","865320","0.0-116.0-1.0","""event"",""trial"",""time""
""fullscreenenter"",""0"",""3758""
","
","
","""event"",""trial"",""time""
""fullscreenenter"",""0"",""3758""
","
","null","<p></p>","null","","","","","","","","","","","","","","","","","","","","","","",""
"","do_trial","214","870392","0.0-117.0-0.0","""event"",""trial"",""time""
""fullscreenenter"",""0"",""3758""
","
","
","""event"",""trial"",""time""
""fullscreenenter"",""0"",""3758""
","
","516.5","","","","","","","","51","1,1,1","1","highway","61","probe-84","0.3341189973984208","0.1504750573340571","0.685523490247824","1","","","","","","","",""
"","html-keyboard-response","215","871397","0.0-117.0-1.0","""event"",""trial"",""time""
""fullscreenenter"",""0"",""3758""
","
","
","""event"",""trial"",""time""
""fullscreenenter"",""0"",""3758""
","
","null","<p></p>","null","","","","","","","","","","","","","","","","","","","","","","",""
"","do_trial","216","876602","0.0-118.0-0.0","""event"",""trial"",""time""
""fullscreenenter"",""0"",""3758""
","
","
","""event"",""trial"",""time""
""fullscreenenter"",""0"",""3758""
","
","652.8999999761581","","","","","","","","51","0,0,1","1","highway","62","probe-46","0.2943572006379459","0.1677526052801055","0.7188858221606872","1","","","","","","","",""
"","html-keyboard-response","217","877607","0.0-118.0-1.0","""event"",""trial"",""time""
""fullscreenenter"",""0"",""3758""
","
","
","""event"",""trial"",""time""
""fullscreenenter"",""0"",""3758""
","
","null","<p></p>","null","","","","","","","","","","","","","","","","","","","","","","",""
"","do_trial","218","882889","0.0-119.0-0.0","""event"",""trial"",""time""
""fullscreenenter"",""0"",""3758""
","
","
","""event"",""trial"",""time""
""fullscreenenter"",""0"",""3758""
","
","729","","","","","","","","51","0,0,0","1","highway","63","probe-09","0.060467846602864556","0.10170180075335225","0.600980513913041","0","","","","","","","",""
"","html-keyboard-response","219","883895","0.0-119.0-1.0","""event"",""trial"",""time""
""fullscreenenter"",""0"",""3758""
","
","
","""event"",""trial"",""time""
""fullscreenenter"",""0"",""3758""
","
","null","<p></p>","null","","","","","","","","","","","","","","","","","","","","","","",""
"","do_trial","220","888455","0.0-120.0-0.0","""event"",""trial"",""time""
""fullscreenenter"",""0"",""3758""
","
","
","""event"",""trial"",""time""
""fullscreenenter"",""0"",""3758""
","
","7.399999976158142","","","","","","","","51","0,0,1","1","highway","64","probe-147","0.06475964009503461","0.10491535200849901","0.6674119018179565","1","","","","","","","",""
"","html-keyboard-response","221","889461","0.0-120.0-1.0","""event"",""trial"",""time""
""fullscreenenter"",""0"",""3758""
","
","
","""event"",""trial"",""time""
""fullscreenenter"",""0"",""3758""
","
","null","<p></p>","null","","","","","","","","","","","","","","","","","","","","","","",""
"","do_trial","222","895128","0.0-121.0-0.0","""event"",""trial"",""time""
""fullscreenenter"",""0"",""3758""
","
","
","""event"",""trial"",""time""
""fullscreenenter"",""0"",""3758""
","
","1111.6000000238419","","","","","","","","51","0,0,1","1","highway","65","probe-169","0.19347646023523132","0.27591302467173096","0.6205071047847793","1","","","","","","","",""
"","html-keyboard-response","223","896133","0.0-121.0-1.0","""event"",""trial"",""time""
""fullscreenenter"",""0"",""3758""
","
","
","""event"",""trial"",""time""
""fullscreenenter"",""0"",""3758""
","
","null","<p></p>","null","","","","","","","","","","","","","","","","","","","","","","",""
"","do_trial","224","901099","0.0-122.0-0.0","""event"",""trial"",""time""
""fullscreenenter"",""0"",""3758""
","
","
","""event"",""trial"",""time""
""fullscreenenter"",""0"",""3758""
","
","421","","","","","","","","51","0,0,1","1","highway","66","probe-22","0.24621558007071376","0.21852530178036755","0.6123171468643078","1","","","","","","","",""
"","html-keyboard-response","225","902104","0.0-122.0-1.0","""event"",""trial"",""time""
""fullscreenenter"",""0"",""3758""
","
","
","""event"",""trial"",""time""
""fullscreenenter"",""0"",""3758""
","
","null","<p></p>","null","","","","","","","","","","","","","","","","","","","","","","",""
"","do_trial","226","907155","0.0-123.0-0.0","""event"",""trial"",""time""
""fullscreenenter"",""0"",""3758""
","
","
","""event"",""trial"",""time""
""fullscreenenter"",""0"",""3758""
","
","498.7999999523163","","","","","","","","51","0,0,0","1","highway","67","probe-185","0.21573977068127861","0.0865160769017643","0.6260414574114347","0","","","","","","","",""
"","html-keyboard-response","227","908161","0.0-123.0-1.0","""event"",""trial"",""time""
""fullscreenenter"",""0"",""3758""
","
","
","""event"",""trial"",""time""
""fullscreenenter"",""0"",""3758""
","
","null","<p></p>","null","","","","","","","","","","","","","","","","","","","","","","",""
"","do_trial","228","913276","0.0-124.0-0.0","""event"",""trial"",""time""
""fullscreenenter"",""0"",""3758""
","
","
","""event"",""trial"",""time""
""fullscreenenter"",""0"",""3758""
","
","563.3999999761581","","","","","","","","51","0,0,1","1","highway","68","probe-156","0.4002934771815558","0.12461665108097028","0.5665167419940927","1","","","","","","","",""
"","html-keyboard-response","229","914278","0.0-124.0-1.0","""event"",""trial"",""time""
""fullscreenenter"",""0"",""3758""
","
","
","""event"",""trial"",""time""
""fullscreenenter"",""0"",""3758""
","
","null","<p></p>","null","","","","","","","","","","","","","","","","","","","","","","",""
"","do_trial","230","919308","0.0-125.0-0.0","""event"",""trial"",""time""
""fullscreenenter"",""0"",""3758""
","
","
","""event"",""trial"",""time""
""fullscreenenter"",""0"",""3758""
","
","474.89999997615814","","","","","","","","51","1,0,1","1","highway","69","probe-53","0.4180657535223494","0.09447160198773408","0.4299542425865239","1","","","","","","","",""
"","html-keyboard-response","231","920314","0.0-125.0-1.0","""event"",""trial"",""time""
""fullscreenenter"",""0"",""3758""
","
","
","""event"",""trial"",""time""
""fullscreenenter"",""0"",""3758""
","
","null","<p></p>","null","","","","","","","","","","","","","","","","","","","","","","",""
"","do_bye","232","921824","0.0-126.0-0.0","""event"",""trial"",""time""
""fullscreenenter"",""0"",""3758""
","
","
","""event"",""trial"",""time""
""fullscreenenter"",""0"",""3758""
","
","null","","","","","","","","null","","","","","","","","","","","","","","","","",""
"","break","233","959745","0.0-126.0-1.0","""event"",""trial"",""time""
""fullscreenenter"",""0"",""3758""
","
","
","""event"",""trial"",""time""
""fullscreenenter"",""0"",""3758""
","
","37920.199999928474","<div class='center'><p>Time to take a quick break! You have 2 minutes to rest, but you can move on sooner if you'd like.</p><p> Press the <b>space bar</b> to continue.</p></div>","32","","","","","","","","","","","","","","","","","","","","","","",""
"","do_travel","234","968750","0.0-127.0-0.0","""event"",""trial"",""time""
""fullscreenenter"",""0"",""3758""
","
","
","""event"",""trial"",""time""
""fullscreenenter"",""0"",""3758""
","
","null","","","","","","","","null","","","","","","","","","","","","","","","","",""
"","do_welcome","235","972763","0.0-127.0-1.0","""event"",""trial"",""time""
""fullscreenenter"",""0"",""3758""
","
","
","""event"",""trial"",""time""
""fullscreenenter"",""0"",""3758""
","
","null","","","","","","","","null","","","","","","","","","","","","","","","","",""
"","do_trial","236","978477","0.0-128.0-0.0","""event"",""trial"",""time""
""fullscreenenter"",""0"",""3758""
","
","
","""event"",""trial"",""time""
""fullscreenenter"",""0"",""3758""
","
","1165.5999999046326","","","","","","","","50","1,0,1","2","countryside","70","probe-205","0.29309305371685085","0.1250466693726453","1","0","","","","","","","",""
"","html-keyboard-response","237","979484","0.0-128.0-1.0","""event"",""trial"",""time""
""fullscreenenter"",""0"",""3758""
","
","
","""event"",""trial"",""time""
""fullscreenenter"",""0"",""3758""
","
","null","<p></p>","null","","","","","","","","","","","","","","","","","","","","","","",""
"","do_trial","238","984615","0.0-129.0-0.0","""event"",""trial"",""time""
""fullscreenenter"",""0"",""3758""
","
","
","""event"",""trial"",""time""
""fullscreenenter"",""0"",""3758""
","
","576.2999999523163","","","","","","","","49","1,0,1","2","countryside","71","probe-51","0.3077257375456423","0.11812514276681395","1","1","","","","","","","",""
"","html-keyboard-response","239","985621","0.0-129.0-1.0","""event"",""trial"",""time""
""fullscreenenter"",""0"",""3758""
","
","
","""event"",""trial"",""time""
""fullscreenenter"",""0"",""3758""
","
","null","<p></p>","null","","","","","","","","","","","","","","","","","","","","","","",""
"","do_trial","240","990709","0.0-130.0-0.0","""event"",""trial"",""time""
""fullscreenenter"",""0"",""3758""
","
","
","""event"",""trial"",""time""
""fullscreenenter"",""0"",""3758""
","
","535.5","","","","","","","","49","0,1,1","2","countryside","72","probe-160","0.30743044561431676","0.2147678353667845","0.8984576958682376","0","","","","","","","",""
"","html-keyboard-response","241","991715","0.0-130.0-1.0","""event"",""trial"",""time""
""fullscreenenter"",""0"",""3758""
","
","
","""event"",""trial"",""time""
""fullscreenenter"",""0"",""3758""
","
","null","<p></p>","null","","","","","","","","","","","","","","","","","","","","","","",""
"","do_trial","242","996840","0.0-131.0-0.0","""event"",""trial"",""time""
""fullscreenenter"",""0"",""3758""
","
","
","""event"",""trial"",""time""
""fullscreenenter"",""0"",""3758""
","
","571.5","","","","","","","","49","1,1,1","2","countryside","73","probe-175","0.4041060476451995","0.17354039337897514","0.9149332121025888","1","","","","","","","",""
"","html-keyboard-response","243","997843","0.0-131.0-1.0","""event"",""trial"",""time""
""fullscreenenter"",""0"",""3758""
","
","
","""event"",""trial"",""time""
""fullscreenenter"",""0"",""3758""
","
","null","<p></p>","null","","","","","","","","","","","","","","","","","","","","","","",""
"","do_trial","244","1003535","0.0-132.0-0.0","""event"",""trial"",""time""
""fullscreenenter"",""0"",""3758""
","
","
","""event"",""trial"",""time""
""fullscreenenter"",""0"",""3758""
","
","1138.1000000238419","","","","","","","","49","0,1,1","2","countryside","74","probe-150","0.43364278955481744","0.14217023135658532","0.8194957981305503","0","","","","","","","",""
"","html-keyboard-response","245","1004539","0.0-132.0-1.0","""event"",""trial"",""time""
""fullscreenenter"",""0"",""3758""
","
","
","""event"",""trial"",""time""
""fullscreenenter"",""0"",""3758""
","
","null","<p></p>","null","","","","","","","","","","","","","","","","","","","","","","",""
"","do_trial","246","1009425","0.0-133.0-0.0","""event"",""trial"",""time""
""fullscreenenter"",""0"",""3758""
","
","
","""event"",""trial"",""time""
""fullscreenenter"",""0"",""3758""
","
","334","","","","","","","","50","0,0,1","2","countryside","75","probe-191","0.2967263192192059","0.2011544536756012","0.7629048780532915","0","","","","","","","",""
"","html-keyboard-response","247","1010430","0.0-133.0-1.0","""event"",""trial"",""time""
""fullscreenenter"",""0"",""3758""
","
","
","""event"",""trial"",""time""
""fullscreenenter"",""0"",""3758""
","
","null","<p></p>","null","","","","","","","","","","","","","","","","","","","","","","",""
"","do_trial","248","1015507","0.0-134.0-0.0","""event"",""trial"",""time""
""fullscreenenter"",""0"",""3758""
","
","
","""event"",""trial"",""time""
""fullscreenenter"",""0"",""3758""
","
","524.2999999523163","","","","","","","","51","0,0,1","2","countryside","76","probe-50","0.24073703080299014","0.09658181654581555","0.70907497578449","1","","","","","","","",""
"","html-keyboard-response","249","1016513","0.0-134.0-1.0","""event"",""trial"",""time""
""fullscreenenter"",""0"",""3758""
","
","
","""event"",""trial"",""time""
""fullscreenenter"",""0"",""3758""
","
","null","<p></p>","null","","","","","","","","","","","","","","","","","","","","","","",""
"","do_trial","250","1021538","0.0-135.0-0.0","""event"",""trial"",""time""
""fullscreenenter"",""0"",""3758""
","
","
","""event"",""trial"",""time""
""fullscreenenter"",""0"",""3758""
","
","468.1999999284744","","","","","","","","51","1,0,1","2","countryside","77","probe-115","0.1575858308979819","0.13829274752555132","0.9124975124865714","1","","","","","","","",""
"","html-keyboard-response","251","1022541","0.0-135.0-1.0","""event"",""trial"",""time""
""fullscreenenter"",""0"",""3758""
","
","
","""event"",""trial"",""time""
""fullscreenenter"",""0"",""3758""
","
","null","<p></p>","null","","","","","","","","","","","","","","","","","","","","","","",""
"","do_trial","252","1027726","0.0-136.0-0.0","""event"",""trial"",""time""
""fullscreenenter"",""0"",""3758""
","
","
","""event"",""trial"",""time""
""fullscreenenter"",""0"",""3758""
","
","629.7000000476837","","","","","","","","51","1,0,1","2","countryside","78","probe-04","0.27981998812487113","0.14845526377673376","0.8698342414661184","1","","","","","","","",""
"","html-keyboard-response","253","1028731","0.0-136.0-1.0","""event"",""trial"",""time""
""fullscreenenter"",""0"",""3758""
","
","
","""event"",""trial"",""time""
""fullscreenenter"",""0"",""3758""
","
","null","<p></p>","null","","","","","","","","","","","","","","","","","","","","","","",""
"","do_trial","254","1033846","0.0-137.0-0.0","""event"",""trial"",""time""
""fullscreenenter"",""0"",""3758""
","
","
","""event"",""trial"",""time""
""fullscreenenter"",""0"",""3758""
","
","560.3999999761581","","","","","","","","51","1,0,0","2","countryside","79","probe-114","0.33816723980833446","0.058551805013688764","0.4796644107288755","0","","","","","","","",""
"","html-keyboard-response","255","1034852","0.0-137.0-1.0","""event"",""trial"",""time""
""fullscreenenter"",""0"",""3758""
","
","
","""event"",""trial"",""time""
""fullscreenenter"",""0"",""3758""
","
","null","<p></p>","null","","","","","","","","","","","","","","","","","","","","","","",""
"","do_trial","256","1039973","0.0-138.0-0.0","""event"",""trial"",""time""
""fullscreenenter"",""0"",""3758""
","
","
","""event"",""trial"",""time""
""fullscreenenter"",""0"",""3758""
","
","566.1000000238419","","","","","","","","51","0,0,1","2","countryside","80","probe-120","0.2893079271973645","0.08684977892136779","0.4454222220977366","1","","","","","","","",""
"","html-keyboard-response","257","1040978","0.0-138.0-1.0","""event"",""trial"",""time""
""fullscreenenter"",""0"",""3758""
","
","
","""event"",""trial"",""time""
""fullscreenenter"",""0"",""3758""
","
","null","<p></p>","null","","","","","","","","","","","","","","","","","","","","","","",""
"","do_trial","258","1048468","0.0-139.0-0.0","""event"",""trial"",""time""
""fullscreenenter"",""0"",""3758""
","
","
","""event"",""trial"",""time""
""fullscreenenter"",""0"",""3758""
","
","2934.4000000953674","","","","","","","","51","0,0,0","2","countryside","81","probe-227","0.171062094750336","0.1205779269807329","0.5078628520976409","0","","","","","","","",""
"","html-keyboard-response","259","1049475","0.0-139.0-1.0","""event"",""trial"",""time""
""fullscreenenter"",""0"",""3758""
","
","
","""event"",""trial"",""time""
""fullscreenenter"",""0"",""3758""
","
","null","<p></p>","null","","","","","","","","","","","","","","","","","","","","","","",""
"","do_trial","260","1056832","0.0-140.0-0.0","""event"",""trial"",""time""
""fullscreenenter"",""0"",""3758""
","
","
","""event"",""trial"",""time""
""fullscreenenter"",""0"",""3758""
","
","505.60000002384186","","","","","","","","51","0,0,0","2","countryside","82","probe-133","0.06294246432530504","0.3586572879236983","0.3092475403618162","0","","","","","","","",""
"","html-keyboard-response","261","1057834","0.0-140.0-1.0","""event"",""trial"",""time""
""fullscreenenter"",""0"",""3758""
","
","
","""event"",""trial"",""time""
""fullscreenenter"",""0"",""3758""
","
","null","<p></p>","null","","","","","","","","","","","","","","","","","","","","","","",""
