"success","trial_type","trial_index","time_elapsed","internal_node_id","interactions","blur_events","focus_events","fullscreenenter_events","fullscreenexit_events","rt","stimulus","key_press","subject_id","participant_id","age","gender","prompt","response","choice_outcomes","context_n","context_img_id","trial_n","probe_img_id","pR_red","pR_white","pR_black","outcome","contextArray_ind","validImageProbes","invalidImageProbes","pRew_Red","pRew_White","pRew_Black","availableForMemProbe","choice_blocks"
"true","fullscreen","0","3744","0.0-0.0","""event"",""trial"",""time""
""fullscreenenter"",""0"",""2933""
","
","
","""event"",""trial"",""time""
""fullscreenenter"",""0"",""2933""
","
","","","","","","","","","","","","","","","","","","","","","","","","","",""
"","pavlovia","1","3750","0.0-1.0","""event"",""trial"",""time""
""fullscreenenter"",""0"",""2933""
","
","
","""event"",""trial"",""time""
""fullscreenenter"",""0"",""2933""
","
","","","","","","","","","","","","","","","","","","","","","","","","","",""
"","instruc1","2","48865","0.0-2.0","""event"",""trial"",""time""
""fullscreenenter"",""0"",""2933""
","
","
","""event"",""trial"",""time""
""fullscreenenter"",""0"",""2933""
","
","null","run_exp/static/audio/clip_1_welcome.m4a","null","313","403","17","Female","<div class='center'><p>Welcome! This is the first part of the study. It will last ~30 minutes. In part 1 and part 2 of the study, you are the head captain of a pirate ship traveling around the world to different islands. You will play a few different games throughout these two parts. Here is an overview of them:</p><br><p>Part 1 (today)</p><p>1. Instructions, practice game, and quiz</p><p>2. Pick a pirate game on 6 different islands</p><br><p>Part 2 (tomorrow)</p><p>3. Pick a pirate game and memory game</p><p>4. Where did you see this ship? </p></div>","","","","","","","","","","","","","","","","","",""
"","html-keyboard-response","3","49723","0.0-3.0","""event"",""trial"",""time""
""fullscreenenter"",""0"",""2933""
","
","
","""event"",""trial"",""time""
""fullscreenenter"",""0"",""2933""
","
","846.4000000059605","<div class='center'><p>Welcome! This is the first part of the study. It will last ~30 minutes. In part 1 and part 2 of the study, you are the head captain of a pirate ship traveling around the world to different islands. You will play a few different games throughout these two parts. Here is an overview of them:</p><br><p>Part 1 (today)</p><p>1. Instructions, practice game, and quiz</p><p>2. Pick a pirate game on 6 different islands</p><br><p>Part 2 (tomorrow)</p><p>3. Pick a pirate game and memory game</p><p>4. Where did you see this ship? </p><p><b>[Press the space bar to continue]</b></p></div>","32","","","","","","","","","","","","","","","","","","","","","","",""
"","instruc2","4","55134","0.0-4.0","""event"",""trial"",""time""
""fullscreenenter"",""0"",""2933""
","
","
","""event"",""trial"",""time""
""fullscreenenter"",""0"",""2933""
","
","null","run_exp/static/audio/clip_2_different_places.m4a","null","","","","","<div class='center'><p>Today, you’ll visit these 6 islands on your journey. You'll be able to see these islands from your ship.</p><p><img src='run_exp/static/images/contexts/all_contexts.png' height='500'></p></div>","","","","","","","","","","","","","","","","","",""
"","html-keyboard-response","5","55631","0.0-5.0","""event"",""trial"",""time""
""fullscreenenter"",""0"",""2933""
","
","
","""event"",""trial"",""time""
""fullscreenenter"",""0"",""2933""
","
","494.09999999403954","<div class='center'><p>Today, you’ll visit these 6 islands on your journey. You'll be able to see these islands from your ship.</p><p><img src='run_exp/static/images/contexts/all_contexts.png' height='500'></p><p><b>[Press the space bar to continue]</b></p></div>","32","","","","","","","","","","","","","","","","","","","","","","",""
"","instruc3","6","65374","0.0-6.0","""event"",""trial"",""time""
""fullscreenenter"",""0"",""2933""
","
","
","""event"",""trial"",""time""
""fullscreenenter"",""0"",""2933""
","
","null","run_exp/static/audio/clip_3_goal_of_game_1.m4a","null","","","","","<div class='center'><p> The pirates on your ship will rob other ships as they leave the island.</p> These ships have just sold their goods to the islanders, so they will be filled with lots and lots of gold.</p><p><img src='run_exp/static/images/tutorial/ship_center.png' height='400'></p></div>","","","","","","","","","","","","","","","","","",""
"","html-keyboard-response","7","65732","0.0-7.0","""event"",""trial"",""time""
""fullscreenenter"",""0"",""2933""
","
","
","""event"",""trial"",""time""
""fullscreenenter"",""0"",""2933""
","
","348.60000002384186","<div class='center'><p> The pirates on your ship will rob other ships as they leave the island.</p> These ships have just sold their goods to the islanders, so they will be filled with lots and lots of gold.</p><p><img src='run_exp/static/images/tutorial/ship_center.png' height='400'></p><p><b>[Press the space bar to continue]</b></p></div>","32","","","","","","","","","","","","","","","","","","","","","","",""
"","instruc4","8","93796","0.0-8.0","""event"",""trial"",""time""
""fullscreenenter"",""0"",""2933""
","
","
","""event"",""trial"",""time""
""fullscreenenter"",""0"",""2933""
","
","null","run_exp/static/audio/clip_4_goal_of_game_2.m4a","null","","","","","<div class='center'><p>As the head captain, you do not have to rob any ships yourself. Another pirate will be doing the robbing for you. First, you will choose a pirate to rob the next ship.</p><p><img src='run_exp/static/images/tutorial/pirates_all_crop.png' height='200'></p><p>Then, you'll see if the pirate successfully robbed the ship of their gold. If they were successful, then you'll get a stack of gold coins like this:</p><p><img src='run_exp/static/images/tutorial/reward.png' height='150'></p><p> If they were <b>not</b> successful, then you'll get no gold coins, and you'll see a big red x like this: </p><p><img src='run_exp/static/images/tutorial/reward_no.png' height='150'></p><p> How much bonus money you make is based on how many gold coins you collect.</p><div>","","","","","","","","","","","","","","","","","",""
"","html-keyboard-response","9","94258","0.0-9.0","""event"",""trial"",""time""
""fullscreenenter"",""0"",""2933""
","
","
","""event"",""trial"",""time""
""fullscreenenter"",""0"",""2933""
","
","460.2999999821186","<div class='center'><p>As the head captain, you do not have to rob any ships yourself. Another pirate will be doing the robbing for you. First, you will choose a pirate to rob the next ship.</p><p><img src='run_exp/static/images/tutorial/pirates_all_crop.png' height='200'></p><p>Then, you'll see if the pirate successfully robbed the ship of their gold. If they were successful, then you'll get a stack of gold coins like this:</p><p><img src='run_exp/static/images/tutorial/reward.png' height='150'></p><p> If they were <b>not</b> successful, then you'll get no gold coins, and you'll see a big red x like this: </p><p><img src='run_exp/static/images/tutorial/reward_no.png' height='150'></p><p> How much bonus money you make is based on how many gold coins you collect.</p<p><b>[Press the space bar to continue]</b></p></div>","32","","","","","","","","","","","","","","","","","","","","","","",""
"","instruc5","10","117742","0.0-10.0","""event"",""trial"",""time""
""fullscreenenter"",""0"",""2933""
","
","
","""event"",""trial"",""time""
""fullscreenenter"",""0"",""2933""
","
","23481.19999998808","run_exp/static/audio/clip_5_probabilistic.m4a","49","","","","","<div class='center'><p>Even the most skilled pirate can not rob EVERY ship.</p><p> Some ships will have very strong protections against pirate attacks.</p><p> Blue beard, here, is very, very good at robbing ships, but he won't be successful every time he tries to rob one.</p><p> You can press the <b>‘1’</b> key on the keyboard to choose him.</p><p> Try choosing him 10 times to see how often he succeeds at robbing a ship. </p><p><img src='run_exp/static/images/tutorial/blue.png' height='500'></p></div>","","","","","","","","","","","","","","","","","",""
"","html-keyboard-response","11","119247","0.0-11.0","""event"",""trial"",""time""
""fullscreenenter"",""0"",""2933""
","
","
","""event"",""trial"",""time""
""fullscreenenter"",""0"",""2933""
","
","null","<div class='center'><p><img src='run_exp/static/images/tutorial/blue_win.png' height='500'></p></div>","null","","","","","","","","","","","","","","","","","","","","","","",""
"","html-keyboard-response","12","119643","0.0-12.0","""event"",""trial"",""time""
""fullscreenenter"",""0"",""2933""
","
","
","""event"",""trial"",""time""
""fullscreenenter"",""0"",""2933""
","
","394.7000000178814","<div class='center'><img src='run_exp/static/images/tutorial/blue.png' height='500'></p></div>","49","","","","","","","","","","","","","","","","","","","","","","",""
"","html-keyboard-response","13","121144","0.0-13.0","""event"",""trial"",""time""
""fullscreenenter"",""0"",""2933""
","
","
","""event"",""trial"",""time""
""fullscreenenter"",""0"",""2933""
","
","null","<div class='center'><p><img src='run_exp/static/images/tutorial/blue_win.png' height='500'></p></div>","null","","","","","","","","","","","","","","","","","","","","","","",""
"","html-keyboard-response","14","121415","0.0-14.0","""event"",""trial"",""time""
""fullscreenenter"",""0"",""2933""
","
","
","""event"",""trial"",""time""
""fullscreenenter"",""0"",""2933""
","
","269.59999999403954","<div class='center'><img src='run_exp/static/images/tutorial/blue.png' height='500'></p></div>","49","","","","","","","","","","","","","","","","","","","","","","",""
"","html-keyboard-response","15","122919","0.0-15.0","""event"",""trial"",""time""
""fullscreenenter"",""0"",""2933""
","
","
","""event"",""trial"",""time""
""fullscreenenter"",""0"",""2933""
","
","null","<div class='center'><p><img src='run_exp/static/images/tutorial/blue_win.png' height='500'></p></div>","null","","","","","","","","","","","","","","","","","","","","","","",""
"","html-keyboard-response","16","123131","0.0-16.0","""event"",""trial"",""time""
""fullscreenenter"",""0"",""2933""
","
","
","""event"",""trial"",""time""
""fullscreenenter"",""0"",""2933""
","
","211","<div class='center'><img src='run_exp/static/images/tutorial/blue.png' height='500'></p></div>","49","","","","","","","","","","","","","","","","","","","","","","",""
"","html-keyboard-response","17","124638","0.0-17.0","""event"",""trial"",""time""
""fullscreenenter"",""0"",""2933""
","
","
","""event"",""trial"",""time""
""fullscreenenter"",""0"",""2933""
","
","null","<div class='center'><p><img src='run_exp/static/images/tutorial/blue_no_win.png' height='500'></p></div>","null","","","","","","","","","","","","","","","","","","","","","","",""
"","html-keyboard-response","18","125004","0.0-18.0","""event"",""trial"",""time""
""fullscreenenter"",""0"",""2933""
","
","
","""event"",""trial"",""time""
""fullscreenenter"",""0"",""2933""
","
","364.69999998807907","<div class='center'><img src='run_exp/static/images/tutorial/blue.png' height='500'></p></div>","49","","","","","","","","","","","","","","","","","","","","","","",""
"","html-keyboard-response","19","126507","0.0-19.0","""event"",""trial"",""time""
""fullscreenenter"",""0"",""2933""
","
","
","""event"",""trial"",""time""
""fullscreenenter"",""0"",""2933""
","
","null","<div class='center'><p><img src='run_exp/static/images/tutorial/blue_win.png' height='500'></p></div>","null","","","","","","","","","","","","","","","","","","","","","","",""
"","html-keyboard-response","20","126802","0.0-20.0","""event"",""trial"",""time""
""fullscreenenter"",""0"",""2933""
","
","
","""event"",""trial"",""time""
""fullscreenenter"",""0"",""2933""
","
","293.40000000596046","<div class='center'><img src='run_exp/static/images/tutorial/blue.png' height='500'></p></div>","49","","","","","","","","","","","","","","","","","","","","","","",""
"","html-keyboard-response","21","128304","0.0-21.0","""event"",""trial"",""time""
""fullscreenenter"",""0"",""2933""
","
","
","""event"",""trial"",""time""
""fullscreenenter"",""0"",""2933""
","
","null","<div class='center'><p><img src='run_exp/static/images/tutorial/blue_win.png' height='500'></p></div>","null","","","","","","","","","","","","","","","","","","","","","","",""
"","html-keyboard-response","22","128571","0.0-22.0","""event"",""trial"",""time""
""fullscreenenter"",""0"",""2933""
","
","
","""event"",""trial"",""time""
""fullscreenenter"",""0"",""2933""
","
","266.40000000596046","<div class='center'><img src='run_exp/static/images/tutorial/blue.png' height='500'></p></div>","49","","","","","","","","","","","","","","","","","","","","","","",""
"","html-keyboard-response","23","130074","0.0-23.0","""event"",""trial"",""time""
""fullscreenenter"",""0"",""2933""
","
","
","""event"",""trial"",""time""
""fullscreenenter"",""0"",""2933""
","
","null","<div class='center'><p><img src='run_exp/static/images/tutorial/blue_win.png' height='500'></p></div>","null","","","","","","","","","","","","","","","","","","","","","","",""
"","html-keyboard-response","24","130374","0.0-24.0","""event"",""trial"",""time""
""fullscreenenter"",""0"",""2933""
","
","
","""event"",""trial"",""time""
""fullscreenenter"",""0"",""2933""
","
","299.2000000178814","<div class='center'><img src='run_exp/static/images/tutorial/blue.png' height='500'></p></div>","49","","","","","","","","","","","","","","","","","","","","","","",""
"","html-keyboard-response","25","131879","0.0-25.0","""event"",""trial"",""time""
""fullscreenenter"",""0"",""2933""
","
","
","""event"",""trial"",""time""
""fullscreenenter"",""0"",""2933""
","
","null","<div class='center'><p><img src='run_exp/static/images/tutorial/blue_no_win.png' height='500'></p></div>","null","","","","","","","","","","","","","","","","","","","","","","",""
"","html-keyboard-response","26","132175","0.0-26.0","""event"",""trial"",""time""
""fullscreenenter"",""0"",""2933""
","
","
","""event"",""trial"",""time""
""fullscreenenter"",""0"",""2933""
","
","295","<div class='center'><img src='run_exp/static/images/tutorial/blue.png' height='500'></p></div>","49","","","","","","","","","","","","","","","","","","","","","","",""
"","html-keyboard-response","27","133679","0.0-27.0","""event"",""trial"",""time""
""fullscreenenter"",""0"",""2933""
","
","
","""event"",""trial"",""time""
""fullscreenenter"",""0"",""2933""
","
","null","<div class='center'><p><img src='run_exp/static/images/tutorial/blue_win.png' height='500'></p></div>","null","","","","","","","","","","","","","","","","","","","","","","",""
"","html-keyboard-response","28","133981","0.0-28.0","""event"",""trial"",""time""
""fullscreenenter"",""0"",""2933""
","
","
","""event"",""trial"",""time""
""fullscreenenter"",""0"",""2933""
","
","301.40000000596046","<div class='center'><img src='run_exp/static/images/tutorial/blue.png' height='500'></p></div>","49","","","","","","","","","","","","","","","","","","","","","","",""
"","html-keyboard-response","29","135487","0.0-29.0","""event"",""trial"",""time""
""fullscreenenter"",""0"",""2933""
","
","
","""event"",""trial"",""time""
""fullscreenenter"",""0"",""2933""
","
","null","<div class='center'><p><img src='run_exp/static/images/tutorial/blue_win.png' height='500'></p></div>","null","","","","","","","","","","","","","","","","","","","","","","",""
"","instruc6","30","140904","0.0-30.0","""event"",""trial"",""time""
""fullscreenenter"",""0"",""2933""
","
","
","""event"",""trial"",""time""
""fullscreenenter"",""0"",""2933""
","
","null","run_exp/static/audio/clip_6_blue_beard_outcome.m4a","null","","","","","<div class='center'><p> See, he succeeded in robbing the ships most of the time but not every time. </p></div>","","","","","","","","","","","","","","","","","",""
"","html-keyboard-response","31","141783","0.0-31.0","""event"",""trial"",""time""
""fullscreenenter"",""0"",""2933""
","
","
","""event"",""trial"",""time""
""fullscreenenter"",""0"",""2933""
","
","878.4000000059605","<div class='center'><p> See, he succeeded in robbing the ships most of the time but not every time. </p><p><b>[Press the space bar to continue]</b></p></div>","32","","","","","","","","","","","","","","","","","","","","","","",""
"","audio-keyboard-response","32","145243","0.0-32.0","""event"",""trial"",""time""
""fullscreenenter"",""0"",""2933""
","
","
","""event"",""trial"",""time""
""fullscreenenter"",""0"",""2933""
","
","3457.800000011921","run_exp/static/audio/clip_7_pick_pirate.m4a","50","","","","","","","","","","","","","","","","","","","","","","",""
"","audio-keyboard-response","33","147105","0.0-33.0-0.0","""event"",""trial"",""time""
""fullscreenenter"",""0"",""2933""
","
","
","""event"",""trial"",""time""
""fullscreenenter"",""0"",""2933""
","
","1860.2999999821186","run_exp/static/audio/clip_8_chosen_pirate_win.m4a","32","","","","","","","","","","","","","","","","","","","","","","",""
"","audio-keyboard-response","34","148020","0.0-33.0-1.0","""event"",""trial"",""time""
""fullscreenenter"",""0"",""2933""
","
","
","""event"",""trial"",""time""
""fullscreenenter"",""0"",""2933""
","
","912.5","run_exp/static/audio/clip_9_pick_a_pirate_again.m4a","49","","","","","","","","","","","","","","","","","","","","","","",""
"","audio-keyboard-response","35","150261","0.0-34.0-0.0","""event"",""trial"",""time""
""fullscreenenter"",""0"",""2933""
","
","
","""event"",""trial"",""time""
""fullscreenenter"",""0"",""2933""
","
","2238.800000011921","run_exp/static/audio/clip_10_chosen_pirate_loss.m4a","32","","","","","","","","","","","","","","","","","","","","","","",""
"","instruc9","36","155765","0.0-35.0-0.0","""event"",""trial"",""time""
""fullscreenenter"",""0"",""2933""
","
","
","""event"",""trial"",""time""
""fullscreenenter"",""0"",""2933""
","
","null","run_exp/static/audio/clip_11_time_out.m4a","null","","","","","<div class='center'><p>If you don’t make your choice fast enough, you’ll have to wait a few seconds before you can make another one. </p><p><img src='run_exp/static/images/miscellaneous/hurry_up.png' height='500'></p></div>","","","","","","","","","","","","","","","","","",""
"","html-keyboard-response","37","156371","0.0-35.0-1.0","""event"",""trial"",""time""
""fullscreenenter"",""0"",""2933""
","
","
","""event"",""trial"",""time""
""fullscreenenter"",""0"",""2933""
","
","605.2000000178814","<div class='center'><p>If you don’t make your choice fast enough, you’ll have to wait a few seconds before you can make another one. </p><p><img src='run_exp/static/images/miscellaneous/hurry_up.png' height='500'></p><p><b>[Press the space bar to continue]</b></p></div>","32","","","","","","","","","","","","","","","","","","","","","","",""
"","instruc10","38","195495","0.0-35.0-2.0","""event"",""trial"",""time""
""fullscreenenter"",""0"",""2933""
","
","
","""event"",""trial"",""time""
""fullscreenenter"",""0"",""2933""
","
","null","run_exp/static/audio/clip_12_probe.m4a","null","","","","","<div class='center'><p>Once you've chosen a pirate, you’ll be shown the ship they are robbing. You will never rob the same ship twice. Ships can be told apart from one another by the image on them. These are the goods that they sell. See, this ship has a travel mug on it. </p><p> You’ll have to remember which island you saw each ship on. You will win more gold coins and hence more bonus money if you remember correctly! To help you remember, you can imagine a story. For example, here, you could imagine a mug full of water in the desert. Or, as another example, if on the forest island, your pirate robbed a ship with an apple on it, you could imagine an apple falling from a tree in the forest. </p><p><img src='run_exp/static/images/tutorial/example_probe.png' height='500'></p></div>","","","","","","","","","","","","","","","","","",""
"","html-keyboard-response","39","195819","0.0-35.0-3.0","""event"",""trial"",""time""
""fullscreenenter"",""0"",""2933""
","
","
","""event"",""trial"",""time""
""fullscreenenter"",""0"",""2933""
","
","322.5","<div class='center'><p>Once you've chosen a pirate, you’ll be shown the ship they are robbing. You will never rob the same ship twice. Ships can be told apart from one another by the image on them. These are the goods that they sell. See, this ship has a travel mug on it. </p><p> You’ll have to remember which island you saw each ship on. You will win more gold coins and hence more bonus money if you remember correctly! To help you remember, you can imagine a story. For example, here, you could imagine a mug full of water in the desert. Or, as another example, if on the forest island, your pirate robbed a ship with an apple on it, you could imagine an apple falling from a tree in the forest. </p><p><img src='run_exp/static/images/tutorial/example_probe.png' height='500'></p><p><b>[Press the space bar to continue]</b></p></div>","32","","","","","","","","","","","","","","","","","","","","","","",""
"","instruc11","40","212261","0.0-35.0-4.0","""event"",""trial"",""time""
""fullscreenenter"",""0"",""2933""
","
","
","""event"",""trial"",""time""
""fullscreenenter"",""0"",""2933""
","
","null","run_exp/static/audio/clip_13_changepoint.m4a","null","","","","","<div class='center'><p>How successful a pirate is at robbing ships will depend on the island you’re on.</p><p> A pirate may have visited this island many times before and gained a lot of practice robbing ships there.</p><p>So, they’re more likely to be successful than a pirate who has never visited the island before.</p></div>","","","","","","","","","","","","","","","","","",""
"","html-keyboard-response","41","213245","0.0-35.0-5.0","""event"",""trial"",""time""
""fullscreenenter"",""0"",""2933""
","
","
","""event"",""trial"",""time""
""fullscreenenter"",""0"",""2933""
","
","982.6999999880791","<div class='center'><p>How successful a pirate is at robbing ships will depend on the island you’re on.</p><p> A pirate may have visited this island many times before and gained a lot of practice robbing ships there.</p><p>So, they’re more likely to be successful than a pirate who has never visited the island before.</p><p><b>[Press the space bar to continue]</b></p></div>","32","","","","","","","","","","","","","","","","","","","","","","",""
"","instruc12","42","254360","0.0-35.0-6.0","""event"",""trial"",""time""
""fullscreenenter"",""0"",""2933""
","
","
","""event"",""trial"",""time""
""fullscreenenter"",""0"",""2933""
","
","null","run_exp/static/audio/clip_14_drift.m4a","null","","","","","<div class='center'><p>How successful a pirate is at robbing ships can also change over the time spent on the island. </p><p> Ships may hear from islanders about the pirates coming and will improve their protections against the attack. This may make it harder to rob them.</p><p> Ships may also become lazy and weaken the strength of their protections. This may make it easier to rob them.</p><br><p>Things are always changing on the high seas! So, try your best to pay attention!</p><p><img src='run_exp/static/images/tutorial/contingency.png' height='500'></p></div>","","","","","","","","","","","","","","","","","",""
"","html-keyboard-response","43","256146","0.0-35.0-7.0","""event"",""trial"",""time""
""fullscreenenter"",""0"",""2933""
","
","
","""event"",""trial"",""time""
""fullscreenenter"",""0"",""2933""
","
","1784.199999988079","<div class='center'><p>How successful a pirate is at robbing ships can also change over the time spent on the island. </p><p> Ships may hear from islanders about the pirates coming and will improve their protections against the attack. This may make it harder to rob them.</p><p> Ships may also become lazy and weaken the strength of their protections. This may make it easier to rob them.</p><br><p>Things are always changing on the high seas! So, try your best to pay attention!</p><p><img src='run_exp/static/images/tutorial/contingency.png' height='500'></p><p><b>[Press the space bar to continue]</b></p></div>","32","","","","","","","","","","","","","","","","","","","","","","",""
"","instruc13","44","291351","0.0-35.0-8.0","""event"",""trial"",""time""
""fullscreenenter"",""0"",""2933""
","
","
","""event"",""trial"",""time""
""fullscreenenter"",""0"",""2933""
","
","null","run_exp/static/audio/clip_15_summary.m4a","null","","","","","<div class='center'><p>Let's go over the instructions quickly again. You have two important things to do: </p><b><p> 1. Pick the pirate who is the best at robbing ships on the current island. </p></b><b><p> 2. Remember on which island a ship was robbed.</p> </b><p>The amount of bonus money you can win depends on both.</p><p><br><p>Let’s try a practice game. The game will start by showing you the pirates. First, pick a pirate using the <b> 1, 2, 3 </b> keys on your keyboard. When you are shown a ship, try to remember which island you’re on by making up a story.</p><p>This is just a practice game, so you’re not playing for money. </p><p> Good luck! This game will be very difficult but try your best!</p></div>","","","","","","","","","","","","","","","","","",""
"","html-keyboard-response","45","291678","0.0-35.0-9.0","""event"",""trial"",""time""
""fullscreenenter"",""0"",""2933""
","
","
","""event"",""trial"",""time""
""fullscreenenter"",""0"",""2933""
","
","326.69999998807907","<div class='center'><p>Let's go over the instructions quickly again. You have two important things to do: </p><b><p> 1. Pick the pirate who is the best at robbing ships on the current island. </p></b><b><p> 2. Remember on which island a ship was robbed.</p> </b><p>The amount of bonus money you can win depends on both.</p><p><br><p>Let’s try a practice game. The game will start by showing you the pirates. First, pick a pirate using the <b> 1, 2, 3 </b> keys on your keyboard. When you are shown a ship, try to remember which island you’re on by making up a story.</p><p>This is just a practice game, so you’re not playing for money. </p><p> Good luck! This game will be very difficult but try your best!</p><p><b>[Press the space bar to continue]</b></p></div>","32","","","","","","","","","","","","","","","","","","","","","","",""
"","do_welcome","46","295699","0.0-35.0-10.0","""event"",""trial"",""time""
""fullscreenenter"",""0"",""2933""
","
","
","""event"",""trial"",""time""
""fullscreenenter"",""0"",""2933""
","
","null","","","","","","","","null","","","","","","","","","","","","","","","","",""
"","do_trial","47","301400","0.0-35.0-11.0","""event"",""trial"",""time""
""fullscreenenter"",""0"",""2933""
","
","
","""event"",""trial"",""time""
""fullscreenenter"",""0"",""2933""
","
","1185.6000000238419","","","","","","","","49","1,0,0","","","","","","","","","","","","","","","",""
"","html-keyboard-response","48","302403","0.0-36.0-0.0","""event"",""trial"",""time""
""fullscreenenter"",""0"",""2933""
","
","
","""event"",""trial"",""time""
""fullscreenenter"",""0"",""2933""
","
","null","<p></p>","null","","","","","","","","","","","","","","","","","","","","","","",""
"","do_trial","49","308062","0.0-36.0-1.0","""event"",""trial"",""time""
""fullscreenenter"",""0"",""2933""
","
","
","""event"",""trial"",""time""
""fullscreenenter"",""0"",""2933""
","
","1148","","","","","","","","50","1,1,0","","","","","","","","","","","","","","","",""
"","html-keyboard-response","50","309067","0.0-37.0-0.0","""event"",""trial"",""time""
""fullscreenenter"",""0"",""2933""
","
","
","""event"",""trial"",""time""
""fullscreenenter"",""0"",""2933""
","
","null","<p></p>","null","","","","","","","","","","","","","","","","","","","","","","",""
"","do_trial","51","313961","0.0-37.0-1.0","""event"",""trial"",""time""
""fullscreenenter"",""0"",""2933""
","
","
","""event"",""trial"",""time""
""fullscreenenter"",""0"",""2933""
","
","380.90000000596046","","","","","","","","51","1,0,1","","","","","","","","","","","","","","","",""
"","html-keyboard-response","52","314966","0.0-38.0-0.0","""event"",""trial"",""time""
""fullscreenenter"",""0"",""2933""
","
","
","""event"",""trial"",""time""
""fullscreenenter"",""0"",""2933""
","
","null","<p></p>","null","","","","","","","","","","","","","","","","","","","","","","",""
"","do_trial","53","320180","0.0-38.0-1.0","""event"",""trial"",""time""
""fullscreenenter"",""0"",""2933""
","
","
","""event"",""trial"",""time""
""fullscreenenter"",""0"",""2933""
","
","706.7000000178814","","","","","","","","49","0,1,0","","","","","","","","","","","","","","","",""
"","html-keyboard-response","54","321185","0.0-39.0-0.0","""event"",""trial"",""time""
""fullscreenenter"",""0"",""2933""
","
","
","""event"",""trial"",""time""
""fullscreenenter"",""0"",""2933""
","
","null","<p></p>","null","","","","","","","","","","","","","","","","","","","","","","",""
"","do_trial","55","326556","0.0-39.0-1.0","""event"",""trial"",""time""
""fullscreenenter"",""0"",""2933""
","
","
","""event"",""trial"",""time""
""fullscreenenter"",""0"",""2933""
","
","857.0999999940395","","","","","","","","50","1,0,0","","","","","","","","","","","","","","","",""
"","do_bye","56","328063","0.0-40.0-0.0","""event"",""trial"",""time""
""fullscreenenter"",""0"",""2933""
","
","
","""event"",""trial"",""time""
""fullscreenenter"",""0"",""2933""
","
","null","","","","","","","","null","","","","","","","","","","","","","","","","",""
"","do_travel","57","337072","0.0-40.0-1.0","""event"",""trial"",""time""
""fullscreenenter"",""0"",""2933""
","
","
","""event"",""trial"",""time""
""fullscreenenter"",""0"",""2933""
","
","null","","","","","","","","null","","","","","","","","","","","","","","","","",""
"","do_welcome","58","341082","0.0-40.0-2.0","""event"",""trial"",""time""
""fullscreenenter"",""0"",""2933""
","
","
","""event"",""trial"",""time""
""fullscreenenter"",""0"",""2933""
","
","null","","","","","","","","null","","","","","","","","","","","","","","","","",""
"","do_trial","59","347955","0.0-40.0-3.0","""event"",""trial"",""time""
""fullscreenenter"",""0"",""2933""
","
","
","""event"",""trial"",""time""
""fullscreenenter"",""0"",""2933""
","
","2365","","","","","","","","51","1,0,0","","","","","","","","","","","","","","","",""
"","html-keyboard-response","60","348961","0.0-41.0-0.0","""event"",""trial"",""time""
""fullscreenenter"",""0"",""2933""
","
","
","""event"",""trial"",""time""
""fullscreenenter"",""0"",""2933""
","
","null","<p></p>","null","","","","","","","","","","","","","","","","","","","","","","",""
"","do_trial","61","353969","0.0-41.0-1.0","""event"",""trial"",""time""
""fullscreenenter"",""0"",""2933""
","
","
","""event"",""trial"",""time""
""fullscreenenter"",""0"",""2933""
","
","495.09999999403954","","","","","","","","50","1,0,1","","","","","","","","","","","","","","","",""
"","html-keyboard-response","62","354974","0.0-42.0-0.0","""event"",""trial"",""time""
""fullscreenenter"",""0"",""2933""
","
","
","""event"",""trial"",""time""
""fullscreenenter"",""0"",""2933""
","
","null","<p></p>","null","","","","","","","","","","","","","","","","","","","","","","",""
"","do_trial","63","360026","0.0-42.0-1.0","""event"",""trial"",""time""
""fullscreenenter"",""0"",""2933""
","
","
","""event"",""trial"",""time""
""fullscreenenter"",""0"",""2933""
","
","539.0999999940395","","","","","","","","49","1,1,0","","","","","","","","","","","","","","","",""
"","html-keyboard-response","64","361030","0.0-43.0-0.0","""event"",""trial"",""time""
""fullscreenenter"",""0"",""2933""
","
","
","""event"",""trial"",""time""
""fullscreenenter"",""0"",""2933""
","
","null","<p></p>","null","","","","","","","","","","","","","","","","","","","","","","",""
"","do_trial","65","365849","0.0-43.0-1.0","""event"",""trial"",""time""
""fullscreenenter"",""0"",""2933""
","
","
","""event"",""trial"",""time""
""fullscreenenter"",""0"",""2933""
","
","310.59999999403954","","","","","","","","49","0,0,1","","","","","","","","","","","","","","","",""
"","html-keyboard-response","66","366854","0.0-44.0-0.0","""event"",""trial"",""time""
""fullscreenenter"",""0"",""2933""
","
","
","""event"",""trial"",""time""
""fullscreenenter"",""0"",""2933""
","
","null","<p></p>","null","","","","","","","","","","","","","","","","","","","","","","",""
"","do_trial","67","371943","0.0-44.0-1.0","""event"",""trial"",""time""
""fullscreenenter"",""0"",""2933""
","
","
","""event"",""trial"",""time""
""fullscreenenter"",""0"",""2933""
","
","579","","","","","","","","49","1,0,1","","","","","","","","","","","","","","","",""
"","html-keyboard-response","68","376795","0.0-45.0-0.0","""event"",""trial"",""time""
""fullscreenenter"",""0"",""2933""
","
","
","""event"",""trial"",""time""
""fullscreenenter"",""0"",""2933""
","
","4849.200000017881","<div class='center'><p><img src='run_exp/static/images/tutorial/prac_best_pirate.png'  height='500'></p></div>","51","","","","","","","","","","","","","","","","","","","","","","",""
"","html-keyboard-response","69","380763","0.0-46.0-0.0","""event"",""trial"",""time""
""fullscreenenter"",""0"",""2933""
","
","
","""event"",""trial"",""time""
""fullscreenenter"",""0"",""2933""
","
","3966.0999999940395","<div class='center'><p>That's incorrect! Red beard was the best.</p><p><b>[Press the space bar to continue]</b></p></div>","32","","","","","","","","","","","","","","","","","","","","","","",""
"","html-keyboard-response","70","384140","0.0-46.0-1.0","""event"",""trial"",""time""
""fullscreenenter"",""0"",""2933""
","
","
","""event"",""trial"",""time""
""fullscreenenter"",""0"",""2933""
","
","3376.300000011921","<div class='center'><p><img src='run_exp/static/images/tutorial/prac_source.png'  height='500'></p></div>","50","","","","","","","","","","","","","","","","","","","","","","",""
"","html-keyboard-response","71","385444","0.0-47.0-0.0","""event"",""trial"",""time""
""fullscreenenter"",""0"",""2933""
","
","
","""event"",""trial"",""time""
""fullscreenenter"",""0"",""2933""
","
","1301.7999999821186","<div class='center'><p>That's correct! You saw this ship on the cavern island.</p><p><b>[Press the space bar to continue]</b></p></div>","32","","","","","","","","","","","","","","","","","","","","","","",""
"","quiz_beginning","72","396758","0.0-47.0-1.0","""event"",""trial"",""time""
""fullscreenenter"",""0"",""2933""
","
","
","""event"",""trial"",""time""
""fullscreenenter"",""0"",""2933""
","
","null","run_exp/static/audio/clip_16_quiz_intro.m4a","null","","","","","<div class='center'><p>Good job on the practice game! Now, you will be asked some true or false questions to make sure you really understand the rules of the game.</p><p> Press <b>'1'</b> on the keyboard for true and press <b>'2'</b> for false.</p></div>","","","","","","","","","","","","","","","","","",""
"","audio-keyboard-response","73","399769","0.0-47.0-2.0","""event"",""trial"",""time""
""fullscreenenter"",""0"",""2933""
","
","
","""event"",""trial"",""time""
""fullscreenenter"",""0"",""2933""
","
","3009.300000011921","run_exp/static/audio/clip_17_q1.m4a","49","","","","","","","","","","","","","","","","","","","","","","",""
"","correct","74","402192","0.0-48.0-0.0","""event"",""trial"",""time""
""fullscreenenter"",""0"",""2933""
","
","
","""event"",""trial"",""time""
""fullscreenenter"",""0"",""2933""
","
","null","run_exp/static/audio/clip_18_correct.m4a","null","","","","","<div class='center'><p>That's correct!</p></div>","","","","","","","","","","","","","","","","","",""
"","html-keyboard-response","75","403133","0.0-48.0-1.0","""event"",""trial"",""time""
""fullscreenenter"",""0"",""2933""
","
","
","""event"",""trial"",""time""
""fullscreenenter"",""0"",""2933""
","
","940.4000000059605","<div class='center'><p>That's correct!</p><p><b>[Press the space bar to continue]</b></p></div>","32","","","","","","","","","","","","","","","","","","","","","","",""
"","audio-keyboard-response","76","411639","0.0-48.0-2.0","""event"",""trial"",""time""
""fullscreenenter"",""0"",""2933""
","
","
","""event"",""trial"",""time""
""fullscreenenter"",""0"",""2933""
","
","8504.199999988079","run_exp/static/audio/clip_20_q2.m4a","49","","","","","","","","","","","","","","","","","","","","","","",""
"","q2_err","77","417146","0.0-49.0-0.0","""event"",""trial"",""time""
""fullscreenenter"",""0"",""2933""
","
","
","""event"",""trial"",""time""
""fullscreenenter"",""0"",""2933""
","
","null","run_exp/static/audio/clip_21_wrong_q2.m4a","null","","","","","<div class='center'><p>That’s incorrect. Which pirate is the best may change during your time on the island.</p></div>","","","","","","","","","","","","","","","","","",""
"","html-keyboard-response","78","417663","0.0-49.0-1.0","""event"",""trial"",""time""
""fullscreenenter"",""0"",""2933""
","
","
","""event"",""trial"",""time""
""fullscreenenter"",""0"",""2933""
","
","516.2000000178814","<div class='center'><p>That’s incorrect. Which pirate is the best may change during your time on the island.</p><p><b>[Press the space bar to continue]</b></p></div>","32","","","","","","","","","","","","","","","","","","","","","","",""
"","audio-keyboard-response","79","421893","0.0-49.0-2.0","""event"",""trial"",""time""
""fullscreenenter"",""0"",""2933""
","
","
","""event"",""trial"",""time""
""fullscreenenter"",""0"",""2933""
","
","4229","run_exp/static/audio/clip_22_q3.m4a","50","","","","","","","","","","","","","","","","","","","","","","",""
"","correct","80","424321","0.0-50.0-0.0","""event"",""trial"",""time""
""fullscreenenter"",""0"",""2933""
","
","
","""event"",""trial"",""time""
""fullscreenenter"",""0"",""2933""
","
","null","run_exp/static/audio/clip_18_correct.m4a","null","","","","","<div class='center'><p>That's correct!</p></div>","","","","","","","","","","","","","","","","","",""
"","html-keyboard-response","81","424979","0.0-50.0-1.0","""event"",""trial"",""time""
""fullscreenenter"",""0"",""2933""
","
","
","""event"",""trial"",""time""
""fullscreenenter"",""0"",""2933""
","
","657.5","<div class='center'><p>That's correct!</p><p><b>[Press the space bar to continue]</b></p></div>","32","","","","","","","","","","","","","","","","","","","","","","",""
"","audio-keyboard-response","82","426997","0.0-50.0-2.0","""event"",""trial"",""time""
""fullscreenenter"",""0"",""2933""
","
","
","""event"",""trial"",""time""
""fullscreenenter"",""0"",""2933""
","
","2016.4000000059605","run_exp/static/audio/clip_24_q4.m4a","49","","","","","","","","","","","","","","","","","","","","","","",""
"","correct","83","429406","0.0-51.0-0.0","""event"",""trial"",""time""
""fullscreenenter"",""0"",""2933""
","
","
","""event"",""trial"",""time""
""fullscreenenter"",""0"",""2933""
","
","null","run_exp/static/audio/clip_18_correct.m4a","null","","","","","<div class='center'><p>That's correct!</p></div>","","","","","","","","","","","","","","","","","",""
"","html-keyboard-response","84","429739","0.0-51.0-1.0","""event"",""trial"",""time""
""fullscreenenter"",""0"",""2933""
","
","
","""event"",""trial"",""time""
""fullscreenenter"",""0"",""2933""
","
","332.09999999403954","<div class='center'><p>That's correct!</p><p><b>[Press the space bar to continue]</b></p></div>","32","","","","","","","","","","","","","","","","","","","","","","",""
"","q_all_err","85","436000","0.0-52.0-0.0","""event"",""trial"",""time""
""fullscreenenter"",""0"",""2933""
","
","
","""event"",""trial"",""time""
""fullscreenenter"",""0"",""2933""
","
","null","run_exp/static/audio/clip_26_quiz_redo.m4a","null","","","","","<div class='center'><p>Oops, you missed some questions. Now that you’ve heard the correct answers. Try the quiz again! </p></div>","","","","","","","","","","","","","","","","","",""
"","html-keyboard-response","86","436346","0.0-52.0-1.0","""event"",""trial"",""time""
""fullscreenenter"",""0"",""2933""
","
","
","""event"",""trial"",""time""
""fullscreenenter"",""0"",""2933""
","
","344.19999998807907","<div class='center'><p>Oops, you missed some questions. Now that you’ve heard the correct answers. Try the quiz again! </p><p><b>[Press the space bar to continue]</b></p></div>","32","","","","","","","","","","","","","","","","","","","","","","",""
"","audio-keyboard-response","87","437359","0.0-52.0-2.0","""event"",""trial"",""time""
""fullscreenenter"",""0"",""2933""
","
","
","""event"",""trial"",""time""
""fullscreenenter"",""0"",""2933""
","
","1011.9000000059605","run_exp/static/audio/clip_17_q1.m4a","49","","","","","","","","","","","","","","","","","","","","","","",""
"","correct","88","439762","0.0-53.0-0.0","""event"",""trial"",""time""
""fullscreenenter"",""0"",""2933""
","
","
","""event"",""trial"",""time""
""fullscreenenter"",""0"",""2933""
","
","null","run_exp/static/audio/clip_18_correct.m4a","null","","","","","<div class='center'><p>That's correct!</p></div>","","","","","","","","","","","","","","","","","",""
"","html-keyboard-response","89","440383","0.0-53.0-1.0","""event"",""trial"",""time""
""fullscreenenter"",""0"",""2933""
","
","
","""event"",""trial"",""time""
""fullscreenenter"",""0"",""2933""
","
","620.1999999880791","<div class='center'><p>That's correct!</p><p><b>[Press the space bar to continue]</b></p></div>","32","","","","","","","","","","","","","","","","","","","","","","",""
"","audio-keyboard-response","90","442741","0.0-53.0-2.0","""event"",""trial"",""time""
""fullscreenenter"",""0"",""2933""
","
","
","""event"",""trial"",""time""
""fullscreenenter"",""0"",""2933""
","
","2356.7000000178814","run_exp/static/audio/clip_20_q2.m4a","50","","","","","","","","","","","","","","","","","","","","","","",""
"","correct","91","445150","0.0-54.0-0.0","""event"",""trial"",""time""
""fullscreenenter"",""0"",""2933""
","
","
","""event"",""trial"",""time""
""fullscreenenter"",""0"",""2933""
","
","null","run_exp/static/audio/clip_18_correct.m4a","null","","","","","<div class='center'><p>That's correct!</p></div>","","","","","","","","","","","","","","","","","",""
"","html-keyboard-response","92","445664","0.0-54.0-1.0","""event"",""trial"",""time""
""fullscreenenter"",""0"",""2933""
","
","
","""event"",""trial"",""time""
""fullscreenenter"",""0"",""2933""
","
","513.6999999880791","<div class='center'><p>That's correct!</p><p><b>[Press the space bar to continue]</b></p></div>","32","","","","","","","","","","","","","","","","","","","","","","",""
"","audio-keyboard-response","93","448513","0.0-54.0-2.0","""event"",""trial"",""time""
""fullscreenenter"",""0"",""2933""
","
","
","""event"",""trial"",""time""
""fullscreenenter"",""0"",""2933""
","
","2847.4000000059605","run_exp/static/audio/clip_22_q3.m4a","50","","","","","","","","","","","","","","","","","","","","","","",""
"","correct","94","450932","0.0-55.0-0.0","""event"",""trial"",""time""
""fullscreenenter"",""0"",""2933""
","
","
","""event"",""trial"",""time""
""fullscreenenter"",""0"",""2933""
","
","null","run_exp/static/audio/clip_18_correct.m4a","null","","","","","<div class='center'><p>That's correct!</p></div>","","","","","","","","","","","","","","","","","",""
"","html-keyboard-response","95","451458","0.0-55.0-1.0","""event"",""trial"",""time""
""fullscreenenter"",""0"",""2933""
","
","
","""event"",""trial"",""time""
""fullscreenenter"",""0"",""2933""
","
","525.3000000119209","<div class='center'><p>That's correct!</p><p><b>[Press the space bar to continue]</b></p></div>","32","","","","","","","","","","","","","","","","","","","","","","",""
"","audio-keyboard-response","96","453160","0.0-55.0-2.0","""event"",""trial"",""time""
""fullscreenenter"",""0"",""2933""
","
","
","""event"",""trial"",""time""
""fullscreenenter"",""0"",""2933""
","
","1701.2999999821186","run_exp/static/audio/clip_24_q4.m4a","49","","","","","","","","","","","","","","","","","","","","","","",""
"","correct","97","455622","0.0-56.0-0.0","""event"",""trial"",""time""
""fullscreenenter"",""0"",""2933""
","
","
","""event"",""trial"",""time""
""fullscreenenter"",""0"",""2933""
","
","null","run_exp/static/audio/clip_18_correct.m4a","null","","","","","<div class='center'><p>That's correct!</p></div>","","","","","","","","","","","","","","","","","",""
"","html-keyboard-response","98","456036","0.0-56.0-1.0","""event"",""trial"",""time""
""fullscreenenter"",""0"",""2933""
","
","
","""event"",""trial"",""time""
""fullscreenenter"",""0"",""2933""
","
","412.30000001192093","<div class='center'><p>That's correct!</p><p><b>[Press the space bar to continue]</b></p></div>","32","","","","","","","","","","","","","","","","","","","","","","",""
"","q_all_corr","99","464539","0.0-57.0-0.0","""event"",""trial"",""time""
""fullscreenenter"",""0"",""2933""
","
","
","""event"",""trial"",""time""
""fullscreenenter"",""0"",""2933""
","
","null","run_exp/static/audio/clip_27_quiz_all_correct.m4a","null","","","","","<div class='center'><p>Good job! You’re now ready to move on to the real game! Remember this game will be difficult but don't get discouraged and try your best!</p></div>","","","","","","","","","","","","","","","","","",""
"","html-keyboard-response","100","466062","0.0-57.0-1.0","""event"",""trial"",""time""
""fullscreenenter"",""0"",""2933""
","
","
","""event"",""trial"",""time""
""fullscreenenter"",""0"",""2933""
","
","1521.9000000059605","<div class='center'><p>Good job! You’re now ready to move on to the real game! Remember this game will be difficult but don't get discouraged and try your best!</p><p><b>[Press the space bar to continue]</b></p></div>","32","","","","","","","","","","","","","","","","","","","","","","",""
"","do_welcome","101","470069","0.0-58.0-0.0","""event"",""trial"",""time""
""fullscreenenter"",""0"",""2933""
","
","
","""event"",""trial"",""time""
""fullscreenenter"",""0"",""2933""
","
","null","","","","","","","","null","","","","","","","","","","","","","","","","",""
"","do_trial","102","475461","0.0-59.0-0.0","""event"",""trial"",""time""
""fullscreenenter"",""0"",""2933""
","
","
","""event"",""trial"",""time""
""fullscreenenter"",""0"",""2933""
","
","838.7000000178814","","","","","","","","49","1,0,1","0","mountain","0","probe-145","0.6","0.3","0.1","1","","","","","","","",""
"","html-keyboard-response","103","476464","0.0-59.0-1.0","""event"",""trial"",""time""
""fullscreenenter"",""0"",""2933""
","
","
","""event"",""trial"",""time""
""fullscreenenter"",""0"",""2933""
","
","null","<p></p>","null","","","","","","","","","","","","","","","","","","","","","","",""
"","do_trial","104","481503","0.0-60.0-0.0","""event"",""trial"",""time""
""fullscreenenter"",""0"",""2933""
","
","
","""event"",""trial"",""time""
""fullscreenenter"",""0"",""2933""
","
","486.5","","","","","","","","50","1,0,0","0","mountain","1","probe-93","0.735301692361966","0.2915412027236482","0.10042852039427907","0","","","","","","","",""
"","html-keyboard-response","105","482507","0.0-60.0-1.0","""event"",""trial"",""time""
""fullscreenenter"",""0"",""2933""
","
","
","""event"",""trial"",""time""
""fullscreenenter"",""0"",""2933""
","
","null","<p></p>","null","","","","","","","","","","","","","","","","","","","","","","",""
"","do_trial","106","487563","0.0-61.0-0.0","""event"",""trial"",""time""
""fullscreenenter"",""0"",""2933""
","
","
","""event"",""trial"",""time""
""fullscreenenter"",""0"",""2933""
","
","502.5","","","","","","","","51","0,1,0","0","mountain","2","probe-222","0.7516316666756748","0.3666754255417661","0.08780738390366377","0","","","","","","","",""
"","html-keyboard-response","107","488568","0.0-61.0-1.0","""event"",""trial"",""time""
""fullscreenenter"",""0"",""2933""
","
","
","""event"",""trial"",""time""
""fullscreenenter"",""0"",""2933""
","
","null","<p></p>","null","","","","","","","","","","","","","","","","","","","","","","",""
"","do_trial","108","493429","0.0-62.0-0.0","""event"",""trial"",""time""
""fullscreenenter"",""0"",""2933""
","
","
","""event"",""trial"",""time""
""fullscreenenter"",""0"",""2933""
","
","311","","","","","","","","49","1,0,0","0","mountain","3","probe-100","0.7795055807058238","0.34408689509731594","0.08621686082533217","1","","","","","","","",""
"","html-keyboard-response","109","494434","0.0-62.0-1.0","""event"",""trial"",""time""
""fullscreenenter"",""0"",""2933""
","
","
","""event"",""trial"",""time""
""fullscreenenter"",""0"",""2933""
","
","null","<p></p>","null","","","","","","","","","","","","","","","","","","","","","","",""
"","do_trial","110","499236","0.0-63.0-0.0","""event"",""trial"",""time""
""fullscreenenter"",""0"",""2933""
","
","
","""event"",""trial"",""time""
""fullscreenenter"",""0"",""2933""
","
","249","","","","","","","","49","1,0,1","0","mountain","4","probe-161","0.6492917740524115","0.48269974048875613","0.1733316150870533","1","","","","","","","",""
"","html-keyboard-response","111","500242","0.0-63.0-1.0","""event"",""trial"",""time""
""fullscreenenter"",""0"",""2933""
","
","
","""event"",""trial"",""time""
""fullscreenenter"",""0"",""2933""
","
","null","<p></p>","null","","","","","","","","","","","","","","","","","","","","","","",""
"","do_trial","112","505274","0.0-64.0-0.0","""event"",""trial"",""time""
""fullscreenenter"",""0"",""2933""
","
","
","""event"",""trial"",""time""
""fullscreenenter"",""0"",""2933""
","
","478.5","","","","","","","","49","0,0,0","0","mountain","5","probe-176","0.6517518573591903","0.39051163344058964","0.1206989263909729","0","","","","","","","",""
"","html-keyboard-response","113","506279","0.0-64.0-1.0","""event"",""trial"",""time""
""fullscreenenter"",""0"",""2933""
","
","
","""event"",""trial"",""time""
""fullscreenenter"",""0"",""2933""
","
","null","<p></p>","null","","","","","","","","","","","","","","","","","","","","","","",""
"","do_trial","114","511306","0.0-65.0-0.0","""event"",""trial"",""time""
""fullscreenenter"",""0"",""2933""
","
","
","""event"",""trial"",""time""
""fullscreenenter"",""0"",""2933""
","
","476.90000000596046","","","","","","","","50","1,1,0","0","mountain","6","probe-15","0.5567766313121336","0.34434957000563104","0.10847455379307022","1","","","","","","","",""
"","html-keyboard-response","115","512311","0.0-65.0-1.0","""event"",""trial"",""time""
""fullscreenenter"",""0"",""2933""
","
","
","""event"",""trial"",""time""
""fullscreenenter"",""0"",""2933""
","
","null","<p></p>","null","","","","","","","","","","","","","","","","","","","","","","",""
"","do_trial","116","517175","0.0-66.0-0.0","""event"",""trial"",""time""
""fullscreenenter"",""0"",""2933""
","
","
","""event"",""trial"",""time""
""fullscreenenter"",""0"",""2933""
","
","312.5","","","","","","","","50","0,0,0","0","mountain","7","probe-139","0.37631351121968915","0.29525923243365804","0.13565123250111383","0","","","","","","","",""
"","html-keyboard-response","117","518179","0.0-66.0-1.0","""event"",""trial"",""time""
""fullscreenenter"",""0"",""2933""
","
","
","""event"",""trial"",""time""
""fullscreenenter"",""0"",""2933""
","
","null","<p></p>","null","","","","","","","","","","","","","","","","","","","","","","",""
"","do_trial","118","523275","0.0-67.0-0.0","""event"",""trial"",""time""
""fullscreenenter"",""0"",""2933""
","
","
","""event"",""trial"",""time""
""fullscreenenter"",""0"",""2933""
","
","546","","","","","","","","51","0,0,0","0","mountain","8","probe-178","0.4953310527537469","0.35800512092684494","0.11506535797243798","0","","","","","","","",""
"","html-keyboard-response","119","524279","0.0-67.0-1.0","""event"",""trial"",""time""
""fullscreenenter"",""0"",""2933""
","
","
","""event"",""trial"",""time""
""fullscreenenter"",""0"",""2933""
","
","null","<p></p>","null","","","","","","","","","","","","","","","","","","","","","","",""
"","do_trial","120","529267","0.0-68.0-0.0","""event"",""trial"",""time""
""fullscreenenter"",""0"",""2933""
","
","
","""event"",""trial"",""time""
""fullscreenenter"",""0"",""2933""
","
","435.2000000178814","","","","","","","","50","0,0,0","0","mountain","9","probe-37","0.4938662091699438","0.3754176263681888","0.2232637831159366","0","","","","","","","",""
"","html-keyboard-response","121","530272","0.0-68.0-1.0","""event"",""trial"",""time""
""fullscreenenter"",""0"",""2933""
","
","
","""event"",""trial"",""time""
""fullscreenenter"",""0"",""2933""
","
","null","<p></p>","null","","","","","","","","","","","","","","","","","","","","","","",""
"","do_trial","122","535129","0.0-69.0-0.0","""event"",""trial"",""time""
""fullscreenenter"",""0"",""2933""
","
","
","""event"",""trial"",""time""
""fullscreenenter"",""0"",""2933""
","
","305","","","","","","","","49","1,0,0","0","mountain","10","probe-47","0.5282092975533044","0.34250155848480723","0.143729035161387","1","","","","","","","",""
"","html-keyboard-response","123","536134","0.0-69.0-1.0","""event"",""trial"",""time""
""fullscreenenter"",""0"",""2933""
","
","
","""event"",""trial"",""time""
""fullscreenenter"",""0"",""2933""
","
","null","<p></p>","null","","","","","","","","","","","","","","","","","","","","","","",""
"","do_trial","124","541026","0.0-70.0-0.0","""event"",""trial"",""time""
""fullscreenenter"",""0"",""2933""
","
","
","""event"",""trial"",""time""
""fullscreenenter"",""0"",""2933""
","
","340.89999997615814","","","","","","","","49","1,1,0","0","mountain","11","probe-196","0.48949322858671795","0.3282581459829346","0.05764074606900147","1","","","","","","","",""
"","html-keyboard-response","125","542031","0.0-70.0-1.0","""event"",""trial"",""time""
""fullscreenenter"",""0"",""2933""
","
","
","""event"",""trial"",""time""
""fullscreenenter"",""0"",""2933""
","
","null","<p></p>","null","","","","","","","","","","","","","","","","","","","","","","",""
"","do_trial","126","547147","0.0-71.0-0.0","""event"",""trial"",""time""
""fullscreenenter"",""0"",""2933""
","
","
","""event"",""trial"",""time""
""fullscreenenter"",""0"",""2933""
","
","568.1999999880791","","","","","","","","49","1,0,0","0","mountain","12","probe-77","0.3567284042840976","0.3272312961397846","0.13103581470980438","1","","","","","","","",""
"","html-keyboard-response","127","548150","0.0-71.0-1.0","""event"",""trial"",""time""
""fullscreenenter"",""0"",""2933""
","
","
","""event"",""trial"",""time""
""fullscreenenter"",""0"",""2933""
","
","null","<p></p>","null","","","","","","","","","","","","","","","","","","","","","","",""
"","do_trial","128","553318","0.0-72.0-0.0","""event"",""trial"",""time""
""fullscreenenter"",""0"",""2933""
","
","
","""event"",""trial"",""time""
""fullscreenenter"",""0"",""2933""
","
","619.4000000059605","","","","","","","","49","0,1,0","0","mountain","13","probe-170","0.35842781374570704","0.3755994371009643","0.2302072689684241","0","","","","","","","",""
"","html-keyboard-response","129","554323","0.0-72.0-1.0","""event"",""trial"",""time""
""fullscreenenter"",""0"",""2933""
","
","
","""event"",""trial"",""time""
""fullscreenenter"",""0"",""2933""
","
","null","<p></p>","null","","","","","","","","","","","","","","","","","","","","","","",""
"","do_trial","130","559464","0.0-73.0-0.0","""event"",""trial"",""time""
""fullscreenenter"",""0"",""2933""
","
","
","""event"",""trial"",""time""
""fullscreenenter"",""0"",""2933""
","
","581.5999999940395","","","","","","","","49","0,1,0","0","mountain","14","probe-119","0.5529512495212837","0.3391441485368484","0.1882692375489183","0","","","","","","","",""
"","html-keyboard-response","131","560466","0.0-73.0-1.0","""event"",""trial"",""time""
""fullscreenenter"",""0"",""2933""
","
","
","""event"",""trial"",""time""
""fullscreenenter"",""0"",""2933""
","
","null","<p></p>","null","","","","","","","","","","","","","","","","","","","","","","",""
"","do_trial","132","565315","0.0-74.0-0.0","""event"",""trial"",""time""
""fullscreenenter"",""0"",""2933""
","
","
","""event"",""trial"",""time""
""fullscreenenter"",""0"",""2933""
","
","297.80000001192093","","","","","","","","50","0,0,0","0","mountain","15","probe-158","0.5572263904916608","0.31613592081516795","0.11658193386278665","0","","","","","","","",""
"","html-keyboard-response","133","566319","0.0-74.0-1.0","""event"",""trial"",""time""
""fullscreenenter"",""0"",""2933""
","
","
","""event"",""trial"",""time""
""fullscreenenter"",""0"",""2933""
","
","null","<p></p>","null","","","","","","","","","","","","","","","","","","","","","","",""
"","do_trial","134","571230","0.0-75.0-0.0","""event"",""trial"",""time""
""fullscreenenter"",""0"",""2933""
","
","
","""event"",""trial"",""time""
""fullscreenenter"",""0"",""2933""
","
","359.19999998807907","","","","","","","","51","0,0,1","0","mountain","16","probe-29","0.5295183880838598","0.08792319684095923","0.154700835953719","1","","","","","","","",""
"","html-keyboard-response","135","572231","0.0-75.0-1.0","""event"",""trial"",""time""
""fullscreenenter"",""0"",""2933""
","
","
","""event"",""trial"",""time""
""fullscreenenter"",""0"",""2933""
","
","null","<p></p>","null","","","","","","","","","","","","","","","","","","","","","","",""
"","do_trial","136","577701","0.0-76.0-0.0","""event"",""trial"",""time""
""fullscreenenter"",""0"",""2933""
","
","
","""event"",""trial"",""time""
""fullscreenenter"",""0"",""2933""
","
","921.0999999940395","","","","","","","","51","0,0,1","0","mountain","17","probe-202","0.4865137088919924","0.17856865439066272","0.32316202225347096","1","","","","","","","",""
"","html-keyboard-response","137","578705","0.0-76.0-1.0","""event"",""trial"",""time""
""fullscreenenter"",""0"",""2933""
","
","
","""event"",""trial"",""time""
""fullscreenenter"",""0"",""2933""
","
","null","<p></p>","null","","","","","","","","","","","","","","","","","","","","","","",""
"","do_trial","138","583766","0.0-77.0-0.0","""event"",""trial"",""time""
""fullscreenenter"",""0"",""2933""
","
","
","""event"",""trial"",""time""
""fullscreenenter"",""0"",""2933""
","
","510.7999999821186","","","","","","","","51","0,0,0","0","mountain","18","probe-175","0.6245511150215384","0.21820773925488862","0.35980976710496093","0","","","","","","","",""
"","html-keyboard-response","139","584769","0.0-77.0-1.0","""event"",""trial"",""time""
""fullscreenenter"",""0"",""2933""
","
","
","""event"",""trial"",""time""
""fullscreenenter"",""0"",""2933""
","
","null","<p></p>","null","","","","","","","","","","","","","","","","","","","","","","",""
"","do_trial","140","589821","0.0-78.0-0.0","""event"",""trial"",""time""
""fullscreenenter"",""0"",""2933""
","
","
","""event"",""trial"",""time""
""fullscreenenter"",""0"",""2933""
","
","503.69999998807907","","","","","","","","50","1,0,1","0","mountain","19","probe-223","0.6438665291024382","0.18859944269557782","0.36629183650937724","0","","","","","","","",""
"","html-keyboard-response","141","590824","0.0-78.0-1.0","""event"",""trial"",""time""
""fullscreenenter"",""0"",""2933""
","
","
","""event"",""trial"",""time""
""fullscreenenter"",""0"",""2933""
","
","null","<p></p>","null","","","","","","","","","","","","","","","","","","","","","","",""
"","do_trial","142","595709","0.0-79.0-0.0","""event"",""trial"",""time""
""fullscreenenter"",""0"",""2933""
","
","
","""event"",""trial"",""time""
""fullscreenenter"",""0"",""2933""
","
","334.40000000596046","","","","","","","","51","1,0,0","0","mountain","20","probe-71","0.4921360419619114","0.21611332180975817","0.2520439808967043","0","","","","","","","",""
"","html-keyboard-response","143","596714","0.0-79.0-1.0","""event"",""trial"",""time""
""fullscreenenter"",""0"",""2933""
","
","
","""event"",""trial"",""time""
""fullscreenenter"",""0"",""2933""
","
","null","<p></p>","null","","","","","","","","","","","","","","","","","","","","","","",""
"","do_trial","144","601693","0.0-80.0-0.0","""event"",""trial"",""time""
""fullscreenenter"",""0"",""2933""
","
","
","""event"",""trial"",""time""
""fullscreenenter"",""0"",""2933""
","
","428.30000001192093","","","","","","","","49","1,0,1","0","mountain","21","probe-167","0.6440127758022419","0.32437483650266485","0.23980768266919697","1","","","","","","","",""
"","html-keyboard-response","145","602698","0.0-80.0-1.0","""event"",""trial"",""time""
""fullscreenenter"",""0"",""2933""
","
","
","""event"",""trial"",""time""
""fullscreenenter"",""0"",""2933""
","
","null","<p></p>","null","","","","","","","","","","","","","","","","","","","","","","",""
"","do_trial","146","607617","0.0-81.0-0.0","""event"",""trial"",""time""
""fullscreenenter"",""0"",""2933""
","
","
","""event"",""trial"",""time""
""fullscreenenter"",""0"",""2933""
","
","370.5","","","","","","","","49","0,0,1","0","mountain","22","probe-208","0.5697457617448586","0.14395444212875824","0.27168591192938096","0","","","","","","","",""
"","html-keyboard-response","147","608619","0.0-81.0-1.0","""event"",""trial"",""time""
""fullscreenenter"",""0"",""2933""
","
","
","""event"",""trial"",""time""
""fullscreenenter"",""0"",""2933""
","
","null","<p></p>","null","","","","","","","","","","","","","","","","","","","","","","",""
"","do_trial","148","613637","0.0-82.0-0.0","""event"",""trial"",""time""
""fullscreenenter"",""0"",""2933""
","
","
","""event"",""trial"",""time""
""fullscreenenter"",""0"",""2933""
","
","465.7000000178814","","","","","","","","51","1,0,1","0","mountain","23","probe-07","0.618704522127675","0.15827119775803475","0.18144667108740745","1","","","","","","","",""
"","html-keyboard-response","149","614639","0.0-82.0-1.0","""event"",""trial"",""time""
""fullscreenenter"",""0"",""2933""
","
","
","""event"",""trial"",""time""
""fullscreenenter"",""0"",""2933""
","
","null","<p></p>","null","","","","","","","","","","","","","","","","","","","","","","",""
"","do_trial","150","619480","0.0-83.0-0.0","""event"",""trial"",""time""
""fullscreenenter"",""0"",""2933""
","
","
","""event"",""trial"",""time""
""fullscreenenter"",""0"",""2933""
","
","289.2000000178814","","","","","","","","51","0,0,0","0","mountain","24","probe-75","0.579419995714536","0.1481501612268922","0.05955814986078009","0","","","","","","","",""
"","html-keyboard-response","151","620485","0.0-83.0-1.0","""event"",""trial"",""time""
""fullscreenenter"",""0"",""2933""
","
","
","""event"",""trial"",""time""
""fullscreenenter"",""0"",""2933""
","
","null","<p></p>","null","","","","","","","","","","","","","","","","","","","","","","",""
"","do_trial","152","625738","0.0-84.0-0.0","""event"",""trial"",""time""
""fullscreenenter"",""0"",""2933""
","
","
","""event"",""trial"",""time""
""fullscreenenter"",""0"",""2933""
","
","700.0999999940395","","","","","","","","50","1,1,1","0","mountain","25","probe-24","0.7256806029131139","0.13478314757878285","0.05052143338852072","1","","","","","","","",""
"","html-keyboard-response","153","626742","0.0-84.0-1.0","""event"",""trial"",""time""
""fullscreenenter"",""0"",""2933""
","
","
","""event"",""trial"",""time""
""fullscreenenter"",""0"",""2933""
","
","null","<p></p>","null","","","","","","","","","","","","","","","","","","","","","","",""
"","do_trial","154","632110","0.0-85.0-0.0","""event"",""trial"",""time""
""fullscreenenter"",""0"",""2933""
","
","
","""event"",""trial"",""time""
""fullscreenenter"",""0"",""2933""
","
","806","","","","","","","","51","0,1,0","0","mountain","26","probe-13","0.6190682998472478","0.1457050685822687","0.1367799112798409","0","","","","","","","",""
"","html-keyboard-response","155","633116","0.0-85.0-1.0","""event"",""trial"",""time""
""fullscreenenter"",""0"",""2933""
","
","
","""event"",""trial"",""time""
""fullscreenenter"",""0"",""2933""
","
","null","<p></p>","null","","","","","","","","","","","","","","","","","","","","","","",""
"","do_trial","156","638504","0.0-86.0-0.0","""event"",""trial"",""time""
""fullscreenenter"",""0"",""2933""
","
","
","""event"",""trial"",""time""
""fullscreenenter"",""0"",""2933""
","
","834.0999999940395","","","","","","","","49","0,0,0","0","mountain","27","probe-55","0.6432522504074943","0.13333095016735183","0.05604137138315782","0","","","","","","","",""
"","html-keyboard-response","157","639507","0.0-86.0-1.0","""event"",""trial"",""time""
""fullscreenenter"",""0"",""2933""
","
","
","""event"",""trial"",""time""
""fullscreenenter"",""0"",""2933""
","
","null","<p></p>","null","","","","","","","","","","","","","","","","","","","","","","",""
"","do_trial","158","644369","0.0-87.0-0.0","""event"",""trial"",""time""
""fullscreenenter"",""0"",""2933""
","
","
","""event"",""trial"",""time""
""fullscreenenter"",""0"",""2933""
","
","308.69999998807907","","","","","","","","50","1,0,0","0","mountain","28","probe-122","0.8005613447730887","0.06247215541723394","0.14508471292809377","0","","","","","","","",""
"","html-keyboard-response","159","645372","0.0-87.0-1.0","""event"",""trial"",""time""
""fullscreenenter"",""0"",""2933""
","
","
","""event"",""trial"",""time""
""fullscreenenter"",""0"",""2933""
","
","null","<p></p>","null","","","","","","","","","","","","","","","","","","","","","","",""
"","do_trial","160","650221","0.0-88.0-0.0","""event"",""trial"",""time""
""fullscreenenter"",""0"",""2933""
","
","
","""event"",""trial"",""time""
""fullscreenenter"",""0"",""2933""
","
","301.09999999403954","","","","","","","","51","1,0,1","0","mountain","29","probe-61","0.808666024971808","0.09775274228354615","0.1541168131538502","1","","","","","","","",""
"","html-keyboard-response","161","651226","0.0-88.0-1.0","""event"",""trial"",""time""
""fullscreenenter"",""0"",""2933""
","
","
","""event"",""trial"",""time""
""fullscreenenter"",""0"",""2933""
","
","null","<p></p>","null","","","","","","","","","","","","","","","","","","","","","","",""
"","do_bye","162","652732","0.0-89.0-0.0","""event"",""trial"",""time""
""fullscreenenter"",""0"",""2933""
","
","
","""event"",""trial"",""time""
""fullscreenenter"",""0"",""2933""
","
","null","","","","","","","","null","","","","","","","","","","","","","","","","",""
"","break","163","659397","0.0-89.0-1.0","""event"",""trial"",""time""
""fullscreenenter"",""0"",""2933""
","
","
","""event"",""trial"",""time""
""fullscreenenter"",""0"",""2933""
","
","6663","<div class='center'><p>Time to take a quick break! You have 2 minutes to rest, but you can move on sooner if you'd like.</p><p> Press the <b>space bar</b> to continue.</p></div>","32","","","","","","","","","","","","","","","","","","","","","","",""
"","do_travel","164","668405","0.0-90.0-0.0","""event"",""trial"",""time""
""fullscreenenter"",""0"",""2933""
","
","
","""event"",""trial"",""time""
""fullscreenenter"",""0"",""2933""
","
","null","","","","","","","","null","","","","","","","","","","","","","","","","",""
"","do_welcome","165","672413","0.0-90.0-1.0","""event"",""trial"",""time""
""fullscreenenter"",""0"",""2933""
","
","
","""event"",""trial"",""time""
""fullscreenenter"",""0"",""2933""
","
","null","","","","","","","","null","","","","","","","","","","","","","","","","",""
"","do_trial","166","678061","0.0-91.0-0.0","""event"",""trial"",""time""
""fullscreenenter"",""0"",""2933""
","
","
","""event"",""trial"",""time""
""fullscreenenter"",""0"",""2933""
","
","1091","","","","","","","","49","1,0,0","1","highway","30","probe-121","1","0.160998405597756","0.05390368085013405","1","","","","","","","",""
"","html-keyboard-response","167","679066","0.0-91.0-1.0","""event"",""trial"",""time""
""fullscreenenter"",""0"",""2933""
","
","
","""event"",""trial"",""time""
""fullscreenenter"",""0"",""2933""
","
","null","<p></p>","null","","","","","","","","","","","","","","","","","","","","","","",""
"","do_trial","168","683903","0.0-92.0-0.0","""event"",""trial"",""time""
""fullscreenenter"",""0"",""2933""
","
","
","""event"",""trial"",""time""
""fullscreenenter"",""0"",""2933""
","
","285.80000001192093","","","","","","","","50","1,0,0","1","highway","31","probe-12","1","0.07974196683940019","0.16940449101394126","0","","","","","","","",""
"","html-keyboard-response","169","684909","0.0-92.0-1.0","""event"",""trial"",""time""
""fullscreenenter"",""0"",""2933""
","
","
","""event"",""trial"",""time""
""fullscreenenter"",""0"",""2933""
","
","null","<p></p>","null","","","","","","","","","","","","","","","","","","","","","","",""
"","do_trial","170","689757","0.0-93.0-0.0","""event"",""trial"",""time""
""fullscreenenter"",""0"",""2933""
","
","
","""event"",""trial"",""time""
""fullscreenenter"",""0"",""2933""
","
","297.5","","","","","","","","51","1,1,0","1","highway","32","probe-40","1","0.25556414758405893","0.2184950376655028","0","","","","","","","",""
"","html-keyboard-response","171","690763","0.0-93.0-1.0","""event"",""trial"",""time""
""fullscreenenter"",""0"",""2933""
","
","
","""event"",""trial"",""time""
""fullscreenenter"",""0"",""2933""
","
","null","<p></p>","null","","","","","","","","","","","","","","","","","","","","","","",""
"","do_trial","172","695673","0.0-94.0-0.0","""event"",""trial"",""time""
""fullscreenenter"",""0"",""2933""
","
","
","""event"",""trial"",""time""
""fullscreenenter"",""0"",""2933""
","
","358.30000001192093","","","","","","","","49","1,0,0","1","highway","33","probe-67","0.7470573488244413","0.2434696688425752","0.13244962453822612","1","","","","","","","",""
"","html-keyboard-response","173","696678","0.0-94.0-1.0","""event"",""trial"",""time""
""fullscreenenter"",""0"",""2933""
","
","
","""event"",""trial"",""time""
""fullscreenenter"",""0"",""2933""
","
","null","<p></p>","null","","","","","","","","","","","","","","","","","","","","","","",""
"","do_trial","174","701547","0.0-95.0-0.0","""event"",""trial"",""time""
""fullscreenenter"",""0"",""2933""
","
","
","""event"",""trial"",""time""
""fullscreenenter"",""0"",""2933""
","
","321.09999999403954","","","","","","","","49","0,1,0","1","highway","34","probe-27","0.7138956819421007","0.22140804808545106","0.12609213094500157","0","","","","","","","",""
"","html-keyboard-response","175","702553","0.0-95.0-1.0","""event"",""trial"",""time""
""fullscreenenter"",""0"",""2933""
","
","
","""event"",""trial"",""time""
""fullscreenenter"",""0"",""2933""
","
","null","<p></p>","null","","","","","","","","","","","","","","","","","","","","","","",""
"","do_trial","176","707871","0.0-96.0-0.0","""event"",""trial"",""time""
""fullscreenenter"",""0"",""2933""
","
","
","""event"",""trial"",""time""
""fullscreenenter"",""0"",""2933""
","
","768","","","","","","","","49","0,0,0","1","highway","35","probe-213","0.6668909478718485","0.1138066045702034","0.08101726310233807","0","","","","","","","",""
"","html-keyboard-response","177","708875","0.0-96.0-1.0","""event"",""trial"",""time""
""fullscreenenter"",""0"",""2933""
","
","
","""event"",""trial"",""time""
""fullscreenenter"",""0"",""2933""
","
","null","<p></p>","null","","","","","","","","","","","","","","","","","","","","","","",""
"","do_trial","178","713744","0.0-97.0-0.0","""event"",""trial"",""time""
""fullscreenenter"",""0"",""2933""
","
","
","""event"",""trial"",""time""
""fullscreenenter"",""0"",""2933""
","
","316.69999998807907","","","","","","","","50","1,1,0","1","highway","36","probe-198","0.6677076826529483","0.28754585695860274","0.05665101058767816","1","","","","","","","",""
"","html-keyboard-response","179","714747","0.0-97.0-1.0","""event"",""trial"",""time""
""fullscreenenter"",""0"",""2933""
","
","
","""event"",""trial"",""time""
""fullscreenenter"",""0"",""2933""
","
","null","<p></p>","null","","","","","","","","","","","","","","","","","","","","","","",""
"","do_trial","180","720339","0.0-98.0-0.0","""event"",""trial"",""time""
""fullscreenenter"",""0"",""2933""
","
","
","""event"",""trial"",""time""
""fullscreenenter"",""0"",""2933""
","
","1044.5","","","","","","","","50","1,0,0","1","highway","37","probe-211","0.5324573179213271","0.2901432035691788","0.14464172199683756","0","","","","","","","",""
"","html-keyboard-response","181","721343","0.0-98.0-1.0","""event"",""trial"",""time""
""fullscreenenter"",""0"",""2933""
","
","
","""event"",""trial"",""time""
""fullscreenenter"",""0"",""2933""
","
","null","<p></p>","null","","","","","","","","","","","","","","","","","","","","","","",""
"","do_trial","182","726764","0.0-99.0-0.0","""event"",""trial"",""time""
""fullscreenenter"",""0"",""2933""
","
","
","""event"",""trial"",""time""
""fullscreenenter"",""0"",""2933""
","
","868.7999999821186","","","","","","","","51","1,0,0","1","highway","38","probe-18","0.4616172577364065","0.23833176676355514","0.21290140225137286","0","","","","","","","",""
"","html-keyboard-response","183","727769","0.0-99.0-1.0","""event"",""trial"",""time""
""fullscreenenter"",""0"",""2933""
","
","
","""event"",""trial"",""time""
""fullscreenenter"",""0"",""2933""
","
","null","<p></p>","null","","","","","","","","","","","","","","","","","","","","","","",""
"","do_trial","184","732609","0.0-100.0-0.0","""event"",""trial"",""time""
""fullscreenenter"",""0"",""2933""
","
","
","""event"",""trial"",""time""
""fullscreenenter"",""0"",""2933""
","
","288.2999999821186","","","","","","","","50","1,0,0","1","highway","39","probe-96","0.47718224121440267","0.25002170628067133","0.2540062761349192","0","","","","","","","",""
"","html-keyboard-response","185","733613","0.0-100.0-1.0","""event"",""trial"",""time""
""fullscreenenter"",""0"",""2933""
","
","
","""event"",""trial"",""time""
""fullscreenenter"",""0"",""2933""
","
","null","<p></p>","null","","","","","","","","","","","","","","","","","","","","","","",""
"","do_trial","186","738491","0.0-101.0-0.0","""event"",""trial"",""time""
""fullscreenenter"",""0"",""2933""
","
","
","""event"",""trial"",""time""
""fullscreenenter"",""0"",""2933""
","
","325.2000000178814","","","","","","","","49","0,0,0","1","highway","40","probe-124","0.4591376525722736","0.3999705050754749","0.13903796683696437","0","","","","","","","",""
"","html-keyboard-response","187","739496","0.0-101.0-1.0","""event"",""trial"",""time""
""fullscreenenter"",""0"",""2933""
","
","
","""event"",""trial"",""time""
""fullscreenenter"",""0"",""2933""
","
","null","<p></p>","null","","","","","","","","","","","","","","","","","","","","","","",""
"","do_trial","188","744414","0.0-102.0-0.0","""event"",""trial"",""time""
""fullscreenenter"",""0"",""2933""
","
","
","""event"",""trial"",""time""
""fullscreenenter"",""0"",""2933""
","
","368.40000000596046","","","","","","","","50","0,0,0","1","highway","41","probe-105","0.22087483408654396","0.3456795995884602","0.12368351846773827","0","","","","","","","",""
"","html-keyboard-response","189","745416","0.0-102.0-1.0","""event"",""trial"",""time""
""fullscreenenter"",""0"",""2933""
","
","
","""event"",""trial"",""time""
""fullscreenenter"",""0"",""2933""
","
","null","<p></p>","null","","","","","","","","","","","","","","","","","","","","","","",""
"","do_trial","190","750444","0.0-103.0-0.0","""event"",""trial"",""time""
""fullscreenenter"",""0"",""2933""
","
","
","""event"",""trial"",""time""
""fullscreenenter"",""0"",""2933""
","
","480","","","","","","","","51","1,1,0","1","highway","42","probe-214","0.2886075055988706","0.4925074270717039","0.09339693868496679","0","","","","","","","",""
"","html-keyboard-response","191","751448","0.0-103.0-1.0","""event"",""trial"",""time""
""fullscreenenter"",""0"",""2933""
","
","
","""event"",""trial"",""time""
""fullscreenenter"",""0"",""2933""
","
","null","<p></p>","null","","","","","","","","","","","","","","","","","","","","","","",""
"","do_trial","192","756322","0.0-104.0-0.0","""event"",""trial"",""time""
""fullscreenenter"",""0"",""2933""
","
","
","""event"",""trial"",""time""
""fullscreenenter"",""0"",""2933""
","
","320.69999998807907","","","","","","","","49","0,0,0","1","highway","43","probe-42","0.38566308508478375","0.5973627181575856","0.1943674316596773","0","","","","","","","",""
"","html-keyboard-response","193","757324","0.0-104.0-1.0","""event"",""trial"",""time""
""fullscreenenter"",""0"",""2933""
","
","
","""event"",""trial"",""time""
""fullscreenenter"",""0"",""2933""
","
","null","<p></p>","null","","","","","","","","","","","","","","","","","","","","","","",""
"","do_trial","194","762345","0.0-105.0-0.0","""event"",""trial"",""time""
""fullscreenenter"",""0"",""2933""
","
","
","""event"",""trial"",""time""
""fullscreenenter"",""0"",""2933""
","
","469.59999999403954","","","","","","","","50","0,0,0","1","highway","44","probe-171","0.34358473927309297","0.6335442084743341","0.13472105270309812","0","","","","","","","",""
"","html-keyboard-response","195","763346","0.0-105.0-1.0","""event"",""trial"",""time""
""fullscreenenter"",""0"",""2933""
","
","
","""event"",""trial"",""time""
""fullscreenenter"",""0"",""2933""
","
","null","<p></p>","null","","","","","","","","","","","","","","","","","","","","","","",""
"","do_trial","196","769120","0.0-106.0-0.0","""event"",""trial"",""time""
""fullscreenenter"",""0"",""2933""
","
","
","""event"",""trial"",""time""
""fullscreenenter"",""0"",""2933""
","
","1219.800000011921","","","","","","","","49","0,1,0","1","highway","45","probe-149","0.24020816229641612","0.7153090331131415","0.08428600453346277","0","","","","","","","",""
"","html-keyboard-response","197","770123","0.0-106.0-1.0","""event"",""trial"",""time""
""fullscreenenter"",""0"",""2933""
","
","
","""event"",""trial"",""time""
""fullscreenenter"",""0"",""2933""
","
","null","<p></p>","null","","","","","","","","","","","","","","","","","","","","","","",""
"","do_trial","198","774987","0.0-107.0-0.0","""event"",""trial"",""time""
""fullscreenenter"",""0"",""2933""
","
","
","""event"",""trial"",""time""
""fullscreenenter"",""0"",""2933""
","
","309.69999998807907","","","","","","","","51","0,0,0","1","highway","46","probe-188","0.06393023719730614","0.7101341356513173","0.1255474759697958","0","","","","","","","",""
"","html-keyboard-response","199","775992","0.0-107.0-1.0","""event"",""trial"",""time""
""fullscreenenter"",""0"",""2933""
","
","
","""event"",""trial"",""time""
""fullscreenenter"",""0"",""2933""
","
","null","<p></p>","null","","","","","","","","","","","","","","","","","","","","","","",""
"","do_trial","200","780956","0.0-108.0-0.0","""event"",""trial"",""time""
""fullscreenenter"",""0"",""2933""
","
","
","""event"",""trial"",""time""
""fullscreenenter"",""0"",""2933""
","
","411.69999998807907","","","","","","","","50","1,1,0","1","highway","47","probe-16","0.09728066054969141","0.8100149681565487","0.2254780901230299","1","","","","","","","",""
"","html-keyboard-response","201","781959","0.0-108.0-1.0","""event"",""trial"",""time""
""fullscreenenter"",""0"",""2933""
","
","
","""event"",""trial"",""time""
""fullscreenenter"",""0"",""2933""
","
","null","<p></p>","null","","","","","","","","","","","","","","","","","","","","","","",""
"","do_trial","202","786883","0.0-109.0-0.0","""event"",""trial"",""time""
""fullscreenenter"",""0"",""2933""
","
","
","""event"",""trial"",""time""
""fullscreenenter"",""0"",""2933""
","
","371.7999999821186","","","","","","","","50","0,1,0","1","highway","48","probe-151","0.1291455505750017","0.6638497822196632","0.15249753122996226","1","","","","","","","",""
"","html-keyboard-response","203","787885","0.0-109.0-1.0","""event"",""trial"",""time""
""fullscreenenter"",""0"",""2933""
","
","
","""event"",""trial"",""time""
""fullscreenenter"",""0"",""2933""
","
","null","<p></p>","null","","","","","","","","","","","","","","","","","","","","","","",""
"","do_trial","204","792902","0.0-110.0-0.0","""event"",""trial"",""time""
""fullscreenenter"",""0"",""2933""
","
","
","""event"",""trial"",""time""
""fullscreenenter"",""0"",""2933""
","
","468","","","","","","","","50","0,0,1","1","highway","49","probe-218","0.12496263685952272","0.7982909926666801","0.33348853616182306","0","","","","","","","",""
"","html-keyboard-response","205","793905","0.0-110.0-1.0","""event"",""trial"",""time""
""fullscreenenter"",""0"",""2933""
","
","
","""event"",""trial"",""time""
""fullscreenenter"",""0"",""2933""
","
","null","<p></p>","null","","","","","","","","","","","","","","","","","","","","","","",""
"","do_trial","206","798847","0.0-111.0-0.0","""event"",""trial"",""time""
""fullscreenenter"",""0"",""2933""
","
","
","""event"",""trial"",""time""
""fullscreenenter"",""0"",""2933""
","
","390","","","","","","","","50","0,1,1","1","highway","50","probe-23","0.28386667810309363","0.6017243437913862","0.2236596154216829","1","","","","","","","",""
"","html-keyboard-response","207","799849","0.0-111.0-1.0","""event"",""trial"",""time""
""fullscreenenter"",""0"",""2933""
","
","
","""event"",""trial"",""time""
""fullscreenenter"",""0"",""2933""
","
","null","<p></p>","null","","","","","","","","","","","","","","","","","","","","","","",""
"","do_trial","208","804903","0.0-112.0-0.0","""event"",""trial"",""time""
""fullscreenenter"",""0"",""2933""
","
","
","""event"",""trial"",""time""
""fullscreenenter"",""0"",""2933""
","
","506.60000002384186","","","","","","","","50","0,1,0","1","highway","51","probe-207","0.1376653812551452","0.5344835194130783","0.18026592740846148","1","","","","","","","",""
"","html-keyboard-response","209","805905","0.0-112.0-1.0","""event"",""trial"",""time""
""fullscreenenter"",""0"",""2933""
","
","
","""event"",""trial"",""time""
""fullscreenenter"",""0"",""2933""
","
","null","<p></p>","null","","","","","","","","","","","","","","","","","","","","","","",""
"","do_trial","210","810828","0.0-113.0-0.0","""event"",""trial"",""time""
""fullscreenenter"",""0"",""2933""
","
","
","""event"",""trial"",""time""
""fullscreenenter"",""0"",""2933""
","
","370.7999999821186","","","","","","","","50","0,1,1","1","highway","52","probe-32","0.10344745836491867","0.5236486840996678","0.11787452459667569","1","","","","","","","",""
"","html-keyboard-response","211","811831","0.0-113.0-1.0","""event"",""trial"",""time""
""fullscreenenter"",""0"",""2933""
","
","
","""event"",""trial"",""time""
""fullscreenenter"",""0"",""2933""
","
","null","<p></p>","null","","","","","","","","","","","","","","","","","","","","","","",""
"","do_trial","212","817023","0.0-114.0-0.0","""event"",""trial"",""time""
""fullscreenenter"",""0"",""2933""
","
","
","""event"",""trial"",""time""
""fullscreenenter"",""0"",""2933""
","
","645.4000000059605","","","","","","","","50","1,1,0","1","highway","53","probe-52","0.19051879138749483","0.630570978146096","0.2872536102522022","1","","","","","","","",""
"","html-keyboard-response","213","818026","0.0-114.0-1.0","""event"",""trial"",""time""
""fullscreenenter"",""0"",""2933""
","
","
","""event"",""trial"",""time""
""fullscreenenter"",""0"",""2933""
","
","null","<p></p>","null","","","","","","","","","","","","","","","","","","","","","","",""
"","do_trial","214","823052","0.0-115.0-0.0","""event"",""trial"",""time""
""fullscreenenter"",""0"",""2933""
","
","
","""event"",""trial"",""time""
""fullscreenenter"",""0"",""2933""
","
","475.5","","","","","","","","50","0,1,0","1","highway","54","probe-160","0.2689784540449102","0.6101951393128201","0.07815029430664612","1","","","","","","","",""
"","html-keyboard-response","215","824054","0.0-115.0-1.0","""event"",""trial"",""time""
""fullscreenenter"",""0"",""2933""
","
","
","""event"",""trial"",""time""
""fullscreenenter"",""0"",""2933""
","
","null","<p></p>","null","","","","","","","","","","","","","","","","","","","","","","",""
"","do_trial","216","829158","0.0-116.0-0.0","""event"",""trial"",""time""
""fullscreenenter"",""0"",""2933""
","
","
","""event"",""trial"",""time""
""fullscreenenter"",""0"",""2933""
","
","551.1999999880791","","","","","","","","50","1,0,0","1","highway","55","probe-89","0.3618452250464148","0.5830208892627597","0.19477079316208046","0","","","","","","","",""
"","html-keyboard-response","217","830162","0.0-116.0-1.0","""event"",""trial"",""time""
""fullscreenenter"",""0"",""2933""
","
","
","""event"",""trial"",""time""
""fullscreenenter"",""0"",""2933""
","
","null","<p></p>","null","","","","","","","","","","","","","","","","","","","","","","",""
"","do_trial","218","834975","0.0-117.0-0.0","""event"",""trial"",""time""
""fullscreenenter"",""0"",""2933""
","
","
","""event"",""trial"",""time""
""fullscreenenter"",""0"",""2933""
","
","262.19999998807907","","","","","","","","50","0,1,0","1","highway","56","probe-142","0.32456753389351484","0.5329697274463409","0.06204684222869581","1","","","","","","","",""
"","html-keyboard-response","219","835981","0.0-117.0-1.0","""event"",""trial"",""time""
""fullscreenenter"",""0"",""2933""
","
","
","""event"",""trial"",""time""
""fullscreenenter"",""0"",""2933""
","
","null","<p></p>","null","","","","","","","","","","","","","","","","","","","","","","",""
"","do_trial","220","841490","0.0-118.0-0.0","""event"",""trial"",""time""
""fullscreenenter"",""0"",""2933""
","
","
","""event"",""trial"",""time""
""fullscreenenter"",""0"",""2933""
","
","935.4000000059605","","","","","","","","50","0,0,0","1","highway","57","probe-112","0.3523961709126744","0.6949726182392142","0.1890372244630997","0","","","","","","","",""
"","html-keyboard-response","221","842494","0.0-118.0-1.0","""event"",""trial"",""time""
""fullscreenenter"",""0"",""2933""
","
","
","""event"",""trial"",""time""
""fullscreenenter"",""0"",""2933""
","
","null","<p></p>","null","","","","","","","","","","","","","","","","","","","","","","",""
"","do_trial","222","847304","0.0-119.0-0.0","""event"",""trial"",""time""
""fullscreenenter"",""0"",""2933""
","
","
","""event"",""trial"",""time""
""fullscreenenter"",""0"",""2933""
","
","257.7000000178814","","","","","","","","50","1,0,0","1","highway","58","probe-144","0.2657727146227235","0.6884361915556444","0.1070278820924997","0","","","","","","","",""
"","html-keyboard-response","223","848307","0.0-119.0-1.0","""event"",""trial"",""time""
""fullscreenenter"",""0"",""2933""
","
","
","""event"",""trial"",""time""
""fullscreenenter"",""0"",""2933""
","
","null","<p></p>","null","","","","","","","","","","","","","","","","","","","","","","",""
"","do_trial","224","853206","0.0-120.0-0.0","""event"",""trial"",""time""
""fullscreenenter"",""0"",""2933""
","
","
","""event"",""trial"",""time""
""fullscreenenter"",""0"",""2933""
","
","347.19999998807907","","","","","","","","51","0,1,0","1","highway","59","probe-131","0.3913830263538874","0.6834581075721771","0.10443861686507674","0","","","","","","","",""
"","html-keyboard-response","225","854210","0.0-120.0-1.0","""event"",""trial"",""time""
""fullscreenenter"",""0"",""2933""
","
","
","""event"",""trial"",""time""
""fullscreenenter"",""0"",""2933""
","
","null","<p></p>","null","","","","","","","","","","","","","","","","","","","","","","",""
"","do_trial","226","859122","0.0-121.0-0.0","""event"",""trial"",""time""
""fullscreenenter"",""0"",""2933""
","
","
","""event"",""trial"",""time""
""fullscreenenter"",""0"",""2933""
","
","359.89999997615814","","","","","","","","50","1,0,0","1","highway","60","probe-45","0.2791167581137285","0.6021496433841163","0.1242031034184842","0","","","","","","","",""
"","html-keyboard-response","227","860127","0.0-121.0-1.0","""event"",""trial"",""time""
""fullscreenenter"",""0"",""2933""
","
","
","""event"",""trial"",""time""
""fullscreenenter"",""0"",""2933""
","
","null","<p></p>","null","","","","","","","","","","","","","","","","","","","","","","",""
"","do_trial","228","865071","0.0-122.0-0.0","""event"",""trial"",""time""
""fullscreenenter"",""0"",""2933""
","
","
","""event"",""trial"",""time""
""fullscreenenter"",""0"",""2933""
","
","390.89999997615814","","","","","","","","49","0,1,0","1","highway","61","probe-39","0.32768708293802123","0.725811491556817","0.07382892911572572","0","","","","","","","",""
"","html-keyboard-response","229","866075","0.0-122.0-1.0","""event"",""trial"",""time""
""fullscreenenter"",""0"",""2933""
","
","
","""event"",""trial"",""time""
""fullscreenenter"",""0"",""2933""
","
","null","<p></p>","null","","","","","","","","","","","","","","","","","","","","","","",""
"","do_trial","230","871634","0.0-123.0-0.0","""event"",""trial"",""time""
""fullscreenenter"",""0"",""2933""
","
","
","""event"",""trial"",""time""
""fullscreenenter"",""0"",""2933""
","
","1007.0999999940395","","","","","","","","49","1,1,1","1","highway","62","probe-48","0.30678772446359853","0.7523159086680304","0.08946781195760149","1","","","","","","","",""
"","html-keyboard-response","231","872639","0.0-123.0-1.0","""event"",""trial"",""time""
""fullscreenenter"",""0"",""2933""
","
","
","""event"",""trial"",""time""
""fullscreenenter"",""0"",""2933""
","
","null","<p></p>","null","","","","","","","","","","","","","","","","","","","","","","",""
"","do_trial","232","877789","0.0-124.0-0.0","""event"",""trial"",""time""
""fullscreenenter"",""0"",""2933""
","
","
","""event"",""trial"",""time""
""fullscreenenter"",""0"",""2933""
","
","601.8999999761581","","","","","","","","49","0,1,0","1","highway","63","probe-35","0.3158930618725775","0.6206216858063207","0.15136308764746578","0","","","","","","","",""
"","html-keyboard-response","233","878795","0.0-124.0-1.0","""event"",""trial"",""time""
""fullscreenenter"",""0"",""2933""
","
","
","""event"",""trial"",""time""
""fullscreenenter"",""0"",""2933""
","
","null","<p></p>","null","","","","","","","","","","","","","","","","","","","","","","",""
"","do_trial","234","883687","0.0-125.0-0.0","""event"",""trial"",""time""
""fullscreenenter"",""0"",""2933""
","
","
","""event"",""trial"",""time""
""fullscreenenter"",""0"",""2933""
","
","341.2999999821186","","","","","","","","49","0,1,0","1","highway","64","probe-41","0.17516356334203884","0.7061519351672872","0.05579589258287383","0","","","","","","","",""
"","html-keyboard-response","235","884690","0.0-125.0-1.0","""event"",""trial"",""time""
""fullscreenenter"",""0"",""2933""
","
","
","""event"",""trial"",""time""
""fullscreenenter"",""0"",""2933""
","
","null","<p></p>","null","","","","","","","","","","","","","","","","","","","","","","",""
"","do_trial","236","889635","0.0-126.0-0.0","""event"",""trial"",""time""
""fullscreenenter"",""0"",""2933""
","
","
","""event"",""trial"",""time""
""fullscreenenter"",""0"",""2933""
","
","394.89999997615814","","","","","","","","50","0,1,0","1","highway","65","probe-165","0.2754658332792447","0.7001829886605504","0.11726899312902904","1","","","","","","","",""
"","html-keyboard-response","237","890640","0.0-126.0-1.0","""event"",""trial"",""time""
""fullscreenenter"",""0"",""2933""
","
","
","""event"",""trial"",""time""
""fullscreenenter"",""0"",""2933""
","
","null","<p></p>","null","","","","","","","","","","","","","","","","","","","","","","",""
"","do_trial","238","895654","0.0-127.0-0.0","""event"",""trial"",""time""
""fullscreenenter"",""0"",""2933""
","
","
","""event"",""trial"",""time""
""fullscreenenter"",""0"",""2933""
","
","464.7000000178814","","","","","","","","50","0,1,0","1","highway","66","probe-205","0.21114592497210732","0.7685164135829206","0.05456235647513841","1","","","","","","","",""
"","html-keyboard-response","239","896658","0.0-127.0-1.0","""event"",""trial"",""time""
""fullscreenenter"",""0"",""2933""
","
","
","""event"",""trial"",""time""
""fullscreenenter"",""0"",""2933""
","
","null","<p></p>","null","","","","","","","","","","","","","","","","","","","","","","",""
"","do_trial","240","901528","0.0-128.0-0.0","""event"",""trial"",""time""
""fullscreenenter"",""0"",""2933""
","
","
","""event"",""trial"",""time""
""fullscreenenter"",""0"",""2933""
","
","318.5","","","","","","","","50","0,1,0","1","highway","67","probe-79","0.1990370358427132","0.5793035120156129","0.14100431343666997","1","","","","","","","",""
"","html-keyboard-response","241","902533","0.0-128.0-1.0","""event"",""trial"",""time""
""fullscreenenter"",""0"",""2933""
","
","
","""event"",""trial"",""time""
""fullscreenenter"",""0"",""2933""
","
","null","<p></p>","null","","","","","","","","","","","","","","","","","","","","","","",""
"","do_trial","242","907763","0.0-129.0-0.0","""event"",""trial"",""time""
""fullscreenenter"",""0"",""2933""
","
","
","""event"",""trial"",""time""
""fullscreenenter"",""0"",""2933""
","
","677.7999999821186","","","","","","","","50","1,0,0","1","highway","68","probe-74","0.23261013477269443","0.6451825626111711","0.13727654556449836","0","","","","","","","",""
"","html-keyboard-response","243","908765","0.0-129.0-1.0","""event"",""trial"",""time""
""fullscreenenter"",""0"",""2933""
","
","
","""event"",""trial"",""time""
""fullscreenenter"",""0"",""2933""
","
","null","<p></p>","null","","","","","","","","","","","","","","","","","","","","","","",""
"","do_trial","244","914208","0.0-130.0-0.0","""event"",""trial"",""time""
""fullscreenenter"",""0"",""2933""
","
","
","""event"",""trial"",""time""
""fullscreenenter"",""0"",""2933""
","
","886.2999999821186","","","","","","","","50","0,0,1","1","highway","69","probe-14","0.2997858577294783","0.6839421393280425","0.35311059784371834","0","","","","","","","",""
"","html-keyboard-response","245","915212","0.0-130.0-1.0","""event"",""trial"",""time""
""fullscreenenter"",""0"",""2933""
","
","
","""event"",""trial"",""time""
""fullscreenenter"",""0"",""2933""
","
","null","<p></p>","null","","","","","","","","","","","","","","","","","","","","","","",""
"","do_bye","246","916719","0.0-131.0-0.0","""event"",""trial"",""time""
""fullscreenenter"",""0"",""2933""
","
","
","""event"",""trial"",""time""
""fullscreenenter"",""0"",""2933""
","
","null","","","","","","","","null","","","","","","","","","","","","","","","","",""
"","break","247","926845","0.0-131.0-1.0","""event"",""trial"",""time""
""fullscreenenter"",""0"",""2933""
","
","
","""event"",""trial"",""time""
""fullscreenenter"",""0"",""2933""
","
","10124.09999999404","<div class='center'><p>Time to take a quick break! You have 2 minutes to rest, but you can move on sooner if you'd like.</p><p> Press the <b>space bar</b> to continue.</p></div>","32","","","","","","","","","","","","","","","","","","","","","","",""
"","do_travel","248","935854","0.0-132.0-0.0","""event"",""trial"",""time""
""fullscreenenter"",""0"",""2933""
","
","
","""event"",""trial"",""time""
""fullscreenenter"",""0"",""2933""
","
","null","","","","","","","","null","","","","","","","","","","","","","","","","",""
"","do_welcome","249","939861","0.0-132.0-1.0","""event"",""trial"",""time""
""fullscreenenter"",""0"",""2933""
","
","
","""event"",""trial"",""time""
""fullscreenenter"",""0"",""2933""
","
","null","","","","","","","","null","","","","","","","","","","","","","","","","",""
"","do_trial","250","945584","0.0-133.0-0.0","""event"",""trial"",""time""
""fullscreenenter"",""0"",""2933""
","
","
","""event"",""trial"",""time""
""fullscreenenter"",""0"",""2933""
","
","1169.5999999940395","","","","","","","","49","0,1,0","2","forest","70","probe-155","0.3314879481482511","1","0.2011415739481275","0","","","","","","","",""
"","html-keyboard-response","251","946589","0.0-133.0-1.0","""event"",""trial"",""time""
""fullscreenenter"",""0"",""2933""
","
","
","""event"",""trial"",""time""
""fullscreenenter"",""0"",""2933""
","
","null","<p></p>","null","","","","","","","","","","","","","","","","","","","","","","",""
"","do_trial","252","951754","0.0-134.0-0.0","""event"",""trial"",""time""
""fullscreenenter"",""0"",""2933""
","
","
","""event"",""trial"",""time""
""fullscreenenter"",""0"",""2933""
","
","613","","","","","","","","50","1,1,0","2","forest","71","probe-86","0.2640338033825515","1","0.16654061653407298","1","","","","","","","",""
"","html-keyboard-response","253","952759","0.0-134.0-1.0","""event"",""trial"",""time""
""fullscreenenter"",""0"",""2933""
","
","
","""event"",""trial"",""time""
""fullscreenenter"",""0"",""2933""
","
","null","<p></p>","null","","","","","","","","","","","","","","","","","","","","","","",""
"","do_trial","254","957645","0.0-135.0-0.0","""event"",""trial"",""time""
""fullscreenenter"",""0"",""2933""
","
","
","""event"",""trial"",""time""
""fullscreenenter"",""0"",""2933""
","
","334","","","","","","","","51","0,1,0","2","forest","72","probe-184","0.337579532899193","0.9229971113100686","0.12680257476786433","0","","","","","","","",""
"","html-keyboard-response","255","958648","0.0-135.0-1.0","""event"",""trial"",""time""
""fullscreenenter"",""0"",""2933""
","
","
","""event"",""trial"",""time""
""fullscreenenter"",""0"",""2933""
","
","null","<p></p>","null","","","","","","","","","","","","","","","","","","","","","","",""
"","do_trial","256","963492","0.0-136.0-0.0","""event"",""trial"",""time""
""fullscreenenter"",""0"",""2933""
","
","
","""event"",""trial"",""time""
""fullscreenenter"",""0"",""2933""
","
","294.7000000178814","","","","","","","","50","0,1,0","2","forest","73","probe-204","0.3386774834237108","0.8586709297104119","0.06458257796777918","1","","","","","","","",""
"","html-keyboard-response","257","964496","0.0-136.0-1.0","""event"",""trial"",""time""
""fullscreenenter"",""0"",""2933""
","
","
","""event"",""trial"",""time""
""fullscreenenter"",""0"",""2933""
","
","null","<p></p>","null","","","","","","","","","","","","","","","","","","","","","","",""
"","do_trial","258","971197","0.0-137.0-0.0","""event"",""trial"",""time""
""fullscreenenter"",""0"",""2933""
","
","
","""event"",""trial"",""time""
""fullscreenenter"",""0"",""2933""
","
","2151.399999976158","","","","","","","","50","0,1,0","2","forest","74","probe-02","0.21901122937988582","0.7340855270862909","0.139127006400743","1","","","","","","","",""
"","html-keyboard-response","259","972202","0.0-137.0-1.0","""event"",""trial"",""time""
""fullscreenenter"",""0"",""2933""