"success","trial_type","trial_index","time_elapsed","internal_node_id","interactions","blur_events","focus_events","fullscreenenter_events","fullscreenexit_events","rt","stimulus","key_press","subject_id","participant_id","age","gender","prompt","response","choice_outcomes","context_n","context_img_id","trial_n","probe_img_id","pR_red","pR_white","pR_black","outcome","contextArray_ind","validImageProbes","invalidImageProbes","pRew_Red","pRew_White","pRew_Black","availableForMemProbe","choice_blocks"
"true","fullscreen","0","3485","0.0-0.0","""event"",""trial"",""time""
""fullscreenenter"",""0"",""2545""
","
","
","""event"",""trial"",""time""
""fullscreenenter"",""0"",""2545""
","
","","","","","","","","","","","","","","","","","","","","","","","","","",""
"","pavlovia","1","3493","0.0-1.0","""event"",""trial"",""time""
""fullscreenenter"",""0"",""2545""
","
","
","""event"",""trial"",""time""
""fullscreenenter"",""0"",""2545""
","
","","","","","","","","","","","","","","","","","","","","","","","","","",""
"","instruc1","2","48694","0.0-2.0","""event"",""trial"",""time""
""fullscreenenter"",""0"",""2545""
","
","
","""event"",""trial"",""time""
""fullscreenenter"",""0"",""2545""
","
","null","run_exp/static/audio/clip_1_welcome.m4a","null","340","588","21","Male","<div class='center'><p>Welcome! This is the first part of the study. It will last ~30 minutes. In part 1 and part 2 of the study, you are the head captain of a pirate ship traveling around the world to different islands. You will play a few different games throughout these two parts. Here is an overview of them:</p><br><p>Part 1 (today)</p><p>1. Instructions, practice game, and quiz</p><p>2. Pick a pirate game on 6 different islands</p><br><p>Part 2 (tomorrow)</p><p>3. Pick a pirate game and memory game</p><p>4. Where did you see this ship? </p></div>","","","","","","","","","","","","","","","","","",""
"","html-keyboard-response","3","50462","0.0-3.0","""event"",""trial"",""time""
""fullscreenenter"",""0"",""2545""
","
","
","""event"",""trial"",""time""
""fullscreenenter"",""0"",""2545""
","
","1764.7999999523163","<div class='center'><p>Welcome! This is the first part of the study. It will last ~30 minutes. In part 1 and part 2 of the study, you are the head captain of a pirate ship traveling around the world to different islands. You will play a few different games throughout these two parts. Here is an overview of them:</p><br><p>Part 1 (today)</p><p>1. Instructions, practice game, and quiz</p><p>2. Pick a pirate game on 6 different islands</p><br><p>Part 2 (tomorrow)</p><p>3. Pick a pirate game and memory game</p><p>4. Where did you see this ship? </p><p><b>[Press the space bar to continue]</b></p></div>","32","","","","","","","","","","","","","","","","","","","","","","",""
"","instruc2","4","55776","0.0-4.0","""event"",""trial"",""time""
""fullscreenenter"",""0"",""2545""
","
","
","""event"",""trial"",""time""
""fullscreenenter"",""0"",""2545""
","
","null","run_exp/static/audio/clip_2_different_places.m4a","null","","","","","<div class='center'><p>Today, you’ll visit these 6 islands on your journey. You'll be able to see these islands from your ship.</p><p><img src='run_exp/static/images/contexts/all_contexts.png' height='500'></p></div>","","","","","","","","","","","","","","","","","",""
"","html-keyboard-response","5","56919","0.0-5.0","""event"",""trial"",""time""
""fullscreenenter"",""0"",""2545""
","
","
","""event"",""trial"",""time""
""fullscreenenter"",""0"",""2545""
","
","1140.7999999523163","<div class='center'><p>Today, you’ll visit these 6 islands on your journey. You'll be able to see these islands from your ship.</p><p><img src='run_exp/static/images/contexts/all_contexts.png' height='500'></p><p><b>[Press the space bar to continue]</b></p></div>","32","","","","","","","","","","","","","","","","","","","","","","",""
"","instruc3","6","66634","0.0-6.0","""event"",""trial"",""time""
""fullscreenenter"",""0"",""2545""
","
","
","""event"",""trial"",""time""
""fullscreenenter"",""0"",""2545""
","
","null","run_exp/static/audio/clip_3_goal_of_game_1.m4a","null","","","","","<div class='center'><p> The pirates on your ship will rob other ships as they leave the island.</p> These ships have just sold their goods to the islanders, so they will be filled with lots and lots of gold.</p><p><img src='run_exp/static/images/tutorial/ship_center.png' height='400'></p></div>","","","","","","","","","","","","","","","","","",""
"","html-keyboard-response","7","67385","0.0-7.0","""event"",""trial"",""time""
""fullscreenenter"",""0"",""2545""
","
","
","""event"",""trial"",""time""
""fullscreenenter"",""0"",""2545""
","
","748.4000000953674","<div class='center'><p> The pirates on your ship will rob other ships as they leave the island.</p> These ships have just sold their goods to the islanders, so they will be filled with lots and lots of gold.</p><p><img src='run_exp/static/images/tutorial/ship_center.png' height='400'></p><p><b>[Press the space bar to continue]</b></p></div>","32","","","","","","","","","","","","","","","","","","","","","","",""
"","instruc4","8","95390","0.0-8.0","""event"",""trial"",""time""
""fullscreenenter"",""0"",""2545""
","
","
","""event"",""trial"",""time""
""fullscreenenter"",""0"",""2545""
","
","null","run_exp/static/audio/clip_4_goal_of_game_2.m4a","null","","","","","<div class='center'><p>As the head captain, you do not have to rob any ships yourself. Another pirate will be doing the robbing for you. First, you will choose a pirate to rob the next ship.</p><p><img src='run_exp/static/images/tutorial/pirates_all_crop.png' height='200'></p><p>Then, you'll see if the pirate successfully robbed the ship of their gold. If they were successful, then you'll get a stack of gold coins like this:</p><p><img src='run_exp/static/images/tutorial/reward.png' height='150'></p><p> If they were <b>not</b> successful, then you'll get no gold coins, and you'll see a big red x like this: </p><p><img src='run_exp/static/images/tutorial/reward_no.png' height='150'></p><p> How much bonus money you make is based on how many gold coins you collect.</p><div>","","","","","","","","","","","","","","","","","",""
"","html-keyboard-response","9","97306","0.0-9.0","""event"",""trial"",""time""
""fullscreenenter"",""0"",""2545""
","
","
","""event"",""trial"",""time""
""fullscreenenter"",""0"",""2545""
","
","1912.7000000476837","<div class='center'><p>As the head captain, you do not have to rob any ships yourself. Another pirate will be doing the robbing for you. First, you will choose a pirate to rob the next ship.</p><p><img src='run_exp/static/images/tutorial/pirates_all_crop.png' height='200'></p><p>Then, you'll see if the pirate successfully robbed the ship of their gold. If they were successful, then you'll get a stack of gold coins like this:</p><p><img src='run_exp/static/images/tutorial/reward.png' height='150'></p><p> If they were <b>not</b> successful, then you'll get no gold coins, and you'll see a big red x like this: </p><p><img src='run_exp/static/images/tutorial/reward_no.png' height='150'></p><p> How much bonus money you make is based on how many gold coins you collect.</p<p><b>[Press the space bar to continue]</b></p></div>","32","","","","","","","","","","","","","","","","","","","","","","",""
"","instruc5","10","117981","0.0-10.0","""event"",""trial"",""time""
""fullscreenenter"",""0"",""2545""
","
","
","""event"",""trial"",""time""
""fullscreenenter"",""0"",""2545""
","
","20673.200000047684","run_exp/static/audio/clip_5_probabilistic.m4a","49","","","","","<div class='center'><p>Even the most skilled pirate can not rob EVERY ship.</p><p> Some ships will have very strong protections against pirate attacks.</p><p> Blue beard, here, is very, very good at robbing ships, but he won't be successful every time he tries to rob one.</p><p> You can press the <b>‘1’</b> key on the keyboard to choose him.</p><p> Try choosing him 10 times to see how often he succeeds at robbing a ship. </p><p><img src='run_exp/static/images/tutorial/blue.png' height='500'></p></div>","","","","","","","","","","","","","","","","","",""
"","html-keyboard-response","11","119484","0.0-11.0","""event"",""trial"",""time""
""fullscreenenter"",""0"",""2545""
","
","
","""event"",""trial"",""time""
""fullscreenenter"",""0"",""2545""
","
","null","<div class='center'><p><img src='run_exp/static/images/tutorial/blue_win.png' height='500'></p></div>","null","","","","","","","","","","","","","","","","","","","","","","",""
"","html-keyboard-response","12","120161","0.0-12.0","""event"",""trial"",""time""
""fullscreenenter"",""0"",""2545""
","
","
","""event"",""trial"",""time""
""fullscreenenter"",""0"",""2545""
","
","674.7999999523163","<div class='center'><img src='run_exp/static/images/tutorial/blue.png' height='500'></p></div>","49","","","","","","","","","","","","","","","","","","","","","","",""
"","html-keyboard-response","13","121667","0.0-13.0","""event"",""trial"",""time""
""fullscreenenter"",""0"",""2545""
","
","
","""event"",""trial"",""time""
""fullscreenenter"",""0"",""2545""
","
","null","<div class='center'><p><img src='run_exp/static/images/tutorial/blue_win.png' height='500'></p></div>","null","","","","","","","","","","","","","","","","","","","","","","",""
"","html-keyboard-response","14","121991","0.0-14.0","""event"",""trial"",""time""
""fullscreenenter"",""0"",""2545""
","
","
","""event"",""trial"",""time""
""fullscreenenter"",""0"",""2545""
","
","322.60000014305115","<div class='center'><img src='run_exp/static/images/tutorial/blue.png' height='500'></p></div>","49","","","","","","","","","","","","","","","","","","","","","","",""
"","html-keyboard-response","15","123495","0.0-15.0","""event"",""trial"",""time""
""fullscreenenter"",""0"",""2545""
","
","
","""event"",""trial"",""time""
""fullscreenenter"",""0"",""2545""
","
","null","<div class='center'><p><img src='run_exp/static/images/tutorial/blue_win.png' height='500'></p></div>","null","","","","","","","","","","","","","","","","","","","","","","",""
"","html-keyboard-response","16","123798","0.0-16.0","""event"",""trial"",""time""
""fullscreenenter"",""0"",""2545""
","
","
","""event"",""trial"",""time""
""fullscreenenter"",""0"",""2545""
","
","301.5","<div class='center'><img src='run_exp/static/images/tutorial/blue.png' height='500'></p></div>","49","","","","","","","","","","","","","","","","","","","","","","",""
"","html-keyboard-response","17","125303","0.0-17.0","""event"",""trial"",""time""
""fullscreenenter"",""0"",""2545""
","
","
","""event"",""trial"",""time""
""fullscreenenter"",""0"",""2545""
","
","null","<div class='center'><p><img src='run_exp/static/images/tutorial/blue_no_win.png' height='500'></p></div>","null","","","","","","","","","","","","","","","","","","","","","","",""
"","html-keyboard-response","18","125791","0.0-18.0","""event"",""trial"",""time""
""fullscreenenter"",""0"",""2545""
","
","
","""event"",""trial"",""time""
""fullscreenenter"",""0"",""2545""
","
","485.89999985694885","<div class='center'><img src='run_exp/static/images/tutorial/blue.png' height='500'></p></div>","49","","","","","","","","","","","","","","","","","","","","","","",""
"","html-keyboard-response","19","127294","0.0-19.0","""event"",""trial"",""time""
""fullscreenenter"",""0"",""2545""
","
","
","""event"",""trial"",""time""
""fullscreenenter"",""0"",""2545""
","
","null","<div class='center'><p><img src='run_exp/static/images/tutorial/blue_win.png' height='500'></p></div>","null","","","","","","","","","","","","","","","","","","","","","","",""
"","html-keyboard-response","20","127735","0.0-20.0","""event"",""trial"",""time""
""fullscreenenter"",""0"",""2545""
","
","
","""event"",""trial"",""time""
""fullscreenenter"",""0"",""2545""
","
","439.7999999523163","<div class='center'><img src='run_exp/static/images/tutorial/blue.png' height='500'></p></div>","49","","","","","","","","","","","","","","","","","","","","","","",""
"","html-keyboard-response","21","129238","0.0-21.0","""event"",""trial"",""time""
""fullscreenenter"",""0"",""2545""
","
","
","""event"",""trial"",""time""
""fullscreenenter"",""0"",""2545""
","
","null","<div class='center'><p><img src='run_exp/static/images/tutorial/blue_win.png' height='500'></p></div>","null","","","","","","","","","","","","","","","","","","","","","","",""
"","html-keyboard-response","22","129515","0.0-22.0","""event"",""trial"",""time""
""fullscreenenter"",""0"",""2545""
","
","
","""event"",""trial"",""time""
""fullscreenenter"",""0"",""2545""
","
","275.89999985694885","<div class='center'><img src='run_exp/static/images/tutorial/blue.png' height='500'></p></div>","49","","","","","","","","","","","","","","","","","","","","","","",""
"","html-keyboard-response","23","131021","0.0-23.0","""event"",""trial"",""time""
""fullscreenenter"",""0"",""2545""
","
","
","""event"",""trial"",""time""
""fullscreenenter"",""0"",""2545""
","
","null","<div class='center'><p><img src='run_exp/static/images/tutorial/blue_win.png' height='500'></p></div>","null","","","","","","","","","","","","","","","","","","","","","","",""
"","html-keyboard-response","24","131456","0.0-24.0","""event"",""trial"",""time""
""fullscreenenter"",""0"",""2545""
","
","
","""event"",""trial"",""time""
""fullscreenenter"",""0"",""2545""
","
","433","<div class='center'><img src='run_exp/static/images/tutorial/blue.png' height='500'></p></div>","49","","","","","","","","","","","","","","","","","","","","","","",""
"","html-keyboard-response","25","132958","0.0-25.0","""event"",""trial"",""time""
""fullscreenenter"",""0"",""2545""
","
","
","""event"",""trial"",""time""
""fullscreenenter"",""0"",""2545""
","
","null","<div class='center'><p><img src='run_exp/static/images/tutorial/blue_no_win.png' height='500'></p></div>","null","","","","","","","","","","","","","","","","","","","","","","",""
"","html-keyboard-response","26","133640","0.0-26.0","""event"",""trial"",""time""
""fullscreenenter"",""0"",""2545""
","
","
","""event"",""trial"",""time""
""fullscreenenter"",""0"",""2545""
","
","680.7000000476837","<div class='center'><img src='run_exp/static/images/tutorial/blue.png' height='500'></p></div>","49","","","","","","","","","","","","","","","","","","","","","","",""
"","html-keyboard-response","27","135145","0.0-27.0","""event"",""trial"",""time""
""fullscreenenter"",""0"",""2545""
","
","
","""event"",""trial"",""time""
""fullscreenenter"",""0"",""2545""
","
","null","<div class='center'><p><img src='run_exp/static/images/tutorial/blue_win.png' height='500'></p></div>","null","","","","","","","","","","","","","","","","","","","","","","",""
"","html-keyboard-response","28","135515","0.0-28.0","""event"",""trial"",""time""
""fullscreenenter"",""0"",""2545""
","
","
","""event"",""trial"",""time""
""fullscreenenter"",""0"",""2545""
","
","369","<div class='center'><img src='run_exp/static/images/tutorial/blue.png' height='500'></p></div>","49","","","","","","","","","","","","","","","","","","","","","","",""
"","html-keyboard-response","29","137020","0.0-29.0","""event"",""trial"",""time""
""fullscreenenter"",""0"",""2545""
","
","
","""event"",""trial"",""time""
""fullscreenenter"",""0"",""2545""
","
","null","<div class='center'><p><img src='run_exp/static/images/tutorial/blue_win.png' height='500'></p></div>","null","","","","","","","","","","","","","","","","","","","","","","",""
"","instruc6","30","142477","0.0-30.0","""event"",""trial"",""time""
""fullscreenenter"",""0"",""2545""
","
","
","""event"",""trial"",""time""
""fullscreenenter"",""0"",""2545""
","
","null","run_exp/static/audio/clip_6_blue_beard_outcome.m4a","null","","","","","<div class='center'><p> See, he succeeded in robbing the ships most of the time but not every time. </p></div>","","","","","","","","","","","","","","","","","",""
"","html-keyboard-response","31","144148","0.0-31.0","""event"",""trial"",""time""
""fullscreenenter"",""0"",""2545""
","
","
","""event"",""trial"",""time""
""fullscreenenter"",""0"",""2545""
","
","1669.5","<div class='center'><p> See, he succeeded in robbing the ships most of the time but not every time. </p><p><b>[Press the space bar to continue]</b></p></div>","32","","","","","","","","","","","","","","","","","","","","","","",""
"","audio-keyboard-response","32","153390","0.0-32.0","""event"",""trial"",""time""
""fullscreenenter"",""0"",""2545""
","
","
","""event"",""trial"",""time""
""fullscreenenter"",""0"",""2545""
","
","9239.5","run_exp/static/audio/clip_7_pick_pirate.m4a","49","","","","","","","","","","","","","","","","","","","","","","",""
"","audio-keyboard-response","33","158112","0.0-33.0-0.0","""event"",""trial"",""time""
""fullscreenenter"",""0"",""2545""
","
","
","""event"",""trial"",""time""
""fullscreenenter"",""0"",""2545""
","
","4716.100000143051","run_exp/static/audio/clip_8_chosen_pirate_win.m4a","32","","","","","","","","","","","","","","","","","","","","","","",""
"","audio-keyboard-response","34","160569","0.0-33.0-1.0","""event"",""trial"",""time""
""fullscreenenter"",""0"",""2545""
","
","
","""event"",""trial"",""time""
""fullscreenenter"",""0"",""2545""
","
","2454.2999999523163","run_exp/static/audio/clip_9_pick_a_pirate_again.m4a","50","","","","","","","","","","","","","","","","","","","","","","",""
"","audio-keyboard-response","35","166054","0.0-34.0-0.0","""event"",""trial"",""time""
""fullscreenenter"",""0"",""2545""
","
","
","""event"",""trial"",""time""
""fullscreenenter"",""0"",""2545""
","
","5480.299999952316","run_exp/static/audio/clip_10_chosen_pirate_loss.m4a","32","","","","","","","","","","","","","","","","","","","","","","",""
"","instruc9","36","171554","0.0-35.0-0.0","""event"",""trial"",""time""
""fullscreenenter"",""0"",""2545""
","
","
","""event"",""trial"",""time""
""fullscreenenter"",""0"",""2545""
","
","null","run_exp/static/audio/clip_11_time_out.m4a","null","","","","","<div class='center'><p>If you don’t make your choice fast enough, you’ll have to wait a few seconds before you can make another one. </p><p><img src='run_exp/static/images/miscellaneous/hurry_up.png' height='500'></p></div>","","","","","","","","","","","","","","","","","",""
"","html-keyboard-response","37","172947","0.0-35.0-1.0","""event"",""trial"",""time""
""fullscreenenter"",""0"",""2545""
","
","
","""event"",""trial"",""time""
""fullscreenenter"",""0"",""2545""
","
","1390","<div class='center'><p>If you don’t make your choice fast enough, you’ll have to wait a few seconds before you can make another one. </p><p><img src='run_exp/static/images/miscellaneous/hurry_up.png' height='500'></p><p><b>[Press the space bar to continue]</b></p></div>","32","","","","","","","","","","","","","","","","","","","","","","",""
"","instruc10","38","212064","0.0-35.0-2.0","""event"",""trial"",""time""
""fullscreenenter"",""0"",""2545""
","
","
","""event"",""trial"",""time""
""fullscreenenter"",""0"",""2545""
","
","null","run_exp/static/audio/clip_12_probe.m4a","null","","","","","<div class='center'><p>Once you've chosen a pirate, you’ll be shown the ship they are robbing. You will never rob the same ship twice. Ships can be told apart from one another by the image on them. These are the goods that they sell. See, this ship has a travel mug on it. </p><p> You’ll have to remember which island you saw each ship on. You will win more gold coins and hence more bonus money if you remember correctly! To help you remember, you can imagine a story. For example, here, you could imagine a mug full of water in the desert. Or, as another example, if on the forest island, your pirate robbed a ship with an apple on it, you could imagine an apple falling from a tree in the forest. </p><p><img src='run_exp/static/images/tutorial/example_probe.png' height='500'></p></div>","","","","","","","","","","","","","","","","","",""
"","html-keyboard-response","39","213020","0.0-35.0-3.0","""event"",""trial"",""time""
""fullscreenenter"",""0"",""2545""
","
","
","""event"",""trial"",""time""
""fullscreenenter"",""0"",""2545""
","
","952.7000000476837","<div class='center'><p>Once you've chosen a pirate, you’ll be shown the ship they are robbing. You will never rob the same ship twice. Ships can be told apart from one another by the image on them. These are the goods that they sell. See, this ship has a travel mug on it. </p><p> You’ll have to remember which island you saw each ship on. You will win more gold coins and hence more bonus money if you remember correctly! To help you remember, you can imagine a story. For example, here, you could imagine a mug full of water in the desert. Or, as another example, if on the forest island, your pirate robbed a ship with an apple on it, you could imagine an apple falling from a tree in the forest. </p><p><img src='run_exp/static/images/tutorial/example_probe.png' height='500'></p><p><b>[Press the space bar to continue]</b></p></div>","32","","","","","","","","","","","","","","","","","","","","","","",""
"","instruc11","40","229428","0.0-35.0-4.0","""event"",""trial"",""time""
""fullscreenenter"",""0"",""2545""
","
","
","""event"",""trial"",""time""
""fullscreenenter"",""0"",""2545""
","
","null","run_exp/static/audio/clip_13_changepoint.m4a","null","","","","","<div class='center'><p>How successful a pirate is at robbing ships will depend on the island you’re on.</p><p> A pirate may have visited this island many times before and gained a lot of practice robbing ships there.</p><p>So, they’re more likely to be successful than a pirate who has never visited the island before.</p></div>","","","","","","","","","","","","","","","","","",""
"","html-keyboard-response","41","230760","0.0-35.0-5.0","""event"",""trial"",""time""
""fullscreenenter"",""0"",""2545""
","
","
","""event"",""trial"",""time""
""fullscreenenter"",""0"",""2545""
","
","1329.7999999523163","<div class='center'><p>How successful a pirate is at robbing ships will depend on the island you’re on.</p><p> A pirate may have visited this island many times before and gained a lot of practice robbing ships there.</p><p>So, they’re more likely to be successful than a pirate who has never visited the island before.</p><p><b>[Press the space bar to continue]</b></p></div>","32","","","","","","","","","","","","","","","","","","","","","","",""
"","instruc12","42","271858","0.0-35.0-6.0","""event"",""trial"",""time""
""fullscreenenter"",""0"",""2545""
","
","
","""event"",""trial"",""time""
""fullscreenenter"",""0"",""2545""
","
","null","run_exp/static/audio/clip_14_drift.m4a","null","","","","","<div class='center'><p>How successful a pirate is at robbing ships can also change over the time spent on the island. </p><p> Ships may hear from islanders about the pirates coming and will improve their protections against the attack. This may make it harder to rob them.</p><p> Ships may also become lazy and weaken the strength of their protections. This may make it easier to rob them.</p><br><p>Things are always changing on the high seas! So, try your best to pay attention!</p><p><img src='run_exp/static/images/tutorial/contingency.png' height='500'></p></div>","","","","","","","","","","","","","","","","","",""
"","html-keyboard-response","43","275556","0.0-35.0-7.0","""event"",""trial"",""time""
""fullscreenenter"",""0"",""2545""
","
","
","""event"",""trial"",""time""
""fullscreenenter"",""0"",""2545""
","
","3695.899999856949","<div class='center'><p>How successful a pirate is at robbing ships can also change over the time spent on the island. </p><p> Ships may hear from islanders about the pirates coming and will improve their protections against the attack. This may make it harder to rob them.</p><p> Ships may also become lazy and weaken the strength of their protections. This may make it easier to rob them.</p><br><p>Things are always changing on the high seas! So, try your best to pay attention!</p><p><img src='run_exp/static/images/tutorial/contingency.png' height='500'></p><p><b>[Press the space bar to continue]</b></p></div>","32","","","","","","","","","","","","","","","","","","","","","","",""
"","instruc13","44","310768","0.0-35.0-8.0","""event"",""trial"",""time""
""fullscreenenter"",""0"",""2545""
","
","
","""event"",""trial"",""time""
""fullscreenenter"",""0"",""2545""
","
","null","run_exp/static/audio/clip_15_summary.m4a","null","","","","","<div class='center'><p>Let's go over the instructions quickly again. You have two important things to do: </p><b><p> 1. Pick the pirate who is the best at robbing ships on the current island. </p></b><b><p> 2. Remember on which island a ship was robbed.</p> </b><p>The amount of bonus money you can win depends on both.</p><p><br><p>Let’s try a practice game. The game will start by showing you the pirates. First, pick a pirate using the <b> 1, 2, 3 </b> keys on your keyboard. When you are shown a ship, try to remember which island you’re on by making up a story.</p><p>This is just a practice game, so you’re not playing for money. </p><p> Good luck! This game will be very difficult but try your best!</p></div>","","","","","","","","","","","","","","","","","",""
"","html-keyboard-response","45","311612","0.0-35.0-9.0","""event"",""trial"",""time""
""fullscreenenter"",""0"",""2545""
","
","
","""event"",""trial"",""time""
""fullscreenenter"",""0"",""2545""
","
","842.7999999523163","<div class='center'><p>Let's go over the instructions quickly again. You have two important things to do: </p><b><p> 1. Pick the pirate who is the best at robbing ships on the current island. </p></b><b><p> 2. Remember on which island a ship was robbed.</p> </b><p>The amount of bonus money you can win depends on both.</p><p><br><p>Let’s try a practice game. The game will start by showing you the pirates. First, pick a pirate using the <b> 1, 2, 3 </b> keys on your keyboard. When you are shown a ship, try to remember which island you’re on by making up a story.</p><p>This is just a practice game, so you’re not playing for money. </p><p> Good luck! This game will be very difficult but try your best!</p><p><b>[Press the space bar to continue]</b></p></div>","32","","","","","","","","","","","","","","","","","","","","","","",""
"","do_welcome","46","315626","0.0-35.0-10.0","""event"",""trial"",""time""
""fullscreenenter"",""0"",""2545""
","
","
","""event"",""trial"",""time""
""fullscreenenter"",""0"",""2545""
","
","null","","","","","","","","null","","","","","","","","","","","","","","","","",""
"","do_trial","47","321812","0.0-35.0-11.0","""event"",""trial"",""time""
""fullscreenenter"",""0"",""2545""
","
","
","""event"",""trial"",""time""
""fullscreenenter"",""0"",""2545""
","
","1673.7999999523163","","","","","","","","49","1,0,0","","","","","","","","","","","","","","","",""
"","html-keyboard-response","48","322815","0.0-36.0-0.0","""event"",""trial"",""time""
""fullscreenenter"",""0"",""2545""
","
","
","""event"",""trial"",""time""
""fullscreenenter"",""0"",""2545""
","
","null","<p></p>","null","","","","","","","","","","","","","","","","","","","","","","",""
"","do_trial","49","329085","0.0-36.0-1.0","""event"",""trial"",""time""
""fullscreenenter"",""0"",""2545""
","
","
","""event"",""trial"",""time""
""fullscreenenter"",""0"",""2545""
","
","1756.6000001430511","","","","","","","","49","1,1,0","","","","","","","","","","","","","","","",""
"","html-keyboard-response","50","330089","0.0-37.0-0.0","""event"",""trial"",""time""
""fullscreenenter"",""0"",""2545""
","
","
","""event"",""trial"",""time""
""fullscreenenter"",""0"",""2545""
","
","null","<p></p>","null","","","","","","","","","","","","","","","","","","","","","","",""
"","do_trial","51","334952","0.0-37.0-1.0","""event"",""trial"",""time""
""fullscreenenter"",""0"",""2545""
","
","
","""event"",""trial"",""time""
""fullscreenenter"",""0"",""2545""
","
","350.60000014305115","","","","","","","","49","1,0,1","","","","","","","","","","","","","","","",""
"","html-keyboard-response","52","335954","0.0-38.0-0.0","""event"",""trial"",""time""
""fullscreenenter"",""0"",""2545""
","
","
","""event"",""trial"",""time""
""fullscreenenter"",""0"",""2545""
","
","null","<p></p>","null","","","","","","","","","","","","","","","","","","","","","","",""
"","do_trial","53","340829","0.0-38.0-1.0","""event"",""trial"",""time""
""fullscreenenter"",""0"",""2545""
","
","
","""event"",""trial"",""time""
""fullscreenenter"",""0"",""2545""
","
","362.59999990463257","","","","","","","","49","0,1,0","","","","","","","","","","","","","","","",""
"","html-keyboard-response","54","341832","0.0-39.0-0.0","""event"",""trial"",""time""
""fullscreenenter"",""0"",""2545""
","
","
","""event"",""trial"",""time""
""fullscreenenter"",""0"",""2545""
","
","null","<p></p>","null","","","","","","","","","","","","","","","","","","","","","","",""
"","do_trial","55","346850","0.0-39.0-1.0","""event"",""trial"",""time""
""fullscreenenter"",""0"",""2545""
","
","
","""event"",""trial"",""time""
""fullscreenenter"",""0"",""2545""
","
","505.7999999523163","","","","","","","","49","1,0,0","","","","","","","","","","","","","","","",""
"","do_bye","56","348359","0.0-40.0-0.0","""event"",""trial"",""time""
""fullscreenenter"",""0"",""2545""
","
","
","""event"",""trial"",""time""
""fullscreenenter"",""0"",""2545""
","
","null","","","","","","","","null","","","","","","","","","","","","","","","","",""
"","do_travel","57","357368","0.0-40.0-1.0","""event"",""trial"",""time""
""fullscreenenter"",""0"",""2545""
","
","
","""event"",""trial"",""time""
""fullscreenenter"",""0"",""2545""
","
","null","","","","","","","","null","","","","","","","","","","","","","","","","",""
"","do_welcome","58","361379","0.0-40.0-2.0","""event"",""trial"",""time""
""fullscreenenter"",""0"",""2545""
","
","
","""event"",""trial"",""time""
""fullscreenenter"",""0"",""2545""
","
","null","","","","","","","","null","","","","","","","","","","","","","","","","",""
"","do_trial","59","366785","0.0-40.0-3.0","""event"",""trial"",""time""
""fullscreenenter"",""0"",""2545""
","
","
","""event"",""trial"",""time""
""fullscreenenter"",""0"",""2545""
","
","891.8999998569489","","","","","","","","50","1,0,0","","","","","","","","","","","","","","","",""
"","html-keyboard-response","60","367788","0.0-41.0-0.0","""event"",""trial"",""time""
""fullscreenenter"",""0"",""2545""
","
","
","""event"",""trial"",""time""
""fullscreenenter"",""0"",""2545""
","
","null","<p></p>","null","","","","","","","","","","","","","","","","","","","","","","",""
"","do_trial","61","372635","0.0-41.0-1.0","""event"",""trial"",""time""
""fullscreenenter"",""0"",""2545""
","
","
","""event"",""trial"",""time""
""fullscreenenter"",""0"",""2545""
","
","331.2999999523163","","","","","","","","50","1,0,1","","","","","","","","","","","","","","","",""
"","html-keyboard-response","62","373641","0.0-42.0-0.0","""event"",""trial"",""time""
""fullscreenenter"",""0"",""2545""
","
","
","""event"",""trial"",""time""
""fullscreenenter"",""0"",""2545""
","
","null","<p></p>","null","","","","","","","","","","","","","","","","","","","","","","",""
"","do_trial","63","378481","0.0-42.0-1.0","""event"",""trial"",""time""
""fullscreenenter"",""0"",""2545""
","
","
","""event"",""trial"",""time""
""fullscreenenter"",""0"",""2545""
","
","327.60000014305115","","","","","","","","51","1,1,0","","","","","","","","","","","","","","","",""
"","html-keyboard-response","64","379487","0.0-43.0-0.0","""event"",""trial"",""time""
""fullscreenenter"",""0"",""2545""
","
","
","""event"",""trial"",""time""
""fullscreenenter"",""0"",""2545""
","
","null","<p></p>","null","","","","","","","","","","","","","","","","","","","","","","",""
"","do_trial","65","384294","0.0-43.0-1.0","""event"",""trial"",""time""
""fullscreenenter"",""0"",""2545""
","
","
","""event"",""trial"",""time""
""fullscreenenter"",""0"",""2545""
","
","293.59999990463257","","","","","","","","51","0,0,1","","","","","","","","","","","","","","","",""
"","html-keyboard-response","66","385300","0.0-44.0-0.0","""event"",""trial"",""time""
""fullscreenenter"",""0"",""2545""
","
","
","""event"",""trial"",""time""
""fullscreenenter"",""0"",""2545""
","
","null","<p></p>","null","","","","","","","","","","","","","","","","","","","","","","",""
"","do_trial","67","390415","0.0-44.0-1.0","""event"",""trial"",""time""
""fullscreenenter"",""0"",""2545""
","
","
","""event"",""trial"",""time""
""fullscreenenter"",""0"",""2545""
","
","607.7000000476837","","","","","","","","51","1,0,1","","","","","","","","","","","","","","","",""
"","html-keyboard-response","68","392196","0.0-45.0-0.0","""event"",""trial"",""time""
""fullscreenenter"",""0"",""2545""
","
","
","""event"",""trial"",""time""
""fullscreenenter"",""0"",""2545""
","
","1776.2999999523163","<div class='center'><p><img src='run_exp/static/images/tutorial/prac_best_pirate.png'  height='500'></p></div>","49","","","","","","","","","","","","","","","","","","","","","","",""
"","html-keyboard-response","69","393481","0.0-46.0-0.0","""event"",""trial"",""time""
""fullscreenenter"",""0"",""2545""
","
","
","""event"",""trial"",""time""
""fullscreenenter"",""0"",""2545""
","
","1282.2000000476837","<div class='center'><p>That's correct! Red beard was the best.</p><p><b>[Press the space bar to continue]</b></p></div>","32","","","","","","","","","","","","","","","","","","","","","","",""
"","html-keyboard-response","70","396052","0.0-46.0-1.0","""event"",""trial"",""time""
""fullscreenenter"",""0"",""2545""
","
","
","""event"",""trial"",""time""
""fullscreenenter"",""0"",""2545""
","
","2569.9000000953674","<div class='center'><p><img src='run_exp/static/images/tutorial/prac_source.png'  height='500'></p></div>","50","","","","","","","","","","","","","","","","","","","","","","",""
"","html-keyboard-response","71","397378","0.0-47.0-0.0","""event"",""trial"",""time""
""fullscreenenter"",""0"",""2545""
","
","
","""event"",""trial"",""time""
""fullscreenenter"",""0"",""2545""
","
","1324.8999998569489","<div class='center'><p>That's correct! You saw this ship on the cavern island.</p><p><b>[Press the space bar to continue]</b></p></div>","32","","","","","","","","","","","","","","","","","","","","","","",""
"","quiz_beginning","72","408618","0.0-47.0-1.0","""event"",""trial"",""time""
""fullscreenenter"",""0"",""2545""
","
","
","""event"",""trial"",""time""
""fullscreenenter"",""0"",""2545""
","
","null","run_exp/static/audio/clip_16_quiz_intro.m4a","null","","","","","<div class='center'><p>Good job on the practice game! Now, you will be asked some true or false questions to make sure you really understand the rules of the game.</p><p> Press <b>'1'</b> on the keyboard for true and press <b>'2'</b> for false.</p></div>","","","","","","","","","","","","","","","","","",""
"","audio-keyboard-response","73","416903","0.0-47.0-2.0","""event"",""trial"",""time""
""fullscreenenter"",""0"",""2545""
","
","
","""event"",""trial"",""time""
""fullscreenenter"",""0"",""2545""
","
","8281.799999952316","run_exp/static/audio/clip_17_q1.m4a","49","","","","","","","","","","","","","","","","","","","","","","",""
"","correct","74","419304","0.0-48.0-0.0","""event"",""trial"",""time""
""fullscreenenter"",""0"",""2545""
","
","
","""event"",""trial"",""time""
""fullscreenenter"",""0"",""2545""
","
","null","run_exp/static/audio/clip_18_correct.m4a","null","","","","","<div class='center'><p>That's correct!</p></div>","","","","","","","","","","","","","","","","","",""
"","html-keyboard-response","75","420222","0.0-48.0-1.0","""event"",""trial"",""time""
""fullscreenenter"",""0"",""2545""
","
","
","""event"",""trial"",""time""
""fullscreenenter"",""0"",""2545""
","
","916.5","<div class='center'><p>That's correct!</p><p><b>[Press the space bar to continue]</b></p></div>","32","","","","","","","","","","","","","","","","","","","","","","",""
"","audio-keyboard-response","76","427442","0.0-48.0-2.0","""event"",""trial"",""time""
""fullscreenenter"",""0"",""2545""
","
","
","""event"",""trial"",""time""
""fullscreenenter"",""0"",""2545""
","
","7218.700000047684","run_exp/static/audio/clip_20_q2.m4a","50","","","","","","","","","","","","","","","","","","","","","","",""
"","correct","77","429821","0.0-49.0-0.0","""event"",""trial"",""time""
""fullscreenenter"",""0"",""2545""
","
","
","""event"",""trial"",""time""
""fullscreenenter"",""0"",""2545""
","
","null","run_exp/static/audio/clip_18_correct.m4a","null","","","","","<div class='center'><p>That's correct!</p></div>","","","","","","","","","","","","","","","","","",""
"","html-keyboard-response","78","431387","0.0-49.0-1.0","""event"",""trial"",""time""
""fullscreenenter"",""0"",""2545""
","
","
","""event"",""trial"",""time""
""fullscreenenter"",""0"",""2545""
","
","1564.7000000476837","<div class='center'><p>That's correct!</p><p><b>[Press the space bar to continue]</b></p></div>","32","","","","","","","","","","","","","","","","","","","","","","",""
"","audio-keyboard-response","79","436580","0.0-49.0-2.0","""event"",""trial"",""time""
""fullscreenenter"",""0"",""2545""
","
","
","""event"",""trial"",""time""
""fullscreenenter"",""0"",""2545""
","
","5190.599999904633","run_exp/static/audio/clip_22_q3.m4a","50","","","","","","","","","","","","","","","","","","","","","","",""
"","correct","80","438973","0.0-50.0-0.0","""event"",""trial"",""time""
""fullscreenenter"",""0"",""2545""
","
","
","""event"",""trial"",""time""
""fullscreenenter"",""0"",""2545""
","
","null","run_exp/static/audio/clip_18_correct.m4a","null","","","","","<div class='center'><p>That's correct!</p></div>","","","","","","","","","","","","","","","","","",""
"","html-keyboard-response","81","440179","0.0-50.0-1.0","""event"",""trial"",""time""
""fullscreenenter"",""0"",""2545""
","
","
","""event"",""trial"",""time""
""fullscreenenter"",""0"",""2545""
","
","1203.9000000953674","<div class='center'><p>That's correct!</p><p><b>[Press the space bar to continue]</b></p></div>","32","","","","","","","","","","","","","","","","","","","","","","",""
"","audio-keyboard-response","82","443169","0.0-50.0-2.0","""event"",""trial"",""time""
""fullscreenenter"",""0"",""2545""
","
","
","""event"",""trial"",""time""
""fullscreenenter"",""0"",""2545""
","
","2987.9000000953674","run_exp/static/audio/clip_24_q4.m4a","49","","","","","","","","","","","","","","","","","","","","","","",""
"","correct","83","445629","0.0-51.0-0.0","""event"",""trial"",""time""
""fullscreenenter"",""0"",""2545""
","
","
","""event"",""trial"",""time""
""fullscreenenter"",""0"",""2545""
","
","null","run_exp/static/audio/clip_18_correct.m4a","null","","","","","<div class='center'><p>That's correct!</p></div>","","","","","","","","","","","","","","","","","",""
"","html-keyboard-response","84","447023","0.0-51.0-1.0","""event"",""trial"",""time""
""fullscreenenter"",""0"",""2545""
","
","
","""event"",""trial"",""time""
""fullscreenenter"",""0"",""2545""
","
","1392.1999998092651","<div class='center'><p>That's correct!</p><p><b>[Press the space bar to continue]</b></p></div>","32","","","","","","","","","","","","","","","","","","","","","","",""
"","q_all_corr","85","455527","0.0-52.0-0.0","""event"",""trial"",""time""
""fullscreenenter"",""0"",""2545""
","
","
","""event"",""trial"",""time""
""fullscreenenter"",""0"",""2545""
","
","null","run_exp/static/audio/clip_27_quiz_all_correct.m4a","null","","","","","<div class='center'><p>Good job! You’re now ready to move on to the real game! Remember this game will be difficult but don't get discouraged and try your best!</p></div>","","","","","","","","","","","","","","","","","",""
"","html-keyboard-response","86","456023","0.0-52.0-1.0","""event"",""trial"",""time""
""fullscreenenter"",""0"",""2545""
","
","
","""event"",""trial"",""time""
""fullscreenenter"",""0"",""2545""
","
","493.7999999523163","<div class='center'><p>Good job! You’re now ready to move on to the real game! Remember this game will be difficult but don't get discouraged and try your best!</p><p><b>[Press the space bar to continue]</b></p></div>","32","","","","","","","","","","","","","","","","","","","","","","",""
"","do_welcome","87","460033","0.0-53.0-0.0","""event"",""trial"",""time""
""fullscreenenter"",""0"",""2545""
","
","
","""event"",""trial"",""time""
""fullscreenenter"",""0"",""2545""
","
","null","","","","","","","","null","","","","","","","","","","","","","","","","",""
"","do_trial","88","465595","0.0-54.0-0.0","""event"",""trial"",""time""
""fullscreenenter"",""0"",""2545""
","
","
","""event"",""trial"",""time""
""fullscreenenter"",""0"",""2545""
","
","990.6000001430511","","","","","","","","49","1,0,1","0","city","0","probe-146","0.6","0.3","0.1","1","","","","","","","",""
"","html-keyboard-response","89","466602","0.0-54.0-1.0","""event"",""trial"",""time""
""fullscreenenter"",""0"",""2545""
","
","
","""event"",""trial"",""time""
""fullscreenenter"",""0"",""2545""
","
","null","<p></p>","null","","","","","","","","","","","","","","","","","","","","","","",""
"","do_trial","90","471571","0.0-55.0-0.0","""event"",""trial"",""time""
""fullscreenenter"",""0"",""2545""
","
","
","""event"",""trial"",""time""
""fullscreenenter"",""0"",""2545""
","
","400.09999990463257","","","","","","","","49","1,1,0","0","city","1","probe-157","0.6804557485618495","0.3591679769120346","0.15508899575807278","1","","","","","","","",""
"","html-keyboard-response","91","472577","0.0-55.0-1.0","""event"",""trial"",""time""
""fullscreenenter"",""0"",""2545""
","
","
","""event"",""trial"",""time""
""fullscreenenter"",""0"",""2545""
","
","null","<p></p>","null","","","","","","","","","","","","","","","","","","","","","","",""
"","do_trial","92","477587","0.0-56.0-0.0","""event"",""trial"",""time""
""fullscreenenter"",""0"",""2545""
","
","
","""event"",""trial"",""time""
""fullscreenenter"",""0"",""2545""
","
","433.5","","","","","","","","49","1,0,0","0","city","2","probe-145","0.5964286817588701","0.32634573287598934","0.1472808980904796","1","","","","","","","",""
"","html-keyboard-response","93","478589","0.0-56.0-1.0","""event"",""trial"",""time""
""fullscreenenter"",""0"",""2545""
","
","
","""event"",""trial"",""time""
""fullscreenenter"",""0"",""2545""
","
","null","<p></p>","null","","","","","","","","","","","","","","","","","","","","","","",""
"","do_trial","94","483517","0.0-57.0-0.0","""event"",""trial"",""time""
""fullscreenenter"",""0"",""2545""
","
","
","""event"",""trial"",""time""
""fullscreenenter"",""0"",""2545""
","
","353.69999980926514","","","","","","","","49","1,1,1","0","city","3","probe-170","0.5372634312318217","0.5152128429732757","0.10568543784967345","1","","","","","","","",""
"","html-keyboard-response","95","484523","0.0-57.0-1.0","""event"",""trial"",""time""
""fullscreenenter"",""0"",""2545""
","
","
","""event"",""trial"",""time""
""fullscreenenter"",""0"",""2545""
","
","null","<p></p>","null","","","","","","","","","","","","","","","","","","","","","","",""
"","do_trial","96","489604","0.0-58.0-0.0","""event"",""trial"",""time""
""fullscreenenter"",""0"",""2545""
","
","
","""event"",""trial"",""time""
""fullscreenenter"",""0"",""2545""
","
","505.09999990463257","","","","","","","","49","1,0,0","0","city","4","probe-99","0.5608177000171781","0.4854577913058155","0.1904563074716528","1","","","","","","","",""
"","html-keyboard-response","97","490614","0.0-58.0-1.0","""event"",""trial"",""time""
""fullscreenenter"",""0"",""2545""
","
","
","""event"",""trial"",""time""
""fullscreenenter"",""0"",""2545""
","
","null","<p></p>","null","","","","","","","","","","","","","","","","","","","","","","",""
"","do_trial","98","495998","0.0-59.0-0.0","""event"",""trial"",""time""
""fullscreenenter"",""0"",""2545""
","
","
","""event"",""trial"",""time""
""fullscreenenter"",""0"",""2545""
","
","815.1999998092651","","","","","","","","49","1,1,0","0","city","5","probe-18","0.677920964449116","0.44353967560351637","0.23357271248776804","1","","","","","","","",""
"","html-keyboard-response","99","497002","0.0-59.0-1.0","""event"",""trial"",""time""
""fullscreenenter"",""0"",""2545""
","
","
","""event"",""trial"",""time""
""fullscreenenter"",""0"",""2545""
","
","null","<p></p>","null","","","","","","","","","","","","","","","","","","","","","","",""
"","do_trial","100","501660","0.0-60.0-0.0","""event"",""trial"",""time""
""fullscreenenter"",""0"",""2545""
","
","
","""event"",""trial"",""time""
""fullscreenenter"",""0"",""2545""
","
","80.79999995231628","","","","","","","","49","0,1,0","0","city","6","probe-149","0.6771178465855335","0.4526478600959248","0.21997712649173132","0","","","","","","","",""
"","html-keyboard-response","101","502667","0.0-60.0-1.0","""event"",""trial"",""time""
""fullscreenenter"",""0"",""2545""
","
","
","""event"",""trial"",""time""
""fullscreenenter"",""0"",""2545""
","
","null","<p></p>","null","","","","","","","","","","","","","","","","","","","","","","",""
"","do_trial","102","509456","0.0-61.0-0.0","""event"",""trial"",""time""
""fullscreenenter"",""0"",""2545""
","
","
","""event"",""trial"",""time""
""fullscreenenter"",""0"",""2545""
","
","2221.7999999523163","","","","","","","","49","0,1,0","0","city","7","probe-41","0.5464717746814614","0.380101017982748","0.06547261381699394","0","","","","","","","",""
"","html-keyboard-response","103","510463","0.0-61.0-1.0","""event"",""trial"",""time""
""fullscreenenter"",""0"",""2545""
","
","
","""event"",""trial"",""time""
""fullscreenenter"",""0"",""2545""
","
","null","<p></p>","null","","","","","","","","","","","","","","","","","","","","","","",""
"","do_trial","104","515569","0.0-62.0-0.0","""event"",""trial"",""time""
""fullscreenenter"",""0"",""2545""
","
","
","""event"",""trial"",""time""
""fullscreenenter"",""0"",""2545""
","
","533.5999999046326","","","","","","","","49","0,0,0","0","city","8","probe-205","0.6012748262771644","0.36798362661273604","0.10766849202926722","0","","","","","","","",""
"","html-keyboard-response","105","516572","0.0-62.0-1.0","""event"",""trial"",""time""
""fullscreenenter"",""0"",""2545""
","
","
","""event"",""trial"",""time""
""fullscreenenter"",""0"",""2545""
","
","null","<p></p>","null","","","","","","","","","","","","","","","","","","","","","","",""
"","do_trial","106","521591","0.0-63.0-0.0","""event"",""trial"",""time""
""fullscreenenter"",""0"",""2545""
","
","
","""event"",""trial"",""time""
""fullscreenenter"",""0"",""2545""
","
","448","","","","","","","","51","1,0,0","0","city","9","probe-39","0.637297486454917","0.4114091020682287","0.0844759937646835","0","","","","","","","",""
"","html-keyboard-response","107","522597","0.0-63.0-1.0","""event"",""trial"",""time""
""fullscreenenter"",""0"",""2545""
","
","
","""event"",""trial"",""time""
""fullscreenenter"",""0"",""2545""
","
","null","<p></p>","null","","","","","","","","","","","","","","","","","","","","","","",""
"","do_trial","108","527502","0.0-64.0-0.0","""event"",""trial"",""time""
""fullscreenenter"",""0"",""2545""
","
","
","""event"",""trial"",""time""
""fullscreenenter"",""0"",""2545""
","
","337.40000009536743","","","","","","","","51","0,1,0","0","city","10","probe-86","0.44473863798066193","0.31745401967003944","0.07633022713329636","0","","","","","","","",""
"","html-keyboard-response","109","528509","0.0-64.0-1.0","""event"",""trial"",""time""
""fullscreenenter"",""0"",""2545""
","
","
","""event"",""trial"",""time""
""fullscreenenter"",""0"",""2545""
","
","null","<p></p>","null","","","","","","","","","","","","","","","","","","","","","","",""
"","do_trial","110","534576","0.0-65.0-0.0","""event"",""trial"",""time""
""fullscreenenter"",""0"",""2545""
","
","
","""event"",""trial"",""time""
""fullscreenenter"",""0"",""2545""
","
","1497.5","","","","","","","","50","0,1,0","0","city","11","probe-169","0.6429202799846576","0.23772095711363578","0.060561665067191996","1","","","","","","","",""
"","html-keyboard-response","111","535579","0.0-65.0-1.0","""event"",""trial"",""time""
""fullscreenenter"",""0"",""2545""
","
","
","""event"",""trial"",""time""
""fullscreenenter"",""0"",""2545""
","
","null","<p></p>","null","","","","","","","","","","","","","","","","","","","","","","",""
"","do_trial","112","540177","0.0-66.0-0.0","""event"",""trial"",""time""
""fullscreenenter"",""0"",""2545""
","
","
","""event"",""trial"",""time""
""fullscreenenter"",""0"",""2545""
","
","31.799999952316284","","","","","","","","50","0,1,0","0","city","12","probe-129","0.6457200788413505","0.2094728772989176","0.3514822429014277","1","","","","","","","",""
"","html-keyboard-response","113","541182","0.0-66.0-1.0","""event"",""trial"",""time""
""fullscreenenter"",""0"",""2545""
","
","
","""event"",""trial"",""time""
""fullscreenenter"",""0"",""2545""
","
","null","<p></p>","null","","","","","","","","","","","","","","","","","","","","","","",""
"","do_trial","114","546638","0.0-67.0-0.0","""event"",""trial"",""time""
""fullscreenenter"",""0"",""2545""
","
","
","""event"",""trial"",""time""
""fullscreenenter"",""0"",""2545""
","
","879.7000000476837","","","","","","","","50","1,0,1","0","city","13","probe-156","0.8550696424202775","0.11063689644284491","0.27825315974005577","0","","","","","","","",""
"","html-keyboard-response","115","547644","0.0-67.0-1.0","""event"",""trial"",""time""
""fullscreenenter"",""0"",""2545""
","
","
","""event"",""trial"",""time""
""fullscreenenter"",""0"",""2545""
","
","null","<p></p>","null","","","","","","","","","","","","","","","","","","","","","","",""
"","do_trial","116","552653","0.0-68.0-0.0","""event"",""trial"",""time""
""fullscreenenter"",""0"",""2545""
","
","
","""event"",""trial"",""time""
""fullscreenenter"",""0"",""2545""
","
","441.10000014305115","","","","","","","","50","0,0,1","0","city","14","probe-224","0.6855827826280362","0.11779036553505445","0.21538890640670086","0","","","","","","","",""
"","html-keyboard-response","117","553658","0.0-68.0-1.0","""event"",""trial"",""time""
""fullscreenenter"",""0"",""2545""
","
","
","""event"",""trial"",""time""
""fullscreenenter"",""0"",""2545""
","
","null","<p></p>","null","","","","","","","","","","","","","","","","","","","","","","",""
"","do_trial","118","558863","0.0-69.0-0.0","""event"",""trial"",""time""
""fullscreenenter"",""0"",""2545""
","
","
","""event"",""trial"",""time""
""fullscreenenter"",""0"",""2545""
","
","636.5","","","","","","","","49","1,1,0","0","city","15","probe-113","0.7502257381369078","0.30642988075036187","0.3238103961026886","1","","","","","","","",""
"","html-keyboard-response","119","559868","0.0-69.0-1.0","""event"",""trial"",""time""
""fullscreenenter"",""0"",""2545""
","
","
","""event"",""trial"",""time""
""fullscreenenter"",""0"",""2545""
","
","null","<p></p>","null","","","","","","","","","","","","","","","","","","","","","","",""
"","do_trial","120","565909","0.0-70.0-0.0","""event"",""trial"",""time""
""fullscreenenter"",""0"",""2545""
","
","
","""event"",""trial"",""time""
""fullscreenenter"",""0"",""2545""
","
","1468.2999999523163","","","","","","","","49","1,0,0","0","city","16","probe-47","0.6368775978450912","0.2751578186750707","0.354326199604177","1","","","","","","","",""
"","html-keyboard-response","121","566916","0.0-70.0-1.0","""event"",""trial"",""time""
""fullscreenenter"",""0"",""2545""
","
","
","""event"",""trial"",""time""
""fullscreenenter"",""0"",""2545""
","
","null","<p></p>","null","","","","","","","","","","","","","","","","","","","","","","",""
"","do_trial","122","572296","0.0-71.0-0.0","""event"",""trial"",""time""
""fullscreenenter"",""0"",""2545""
","
","
","""event"",""trial"",""time""
""fullscreenenter"",""0"",""2545""
","
","811.2000000476837","","","","","","","","49","0,0,0","0","city","17","probe-65","0.6903617857363022","0.23744383359975021","0.19233474428452646","0","","","","","","","",""
"","html-keyboard-response","123","573304","0.0-71.0-1.0","""event"",""trial"",""time""
""fullscreenenter"",""0"",""2545""
","
","
","""event"",""trial"",""time""
""fullscreenenter"",""0"",""2545""
","
","null","<p></p>","null","","","","","","","","","","","","","","","","","","","","","","",""
"","do_trial","124","577877","0.0-72.0-0.0","""event"",""trial"",""time""
""fullscreenenter"",""0"",""2545""
","
","
","""event"",""trial"",""time""
""fullscreenenter"",""0"",""2545""
","
","0.10000014305114746","","","","","","","","49","0,1,0","0","city","18","probe-55","0.5974744913531232","0.36121984863766116","0.13369525954959435","0","","","","","","","",""
"","html-keyboard-response","125","578881","0.0-72.0-1.0","""event"",""trial"",""time""
""fullscreenenter"",""0"",""2545""
","
","
","""event"",""trial"",""time""
""fullscreenenter"",""0"",""2545""
","
","null","<p></p>","null","","","","","","","","","","","","","","","","","","","","","","",""
"","do_trial","126","583912","0.0-73.0-0.0","""event"",""trial"",""time""
""fullscreenenter"",""0"",""2545""
","
","
","""event"",""trial"",""time""
""fullscreenenter"",""0"",""2545""
","
","464.5","","","","","","","","50","0,0,1","0","city","19","probe-189","0.6741804799242107","0.3324808071104845","0.06151738607905765","0","","","","","","","",""
"","html-keyboard-response","127","584916","0.0-73.0-1.0","""event"",""trial"",""time""
""fullscreenenter"",""0"",""2545""
","
","
","""event"",""trial"",""time""
""fullscreenenter"",""0"",""2545""
","
","null","<p></p>","null","","","","","","","","","","","","","","","","","","","","","","",""
"","do_trial","128","589765","0.0-74.0-0.0","""event"",""trial"",""time""
""fullscreenenter"",""0"",""2545""
","
","
","""event"",""trial"",""time""
""fullscreenenter"",""0"",""2545""
","
","280.90000009536743","","","","","","","","50","1,0,0","0","city","20","probe-08","0.7089552761310531","0.27425936817594243","0.23741476627786448","0","","","","","","","",""
"","html-keyboard-response","129","590770","0.0-74.0-1.0","""event"",""trial"",""time""
""fullscreenenter"",""0"",""2545""
","
","
","""event"",""trial"",""time""
""fullscreenenter"",""0"",""2545""
","
","null","<p></p>","null","","","","","","","","","","","","","","","","","","","","","","",""
"","do_trial","130","595867","0.0-75.0-0.0","""event"",""trial"",""time""
""fullscreenenter"",""0"",""2545""
","
","
","""event"",""trial"",""time""
""fullscreenenter"",""0"",""2545""
","
","528.2000000476837","","","","","","","","51","1,0,0","0","city","21","probe-116","0.7428012564854461","0.3811886865534947","0.1757526995090088","0","","","","","","","",""
"","html-keyboard-response","131","596872","0.0-75.0-1.0","""event"",""trial"",""time""
""fullscreenenter"",""0"",""2545""
","
","
","""event"",""trial"",""time""
""fullscreenenter"",""0"",""2545""
","
","null","<p></p>","null","","","","","","","","","","","","","","","","","","","","","","",""
"","do_trial","132","603281","0.0-76.0-0.0","""event"",""trial"",""time""
""fullscreenenter"",""0"",""2545""
","
","
","""event"",""trial"",""time""
""fullscreenenter"",""0"",""2545""
","
","1842.7999999523163","","","","","","","","51","1,0,0","0","city","22","probe-199","0.6582492359785188","0.37720189311862684","0.09819292924408225","0","","","","","","","",""
"","html-keyboard-response","133","604285","0.0-76.0-1.0","""event"",""trial"",""time""
""fullscreenenter"",""0"",""2545""
","
","
","""event"",""trial"",""time""
""fullscreenenter"",""0"",""2545""
","
","null","<p></p>","null","","","","","","","","","","","","","","","","","","","","","","",""
"","do_trial","134","609111","0.0-77.0-0.0","""event"",""trial"",""time""
""fullscreenenter"",""0"",""2545""
","
","
","""event"",""trial"",""time""
""fullscreenenter"",""0"",""2545""
","
","281","","","","","","","","49","0,1,0","0","city","23","probe-144","0.6506445957314527","0.4177610865130643","0.1657862877737582","0","","","","","","","",""
"","html-keyboard-response","135","610115","0.0-77.0-1.0","""event"",""trial"",""time""
""fullscreenenter"",""0"",""2545""
","
","
","""event"",""trial"",""time""
""fullscreenenter"",""0"",""2545""
","
","null","<p></p>","null","","","","","","","","","","","","","","","","","","","","","","",""
"","do_trial","136","615146","0.0-78.0-0.0","""event"",""trial"",""time""
""fullscreenenter"",""0"",""2545""
","
","
","""event"",""trial"",""time""
""fullscreenenter"",""0"",""2545""
","
","470.89999985694885","","","","","","","","49","0,0,0","0","city","24","probe-70","0.6203915432658856","0.3760687255268155","0.23085554492041302","0","","","","","","","",""
"","html-keyboard-response","137","616152","0.0-78.0-1.0","""event"",""trial"",""time""
""fullscreenenter"",""0"",""2545""
","
","
","""event"",""trial"",""time""
""fullscreenenter"",""0"",""2545""
","
","null","<p></p>","null","","","","","","","","","","","","","","","","","","","","","","",""
"","do_trial","138","621443","0.0-79.0-0.0","""event"",""trial"",""time""
""fullscreenenter"",""0"",""2545""
","
","
","""event"",""trial"",""time""
""fullscreenenter"",""0"",""2545""
","
","721.5","","","","","","","","49","0,1,0","0","city","25","probe-77","0.575444192653468","0.3313689091539446","0.21409124608814042","0","","","","","","","",""
"","html-keyboard-response","139","622445","0.0-79.0-1.0","""event"",""trial"",""time""
""fullscreenenter"",""0"",""2545""
","
","
","""event"",""trial"",""time""
""fullscreenenter"",""0"",""2545""
","
","null","<p></p>","null","","","","","","","","","","","","","","","","","","","","","","",""
"","do_trial","140","627701","0.0-80.0-0.0","""event"",""trial"",""time""
""fullscreenenter"",""0"",""2545""
","
","
","""event"",""trial"",""time""
""fullscreenenter"",""0"",""2545""
","
","689.4000000953674","","","","","","","","50","0,1,0","0","city","26","probe-171","0.5792506425863199","0.2852955131286666","0.266577232310064","1","","","","","","","",""
"","html-keyboard-response","141","628707","0.0-80.0-1.0","""event"",""trial"",""time""
""fullscreenenter"",""0"",""2545""
","
","
","""event"",""trial"",""time""
""fullscreenenter"",""0"",""2545""
","
","null","<p></p>","null","","","","","","","","","","","","","","","","","","","","","","",""
"","do_trial","142","634777","0.0-81.0-0.0","""event"",""trial"",""time""
""fullscreenenter"",""0"",""2545""
","
","
","""event"",""trial"",""time""
""fullscreenenter"",""0"",""2545""
","
","null","","","","","","","","null","1,0,1","0","city","27","probe-61","0.5294458682220282","0.33275121226587734","0.2970446388891309","","","","","","","","",""
"","html-keyboard-response","143","635784","0.0-81.0-1.0","""event"",""trial"",""time""
""fullscreenenter"",""0"",""2545""
","
","
","""event"",""trial"",""time""
""fullscreenenter"",""0"",""2545""
","
","null","<p></p>","null","","","","","","","","","","","","","","","","","","","","","","",""
"","do_trial","144","640821","0.0-82.0-0.0","""event"",""trial"",""time""
""fullscreenenter"",""0"",""2545""
","
","
","""event"",""trial"",""time""
""fullscreenenter"",""0"",""2545""
","
","470.39999985694885","","","","","","","","50","0,0,1","0","city","28","probe-44","0.39531643699755775","0.28646885560835195","0.2647959065374069","0","","","","","","","",""
"","html-keyboard-response","145","641827","0.0-82.0-1.0","""event"",""trial"",""time""
""fullscreenenter"",""0"",""2545""
","
","
","""event"",""trial"",""time""
""fullscreenenter"",""0"",""2545""
","
","null","<p></p>","null","","","","","","","","","","","","","","","","","","","","","","",""
"","do_trial","146","646641","0.0-83.0-0.0","""event"",""trial"",""time""
""fullscreenenter"",""0"",""2545""
","
","
","""event"",""trial"",""time""
""fullscreenenter"",""0"",""2545""
","
","251.70000004768372","","","","","","","","49","0,0,0","0","city","29","probe-138","0.3977385075247048","0.3401378830407926","0.21759563868029708","0","","","","","","","",""
"","html-keyboard-response","147","647644","0.0-83.0-1.0","""event"",""trial"",""time""
""fullscreenenter"",""0"",""2545""
","
","
","""event"",""trial"",""time""
""fullscreenenter"",""0"",""2545""
","
","null","<p></p>","null","","","","","","","","","","","","","","","","","","","","","","",""
"","do_bye","148","649154","0.0-84.0-0.0","""event"",""trial"",""time""
""fullscreenenter"",""0"",""2545""
","
","
","""event"",""trial"",""time""
""fullscreenenter"",""0"",""2545""
","
","null","","","","","","","","null","","","","","","","","","","","","","","","","",""
"","break","149","649197","0.0-84.0-1.0","""event"",""trial"",""time""
""fullscreenenter"",""0"",""2545""
","
","
","""event"",""trial"",""time""
""fullscreenenter"",""0"",""2545""
","
","40.799999952316284","<div class='center'><p>Time to take a quick break! You have 2 minutes to rest, but you can move on sooner if you'd like.</p><p> Press the <b>space bar</b> to continue.</p></div>","32","","","","","","","","","","","","","","","","","","","","","","",""
"","do_travel","150","658200","0.0-85.0-0.0","""event"",""trial"",""time""
""fullscreenenter"",""0"",""2545""
","
","
","""event"",""trial"",""time""
""fullscreenenter"",""0"",""2545""
","
","null","","","","","","","","null","","","","","","","","","","","","","","","","",""
"","do_welcome","151","662211","0.0-85.0-1.0","""event"",""trial"",""time""
""fullscreenenter"",""0"",""2545""
","
","
","""event"",""trial"",""time""
""fullscreenenter"",""0"",""2545""
","
","null","","","","","","","","null","","","","","","","","","","","","","","","","",""
"","do_trial","152","667507","0.0-86.0-0.0","""event"",""trial"",""time""
""fullscreenenter"",""0"",""2545""
","
","
","""event"",""trial"",""time""
""fullscreenenter"",""0"",""2545""
","
","729.2999999523163","","","","","","","","49","1,1,0","1","mountain","30","probe-49","1","0.24502958388538218","0.13579274062132357","1","","","","","","","",""
"","html-keyboard-response","153","668513","0.0-86.0-1.0","""event"",""trial"",""time""
""fullscreenenter"",""0"",""2545""
","
","
","""event"",""trial"",""time""
""fullscreenenter"",""0"",""2545""
","
","null","<p></p>","null","","","","","","","","","","","","","","","","","","","","","","",""
"","do_trial","154","673337","0.0-87.0-0.0","""event"",""trial"",""time""
""fullscreenenter"",""0"",""2545""
","
","
","""event"",""trial"",""time""
""fullscreenenter"",""0"",""2545""
","
","262.09999990463257","","","","","","","","49","1,0,0","1","mountain","31","probe-162","1","0.3232517214195461","0.05975013509584895","1","","","","","","","",""
"","html-keyboard-response","155","674342","0.0-87.0-1.0","""event"",""trial"",""time""
""fullscreenenter"",""0"",""2545""
","
","
","""event"",""trial"",""time""
""fullscreenenter"",""0"",""2545""
","
","null","<p></p>","null","","","","","","","","","","","","","","","","","","","","","","",""
"","do_trial","156","680398","0.0-88.0-0.0","""event"",""trial"",""time""
""fullscreenenter"",""0"",""2545""
","
","
","""event"",""trial"",""time""
""fullscreenenter"",""0"",""2545""
","
","null","","","","","","","","null","1,0,0","1","mountain","32","probe-201","1","0.2565768051266519","0.09936692881932226","","","","","","","","",""
"","html-keyboard-response","157","681401","0.0-88.0-1.0","""event"",""trial"",""time""
""fullscreenenter"",""0"",""2545""
","
","
","""event"",""trial"",""time""
""fullscreenenter"",""0"",""2545""
","
","null","<p></p>","null","","","","","","","","","","","","","","","","","","","","","","",""
"","do_trial","158","686385","0.0-89.0-0.0","""event"",""trial"",""time""
""fullscreenenter"",""0"",""2545""
","
","
","""event"",""trial"",""time""
""fullscreenenter"",""0"",""2545""
","
","420.10000014305115","","","","","","","","49","1,0,0","1","mountain","33","probe-46","0.8280884090936119","0.2778212154844232","0.11522981913097985","1","","","","","","","",""
"","html-keyboard-response","159","687387","0.0-89.0-1.0","""event"",""trial"",""time""
""fullscreenenter"",""0"",""2545""
","
","
","""event"",""trial"",""time""
""fullscreenenter"",""0"",""2545""
","
","null","<p></p>","null","","","","","","","","","","","","","","","","","","","","","","",""
"","do_trial","160","692089","0.0-90.0-0.0","""event"",""trial"",""time""
""fullscreenenter"",""0"",""2545""
","
","
","""event"",""trial"",""time""
""fullscreenenter"",""0"",""2545""
","
","138.40000009536743","","","","","","","","49","1,0,0","1","mountain","34","probe-229","0.7874565317308051","0.3604914184891682","0.09562233890758505","1","","","","","","","",""
"","html-keyboard-response","161","693095","0.0-90.0-1.0","""event"",""trial"",""time""
""fullscreenenter"",""0"",""2545""
","
","
","""event"",""trial"",""time""
""fullscreenenter"",""0"",""2545""
","
","null","<p></p>","null","","","","","","","","","","","","","","","","","","","","","","",""
"","do_trial","162","698339","0.0-91.0-0.0","""event"",""trial"",""time""
""fullscreenenter"",""0"",""2545""
","
","
","""event"",""trial"",""time""
""fullscreenenter"",""0"",""2545""
","
","678.7999999523163","","","","","","","","49","0,0,0","1","mountain","35","probe-219","0.6682129003550173","0.3150167344369747","0.21019451722951638","0","","","","","","","",""
"","html-keyboard-response","163","699343","0.0-91.0-1.0","""event"",""trial"",""time""
""fullscreenenter"",""0"",""2545""
","
","
","""event"",""trial"",""time""
""fullscreenenter"",""0"",""2545""
","
","null","<p></p>","null","","","","","","","","","","","","","","","","","","","","","","",""
"","do_trial","164","704096","0.0-92.0-0.0","""event"",""trial"",""time""
""fullscreenenter"",""0"",""2545""
","
","
","""event"",""trial"",""time""
""fullscreenenter"",""0"",""2545""
","
","193.30000019073486","","","","","","","","49","1,1,0","1","mountain","36","probe-48","0.49997727549005233","0.5331220918383193","0.1933813377115233","1","","","","","","","",""
"","html-keyboard-response","165","705103","0.0-92.0-1.0","""event"",""trial"",""time""
""fullscreenenter"",""0"",""2545""
","
","
","""event"",""trial"",""time""
""fullscreenenter"",""0"",""2545""
","
","null","<p></p>","null","","","","","","","","","","","","","","","","","","","","","","",""
"","do_trial","166","710424","0.0-93.0-0.0","""event"",""trial"",""time""
""fullscreenenter"",""0"",""2545""
","
","
","""event"",""trial"",""time""
""fullscreenenter"",""0"",""2545""
","
","756.2000000476837","","","","","","","","49","0,1,0","1","mountain","37","probe-148","0.5588567767525183","0.475077445159857","0.2024248278604538","0","","","","","","","",""
"","html-keyboard-response","167","711430","0.0-93.0-1.0","""event"",""trial"",""time""
""fullscreenenter"",""0"",""2545""
","
","
","""event"",""trial"",""time""
""fullscreenenter"",""0"",""2545""
","
","null","<p></p>","null","","","","","","","","","","","","","","","","","","","","","","",""
"","do_trial","168","717206","0.0-94.0-0.0","""event"",""trial"",""time""
""fullscreenenter"",""0"",""2545""
","
","
","""event"",""trial"",""time""
""fullscreenenter"",""0"",""2545""
","
","1211.3999998569489","","","","","","","","49","1,0,0","1","mountain","38","probe-05","0.48957328319065746","0.4927205508615293","0.23005156271124044","1","","","","","","","",""
"","html-keyboard-response","169","718212","0.0-94.0-1.0","""event"",""trial"",""time""
""fullscreenenter"",""0"",""2545""
","
","
","""event"",""trial"",""time""
""fullscreenenter"",""0"",""2545""
","
","null","<p></p>","null","","","","","","","","","","","","","","","","","","","","","","",""
"","do_trial","170","723245","0.0-95.0-0.0","""event"",""trial"",""time""
""fullscreenenter"",""0"",""2545""
","
","
","""event"",""trial"",""time""
""fullscreenenter"",""0"",""2545""
","
","469","","","","","","","","49","0,0,0","1","mountain","39","probe-227","0.5893565926570484","0.5909410803441191","0.16389197278519388","0","","","","","","","",""
"","html-keyboard-response","171","724254","0.0-95.0-1.0","""event"",""trial"",""time""
""fullscreenenter"",""0"",""2545""
","
","
","""event"",""trial"",""time""
""fullscreenenter"",""0"",""2545""
","
","null","<p></p>","null","","","","","","","","","","","","","","","","","","","","","","",""
"","do_trial","172","729138","0.0-96.0-0.0","""event"",""trial"",""time""
""fullscreenenter"",""0"",""2545""
","
","
","""event"",""trial"",""time""
""fullscreenenter"",""0"",""2545""
","
","319.60000014305115","","","","","","","","49","0,0,0","1","mountain","40","probe-82","0.6457875974513845","0.5537719522133752","0.13137969107337816","0","","","","","","","",""
"","html-keyboard-response","173","730142","0.0-96.0-1.0","""event"",""trial"",""time""
""fullscreenenter"",""0"",""2545""
","
","
","""event"",""trial"",""time""
""fullscreenenter"",""0"",""2545""
","
","null","<p></p>","null","","","","","","","","","","","","","","","","","","","","","","",""
"","do_trial","174","735453","0.0-97.0-0.0","""event"",""trial"",""time""
""fullscreenenter"",""0"",""2545""
","
","
","""event"",""trial"",""time""
""fullscreenenter"",""0"",""2545""
","
","746","","","","","","","","49","0,1,0","1","mountain","41","probe-21","0.5951251570726355","0.5988851055012465","0.09086445032116261","0","","","","","","","",""
"","html-keyboard-response","175","736459","0.0-97.0-1.0","""event"",""trial"",""time""
""fullscreenenter"",""0"",""2545""
","
","
","""event"",""trial"",""time""
""fullscreenenter"",""0"",""2545""
","
","null","<p></p>","null","","","","","","","","","","","","","","","","","","","","","","",""
"","do_trial","176","741392","0.0-98.0-0.0","""event"",""trial"",""time""
""fullscreenenter"",""0"",""2545""
","
","
","""event"",""trial"",""time""
""fullscreenenter"",""0"",""2545""
","
","366.5","","","","","","","","50","1,1,0","1","mountain","42","probe-196","0.4130471757054418","0.541284198844015","0.06744768970034777","1","","","","","","","",""
"","html-keyboard-response","177","742398","0.0-98.0-1.0","""event"",""trial"",""time""
""fullscreenenter"",""0"",""2545""
","
","
","""event"",""trial"",""time""
""fullscreenenter"",""0"",""2545""
","
","null","<p></p>","null","","","","","","","","","","","","","","","","","","","","","","",""
"","do_trial","178","747260","0.0-99.0-0.0","""event"",""trial"",""time""
""fullscreenenter"",""0"",""2545""
","
","
","""event"",""trial"",""time""
""fullscreenenter"",""0"",""2545""
","
","298.39999985694885","","","","","","","","50","0,1,0","1","mountain","43","probe-147","0.3721515401815662","0.5722507424225484","0.10239283753543742","1","","","","","","","",""
"","html-keyboard-response","179","748263","0.0-99.0-1.0","""event"",""trial"",""time""
""fullscreenenter"",""0"",""2545""
","
","
","""event"",""trial"",""time""
""fullscreenenter"",""0"",""2545""
","
","null","<p></p>","null","","","","","","","","","","","","","","","","","","","","","","",""
"","do_trial","180","754330","0.0-100.0-0.0","""event"",""trial"",""time""
""fullscreenenter"",""0"",""2545""
","
","
","""event"",""trial"",""time""
""fullscreenenter"",""0"",""2545""
","
","null","","","","","","","","null","0,1,1","1","mountain","44","probe-143","0.3335160099366471","0.6129246718345119","0.19598007430259756","","","","","","","","",""
"","html-keyboard-response","181","755335","0.0-100.0-1.0","""event"",""trial"",""time""
""fullscreenenter"",""0"",""2545""
","
","
","""event"",""trial"",""time""
""fullscreenenter"",""0"",""2545""
","
","null","<p></p>","null","","","","","","","","","","","","","","","","","","","","","","",""
"","do_trial","182","761736","0.0-101.0-0.0","""event"",""trial"",""time""
""fullscreenenter"",""0"",""2545""
","
","
","""event"",""trial"",""time""
""fullscreenenter"",""0"",""2545""
","
","1832.4000000953674","","","","","","","","50","0,1,0","1","mountain","45","probe-95","0.09244601663955614","0.7299903468686206","0.08822903804820101","1","","","","","","","",""
"","html-keyboard-response","183","762742","0.0-101.0-1.0","""event"",""trial"",""time""
""fullscreenenter"",""0"",""2545""
","
","
","""event"",""trial"",""time""
""fullscreenenter"",""0"",""2545""
","
","null","<p></p>","null","","","","","","","","","","","","","","","","","","","","","","",""
"","do_trial","184","767768","0.0-102.0-0.0","""event"",""trial"",""time""
""fullscreenenter"",""0"",""2545""
","
","
","""event"",""trial"",""time""
""fullscreenenter"",""0"",""2545""
","
","466.19999980926514","","","","","","","","50","0,0,0","1","mountain","46","probe-91","0.06847257352747359","0.7236891725355608","0.0649986958406372","0","","","","","","","",""
"","html-keyboard-response","185","768774","0.0-102.0-1.0","""event"",""trial"",""time""
""fullscreenenter"",""0"",""2545""
","
","
","""event"",""trial"",""time""
""fullscreenenter"",""0"",""2545""
","
","null","<p></p>","null","","","","","","","","","","","","","","","","","","","","","","",""
"","do_trial","186","773340","0.0-103.0-0.0","""event"",""trial"",""time""
""fullscreenenter"",""0"",""2545""
","
","
","""event"",""trial"",""time""
""fullscreenenter"",""0"",""2545""
","
","0.10000014305114746","","","","","","","","50","1,0,0","1","mountain","47","probe-220","0.17406854969069493","0.6288723632262003","0.06815368549262107","0","","","","","","","",""
"","html-keyboard-response","187","774346","0.0-103.0-1.0","""event"",""trial"",""time""
""fullscreenenter"",""0"",""2545""
","
","
","""event"",""trial"",""time""
""fullscreenenter"",""0"",""2545""
","
","null","<p></p>","null","","","","","","","","","","","","","","","","","","","","","","",""
"","do_trial","188","778929","0.0-104.0-0.0","""event"",""trial"",""time""
""fullscreenenter"",""0"",""2545""
","
","
","""event"",""trial"",""time""
""fullscreenenter"",""0"",""2545""
","
","15.800000190734863","","","","","","","","51","0,0,0","1","mountain","48","probe-136","0.10893678341795665","0.6151584703779458","0.06462985308519965","0","","","","","","","",""
"","html-keyboard-response","189","779933","0.0-104.0-1.0","""event"",""trial"",""time""
""fullscreenenter"",""0"",""2545""
","
","
","""event"",""trial"",""time""
""fullscreenenter"",""0"",""2545""
","
","null","<p></p>","null","","","","","","","","","","","","","","","","","","","","","","",""
"","do_trial","190","785537","0.0-105.0-0.0","""event"",""trial"",""time""
""fullscreenenter"",""0"",""2545""
","
","
","""event"",""trial"",""time""
""fullscreenenter"",""0"",""2545""
","
","1041","","","","","","","","49","1,1,0","1","mountain","49","probe-181","0.3270825536937602","0.6054755495521905","0.06934712941522021","1","","","","","","","",""
"","html-keyboard-response","191","786541","0.0-105.0-1.0","""event"",""trial"",""time""
""fullscreenenter"",""0"",""2545""
","
","
","""event"",""trial"",""time""
""fullscreenenter"",""0"",""2545""
","
","null","<p></p>","null","","","","","","","","","","","","","","","","","","","","","","",""
"","do_trial","192","791569","0.0-106.0-0.0","""event"",""trial"",""time""
""fullscreenenter"",""0"",""2545""
","
","
","""event"",""trial"",""time""
""fullscreenenter"",""0"",""2545""
","
","459.10000014305115","","","","","","","","49","0,1,0","1","mountain","50","probe-06","0.3626363775793025","0.7492561307443454","0.0935692496974546","0","","","","","","","",""
"","html-keyboard-response","193","792571","0.0-106.0-1.0","""event"",""trial"",""time""
""fullscreenenter"",""0"",""2545""
","
","
","""event"",""trial"",""time""
""fullscreenenter"",""0"",""2545""
","
","null","<p></p>","null","","","","","","","","","","","","","","","","","","","","","","",""
"","do_trial","194","797717","0.0-107.0-0.0","""event"",""trial"",""time""
""fullscreenenter"",""0"",""2545""
","
","
","""event"",""trial"",""time""
""fullscreenenter"",""0"",""2545""
","
","578.2000000476837","","","","","","","","49","0,1,0","1","mountain","51","probe-179","0.3732688697120483","0.5843498381674334","0.062134362255823854","0","","","","","","","",""
"","html-keyboard-response","195","798723","0.0-107.0-1.0","""event"",""trial"",""time""
""fullscreenenter"",""0"",""2545""
","
","
","""event"",""trial"",""time""
""fullscreenenter"",""0"",""2545""
","
","null","<p></p>","null","","","","","","","","","","","","","","","","","","","","","","",""
"","do_trial","196","803549","0.0-108.0-0.0","""event"",""trial"",""time""
""fullscreenenter"",""0"",""2545""
","
","
","""event"",""trial"",""time""
""fullscreenenter"",""0"",""2545""
","
","262.59999990463257","","","","","","","","49","0,0,1","1","mountain","52","probe-104","0.3605598322097676","0.5985493264563406","0.10047402706489919","0","","","","","","","",""
"","html-keyboard-response","197","804551","0.0-108.0-1.0","""event"",""trial"",""time""
""fullscreenenter"",""0"",""2545""
","
","
","""event"",""trial"",""time""
""fullscreenenter"",""0"",""2545""
","
","null","<p></p>","null","","","","","","","","","","","","","","","","","","","","","","",""
"","do_trial","198","809206","0.0-109.0-0.0","""event"",""trial"",""time""
""fullscreenenter"",""0"",""2545""
","
","
","""event"",""trial"",""time""
""fullscreenenter"",""0"",""2545""
","
","86.59999990463257","","","","","","","","51","0,1,1","1","mountain","53","probe-125","0.2824211318228761","0.7647280335345016","0.14925170660036968","1","","","","","","","",""
"","html-keyboard-response","199","810210","0.0-109.0-1.0","""event"",""trial"",""time""
""fullscreenenter"",""0"",""2545""
","
","
","""event"",""trial"",""time""
""fullscreenenter"",""0"",""2545""
","
","null","<p></p>","null","","","","","","","","","","","","","","","","","","","","","","",""
"","do_trial","200","815356","0.0-110.0-0.0","""event"",""trial"",""time""
""fullscreenenter"",""0"",""2545""
","
","
","""event"",""trial"",""time""
""fullscreenenter"",""0"",""2545""
","
","575.5","","","","","","","","51","0,1,0","1","mountain","54","probe-216","0.2878340582766512","0.8380559546979156","0.15869650366363877","0","","","","","","","",""
"","html-keyboard-response","201","816362","0.0-110.0-1.0","""event"",""trial"",""time""
""fullscreenenter"",""0"",""2545""
","
","
","""event"",""trial"",""time""
""fullscreenenter"",""0"",""2545""
","
","null","<p></p>","null","","","","","","","","","","","","","","","","","","","","","","",""
"","do_trial","202","822457","0.0-111.0-0.0","""event"",""trial"",""time""
""fullscreenenter"",""0"",""2545""
","
","
","""event"",""trial"",""time""
""fullscreenenter"",""0"",""2545""
","
","1528.4000000953674","","","","","","","","50","0,0,0","1","mountain","55","probe-81","0.41606478275664616","0.7436744332758402","0.18737874938792004","0","","","","","","","",""
"","html-keyboard-response","203","823464","0.0-111.0-1.0","""event"",""trial"",""time""
""fullscreenenter"",""0"",""2545""
","
","
","""event"",""trial"",""time""
""fullscreenenter"",""0"",""2545""
","
","null","<p></p>","null","","","","","","","","","","","","","","","","","","","","","","",""
"","do_trial","204","828329","0.0-112.0-0.0","""event"",""trial"",""time""
""fullscreenenter"",""0"",""2545""
","
","
","""event"",""trial"",""time""
""fullscreenenter"",""0"",""2545""
","
","293.2000000476837","","","","","","","","51","0,1,0","1","mountain","56","probe-02","0.2764489550675688","0.814054027655515","0.13225897737397688","0","","","","","","","",""
"","html-keyboard-response","205","829336","0.0-112.0-1.0","""event"",""trial"",""time""
""fullscreenenter"",""0"",""2545""
","
","
","""event"",""trial"",""time""
""fullscreenenter"",""0"",""2545""
","
","null","<p></p>","null","","","","","","","","","","","","","","","","","","","","","","",""
"","do_trial","206","834669","0.0-113.0-0.0","""event"",""trial"",""time""
""fullscreenenter"",""0"",""2545""
","
","
","""event"",""trial"",""time""
""fullscreenenter"",""0"",""2545""
","
","757.8999998569489","","","","","","","","51","0,0,0","1","mountain","57","probe-89","0.22886550709965484","0.6459114878360234","0.08368096032170012","0","","","","","","","",""
"","html-keyboard-response","207","835672","0.0-113.0-1.0","""event"",""trial"",""time""
""fullscreenenter"",""0"",""2545""
","
","
","""event"",""trial"",""time""
""fullscreenenter"",""0"",""2545""
","
","null","<p></p>","null","","","","","","","","","","","","","","","","","","","","","","",""
"","do_trial","208","840810","0.0-114.0-0.0","""event"",""trial"",""time""
""fullscreenenter"",""0"",""2545""
","
","
","""event"",""trial"",""time""
""fullscreenenter"",""0"",""2545""
","
","568.3000001907349","","","","","","","","51","0,1,1","1","mountain","58","probe-15","0.14617260206777496","0.7083202152187705","0.10885463737780424","1","","","","","","","",""
"","html-keyboard-response","209","841815","0.0-114.0-1.0","""event"",""trial"",""time""
""fullscreenenter"",""0"",""2545""
","
","
","""event"",""trial"",""time""
""fullscreenenter"",""0"",""2545""
","
","null","<p></p>","null","","","","","","","","","","","","","","","","","","","","","","",""
"","do_trial","210","847158","0.0-115.0-0.0","""event"",""trial"",""time""
""fullscreenenter"",""0"",""2545""
","
","
","""event"",""trial"",""time""
""fullscreenenter"",""0"",""2545""
","
","769.2000000476837","","","","","","","","51","1,1,0","1","mountain","59","probe-57","0.22869356121188947","0.7086712503463237","0.1031750467784184","0","","","","","","","",""
"","html-keyboard-response","211","848162","0.0-115.0-1.0","""event"",""trial"",""time""
""fullscreenenter"",""0"",""2545""
","
","
","""event"",""trial"",""time""
""fullscreenenter"",""0"",""2545""
","
","null","<p></p>","null","","","","","","","","","","","","","","","","","","","","","","",""
"","do_trial","212","852738","0.0-116.0-0.0","""event"",""trial"",""time""
""fullscreenenter"",""0"",""2545""
","
","
","""event"",""trial"",""time""
""fullscreenenter"",""0"",""2545""
","
","0.20000004768371582","","","","","","","","50","0,1,0","1","mountain","60","probe-158","0.19516604841589896","0.6942248473798059","0.09701082599676195","1","","","","","","","",""
"","html-keyboard-response","213","853745","0.0-116.0-1.0","""event"",""trial"",""time""
""fullscreenenter"",""0"",""2545""
","
","
","""event"",""trial"",""time""
""fullscreenenter"",""0"",""2545""
","
","null","<p></p>","null","","","","","","","","","","","","","","","","","","","","","","",""
"","do_trial","214","859118","0.0-117.0-0.0","""event"",""trial"",""time""
""fullscreenenter"",""0"",""2545""
","
","
","""event"",""trial"",""time""
""fullscreenenter"",""0"",""2545""
","
","805.1000001430511","","","","","","","","49","1,1,0","1","mountain","61","probe-183","0.2549913386861114","0.7529674123553176","0.18785106920585076","1","","","","","","","",""
"","html-keyboard-response","215","860125","0.0-117.0-1.0","""event"",""trial"",""time""
""fullscreenenter"",""0"",""2545""
","
","
","""event"",""trial"",""time""
""fullscreenenter"",""0"",""2545""
","
","null","<p></p>","null","","","","","","","","","","","","","","","","","","","","","","",""
"","do_trial","216","865028","0.0-118.0-0.0","""event"",""trial"",""time""
""fullscreenenter"",""0"",""2545""
","
","
","""event"",""trial"",""time""
""fullscreenenter"",""0"",""2545""
","
","327.90000009536743","","","","","","","","49","0,1,0","1","mountain","62","probe-25","0.29855383646208894","0.7144164806576461","0.23742811839872302","0","","","","","","","",""
"","html-keyboard-response","217","866031","0.0-118.0-1.0","""event"",""trial"",""time""
""fullscreenenter"",""0"",""2545""
","
","
","""event"",""trial"",""time""
""fullscreenenter"",""0"",""2545""
","
","null","<p></p>","null","","","","","","","","","","","","","","","","","","","","","","",""
"","do_trial","218","870599","0.0-119.0-0.0","""event"",""trial"",""time""
""fullscreenenter"",""0"",""2545""
","
","
","""event"",""trial"",""time""
""fullscreenenter"",""0"",""2545""
","
","0.20000004768371582","","","","","","","","51","1,1,0","1","mountain","63","probe-128","0.30119681374666174","0.5290317041302873","0.07150781433204402","0","","","","","","","",""
"","html-keyboard-response","219","871604","0.0-119.0-1.0","""event"",""trial"",""time""
""fullscreenenter"",""0"",""2545""
","
","
","""event"",""trial"",""time""
""fullscreenenter"",""0"",""2545""
","
","null","<p></p>","null","","","","","","","","","","","","","","","","","","","","","","",""
"","do_trial","220","877045","0.0-120.0-0.0","""event"",""trial"",""time""
""fullscreenenter"",""0"",""2545""
","
","
","""event"",""trial"",""time""
""fullscreenenter"",""0"",""2545""
","
","869.2000000476837","","","","","","","","51","0,0,0","1","mountain","64","probe-187","0.3102397434548769","0.47498048678351057","0.1366995542803459","0","","","","","","","",""
"","html-keyboard-response","221","878050","0.0-120.0-1.0","""event"",""trial"",""time""
""fullscreenenter"",""0"",""2545""
","
","
","""event"",""trial"",""time""
""fullscreenenter"",""0"",""2545""
","
","null","<p></p>","null","","","","","","","","","","","","","","","","","","","","","","",""
"","do_trial","222","883236","0.0-121.0-0.0","""event"",""trial"",""time""
""fullscreenenter"",""0"",""2545""
","
","
","""event"",""trial"",""time""
""fullscreenenter"",""0"",""2545""
","
","615.1000001430511","","","","","","","","51","0,1,0","1","mountain","65","probe-68","0.32640295764486654","0.6159224876659422","0.05339423988730789","0","","","","","","","",""
"","html-keyboard-response","223","884245","0.0-121.0-1.0","""event"",""trial"",""time""
""fullscreenenter"",""0"",""2545""
","
","
","""event"",""trial"",""time""
""fullscreenenter"",""0"",""2545""
","
","null","<p></p>","null","","","","","","","","","","","","","","","","","","","","","","",""
"","do_trial","224","888819","0.0-122.0-0.0","""event"",""trial"",""time""
""fullscreenenter"",""0"",""2545""
","
","
","""event"",""trial"",""time""
""fullscreenenter"",""0"",""2545""
","
","0.20000004768371582","","","","","","","","51","0,1,0","1","mountain","66","probe-159","0.1568209806761409","0.5886020414704446","0.06005778867043496","0","","","","","","","",""
"","html-keyboard-response","225","889823","0.0-122.0-1.0","""event"",""trial"",""time""
""fullscreenenter"",""0"",""2545""
","
","
","""event"",""trial"",""time""
""fullscreenenter"",""0"",""2545""
","
","null","<p></p>","null","","","","","","","","","","","","","","","","","","","","","","",""
"","do_trial","226","894926","0.0-123.0-0.0","""event"",""trial"",""time""
""fullscreenenter"",""0"",""2545""
","
","
","""event"",""trial"",""time""
""fullscreenenter"",""0"",""2545""
","
","533.6999998092651","","","","","","","","51","1,1,0","1","mountain","67","probe-153","0.25809426940063573","0.6312212689450333","0.07062515657275265","0","","","","","","","",""
"","html-keyboard-response","227","895928","0.0-123.0-1.0","""event"",""trial"",""time""
""fullscreenenter"",""0"",""2545""
","
","
","""event"",""trial"",""time""
""fullscreenenter"",""0"",""2545""
","
","null","<p></p>","null","","","","","","","","","","","","","","","","","","","","","","",""
"","do_trial","228","901063","0.0-124.0-0.0","""event"",""trial"",""time""
""fullscreenenter"",""0"",""2545""
","
","
","""event"",""trial"",""time""
""fullscreenenter"",""0"",""2545""
","
","572.5999999046326","","","","","","","","51","1,1,0","1","mountain","68","probe-175","0.29267382795782754","0.5649956205991022","0.08365122397276546","0","","","","","","","",""
"","html-keyboard-response","229","902069","0.0-124.0-1.0","""event"",""trial"",""time""
""fullscreenenter"",""0"",""2545""
","
","
","""event"",""trial"",""time""
""fullscreenenter"",""0"",""2545""
","
","null","<p></p>","null","","","","","","","","","","","","","","","","","","","","","","",""
"","do_trial","230","907148","0.0-125.0-0.0","""event"",""trial"",""time""
""fullscreenenter"",""0"",""2545""
","
","
","""event"",""trial"",""time""
""fullscreenenter"",""0"",""2545""
","
","510.10000014305115","","","","","","","","49","0,1,0","1","mountain","69","probe-218","0.20729858020488168","0.6395642955769044","0.14141588048998632","0","","","","","","","",""
"","html-keyboard-response","231","908153","0.0-125.0-1.0","""event"",""trial"",""time""
""fullscreenenter"",""0"",""2545""
","
","
","""event"",""trial"",""time""
""fullscreenenter"",""0"",""2545""
","
","null","<p></p>","null","","","","","","","","","","","","","","","","","","","","","","",""
"","do_bye","232","909663","0.0-126.0-0.0","""event"",""trial"",""time""
""fullscreenenter"",""0"",""2545""
","
","
","""event"",""trial"",""time""
""fullscreenenter"",""0"",""2545""
","
","null","","","","","","","","null","","","","","","","","","","","","","","","","",""
"","break","233","909787","0.0-126.0-1.0","""event"",""trial"",""time""
""fullscreenenter"",""0"",""2545""
","
","
","""event"",""trial"",""time""
""fullscreenenter"",""0"",""2545""
","
","121.70000004768372","<div class='center'><p>Time to take a quick break! You have 2 minutes to rest, but you can move on sooner if you'd like.</p><p> Press the <b>space bar</b> to continue.</p></div>","32","","","","","","","","","","","","","","","","","","","","","","",""
"","do_travel","234","918794","0.0-127.0-0.0","""event"",""trial"",""time""
""fullscreenenter"",""0"",""2545""
","
","
","""event"",""trial"",""time""
""fullscreenenter"",""0"",""2545""
","
","null","","","","","","","","null","","","","","","","","","","","","","","","","",""
"","do_welcome","235","922806","0.0-127.0-1.0","""event"",""trial"",""time""
""fullscreenenter"",""0"",""2545""
","
","
","""event"",""trial"",""time""
""fullscreenenter"",""0"",""2545""
","
","null","","","","","","","","null","","","","","","","","","","","","","","","","",""
"","do_trial","236","928751","0.0-128.0-0.0","""event"",""trial"",""time""
""fullscreenenter"",""0"",""2545""
","
","
","""event"",""trial"",""time""
""fullscreenenter"",""0"",""2545""
","
","1366.8999998569489","","","","","","","","49","0,1,0","2","coast","70","probe-215","0.17661765634827983","1","0.08227076179636242","0","","","","","","","",""
"","html-keyboard-response","237","929753","0.0-128.0-1.0","""event"",""trial"",""time""
""fullscreenenter"",""0"",""2545""
","
","
","""event"",""trial"",""time""
""fullscreenenter"",""0"",""2545""
","
","null","<p></p>","null","","","","","","","","","","","","","","","","","","","","","","",""
"","do_trial","238","934407","0.0-129.0-0.0","""event"",""trial"",""time""
""fullscreenenter"",""0"",""2545""
","
","
","""event"",""trial"",""time""
""fullscreenenter"",""0"",""2545""
","
","78.70000004768372","","","","","","","","50","0,1,1","2","coast","71","probe-222","0.19044719159214318","1","0.09273845475337639","1","","","","","","","",""
"","html-keyboard-response","239","935412","0.0-129.0-1.0","""event"",""trial"",""time""
""fullscreenenter"",""0"",""2545""
","
","
","""event"",""trial"",""time""
""fullscreenenter"",""0"",""2545""
","
","null","<p></p>","null","","","","","","","","","","","","","","","","","","","","","","",""
"","do_trial","240","940182","0.0-130.0-0.0","""event"",""trial"",""time""
""fullscreenenter"",""0"",""2545""
","
","
","""event"",""trial"",""time""
""fullscreenenter"",""0"",""2545""
","
","195.79999995231628","","","","","","","","50","0,1,0","2","coast","72","probe-34","0.28087648156482237","0.7046188213647737","0.205982575571622","1","","","","","","","",""
"","html-keyboard-response","241","941185","0.0-130.0-1.0","""event"",""trial"",""time""
""fullscreenenter"",""0"",""2545""
","
","
","""event"",""trial"",""time""
""fullscreenenter"",""0"",""2545""
","
","null","<p></p>","null","","","","","","","","","","","","","","","","","","","","","","",""
"","do_trial","242","948300","0.0-131.0-0.0","""event"",""trial"",""time""
""fullscreenenter"",""0"",""2545""
","
","
","""event"",""trial"",""time""
""fullscreenenter"",""0"",""2545""
","
","2546.4000000953674","","","","","","","","50","0,0,0","2","coast","73","probe-96","0.2609970824895775","0.5654470087952022","0.1096632439931374","0","","","","","","","",""
"","html-keyboard-response","243","949303","0.0-131.0-1.0","""event"",""trial"",""time""
""fullscreenenter"",""0"",""2545""
","
","
","""event"",""trial"",""time""
""fullscreenenter"",""0"",""2545""
","
","null","<p></p>","null","","","","","","","","","","","","","","","","","","","","","","",""
"","do_trial","244","955035","0.0-132.0-0.0","""event"",""trial"",""time""
""fullscreenenter"",""0"",""2545""
","
","
","""event"",""trial"",""time""
""fullscreenenter"",""0"",""2545""
","
","1167.2000000476837","","","","","","","","50","0,0,0","2","coast","74","probe-111","0.20900582178781033","0.475119841638095","0.16745503171531076","0","","","","","","","",""
"","html-keyboard-response","245","956039","0.0-132.0-1.0","""event"",""trial"",""time""
""fullscreenenter"",""0"",""2545""
","
","
","""event"",""trial"",""time""
""fullscreenenter"",""0"",""2545""
","
","null","<p></p>","null","","","","","","","","","","","","","","","","","","","","","","",""
"","do_trial","246","960607","0.0-133.0-0.0","""event"",""trial"",""time""
""fullscreenenter"",""0"",""2545""
","
","
","""event"",""trial"",""time""
""fullscreenenter"",""0"",""2545""
","
","0.20000004768371582","","","","","","","","50","0,1,0","2","coast","75","probe-52","0.1976409785601349","0.6615074663282573","0.13383063560196296","1","","","","","","","",""
"","html-keyboard-response","247","961611","0.0-133.0-1.0","""event"",""trial"",""time""
""fullscreenenter"",""0"",""2545""
","
","
","""event"",""trial"",""time""
""fullscreenenter"",""0"",""2545""
","
","null","<p></p>","null","","","","","","","","","","","","","","","","","","","","","","",""
"","do_trial","248","967267","0.0-134.0-0.0","""event"",""trial"",""time""
""fullscreenenter"",""0"",""2545""
","
","
","""event"",""trial"",""time""
""fullscreenenter"",""0"",""2545""
","
","1090.7999999523163","","","","","","","","50","1,0,0","2","coast","76","probe-139","0.31686766913159525","0.6335317794639272","0.06683265417202686","0","","","","","","","",""
"","html-keyboard-response","249","968271","0.0-134.0-1.0","""event"",""trial"",""time""
""fullscreenenter"",""0"",""2545""
","
","
","""event"",""trial"",""time""
""fullscreenenter"",""0"",""2545""
","
","null","<p></p>","null","","","","","","","","","","","","","","","","","","","","","","",""
"","do_trial","250","974622","0.0-135.0-0.0","""event"",""trial"",""time""
""fullscreenenter"",""0"",""2545""
","
","
","""event"",""trial"",""time""
""fullscreenenter"",""0"",""2545""
","
","1783.5","","","","","","","","50","0,0,0","2","coast","77","probe-200","0.30504660727979777","0.579863972294744","0.08663580321865644","0","","","","","","","",""
"","html-keyboard-response","251","975625","0.0-135.0-1.0","""event"",""trial"",""time""
""fullscreenenter"",""0"",""2545""
","
","
","""event"",""trial"",""time""
""fullscreenenter"",""0"",""2545""
","
","null","<p></p>","null","","","","","","","","","","","","","","","","","","","","","","",""
"","do_trial","252","982031","0.0-136.0-0.0","""event"",""trial"",""time""
""fullscreenenter"",""0"",""2545""
","
","
","""event"",""trial"",""time""
""fullscreenenter"",""0"",""2545""
","
","1839","","","","","","","","50","0,0,0","2","coast","78","probe-100","0.3154823130271185","0.5144959771828232","0.07174535291494265","0","","","","","","","",""
"","html-keyboard-response","253","983034","0.0-136.0-1.0","""event"",""trial"",""time""
""fullscreenenter"",""0"",""2545""
","
","
","""event"",""trial"",""time""
""fullscreenenter"",""0"",""2545""
","
","null","<p></p>","null","","","","","","","","","","","","","","","","","","","","","","",""
"","do_trial","254","988383","0.0-137.0-0.0","""event"",""trial"",""time""
""fullscreenenter"",""0"",""2545""
","
","
","""event"",""trial"",""time""
""fullscreenenter"",""0"",""2545""
","
","787.1000001430511","","","","","","","","50","0,1,1","2","coast","79","probe-221","0.31138518071968746","0.5999557891894396","0.06572923809579748","1","","","","","","","",""
"","html-keyboard-response","255","989390","0.0-137.0-1.0","""event"",""trial"",""time""
""fullscreenenter"",""0"",""2545""
","
","
","""event"",""trial"",""time""
""fullscreenenter"",""0"",""2545""
","
","null","<p></p>","null","","","","","","","","","","","","","","","","","","","","","","",""
"","do_trial","256","994886","0.0-138.0-0.0","""event"",""trial"",""time""
""fullscreenenter"",""0"",""2545""
","
","
","""event"",""trial"",""time""
""fullscreenenter"",""0"",""2545""
","
","929.9000000953674","","","","","","","","50","0,1,0","2","coast","80","probe-31","0.3991109525569652","0.5783470329412816","0.0765767710935787","1","","","","","","","",""
"","html-keyboard-response","257","995890","0.0-138.0-1.0","""event"",""trial"",""time""
""fullscreenenter"",""0"",""2545""
","
","
","""event"",""trial"",""time""
""fullscreenenter"",""0"",""2545""
","
","null","<p></p>","null","","","","","","","","","","","","","","","","","","","","","","",""
"","do_trial","258","1000451","0.0-139.0-0.0","""event"",""trial"",""time""
""fullscreenenter"",""0"",""2545""
","
","
","""event"",""trial"",""time""
""fullscreenenter"",""0"",""2545""
","
","0.20000004768371582","","","","","","","","50","0,0,0","2","coast","81","probe-45","0.3411277583965833","0.5187559841557582","0.07605703213021911","0","","","","","","","",""
"","html-keyboard-response","259","1001455","0.0-139.0-1.0","""event"",""trial"",""time""
""fullscreenenter"",""0"",""2545""
","
","
","""event"",""trial"",""time""
""fullscreenenter"",""0"",""2545""
","
","null","<p></p>","null","","","","","","","","","","","","","","","","","","","","","","",""
"","do_trial","260","1006111","0.0-140.0-0.0","""event"",""trial"",""time""
""fullscreenenter"",""0"",""2545""
","
","
","""event"",""trial"",""time""
""fullscreenenter"",""0"",""2545""
","
","85.09999990463257","","","","","","","","50","1,0,0","2","coast","82","probe-85","0.4004095545790936","0.475199828394781","0.16013045636749249","0","","","","","","","",""
"","html-keyboard-response","261","1007116","0.0-140.0-1.0","""event"",""trial"",""time""
""fullscreenenter"",""0"",""2545""
","
","
","""event"",""trial"",""time""
""fullscreenenter"",""0"",""2545""
","
