"success","trial_type","trial_index","time_elapsed","internal_node_id","rt","stimulus","key_press","subject_id","response","choice_outcomes","context_n","context_img_id","trial_n","probe_img_id","pR_red","pR_white","pR_black","outcome","contextArray_ind","validImageProbes","invalidImageProbes","pRew_Red","pRew_White","pRew_Black","availableForMemProbe","choice_blocks"
"true","fullscreen","0","6005","0.0-0.0","","","","","","","","","","","","","","","","","","","","","",""
"","pavlovia","1","6009","0.0-1.0","","","","","","","","","","","","","","","","","","","","","",""
"","html-keyboard-response","2","20176","0.0-2.0","14165.300000011921","<div class='center'><p>Welcome! This is the first day of the experiment which will last ~30 minutes. In this experiment, you are the head captain of a pirate ship traveling around the world to different places. You will complete several different tasks during this experiment. Here is an overview of these tasks:</p><br><p>Day 1</p><p>1. Tutorial and quiz</p><p>2. Pick a pirate game in 6 different places</p><br><p>Day 2</p><p>3. Pick a pirate game and memory game</p><p>4. Final questions and payment</p><br><p>If you complete the entire experiment, you will receive $15 and a possible bonus payment.</p><p><b>[Press the space bar to begin the tutorial]</b></p></div>","32","60fd6b02340bf3233276eba9","","","","","","","","","","","","","","","","","",""
"","html-keyboard-response","3","28845","0.0-3.0","8667.899999976158","<div class='center'><p>You’ll stop at these 6 islands on your journey. You'll be able to see them in the distance from your ship.</p><p><img src='run_exp/static/images/contexts/all_contexts.png' height='500'></p><p><b>[Press the space bar to continue]</b></p></div>","32","","","","","","","","","","","","","","","","","","",""
"","html-keyboard-response","4","49855","0.0-4.0","21008.80000001192","<div class='center'><p> The pirates on your ship will rob other ships as they leave island</p> These ships have just sold their things to the people living on the island, so they will have lots and lots of gold on them.</p><p><img src='run_exp/static/images/tutorial/ship_center.png' height='400'></p><p><b>[Press the space bar to continue]</b></p></div>","32","","","","","","","","","","","","","","","","","","",""
"","html-keyboard-response","5","57235","0.0-5.0","7378.800000011921","<div class='center'><p>As the head captain, you do not have to rob any ships yourself.</p><p>Another pirate will be doing the robbing for you. </p><p><img src='run_exp/static/images/tutorial/pirates_all_crop.png' height='200'></p><p>If they could rob the ship, then you will get a stack of gold coins like this:</p><p><img src='run_exp/static/images/tutorial/reward.png' height='150'></p><p> If they couldn't rob the ship, then you will get no gold coins and you'll see a big red x like this: </p><p><img src='run_exp/static/images/tutorial/reward_no.png' height='150'></p><p> How much bonus money you make is based on how many gold coins you collect.</p><p><b>[Press the space bar to continue]</b></p><div>","32","","","","","","","","","","","","","","","","","","",""
"","html-keyboard-response","6","66893","0.0-6.0","9656.300000011921","<div class='center'><p>Even the most skilled pirate can not rob EVERY ship.</p><p> Some ships will have very strong defenses against pirate attacks.</p><p> For example, blue beard, here, is very, very good at robbing ships.</p><p> You can press the <b>‘1’</b> button on the keyboard to choose him.</p><p> Try choosing him 10 times to see how often he can rob a ship. </p><p><img src='run_exp/static/images/tutorial/blue.png' height='500'></p></div>","49","","","","","","","","","","","","","","","","","","",""
"","html-keyboard-response","7","68398","0.0-7.0","null","<div class='center'><p><img src='run_exp/static/images/tutorial/blue_win.png' height='500'></p></div>","null","","","","","","","","","","","","","","","","","","",""
"","html-keyboard-response","8","69479","0.0-8.0","1079.5","<div class='center'><img src='run_exp/static/images/tutorial/blue.png' height='500'></p></div>","49","","","","","","","","","","","","","","","","","","",""
"","html-keyboard-response","9","70981","0.0-9.0","null","<div class='center'><p><img src='run_exp/static/images/tutorial/blue_win.png' height='500'></p></div>","null","","","","","","","","","","","","","","","","","","",""
"","html-keyboard-response","10","71343","0.0-10.0","361.59999999403954","<div class='center'><img src='run_exp/static/images/tutorial/blue.png' height='500'></p></div>","49","","","","","","","","","","","","","","","","","","",""
"","html-keyboard-response","11","72845","0.0-11.0","null","<div class='center'><p><img src='run_exp/static/images/tutorial/blue_win.png' height='500'></p></div>","null","","","","","","","","","","","","","","","","","","",""
"","html-keyboard-response","12","73004","0.0-12.0","157.80000001192093","<div class='center'><img src='run_exp/static/images/tutorial/blue.png' height='500'></p></div>","49","","","","","","","","","","","","","","","","","","",""
"","html-keyboard-response","13","74506","0.0-13.0","null","<div class='center'><p><img src='run_exp/static/images/tutorial/blue_no_win.png' height='500'></p></div>","null","","","","","","","","","","","","","","","","","","",""
"","html-keyboard-response","14","74669","0.0-14.0","162.7999999821186","<div class='center'><img src='run_exp/static/images/tutorial/blue.png' height='500'></p></div>","49","","","","","","","","","","","","","","","","","","",""
"","html-keyboard-response","15","76172","0.0-15.0","null","<div class='center'><p><img src='run_exp/static/images/tutorial/blue_win.png' height='500'></p></div>","null","","","","","","","","","","","","","","","","","","",""
"","html-keyboard-response","16","76667","0.0-16.0","494.40000000596046","<div class='center'><img src='run_exp/static/images/tutorial/blue.png' height='500'></p></div>","49","","","","","","","","","","","","","","","","","","",""
"","html-keyboard-response","17","78169","0.0-17.0","null","<div class='center'><p><img src='run_exp/static/images/tutorial/blue_win.png' height='500'></p></div>","null","","","","","","","","","","","","","","","","","","",""
"","html-keyboard-response","18","78447","0.0-18.0","278","<div class='center'><img src='run_exp/static/images/tutorial/blue.png' height='500'></p></div>","49","","","","","","","","","","","","","","","","","","",""
"","html-keyboard-response","19","79953","0.0-19.0","null","<div class='center'><p><img src='run_exp/static/images/tutorial/blue_win.png' height='500'></p></div>","null","","","","","","","","","","","","","","","","","","",""
"","html-keyboard-response","20","80077","0.0-20.0","122.90000000596046","<div class='center'><img src='run_exp/static/images/tutorial/blue.png' height='500'></p></div>","49","","","","","","","","","","","","","","","","","","",""
"","html-keyboard-response","21","81583","0.0-21.0","null","<div class='center'><p><img src='run_exp/static/images/tutorial/blue_no_win.png' height='500'></p></div>","null","","","","","","","","","","","","","","","","","","",""
"","html-keyboard-response","22","81665","0.0-22.0","81.69999998807907","<div class='center'><img src='run_exp/static/images/tutorial/blue.png' height='500'></p></div>","49","","","","","","","","","","","","","","","","","","",""
"","html-keyboard-response","23","83170","0.0-23.0","null","<div class='center'><p><img src='run_exp/static/images/tutorial/blue_win.png' height='500'></p></div>","null","","","","","","","","","","","","","","","","","","",""
"","html-keyboard-response","24","83249","0.0-24.0","78.40000000596046","<div class='center'><img src='run_exp/static/images/tutorial/blue.png' height='500'></p></div>","49","","","","","","","","","","","","","","","","","","",""
"","html-keyboard-response","25","84754","0.0-25.0","null","<div class='center'><p><img src='run_exp/static/images/tutorial/blue_win.png' height='500'></p></div>","null","","","","","","","","","","","","","","","","","","",""
"","html-keyboard-response","26","86585","0.0-26.0","1830.0999999940395","<div class='center'><p> See, he could rob the ships most of the time but not every time. </p><p><b>[Press the space bar to continue]</b></p></div>","32","","","","","","","","","","","","","","","","","","",""
"","html-keyboard-response","27","91134","0.0-27.0","4548.0999999940395","<div class='center'><p>You will get to choose which of three pirates you want to rob the next ship. <p>Press the <b>‘1’</b> button on your keyboard to pick the pirate with the red beard.</p><p> Press <b>‘2’</b> to pick the pirate with the white beard.</p><p> Press <b>‘3’</b> to pick the pirate with the black beard.</p><p>Try picking a pirate now!</p><p><img src='run_exp/static/images/tutorial/all_pirates.png' height='500'></p></div>","49","","","","","","","","","","","","","","","","","","",""
"","html-keyboard-response","28","92766","0.0-28.0-0.0","1631","<div class='center'><p>This pirate could rob the ship!</p><p><img src='run_exp/static/images/tutorial/red_win.png' height='500'></p><p><b>[Press the space bar to continue]</b></p></div>","32","","","","","","","","","","","","","","","","","","",""
"","html-keyboard-response","29","94379","0.0-28.0-1.0","1611.7999999821186","<div class='center'><p>Now try choosing another</p><p><img src='run_exp/static/images/tutorial/all_pirates.png' height='500'></p></div>","51","","","","","","","","","","","","","","","","","","",""
"","html-keyboard-response","30","95463","0.0-29.0-0.0","1082.8999999761581","<div class='center'><p>This pirate could not rob the ship!</p><p><img src='run_exp/static/images/tutorial/black_no_win.png' height='500'></p><p><b>[Press the space bar to continue]</b></p></div>","32","","","","","","","","","","","","","","","","","","",""
"","html-keyboard-response","31","100475","0.0-30.0-0.0","5011.799999982119","<div class='center'><p>If you don’t make your choice fast enough, you’ll have to wait a few seconds before you can make another one. </p><p>You can’t collect more gold coins. You just have to sit and wait.</p><p><img src='run_exp/static/images/miscellaneous/hurry_up.png' height='500'></p><p><b>[Press the space bar to continue]</b></p></div>","32","","","","","","","","","","","","","","","","","","",""
"","html-keyboard-response","32","120541","0.0-30.0-1.0","20064.30000001192","<div class='center'><p>Once you choose a pirate, you’ll be shown the ship they are robbing.</p><p>You will never rob the same ship twice.</p><p>Ships can be told apart from one another by the image on them.</p><p> Every time you see a ship, you will have to remember on which island you saw it.</p><p> Remembering correctly will help you win more bonus money!</p><p>A helpful strategy is to try to come up with a story of the object on the ship interacting with the current island scene.</p><p> For example, here, you could imagine a mug full of water in the desert. </p><p>For a ship with an apple on it on the forest island, you could imagine an apple falling from a tree in the forest.</p><p><img src='run_exp/static/images/tutorial/example_probe.png' height='500'></p><p><b>[Press the space bar to continue]</b></p></div>","32","","","","","","","","","","","","","","","","","","",""
"","html-keyboard-response","33","126764","0.0-30.0-2.0","6222.0999999940395","<div class='center'><p>How good a pirate is at robbing ships will depend on the current island.</p><p> A pirate may have visited the island many times before and gained a lot of practice robbing ships there.</p><p>So, they're more likely to bring back gold coins than a pirate who has never visited this island before. </p><p><b>[Press the space bar to continue]</b></p></div>","32","","","","","","","","","","","","","","","","","","",""
"","html-keyboard-response","34","137226","0.0-30.0-3.0","10461.59999999404","<div class='center'><p>How good a pirate is at robbing ships can also change over the time spent on the island<p> Ships may hear from islanders about the pirates coming and will improve their protection against the attack. This may make it harder to rob them.</p><p> Ships may also become lazy and lower their protection. This may make it easier to rob them.</p><br><p>Things are always changing on the high seas! So, try your best to pay attention!</p><p><img src='run_exp/static/images/tutorial/contingency.png' height='500'></p><p><b>[Press the space bar to continue]</b></p></div>","32","","","","","","","","","","","","","","","","","","",""
"","html-keyboard-response","35","157944","0.0-30.0-4.0","20716.69999998808","<div class='center'><p>Let's go over the instructions quickly again.You have two important things to do: </p><b><p> 1. Pick the pirate who is the best at robbing ships on the current island.</p></b><b><p> 2. Remember on which island a ship was robbed.</p> </b><p>How much bonus money you make is based on both. </p><br><p>Let’s try a practice game. The game will start by showing you the pirates. First pick a pirate using the <b> 1, 2, 3 </b> buttons on your keyboard. When you are shown a ship, try to remember the island you’re on by making up a story.</p><p> You only have 3 seconds to pick a pirate, so please make a choice quickly! If you are too slow, you’ll have to wait a bit during the time out.</p><p> Don’t feel rushed, but please do try to make a choice every time.</p><p>This is just a practice game, so you’re not playing for money. </p><p> Good luck, remember press <b>'1'</b> to choose red beard, <b>'2'</b> to choose white beard, and <b>'3'</b> to choose black beard</p><p><b>[Press the space bar to begin the practice game]</b></p></div>","32","","","","","","","","","","","","","","","","","","",""
"","do_welcome","36","159453","0.0-30.0-5.0","null","","","","null","","","","","","","","","","","","","","","","",""
"","do_trial","37","164927","0.0-30.0-6.0","961.5","","","","50","1,0,0","","","","","","","","","","","","","","","",""
"","html-keyboard-response","38","165931","0.0-31.0-0.0","null","<p></p>","null","","","","","","","","","","","","","","","","","","",""
"","do_trial","39","171824","0.0-31.0-1.0","1382.4000000059605","","","","51","1,1,0","","","","","","","","","","","","","","","",""
"","html-keyboard-response","40","172825","0.0-32.0-0.0","null","<p></p>","null","","","","","","","","","","","","","","","","","","",""
"","do_trial","41","177826","0.0-32.0-1.0","489.90000000596046","","","","49","1,0,1","","","","","","","","","","","","","","","",""
"","html-keyboard-response","42","178829","0.0-33.0-0.0","null","<p></p>","null","","","","","","","","","","","","","","","","","","",""
"","do_trial","43","184008","0.0-33.0-1.0","669.5","","","","49","0,1,0","","","","","","","","","","","","","","","",""
"","html-keyboard-response","44","185009","0.0-34.0-0.0","null","<p></p>","null","","","","","","","","","","","","","","","","","","",""
"","do_trial","45","190848","0.0-34.0-1.0","1334.800000011921","","","","50","1,0,0","","","","","","","","","","","","","","","",""
"","do_bye","46","192353","0.0-35.0-0.0","null","","","","null","","","","","","","","","","","","","","","","",""
"","do_travel","47","198360","0.0-35.0-1.0","null","","","","null","","","","","","","","","","","","","","","","",""
"","do_welcome","48","199865","0.0-35.0-2.0","null","","","","null","","","","","","","","","","","","","","","","",""
"","do_trial","49","205009","0.0-35.0-3.0","635.8999999761581","","","","51","1,0,0","","","","","","","","","","","","","","","",""
"","html-keyboard-response","50","206011","0.0-36.0-0.0","null","<p></p>","null","","","","","","","","","","","","","","","","","","",""
"","do_trial","51","211266","0.0-36.0-1.0","745.5999999940395","","","","49","1,0,1","","","","","","","","","","","","","","","",""
"","html-keyboard-response","52","212269","0.0-37.0-0.0","null","<p></p>","null","","","","","","","","","","","","","","","","","","",""
"","do_trial","53","217228","0.0-37.0-1.0","449","","","","49","1,1,0","","","","","","","","","","","","","","","",""
"","html-keyboard-response","54","218230","0.0-38.0-0.0","null","<p></p>","null","","","","","","","","","","","","","","","","","","",""
"","do_trial","55","223227","0.0-38.0-1.0","488.19999998807907","","","","50","0,0,1","","","","","","","","","","","","","","","",""
"","html-keyboard-response","56","224230","0.0-39.0-0.0","null","<p></p>","null","","","","","","","","","","","","","","","","","","",""
"","do_trial","57","229247","0.0-39.0-1.0","506.59999999403954","","","","49","1,0,1","","","","","","","","","","","","","","","",""
"","html-keyboard-response","58","231239","0.0-40.0-0.0","1989.5","<div class='center'><p><img src='run_exp/static/images/tutorial/prac_best_pirate.png'  height='500'></p></div>","49","","","","","","","","","","","","","","","","","","",""
"","html-keyboard-response","59","232598","0.0-41.0-0.0","1357.5999999940395","<div class='center'><p>That's correct! Red beard was the best.</p><p><b>[Press the space bar to continue]</b></p></div>","32","","","","","","","","","","","","","","","","","","",""
"","html-keyboard-response","60","235448","0.0-41.0-1.0","2848.9000000059605","<div class='center'><p><img src='run_exp/static/images/tutorial/prac_source.png'  height='500'></p></div>","50","","","","","","","","","","","","","","","","","","",""
"","html-keyboard-response","61","236506","0.0-42.0-0.0","1057.4000000059605","<div class='center'><p>That's correct! You saw this ship on the cavern island.</p><p><b>[Press the space bar to continue]</b></p></div>","32","","","","","","","","","","","","","","","","","","",""
"","html-keyboard-response","62","240358","0.0-42.0-1.0","3851.300000011921","<div class='center'><p>Good job on the practice game! Now, you will be asked you some true or false questions to make sure you really understand the rules of the game.</p><p> Press <b>'1'</b> on the keyboard for true and press <b>'2'</b> for false.</p><p><b>[Press the space bar to begin the quiz]</b></p></div>","32","","","","","","","","","","","","","","","","","","",""
"","html-keyboard-response","63","243614","0.0-42.0-2.0","3255.300000011921","<div class='center'><p>You win bonus money by making choices as fast as possible.</p><p>Press 1 for true and press  2 for false.</p></div>","50","","","","","","","","","","","","","","","","","","",""
"","html-keyboard-response","64","244850","0.0-43.0-0.0","1236","<div class='center'><p>That's correct!</p> <p><b>[press the space bar to continue with the quiz]</b></p></div>","32","","","","","","","","","","","","","","","","","","",""
"","html-keyboard-response","65","248370","0.0-43.0-1.0","3519.4000000059605","<div class='center'><p>You press the <b>‘3’</b> button on the keyboard to choose the red bearded pirate. </p><p>Press 1 for true and press  2 for false.</p></div>","50","","","","","","","","","","","","","","","","","","",""
"","html-keyboard-response","66","249108","0.0-44.0-0.0","736.6000000238419","<div class='center'><p>That's correct!</p> <p><b>[press the space bar to continue with the quiz]</b></p></div>","32","","","","","","","","","","","","","","","","","","",""
"","html-keyboard-response","67","252357","0.0-44.0-1.0","3248.9000000059605","<div class='center'><p>The pirate who is the best at robbing ships on the first island will be the best on every other island.</p><p>Press 1 for true and press  2 for false.</p></div>","50","","","","","","","","","","","","","","","","","","",""
"","html-keyboard-response","68","252965","0.0-45.0-0.0","607.1000000238419","<div class='center'><p>That's correct!</p> <p><b>[press the space bar to continue with the quiz]</b></p></div>","32","","","","","","","","","","","","","","","","","","",""
"","html-keyboard-response","69","256853","0.0-45.0-1.0","3886.5","<div class='center'><p>You should remember the island where a pirate robbed a ship.</p><p>Press 1 for true and press  2 for false.</p></div>","49","","","","","","","","","","","","","","","","","","",""
"","html-keyboard-response","70","257462","0.0-46.0-0.0","602.0999999940395","<div class='center'><p>That's correct!</p> <p><b>[press the space bar to continue with the quiz]</b></p></div>","32","","","","","","","","","","","","","","","","","","",""
"","html-keyboard-response","71","258752","0.0-47.0-0.0","1289.1000000238419","<div class='center'><p>Good job! You’re now ready to move on to the real game!</p> <p><br>[press the space bar to begin!]</br></p></div>","32","","","","","","","","","","","","","","","","","","",""
"","do_welcome","72","260257","0.0-48.0-0.0","null","","","","null","","","","","","","","","","","","","","","","",""
"","do_trial","73","265861","0.0-49.0-0.0","1059.699999988079","","","","49","1,1,0","0","mountain","0","probe-49","0.6","0.3","0.1","1","","","","","","","",""
"","html-keyboard-response","74","266865","0.0-49.0-1.0","null","<p></p>","null","","","","","","","","","","","","","","","","","","",""
"","do_trial","75","272042","0.0-50.0-0.0","633.0999999940395","","","","49","0,0,0","0","mountain","1","probe-132","0.6883044401701427","0.18510278965509827","0.07787256086256424","0","","","","","","","",""
"","html-keyboard-response","76","273048","0.0-50.0-1.0","null","<p></p>","null","","","","","","","","","","","","","","","","","","",""
"","do_trial","77","278802","0.0-51.0-0.0","1209.8999999761581","","","","50","1,0,0","0","mountain","2","probe-11","0.6542539223806856","0.21809535153537554","0.16437072489637067","0","","","","","","","",""
"","html-keyboard-response","78","279805","0.0-51.0-1.0","null","<p></p>","null","","","","","","","","","","","","","","","","","","",""
"","do_trial","79","284710","0.0-52.0-0.0","361.40000000596046","","","","51","0,0,1","0","mountain","3","probe-118","0.6742130841555652","0.28505129894056075","0.30203986930380333","1","","","","","","","",""
"","html-keyboard-response","80","285711","0.0-52.0-1.0","null","<p></p>","null","","","","","","","","","","","","","","","","","","",""
"","do_trial","81","290717","0.0-53.0-0.0","463.09999999403954","","","","51","0,1,0","0","mountain","4","probe-152","0.6409799224944946","0.24317103141232302","0.28987858546295797","0","","","","","","","",""
"","html-keyboard-response","82","291721","0.0-53.0-1.0","null","<p></p>","null","","","","","","","","","","","","","","","","","","",""
"","do_trial","83","297135","0.0-54.0-0.0","870.7999999821186","","","","51","1,0,1","0","mountain","5","probe-08","0.7183197024317","0.26804589910055077","0.2978668866807799","1","","","","","","","",""
"","html-keyboard-response","84","298139","0.0-54.0-1.0","null","<p></p>","null","","","","","","","","","","","","","","","","","","",""
"","do_trial","85","303512","0.0-55.0-0.0","833.6999999880791","","","","49","1,0,0","0","mountain","6","probe-142","0.7870147918367144","0.34089018056063863","0.33350211579749","1","","","","","","","",""
"","html-keyboard-response","86","304517","0.0-55.0-1.0","null","<p></p>","null","","","","","","","","","","","","","","","","","","",""
"","do_trial","87","309566","0.0-56.0-0.0","505.5","","","","49","1,1,0","0","mountain","7","probe-62","0.6686137529070305","0.46158553619695886","0.20446937393735393","1","","","","","","","",""
"","html-keyboard-response","88","310569","0.0-56.0-1.0","null","<p></p>","null","","","","","","","","","","","","","","","","","","",""
"","do_trial","89","316131","0.0-57.0-0.0","1018.5999999940395","","","","49","1,0,1","0","mountain","8","probe-52","0.6980592736035706","0.452878342485681","0.2510738732658029","1","","","","","","","",""
"","html-keyboard-response","90","317135","0.0-57.0-1.0","null","<p></p>","null","","","","","","","","","","","","","","","","","","",""
"","do_trial","91","322082","0.0-58.0-0.0","403.90000000596046","","","","51","0,0,0","0","mountain","9","probe-115","0.6537790945987817","0.36437006474337497","0.10060104235814503","0","","","","","","","",""
"","html-keyboard-response","92","323086","0.0-58.0-1.0","null","<p></p>","null","","","","","","","","","","","","","","","","","","",""
"","do_trial","93","328141","0.0-59.0-0.0","516.6999999880791","","","","49","1,0,0","0","mountain","10","probe-221","0.642039920867081","0.39877167024105553","0.22084519974381955","1","","","","","","","",""
"","html-keyboard-response","94","329145","0.0-59.0-1.0","null","<p></p>","null","","","","","","","","","","","","","","","","","","",""
"","do_trial","95","334199","0.0-60.0-0.0","512.4000000059605","","","","49","1,0,0","0","mountain","11","probe-127","0.6260860314743264","0.4329596425710438","0.1391244752098225","1","","","","","","","",""
"","html-keyboard-response","96","335203","0.0-60.0-1.0","null","<p></p>","null","","","","","","","","","","","","","","","","","","",""
"","do_trial","97","340375","0.0-61.0-0.0","628.7000000178814","","","","49","1,1,0","0","mountain","12","probe-182","0.6403008893461889","0.21189175774347377","0.08812541288326722","1","","","","","","","",""
"","html-keyboard-response","98","341378","0.0-61.0-1.0","null","<p></p>","null","","","","","","","","","","","","","","","","","","",""
"","do_trial","99","346475","0.0-62.0-0.0","555.5999999940395","","","","49","1,0,0","0","mountain","13","probe-96","0.5927128172895149","0.20675999780059914","0.06616110321081782","1","","","","","","","",""
"","html-keyboard-response","100","347478","0.0-62.0-1.0","null","<p></p>","null","","","","","","","","","","","","","","","","","","",""
"","do_trial","101","352458","0.0-63.0-0.0","436","","","","49","1,0,1","0","mountain","14","probe-226","0.6331669111842867","0.17679522553420085","0.13397864695012082","1","","","","","","","",""
"","html-keyboard-response","102","353462","0.0-63.0-1.0","null","<p></p>","null","","","","","","","","","","","","","","","","","","",""
"","do_trial","103","358477","0.0-64.0-0.0","472.5","","","","49","1,1,0","0","mountain","15","probe-106","0.587889826183485","0.1901000332860636","0.17478813005480237","1","","","","","","","",""
"","html-keyboard-response","104","359480","0.0-64.0-1.0","null","<p></p>","null","","","","","","","","","","","","","","","","","","",""
"","do_trial","105","364652","0.0-65.0-0.0","632.3000000119209","","","","49","0,0,0","0","mountain","16","probe-191","0.5085511784135341","0.3818555000109327","0.11985821534502847","0","","","","","","","",""
"","html-keyboard-response","106","365658","0.0-65.0-1.0","null","<p></p>","null","","","","","","","","","","","","","","","","","","",""
"","do_trial","107","370598","0.0-66.0-0.0","396.7000000178814","","","","49","1,0,1","0","mountain","17","probe-161","0.4075060012179293","0.41997528056265426","0.06894702390231792","1","","","","","","","",""
"","html-keyboard-response","108","371602","0.0-66.0-1.0","null","<p></p>","null","","","","","","","","","","","","","","","","","","",""
"","do_trial","109","376699","0.0-67.0-0.0","553.3999999761581","","","","49","0,0,0","0","mountain","18","probe-139","0.41894432449544305","0.43476430848270875","0.18701578480583106","0","","","","","","","",""
"","html-keyboard-response","110","377703","0.0-67.0-1.0","null","<p></p>","null","","","","","","","","","","","","","","","","","","",""
"","do_trial","111","382708","0.0-68.0-0.0","467.2000000178814","","","","49","0,1,0","0","mountain","19","probe-224","0.5625957373999225","0.40106882642613273","0.18888371752607352","0","","","","","","","",""
"","html-keyboard-response","112","383712","0.0-68.0-1.0","null","<p></p>","null","","","","","","","","","","","","","","","","","","",""
"","do_trial","113","388967","0.0-69.0-0.0","712","","","","49","0,0,0","0","mountain","20","probe-146","0.5063750243761445","0.2336655252463986","0.06066323916262597","0","","","","","","","",""
"","html-keyboard-response","114","389970","0.0-69.0-1.0","null","<p></p>","null","","","","","","","","","","","","","","","","","","",""
"","do_trial","115","394933","0.0-70.0-0.0","425.09999999403954","","","","50","1,0,0","0","mountain","21","probe-31","0.5198401950465771","0.2373006290728936","0.09503890440463815","0","","","","","","","",""
"","html-keyboard-response","116","395937","0.0-70.0-1.0","null","<p></p>","null","","","","","","","","","","","","","","","","","","",""
"","do_trial","117","400933","0.0-71.0-0.0","456.30000001192093","","","","50","1,0,0","0","mountain","22","probe-69","0.5180925061201735","0.16610742085688213","0.1449402826004758","0","","","","","","","",""
"","html-keyboard-response","118","401939","0.0-71.0-1.0","null","<p></p>","null","","","","","","","","","","","","","","","","","","",""
"","do_trial","119","406890","0.0-72.0-0.0","412.59999999403954","","","","51","0,0,0","0","mountain","23","probe-17","0.5986466903997616","0.24619025007471393","0.27562172874440444","0","","","","","","","",""
"","html-keyboard-response","120","407894","0.0-72.0-1.0","null","<p></p>","null","","","","","","","","","","","","","","","","","","",""
"","do_trial","121","412952","0.0-73.0-0.0","515.8000000119209","","","","51","1,0,1","0","mountain","24","probe-144","0.6333954983353466","0.22619399643484922","0.33021799162349424","1","","","","","","","",""
"","html-keyboard-response","122","413955","0.0-73.0-1.0","null","<p></p>","null","","","","","","","","","","","","","","","","","","",""
"","do_trial","123","419311","0.0-74.0-0.0","813.5999999940395","","","","51","0,0,0","0","mountain","25","probe-184","0.6919940729196136","0.3958386687384221","0.26692011880911104","0","","","","","","","",""
"","html-keyboard-response","124","420313","0.0-74.0-1.0","null","<p></p>","null","","","","","","","","","","","","","","","","","","",""
"","do_trial","125","425469","0.0-75.0-0.0","612.7000000178814","","","","49","1,0,0","0","mountain","26","probe-207","0.7763636079646108","0.34292916826168446","0.18743104399827323","1","","","","","","","",""
"","html-keyboard-response","126","426476","0.0-75.0-1.0","null","<p></p>","null","","","","","","","","","","","","","","","","","","",""
"","do_trial","127","431663","0.0-76.0-0.0","649.0999999940395","","","","49","0,0,0","0","mountain","27","probe-24","0.5054813603967415","0.3688541294569813","0.1575310982864205","0","","","","","","","",""
"","html-keyboard-response","128","432667","0.0-76.0-1.0","null","<p></p>","null","","","","","","","","","","","","","","","","","","",""
"","do_trial","129","438243","0.0-77.0-0.0","1032.2000000178814","","","","49","1,0,0","0","mountain","28","probe-159","0.6095160548526736","0.3064016236330832","0.0763636887536458","1","","","","","","","",""
"","html-keyboard-response","130","439246","0.0-77.0-1.0","null","<p></p>","null","","","","","","","","","","","","","","","","","","",""
"","do_trial","131","444395","0.0-78.0-0.0","605.6999999880791","","","","49","0,1,0","0","mountain","29","probe-47","0.5670305473011302","0.28976815623295143","0.27122278663962485","0","","","","","","","",""
"","html-keyboard-response","132","445397","0.0-78.0-1.0","null","<p></p>","null","","","","","","","","","","","","","","","","","","",""
"","do_bye","133","446904","0.0-79.0-0.0","null","","","","null","","","","","","","","","","","","","","","","",""
"","do_travel","134","452911","0.0-80.0-0.0","null","","","","null","","","","","","","","","","","","","","","","",""
"","do_welcome","135","454420","0.0-80.0-1.0","null","","","","null","","","","","","","","","","","","","","","","",""
"","do_trial","136","460330","0.0-81.0-0.0","1370.0999999940395","","","","51","1,1,0","1","forest","30","probe-88","1","0.21702973099910844","0.11600030686358861","0","","","","","","","",""
"","html-keyboard-response","137","461335","0.0-81.0-1.0","null","<p></p>","null","","","","","","","","","","","","","","","","","","",""
"","do_trial","138","466564","0.0-82.0-0.0","691","","","","51","1,0,0","1","forest","31","probe-145","1","0.25667665969522424","0.08417702389753229","0","","","","","","","",""
"","html-keyboard-response","139","467568","0.0-82.0-1.0","null","<p></p>","null","","","","","","","","","","","","","","","","","","",""
"","do_trial","140","472522","0.0-83.0-0.0","411.19999998807907","","","","50","1,0,0","1","forest","32","probe-198","1","0.3144683967744191","0.10193610329086567","0","","","","","","","",""
"","html-keyboard-response","141","473526","0.0-83.0-1.0","null","<p></p>","null","","","","","","","","","","","","","","","","","","",""
"","do_trial","142","478408","0.0-84.0-0.0","342.69999998807907","","","","49","1,0,0","1","forest","33","probe-197","0.8211905394995421","0.26571214830526935","0.10855980532712092","1","","","","","","","",""
"","html-keyboard-response","143","479413","0.0-84.0-1.0","null","<p></p>","null","","","","","","","","","","","","","","","","","","",""
"","do_trial","144","484312","0.0-85.0-0.0","359.40000000596046","","","","49","1,1,0","1","forest","34","probe-55","0.6812478994723218","0.32897611103861935","0.19029214934207336","1","","","","","","","",""
"","html-keyboard-response","145","485316","0.0-85.0-1.0","null","<p></p>","null","","","","","","","","","","","","","","","","","","",""
"","do_trial","146","490275","0.0-86.0-0.0","415.09999999403954","","","","49","1,0,0","1","forest","35","probe-05","0.6605817750673013","0.2651913139518148","0.2524603584273034","1","","","","","","","",""
"","html-keyboard-response","147","491279","0.0-86.0-1.0","null","<p></p>","null","","","","","","","","","","","","","","","","","","",""
"","do_trial","148","496197","0.0-87.0-0.0","378.69999998807907","","","","49","1,0,0","1","forest","36","probe-192","0.594739254739896","0.22739503705154437","0.21437468417069977","1","","","","","","","",""
"","html-keyboard-response","149","497200","0.0-87.0-1.0","null","<p></p>","null","","","","","","","","","","","","","","","","","","",""
"","do_trial","150","502117","0.0-88.0-0.0","377.59999999403954","","","","49","1,0,0","1","forest","37","probe-209","0.5021511086831435","0.33951054864133695","0.2485884463503473","1","","","","","","","",""
"","html-keyboard-response","151","503121","0.0-88.0-1.0","null","<p></p>","null","","","","","","","","","","","","","","","","","","",""
"","do_trial","152","508127","0.0-89.0-0.0","462.80000001192093","","","","49","1,0,0","1","forest","38","probe-225","0.5710223357702503","0.22574404044996993","0.2931472805227798","1","","","","","","","",""
"","html-keyboard-response","153","509131","0.0-89.0-1.0","null","<p></p>","null","","","","","","","","","","","","","","","","","","",""
"","do_trial","154","514065","0.0-90.0-0.0","392.40000000596046","","","","49","1,0,1","1","forest","39","probe-61","0.5496604404520948","0.2612472747555795","0.19795497259546563","1","","","","","","","",""
"","html-keyboard-response","155","515069","0.0-90.0-1.0","null","<p></p>","null","","","","","","","","","","","","","","","","","","",""
"","do_trial","156","519758","0.0-91.0-0.0","145.59999999403954","","","","49","1,1,0","1","forest","40","probe-129","0.528120259687743","0.37068183618536965","0.26169911647607325","1","","","","","","","",""
"","html-keyboard-response","157","520761","0.0-91.0-1.0","null","<p></p>","null","","","","","","","","","","","","","","","","","","",""
"","do_trial","158","525608","0.0-92.0-0.0","303.30000001192093","","","","49","1,0,0","1","forest","41","probe-206","0.48755854687525707","0.4034785534743549","0.17890151288225514","1","","","","","","","",""
"","html-keyboard-response","159","526611","0.0-92.0-1.0","null","<p></p>","null","","","","","","","","","","","","","","","","","","",""
"","do_trial","160","531465","0.0-93.0-0.0","315.60000002384186","","","","49","0,0,1","1","forest","42","probe-185","0.341529960629395","0.37647776514533177","0.2634315621296782","0","","","","","","","",""
"","html-keyboard-response","161","532468","0.0-93.0-1.0","null","<p></p>","null","","","","","","","","","","","","","","","","","","",""
"","do_trial","162","537359","0.0-94.0-0.0","351.5","","","","49","0,0,0","1","forest","43","probe-95","0.11818726619749713","0.31518013189128574","0.25641376877994665","0","","","","","","","",""
"","html-keyboard-response","163","538363","0.0-94.0-1.0","null","<p></p>","null","","","","","","","","","","","","","","","","","","",""
"","do_trial","164","543238","0.0-95.0-0.0","332","","","","49","0,1,0","1","forest","44","probe-223","0.24279709593838622","0.28580465327750515","0.36941369383532113","0","","","","","","","",""
"","html-keyboard-response","165","544242","0.0-95.0-1.0","null","<p></p>","null","","","","","","","","","","","","","","","","","","",""
"","do_trial","166","549178","0.0-96.0-0.0","394.7000000178814","","","","49","0,0,1","1","forest","45","probe-151","0.40256617515741755","0.22917643654409312","0.4766164428889779","0","","","","","","","",""
"","html-keyboard-response","167","550182","0.0-96.0-1.0","null","<p></p>","null","","","","","","","","","","","","","","","","","","",""
"","do_trial","168","555051","0.0-97.0-0.0","326.59999999403954","","","","50","0,0,1","1","forest","46","probe-155","0.26517064048429223","0.30687472712190345","0.5158961396813134","0","","","","","","","",""
"","html-keyboard-response","169","556053","0.0-97.0-1.0","null","<p></p>","null","","","","","","","","","","","","","","","","","","",""
"","do_trial","170","560964","0.0-98.0-0.0","372.30000001192093","","","","50","1,0,0","1","forest","47","probe-86","0.2858635895051103","0.36701672397846724","0.5483999934576685","0","","","","","","","",""
"","html-keyboard-response","171","561968","0.0-98.0-1.0","null","<p></p>","null","","","","","","","","","","","","","","","","","","",""
"","do_trial","172","568088","0.0-99.0-0.0","1576.7999999821186","","","","51","0,0,1","1","forest","48","probe-29","0.1758102683760666","0.3642937828976162","0.5696649520353662","1","","","","","","","",""
"","html-keyboard-response","173","569092","0.0-99.0-1.0","null","<p></p>","null","","","","","","","","","","","","","","","","","","",""
"","do_trial","174","574053","0.0-100.0-0.0","417.90000000596046","","","","49","0,0,1","1","forest","49","probe-90","0.22828820259275567","0.3339074918559543","0.6336311647400207","0","","","","","","","",""
"","html-keyboard-response","175","575057","0.0-100.0-1.0","null","<p></p>","null","","","","","","","","","","","","","","","","","","",""
"","do_trial","176","580040","0.0-101.0-0.0","440","","","","51","0,1,0","1","forest","50","probe-22","0.308076611689786","0.31113258930645826","0.5933304911186794","0","","","","","","","",""
"","html-keyboard-response","177","581041","0.0-101.0-1.0","null","<p></p>","null","","","","","","","","","","","","","","","","","","",""
"","do_trial","178","586451","0.0-102.0-0.0","870.4000000059605","","","","49","1,0,0","1","forest","51","probe-60","0.2774186850639768","0.33577110040519137","0.5637999170386416","1","","","","","","","",""
"","html-keyboard-response","179","587453","0.0-102.0-1.0","null","<p></p>","null","","","","","","","","","","","","","","","","","","",""
"","do_trial","180","592754","0.0-103.0-0.0","762.8000000119209","","","","49","0,0,1","1","forest","52","probe-75","0.25902115949760407","0.34875595725986097","0.6523732951417955","0","","","","","","","",""
"","html-keyboard-response","181","593758","0.0-103.0-1.0","null","<p></p>","null","","","","","","","","","","","","","","","","","","",""
"","do_trial","182","598876","0.0-104.0-0.0","572.5","","","","50","1,0,0","1","forest","53","probe-109","0.24097219168738435","0.30744143369551435","0.688622826759575","0","","","","","","","",""
"","html-keyboard-response","183","599878","0.0-104.0-1.0","null","<p></p>","null","","","","","","","","","","","","","","","","","","",""
"","do_trial","184","605025","0.0-105.0-0.0","606.7999999821186","","","","49","1,1,1","1","forest","54","probe-117","0.2768388341710332","0.255752717224408","0.6447573053687752","1","","","","","","","",""
"","html-keyboard-response","185","606029","0.0-105.0-1.0","null","<p></p>","null","","","","","","","","","","","","","","","","","","",""
"","do_trial","186","611554","0.0-106.0-0.0","983","","","","49","0,0,1","1","forest","55","probe-178","0.1167417305022698","0.1595739859280637","0.4900322989007102","0","","","","","","","",""
"","html-keyboard-response","187","612558","0.0-106.0-1.0","null","<p></p>","null","","","","","","","","","","","","","","","","","","",""
"","do_trial","188","617574","0.0-107.0-0.0","472.5","","","","51","1,0,1","1","forest","56","probe-213","0.19350710300282786","0.18448990031312135","0.5667068070417446","1","","","","","","","",""
"","html-keyboard-response","189","618578","0.0-107.0-1.0","null","<p></p>","null","","","","","","","","","","","","","","","","","","",""
"","do_trial","190","623545","0.0-108.0-0.0","428","","","","51","0,0,0","1","forest","57","probe-72","0.27682503405918524","0.18885813967275766","0.5295833065309813","0","","","","","","","",""
"","html-keyboard-response","191","624548","0.0-108.0-1.0","null","<p></p>","null","","","","","","","","","","","","","","","","","","",""
"","do_trial","192","629995","0.0-109.0-0.0","904.2999999821186","","","","49","0,0,1","1","forest","58","probe-100","0.23192525030640393","0.31272992016069906","0.519426642329172","0","","","","","","","",""
"","html-keyboard-response","193","630998","0.0-109.0-1.0","null","<p></p>","null","","","","","","","","","","","","","","","","","","",""
"","do_trial","194","635958","0.0-110.0-0.0","419.10000002384186","","","","51","0,0,1","1","forest","59","probe-38","0.20033897957540858","0.27664681023618765","0.5501373265457347","1","","","","","","","",""
"","html-keyboard-response","195","636962","0.0-110.0-1.0","null","<p></p>","null","","","","","","","","","","","","","","","","","","",""
"","do_trial","196","641971","0.0-111.0-0.0","465.7000000178814","","","","51","0,0,1","1","forest","60","probe-02","0.28390435599243996","0.3114542904802506","0.5104985215736976","1","","","","","","","",""
"","html-keyboard-response","197","642972","0.0-111.0-1.0","null","<p></p>","null","","","","","","","","","","","","","","","","","","",""
"","do_trial","198","647878","0.0-112.0-0.0","364.39999997615814","","","","51","0,1,0","1","forest","61","probe-80","0.373058301822698","0.30696677197921785","0.5369091487209686","0","","","","","","","",""
"","html-keyboard-response","199","648881","0.0-112.0-1.0","null","<p></p>","null","","","","","","","","","","","","","","","","","","",""
"","do_trial","200","654021","0.0-113.0-0.0","596.5999999940395","","","","49","0,0,1","1","forest","62","probe-140","0.27449764172487806","0.26401574361104796","0.6011280133503835","0","","","","","","","",""
"","html-keyboard-response","201","655026","0.0-113.0-1.0","null","<p></p>","null","","","","","","","","","","","","","","","","","","",""
"","do_trial","202","659950","0.0-114.0-0.0","383.59999999403954","","","","50","0,0,1","1","forest","63","probe-116","0.17827639862747532","0.24461348462064908","0.5219176035726852","0","","","","","","","",""
"","html-keyboard-response","203","660954","0.0-114.0-1.0","null","<p></p>","null","","","","","","","","","","","","","","","","","","",""
"","do_trial","204","665935","0.0-115.0-0.0","437.7999999821186","","","","51","0,1,1","1","forest","64","probe-187","0.17163257319278796","0.39236835405239234","0.6028659119736155","1","","","","","","","",""
"","html-keyboard-response","205","666938","0.0-115.0-1.0","null","<p></p>","null","","","","","","","","","","","","","","","","","","",""
"","do_trial","206","671982","0.0-116.0-0.0","504.09999999403954","","","","51","0,1,1","1","forest","65","probe-93","0.19685673207008872","0.4530640360267157","0.5648442736047158","1","","","","","","","",""
"","html-keyboard-response","207","672987","0.0-116.0-1.0","null","<p></p>","null","","","","","","","","","","","","","","","","","","",""
"","do_trial","208","678122","0.0-117.0-0.0","593.8000000119209","","","","51","1,0,1","1","forest","66","probe-215","0.2581757556301062","0.18238467593309302","0.5445371941627187","1","","","","","","","",""
"","html-keyboard-response","209","679125","0.0-117.0-1.0","null","<p></p>","null","","","","","","","","","","","","","","","","","","",""
"","do_trial","210","684317","0.0-118.0-0.0","652.2000000178814","","","","51","1,0,0","1","forest","67","probe-98","0.15762846000126468","0.12449433743341203","0.4603901494917194","0","","","","","","","",""
"","html-keyboard-response","211","685321","0.0-118.0-1.0","null","<p></p>","null","","","","","","","","","","","","","","","","","","",""
"","do_trial","212","690242","0.0-119.0-0.0","381.19999998807907","","","","50","1,0,1","1","forest","68","probe-01","0.1887834749830538","0.3425806144197031","0.6066653100208171","0","","","","","","","",""
"","html-keyboard-response","213","691247","0.0-119.0-1.0","null","<p></p>","null","","","","","","","","","","","","","","","","","","",""
"","do_trial","214","696250","0.0-120.0-0.0","459.69999998807907","","","","50","0,0,0","1","forest","69","probe-174","0.1593100810381743","0.3986333822650316","0.5011690380966229","0","","","","","","","",""
"","html-keyboard-response","215","697254","0.0-120.0-1.0","null","<p></p>","null","","","","","","","","","","","","","","","","","","",""
"","do_bye","216","698760","0.0-121.0-0.0","null","","","","null","","","","","","","","","","","","","","","","",""
"","do_travel","217","704765","0.0-122.0-0.0","null","","","","null","","","","","","","","","","","","","","","","",""
"","do_welcome","218","706275","0.0-122.0-1.0","null","","","","null","","","","","","","","","","","","","","","","",""
"","do_trial","219","712263","0.0-123.0-0.0","1445.2000000178814","","","","51","1,0,1","2","countryside","70","probe-176","0.17531663371599215","0.33914681602722924","1","1","","","","","","","",""
"","html-keyboard-response","220","713267","0.0-123.0-1.0","null","<p></p>","null","","","","","","","","","","","","","","","","","","",""
"","do_trial","221","718231","0.0-124.0-0.0","425.5","","","","51","0,0,1","2","countryside","71","probe-135","0.12589435711105704","0.2577994923157674","1","1","","","","","","","",""
"","html-keyboard-response","222","719235","0.0-124.0-1.0","null","<p></p>","null","","","","","","","","","","","","","","","","","","",""
"","do_trial","223","724580","0.0-125.0-0.0","801.8000000119209","","","","51","0,0,0","2","countryside","72","probe-37","0.05343091496330419","0.3604396243871122","0.8802710618870454","0","","","","","","","",""
"","html-keyboard-response","224","725584","0.0-125.0-1.0","null","<p></p>","null","","","","","","","","","","","","","","","","","","",""
"","do_trial","225","730642","0.0-126.0-0.0","519.4000000059605","","","","51","0,0,1","2","countryside","73","probe-181","0.06026683136463451","0.3223193905633204","0.8233617597455205","1","","","","","","","",""
"","html-keyboard-response","226","731646","0.0-126.0-1.0","null","<p></p>","null","","","","","","","","","","","","","","","","","","",""
"","do_trial","227","736288","0.0-127.0-0.0","100.39999997615814","","","","51","0,1,1","2","countryside","74","probe-130","0.06301964126460698","0.2350830433599436","0.7448097785707989","1","","","","","","","",""
"","html-keyboard-response","228","737291","0.0-127.0-1.0","null","<p></p>","null","","","","","","","","","","","","","","","","","","",""
"","do_trial","229","741973","0.0-128.0-0.0","139.40000000596046","","","","51","0,0,1","2","countryside","75","probe-94","0.2972432103306075","0.3932185126957135","0.7498211720040842","1","","","","","","","",""
"","html-keyboard-response","230","742975","0.0-128.0-1.0","null","<p></p>","null","","","","","","","","","","","","","","","","","","",""
"","do_trial","231","747610","0.0-129.0-0.0","92.09999999403954","","","","51","0,0,0","2","countryside","76","probe-21","0.31309010402312626","0.40895524593816535","0.7890132045340029","0","","","","","","","",""
"","html-keyboard-response","232","748613","0.0-129.0-1.0","null","<p></p>","null","","","","","","","","","","","","","","","","","","",""
"","do_trial","233","753269","0.0-130.0-0.0","116.40000000596046","","","","51","0,0,1","2","countryside","77","probe-65","0.2047028640275319","0.326352399318029","0.8248938172630896","1","","","","","","","",""
"","html-keyboard-response","234","754273","0.0-130.0-1.0","null","<p></p>","null","","","","","","","","","","","","","","","","","","",""
"","do_trial","235","759029","0.0-131.0-0.0","214.30000001192093","","","","51","0,1,1","2","countryside","78","probe-58","0.2959990895535992","0.2713466512676351","0.7011054086208641","1","","","","","","","",""
"","html-keyboard-response","236","760033","0.0-131.0-1.0","null","<p></p>","null","","","","","","","","","","","","","","","","","","",""
"","do_trial","237","764718","0.0-132.0-0.0","145.7000000178814","","","","51","0,1,0","2","countryside","79","probe-133","0.14642331071992856","0.28439738042631735","0.5282835465736025","0","","","","","","","",""
"","html-keyboard-response","238","765722","0.0-132.0-1.0","null","<p></p>","null","","","","","","","","","","","","","","","","","","",""
"","do_trial","239","770369","0.0-133.0-0.0","106.5","","","","51","0,0,0","2","countryside","80","probe-43","0.1994858563759771","0.2705013268851667","0.7023141170073328","0","","","","","","","",""
"","html-keyboard-response","240","771372","0.0-133.0-1.0","null","<p></p>","null","","","","","","","","","","","","","","","","","","",""
"","do_trial","241","775989","0.0-134.0-0.0","73.80000001192093","","","","49","0,0,1","2","countryside","81","probe-220","0.1372502537005066","0.19678525353104476","0.5749186008776795","0","","","","","","","",""
"","html-keyboard-response","242","776992","0.0-134.0-1.0","null","<p></p>","null","","","","","","","","","","","","","","","","","","",""
"","do_trial","243","781608","0.0-135.0-0.0","79.7999999821186","","","","50","1,0,0","2","countryside","82","probe-87","0.40573536977103997","0.07210055311520447","0.40731011895031466","0","","","","","","","",""
"","html-keyboard-response","244","782611","0.0-135.0-1.0","null","<p></p>","null","","","","","","","","","","","","","","","","","","",""
"","do_trial","245","787153","0.0-136.0-0.0","0.09999999403953552","","","","51","0,0,1","2","countryside","83","probe-53","0.5304269273675952","0.14939888531236659","0.37920636646620315","1","","","","","","","",""
"","html-keyboard-response","246","788155","0.0-136.0-1.0","null","<p></p>","null","","","","","","","","","","","","","","","","","","",""
"","do_trial","247","792802","0.0-137.0-0.0","106.5","","","","51","0,0,0","2","countryside","84","probe-89","0.5291037167048118","0.10552755838838858","0.2730086759197323","0","","","","","","","",""
"","html-keyboard-response","248","793804","0.0-137.0-1.0","null","<p></p>","null","","","","","","","","","","","","","","","","","","",""
"","do_trial","249","798428","0.0-138.0-0.0","80.30000001192093","","","","49","0,1,0","2","countryside","85","probe-91","0.6697708987128975","0.17832021164816056","0.2338225638135706","0","","","","","","","",""
"","html-keyboard-response","250","799431","0.0-138.0-1.0","null","<p></p>","null","","","","","","","","","","","","","","","","","","",""
"","do_trial","251","804043","0.0-139.0-0.0","68.5","","","","50","0,0,0","2","countryside","86","probe-200","0.722678348629066","0.09450760957886377","0.23417164232895857","0","","","","","","","",""
"","html-keyboard-response","252","805047","0.0-139.0-1.0","null","<p></p>","null","","","","","","","","","","","","","","","","","","",""
"","do_trial","253","810144","0.0-140.0-0.0","556.4000000059605","","","","50","1,0,0","2","countryside","87","probe-28","0.827326384364026","0.0704497161511244","0.3181744974944973","0","","","","","","","",""
"","html-keyboard-response","254","811148","0.0-140.0-1.0","null","<p></p>","null","","","","","","","","","","","","","","","","","","",""
"","do_trial","255","815688","0.0-141.0-0.0","0.09999999403953552","","","","49","1,0,0","2","countryside","88","probe-46","0.8790206972330967","0.20649724406164435","0.21937617226983686","1","","","","","","","",""
"","html-keyboard-response","256","816691","0.0-141.0-1.0","null","<p></p>","null","","","","","","","","","","","","","","","","","","",""
"","do_trial","257","821268","0.0-142.0-0.0","34.400000005960464","","","","49","0,0,0","2","countryside","89","probe-137","0.7550419106399534","0.3083016093881833","0.2752461977354364","0","","","","","","","",""
"","html-keyboard-response","258","822271","0.0-142.0-1.0","null","<p></p>","null","","","","","","","","","","","","","","","","","","",""
"","do_trial","259","826811","0.0-143.0-0.0","0.09999999403953552","","","","49","0,0,0","2","countryside","90","probe-167","0.7935551300981812","0.2413480693300415","0.2853905435748848","0","","","","","","","",""
"","html-keyboard-response","260","827815","0.0-143.0-1.0","null","<p></p>","null","","","","","","","","","","","","","","","","","","",""
"","do_trial","261","832481","0.0-144.0-0.0","126.7999999821186","","","","51","1,0,0","2","countryside","91","probe-131","0.6944855035959548","0.33564804707783485","0.34646304709229353","0","","","","","","","",""
"","html-keyboard-response","262","833484","0.0-144.0-1.0","null","<p></p>","null","","","","","","","","","","","","","","","","","","",""
"","do_trial","263","839057","0.0-145.0-0.0","1029","","","","51","1,0,0","2","countryside","92","probe-218","0.8588586465010561","0.31126991781306845","0.37431155373930985","0","","","","","","","",""
"","html-keyboard-response","264","840060","0.0-145.0-1.0","null","<p></p>","null","","","","","","","","","","","","","","","","","","",""
"","do_trial","265","844711","0.0-146.0-0.0","107.40000000596046","","","","49","1,0,0","2","countryside","93","probe-67","0.8104318619103235","0.12465458227862003","0.31391845030408166","1","","","","","","","",""
"","html-keyboard-response","266","845715","0.0-146.0-1.0","null","<p></p>","null","","","","","","","","","","","","","","","","","","",""
"","do_trial","267","850369","0.0-147.0-0.0","113.5","","","","49","0,0,1","2","countryside","94","probe-163","0.8627335444763151","0.11436988410030446","0.32947307287004635","0","","","","","","","",""
"","html-keyboard-response","268","851373","0.0-147.0-1.0","null","<p></p>","null","","","","","","","","","","","","","","","","","","",""
"","do_trial","269","855914","0.0-148.0-0.0","0.20000001788139343","","","","50","1,0,1","2","countryside","95","probe-160","0.7912009528313402","0.0822176924591807","0.24853814900349477","0","","","","","","","",""
"","html-keyboard-response","270","856920","0.0-148.0-1.0","null","<p></p>","null","","","","","","","","","","","","","","","","","","",""
"","do_trial","271","861653","0.0-149.0-0.0","189.30000001192093","","","","51","1,0,1","2","countryside","96","probe-42","0.889280836438989","0.1326645980616757","0.2414297815481422","1","","","","","","","",""
"","html-keyboard-response","272","862656","0.0-149.0-1.0","null","<p></p>","null","","","","","","","","","","","","","","","","","","",""
"","do_trial","273","867540","0.0-150.0-0.0","340.30000001192093","","","","51","0,0,0","2","countryside","97","probe-112","0.9370266206187424","0.1787874233577414","0.28310599918450186","0","","","","","","","",""
"","html-keyboard-response","274","868543","0.0-150.0-1.0","null","<p></p>","null","","","","","","","","","","","","","","","","","","",""
"","do_trial","275","873164","0.0-151.0-0.0","77.90000000596046","","","","49","0,0,0","2","countryside","98","probe-189","0.7031850588004093","0.14387692184924336","0.1966217601255527","0","","","","","","","",""
"","html-keyboard-response","276","874167","0.0-151.0-1.0","null","<p></p>","null","","","","","","","","","","","","","","","","","","",""
"","do_trial","277","878786","0.0-152.0-0.0","74.40000000596046","","","","49","1,0,1","2","countryside","99","probe-138","0.5822118784855256","0.14917893500046744","0.219705570533801","1","","","","","","","",""
"","html-keyboard-response","278","879790","0.0-152.0-1.0","null","<p></p>","null","","","","","","","","","","","","","","","","","","",""
"","do_trial","279","884566","0.0-153.0-0.0","236.60000002384186","","","","49","1,0,1","2","countryside","100","probe-59","0.5898099432633491","0.28328530203904595","0.29764900623843416","1","","","","","","","",""
"","html-keyboard-response","280","885569","0.0-153.0-1.0","null","<p></p>","null","","","","","","","","","","","","","","","","","","",""
"","do_trial","281","890410","0.0-154.0-0.0","301.09999999403954","","","","49","1,0,1","2","countryside","101","probe-148","0.5335873725338967","0.16252371266906146","0.3268378717387956","1","","","","","","","",""
"","html-keyboard-response","282","891414","0.0-154.0-1.0","null","<p></p>","null","","","","","","","","","","","","","","","","","","",""
"","do_trial","283","896187","0.0-155.0-0.0","234.89999997615814","","","","49","0,1,0","2","countryside","102","probe-123","0.6751576647000137","0.12052640918080833","0.2617331614475414","0","","","","","","","",""
"","html-keyboard-response","284","897191","0.0-155.0-1.0","null","<p></p>","null","","","","","","","","","","","","","","","","","","",""
"","do_trial","285","902178","0.0-156.0-0.0","445.69999998807907","","","","49","1,0,0","2","countryside","103","probe-217","0.5362344819423202","0.1772360969629844","0.216917698693893","1","","","","","","","",""
"","html-keyboard-response","286","903181","0.0-156.0-1.0","null","<p></p>","null","","","","","","","","","","","","","","","","","","",""
"","do_trial","287","907935","0.0-157.0-0.0","211.40000000596046","","","","49","1,0,1","2","countryside","104","probe-06","0.5674557584351143","0.1975751560464281","0.3639368065621651","1","","","","","","","",""
"","html-keyboard-response","288","908939","0.0-157.0-1.0","null","<p></p>","null","","","","","","","","","","","","","","","","","","",""
"","do_trial","289","913917","0.0-158.0-0.0","437.39999997615814","","","","49","0,0,1","2","countryside","105","probe-81","0.5249072491485895","0.258848096949192","0.4256060466610974","0","","","","","","","",""
"","html-keyboard-response","290","914920","0.0-158.0-1.0","null","<p></p>","null","","","","","","","","","","","","","","","","","","",""
"","do_trial","291","919594","0.0-159.0-0.0","131.90000000596046","","","","49","0,0,1","2","countryside","106","probe-134","0.5876407549045383","0.13876992898395116","0.3576105468067145","0","","","","","","","",""
"","html-keyboard-response","292","920598","0.0-159.0-1.0","null","<p></p>","null","","","","","","","","","","","","","","","","","","",""
"","do_trial","293","925187","0.0-160.0-0.0","49.599999994039536","","","","50","1,0,0","2","countryside","107","probe-143","0.5404546930975385","0.05093935564658929","0.20435081971391733","0","","","","","","","",""
"","html-keyboard-response","294","926191","0.0-160.0-1.0","null","<p></p>","null","","","","","","","","","","","","","","","","","","",""
"","do_trial","295","931402","0.0-161.0-0.0","669.4000000059605","","","","51","0,0,1","2","countryside","108","probe-99","0.6096526990918308","0.10408433296240194","0.44626942564253713","1","","","","","","","",""
"","html-keyboard-response","296","932406","0.0-161.0-1.0","null","<p></p>","null","","","","","","","","","","","","","","","","","","",""
"","do_trial","297","937780","0.0-162.0-0.0","830.5999999940395","","","","51","1,0,0","2","countryside","109","probe-48","0.6236405056126766","0.13862162961450125","0.530312099108461","0","","","","","","","",""
"","html-keyboard-response","298","938783","0.0-162.0-1.0","null","<p></p>","null","","","","","","","","","","","","","","","","","","",""
"","do_bye","299","940290","0.0-163.0-0.0","null","","","","null","","","","","","","","","","","","","","","","",""
"","do_travel","300","946294","0.0-164.0-0.0","null","","","","null","","","","","","","","","","","","","","","","",""
"","do_welcome","301","947804","0.0-164.0-1.0","null","","","","null","","","","","","","","","","","","","","","","",""
"","do_trial","302","952989","0.0-165.0-0.0","641.9000000059605","","","","51","1,0,0","3","highway","110","probe-32","1","0.1423601252738358","0.43091297394614964","0","","","","","","","",""
"","html-keyboard-response","303","953994","0.0-165.0-1.0","null","<p></p>","null","","","","","","","","","","","","","","","","","","",""
"","do_trial","304","958696","0.0-166.0-0.0","164","","","","49","1,0,0","3","highway","111","probe-110","1","0.18547820648750474","0.38820500197993085","1","","","","","","","",""
"","html-keyboard-response","305","959701","0.0-166.0-1.0","null","<p></p>","null","","","","","","","","","","","","","","","","","","",""
"","do_trial","306","965072","0.0-167.0-0.0","828.0999999940395","","","","49","1,0,0","3","highway","112","probe-199","0.9001378321703537","0.14040303432262038","0.4220531135199614","1","","","","","","","",""
"","html-keyboard-response","307","966076","0.0-167.0-1.0","null","<p></p>","null","","","","","","","","","","","","","","","","","","",""
"","do_trial","308","971157","0.0-168.0-0.0","540.2000000178814","","","","49","1,0,1","3","highway","113","probe-149","0.7965162833760269","0.10165523576846049","0.4430203651505271","1","","","","","","","",""
"","html-keyboard-response","309","972159","0.0-168.0-1.0","null","<p></p>","null","","","","","","","","","","","","","","","","","","",""
"","do_trial","310","977145","0.0-169.0-0.0","443.30000001192093","","","","49","1,0,0","3","highway","114","probe-186","0.7836080122238694","0.22046107757328173","0.33493760425529895","1","","","","","","","",""
"","html-keyboard-response","311","978147","0.0-169.0-1.0","null","<p></p>","null","","","","","","","","","","","","","","","","","","",""
"","do_trial","312","983011","0.0-170.0-0.0","325.2000000178814","","","","49","1,0,1","3","highway","115","probe-183","0.805197477739696","0.256223335552166","0.36684098868286247","1","","","","","","","",""
"","html-keyboard-response","313","984014","0.0-170.0-1.0","null","<p></p>","null","","","","","","","","","","","","","","","","","","",""
"","do_trial","314","990514","0.0-171.0-0.0","1961.5","","","","49","1,0,1","3","highway","116","probe-97","0.8085338654931431","0.17976338947689902","0.39352115139932947","1","","","","","","","",""
"","html-keyboard-response","315","991518","0.0-171.0-1.0","null","<p></p>","null","","","","","","","","","","","","","","","","","","",""
"","do_trial","316","996766","0.0-172.0-0.0","703.5","","","","49","1,0,1","3","highway","117","probe-19","0.7646255302398478","0.23552104676195348","0.41422536627143286","1","","","","","","","",""
"","html-keyboard-response","317","997769","0.0-172.0-1.0","null","<p></p>","null","","","","","","","","","","","","","","","","","","",""
"","do_trial","318","1002979","0.0-173.0-0.0","669.1000000238419","","","","49","1,0,0","3","highway","118","probe-168","0.5893523649101092","0.20261423352463176","0.32151461133489456","1","","","","","","","",""
"","html-keyboard-response","319","1003981","0.0-173.0-1.0","null","<p></p>","null","","","","","","","","","","","","","","","","","","",""
"","do_trial","320","1009066","0.0-174.0-0.0","541.2000000178814","","","","49","0,0,0","3","highway","119","probe-157","0.657686448007899","0.1442626141568882","0.20514378844378378","0","","","","","","","",""
"","html-keyboard-response","321","1010071","0.0-174.0-1.0","null","<p></p>","null","","","","","","","","","","","","","","","","","","",""
"","do_trial","322","1014975","0.0-175.0-0.0","358.90000000596046","","","","51","1,0,1","3","highway","120","probe-219","0.5139777258118609","0.08724545602274685","0.3387453618451327","1","","","","","","","",""
"","html-keyboard-response","323","1015976","0.0-175.0-1.0","null","<p></p>","null","","","","","","","","","","","","","","","","","","",""
"","do_trial","324","1021110","0.0-176.0-0.0","594.7999999821186","","","","51","0,1,1","3","highway","121","probe-166","0.43374743484897404","0.08046644021166069","0.45908809485863233","1","","","","","","","",""
"","html-keyboard-response","325","1022115","0.0-176.0-1.0","null","<p></p>","null","","","","","","","","","","","","","","","","","","",""
"","do_trial","326","1027261","0.0-177.0-0.0","609.6999999880791","","","","51","0,0,1","3","highway","122","probe-216","0.2553267494860162","0.08905806577947877","0.4569786797547035","1","","","","","","","",""
"","html-keyboard-response","327","1028265","0.0-177.0-1.0","null","<p></p>","null","","","","","","","","","","","","","","","","","","",""
"","do_trial","328","1033154","0.0-178.0-0.0","348.5","","","","51","0,0,1","3","highway","123","probe-101","0.07569594445915964","0.1843057267241232","0.44867709291044355","1","","","","","","","",""
"","html-keyboard-response","329","1034158","0.0-178.0-1.0","null","<p></p>","null","","","","","","","","","","","","","","","","","","",""
"","do_trial","330","1039171","0.0-179.0-0.0","474.40000000596046","","","","51","0,0,0","3","highway","124","probe-33","0.1901660608571367","0.2551744671525466","0.35274153298118405","0","","","","","","","",""
"","html-keyboard-response","331","1040178","0.0-179.0-1.0","null","<p></p>","null","","","","","","","","","","","","","","","","","","",""
"","do_trial","332","1045756","0.0-180.0-0.0","1036.800000011921","","","","51","0,1,0","3","highway","125","probe-39","0.055768888792162075","0.22907990546125542","0.5843954911183108","0","","","","","","","",""
"","html-keyboard-response","333","1046760","0.0-180.0-1.0","null","<p></p>","null","","","","","","","","","","","","","","","","","","",""
"","do_trial","334","1051838","0.0-181.0-0.0","535.1999999880791","","","","50","0,1,0","3","highway","126","probe-57","0.0679932080749497","0.42990281895567345","0.42559585526695937","1","","","","","","","",""
"","html-keyboard-response","335","1052842","0.0-181.0-1.0","null","<p></p>","null","","","","","","","","","","","","","","","","","","",""
"","do_trial","336","1058265","0.0-182.0-0.0","883.8000000119209","","","","50","0,1,0","3","highway","127","probe-84","0.2315117643277731","0.5306233549311881","0.5699500545058203","1","","","","","","","",""
"","html-keyboard-response","337","1059268","0.0-182.0-1.0","null","<p></p>","null","","","","","","","","","","","","","","","","","","",""
"","do_trial","338","1064996","0.0-183.0-0.0","1187.9000000059605","","","","50","0,1,0","3","highway","128","probe-154","0.1788309639730987","0.5064433394420794","0.5899418582572318","1","","","","","","","",""
"","html-keyboard-response","339","1066000","0.0-183.0-1.0","null","<p></p>","null","","","","","","","","","","","","","","","","","","",""
"","do_trial","340","1070694","0.0-184.0-0.0","153.40000000596046","","","","50","0,1,0","3","highway","129","probe-111","0.06622918029651864","0.5299881615024417","0.6417658191171506","1","","","","","","","",""
"","html-keyboard-response","341","1071698","0.0-184.0-1.0","null","<p></p>","null","","","","","","","","","","","","","","","","","","",""
"","do_trial","342","1076311","0.0-185.0-0.0","72.59999999403954","","","","50","0,1,1","3","highway","130","probe-162","0.08380668179901883","0.4344971156211987","0.648241745932102","1","","","","","","","",""
"","html-keyboard-response","343","1077315","0.0-185.0-1.0","null","<p></p>","null","","","","","","","","","","","","","","","","","","",""
"","do_trial","344","1081937","0.0-186.0-0.0","78.09999999403954","","","","50","0,1,1","3","highway","131","probe-78","0.16505600175557636","0.3741112361212682","0.682823940725284","1","","","","","","","",""
"","html-keyboard-response","345","1082941","0.0-186.0-1.0","null","<p></p>","null","","","","","","","","","","","","","","","","","","",""
"","do_trial","346","1087566","0.0-187.0-0.0","84.5","","","","50","0,0,0","3","highway","132","probe-227","0.0614783934669525","0.37427055096474443","0.6040281844917905","0","","","","","","","",""
"","html-keyboard-response","347","1088572","0.0-187.0-1.0","null","<p></p>","null","","","","","","","","","","","","","","","","","","",""
"","do_trial","348","1093254","0.0-188.0-0.0","143.90000000596046","","","","49","0,0,1","3","highway","133","probe-50","0.09951414700227222","0.40439961967043075","0.5705638073792924","0","","","","","","","",""
"","html-keyboard-response","349","1094256","0.0-188.0-1.0","null","<p></p>","null","","","","","","","","","","","","","","","","","","",""
"","do_trial","350","1098957","0.0-189.0-0.0","162.5","","","","51","0,1,0","3","highway","134","probe-153","0.24374564297070148","0.3603345818169763","0.6037409810326659","0","","","","","","","",""
"","html-keyboard-response","351","1099959","0.0-189.0-1.0","null","<p></p>","null","","","","","","","","","","","","","","","","","","",""
"","do_trial","352","1104581","0.0-190.0-0.0","83.7000000178814","","","","50","0,1,1","3","highway","135","probe-126","0.29555785086765424","0.535194745347387","0.6203802167852772","1","","","","","","","",""
"","html-keyboard-response","353","1105584","0.0-190.0-1.0","null","<p></p>","null","","","","","","","","","","","","","","","","","","",""
"","do_trial","354","1110124","0.0-191.0-0.0","0.800000011920929","","","","50","0,0,1","3","highway","136","probe-77","0.3488278059503281","0.5330117472299111","0.7095050762333663","0","","","","","","","",""
"","html-keyboard-response","355","1111127","0.0-191.0-1.0","null","<p></p>","null","","","","","","","","","","","","","","","","","","",""
"","do_trial","356","1115900","0.0-192.0-0.0","231","","","","50","1,0,1","3","highway","137","probe-44","0.22161938974252124","0.4838221028444587","0.6366768943192285","0","","","","","","","",""
"","html-keyboard-response","357","1116904","0.0-192.0-1.0","null","<p></p>","null","","","","","","","","","","","","","","","","","","",""
"","do_trial","358","1122346","0.0-193.0-0.0","903.7000000178814","","","","49","0,1,0","3","highway","138","probe-201","0.19631670459886963","0.5383952497913239","0.5609352554591338","0","","","","","","","",""
"","html-keyboard-response","359","1123350","0.0-193.0-1.0","null","<p></p>","null","","","","","","","","","","","","","","","","","","",""
"","do_trial","360","1128215","0.0-194.0-0.0","321.19999998807907","","","","49","0,0,1","3","highway","139","probe-128","0.09785063468456638","0.34596603554688315","0.646232166926075","0","","","","","","","",""
"","html-keyboard-response","361","1129218","0.0-194.0-1.0","null","<p></p>","null","","","","","","","","","","","","","","","","","","",""
"","do_trial","362","1133758","0.0-195.0-0.0","0.09999999403953552","","","","51","0,0,1","3","highway","140","probe-66","0.0716600558256484","0.359553725545214","0.586440240111675","1","","","","","","","",""
"","html-keyboard-response","363","1134764","0.0-195.0-1.0","null","<p></p>","null","","","","","","","","","","","","","","","","","","",""
"","do_trial","364","1140197","0.0-196.0-0.0","891.5999999940395","","","","51","0,0,1","3","highway","141","probe-73","0.0881217515034345","0.33101288544449875","0.7041758017737714","1","","","","","","","",""
"","html-keyboard-response","365","1141199","0.0-196.0-1.0","null","<p></p>","null","","","","","","","","","","","","","","","","","","",""
"","do_trial","366","1145738","0.0-197.0-0.0","0.09999999403953552","","","","51","0,0,1","3","highway","142","probe-122","0.17084906296106922","0.29218084474939277","0.737181460543872","1","","","","","","","",""
"","html-keyboard-response","367","1146743","0.0-197.0-1.0","null","<p></p>","null","","","","","","","","","","","","","","","","","","",""
"","do_trial","368","1152133","0.0-198.0-0.0","849.8999999761581","","","","51","0,0,1","3","highway","143","probe-202","0.1200855277867078","0.255594479622117","0.6820526154094334","1","","","","","","","",""
"","html-keyboard-response","369","1153137","0.0-198.0-1.0","null","<p></p>","null","","","","","","","","","","","","","","","","","","",""
"","do_trial","370","1158242","0.0-199.0-0.0","565.4000000059605","","","","51","1,1,1","3","highway","144","probe-64","0.21651683572325112","0.23398378704414896","0.690812237947766","1","","","","","","","",""
"","html-keyboard-response","371","1159246","0.0-199.0-1.0","null","<p></p>","null","","","","","","","","","","","","","","","","","","",""
"","do_trial","372","1164589","0.0-200.0-0.0","800.6999999880791","","","","51","1,0,0","3","highway","145","probe-190","0.16982738498063843","0.1195126607963782","0.5140183591100645","0","","","","","","","",""
"","html-keyboard-response","373","1165592","0.0-200.0-1.0","null","<p></p>","null","","","","","","","","","","","","","","","","","","",""
"","do_trial","374","1170710","0.0-201.0-0.0","574.1999999880791","","","","51","0,1,1","3","highway","146","probe-63","0.24121232609770482","0.16499919230227064","0.5220897756969286","1","","","","","","","",""
"","html-keyboard-response","375","1171714","0.0-201.0-1.0","null","<p></p>","null","","","","","","","","","","","","","","","","","","",""
"","do_trial","376","1176798","0.0-202.0-0.0","541.9000000059605","","","","51","0,0,1","3","highway","147","probe-36","0.1587174630603323","0.41857086986010866","0.5808144882508982","1","","","","","","","",""
"","html-keyboard-response","377","1177801","0.0-202.0-1.0","null","<p></p>","null","","","","","","","","","","","","","","","","","","",""
"","do_trial","378","1182807","0.0-203.0-0.0","466.59999999403954","","","","51","1,0,0","3","highway","148","probe-205","0.2685951818674763","0.3554676605264039","0.6254671795383928","0","","","","","","","",""
"","html-keyboard-response","379","1183811","0.0-203.0-1.0","null","<p></p>","null","","","","","","","","","","","","","","","","","","",""
"","do_trial","380","1188462","0.0-204.0-0.0","109.40000000596046","","","","49","0,1,0","3","highway","149","probe-204","0.16494422085059332","0.3777869205583648","0.6860800674257871","0","","","","","","","",""
"","html-keyboard-response","381","1189467","0.0-204.0-1.0","null","<p></p>","null","","","","","","","","","","","","","","","","","","",""
"","do_bye","382","1190976","0.0-205.0-0.0","null","","","","null","","","","","","","","","","","","","","","","",""
"","do_travel","383","1196983","0.0-206.0-0.0","null","","","","null","","","","","","","","","","","","","","","","",""
"","do_welcome","384","1198491","0.0-206.0-1.0","null","","","","null","","","","","","","","","","","","","","","","",""
"","do_trial","385","1204120","0.0-207.0-0.0","1087.5999999940395","","","","50","0,1,1","4","city","150","probe-41","0.24505439245746993","0.3556065447877957","1","1","","","","","","","",""
"","html-keyboard-response","386","1205123","0.0-207.0-1.0","null","<p></p>","null","","","","","","","","","","","","","","","","","","",""
"","do_trial","387","1209884","0.0-208.0-0.0","217.60000002384186","","","","50","0,0,1","4","city","151","probe-85","0.14124140125614898","0.33892917240054365","1","0","","","","","","","",""
"","html-keyboard-response","388","1210887","0.0-208.0-1.0","null","<p></p>","null","","","","","","","","","","","","","","","","","","",""
"","do_trial","389","1216689","0.0-209.0-0.0","1263.4000000059605","","","","50","0,0,1","4","city","152","probe-07","0.13253382864864172","0.1417191359707193","0.8897363081566462","0","","","","","","","",""
"","html-keyboard-response","390","1217694","0.0-209.0-1.0","null","<p></p>","null","","","","","","","","","","","","","","","","","","",""
"","do_trial","391","1222700","0.0-210.0-0.0","466.90000000596046","","","","51","0,1,1","4","city","153","probe-20","0.0852506315334514","0.16696964582688012","0.789931693421524","1","","","","","","","",""
"","html-keyboard-response","392","1223704","0.0-210.0-1.0","null","<p></p>","null","","","","","","","","","","","","","","","","","","",""
"","do_trial","393","1228317","0.0-211.0-0.0","70.59999999403954","","","","51","0,0,1","4","city","154","probe-165","0.08756570933917918","0.28994060789998516","0.7505748919315405","1","","","","","","","",""
"","html-keyboard-response","394","1229318","0.0-211.0-1.0","null","<p></p>","null","","","","","","","","","","","","","","","","","","",""
"","do_trial","395","1233941","0.0-212.0-0.0","80.7999999821186","","","","51","0,0,1","4","city","155","probe-74","0.06449751141534982","0.3715738755291029","0.641078481561574","1","","","","","","","",""
"","html-keyboard-response","396","1234945","0.0-212.0-1.0","null","<p></p>","null","","","","","","","","","","","","","","","","","","",""
"","do_trial","397","1239747","0.0-213.0-0.0","259.2999999821186","","","","51","0,0,0","4","city","156","probe-158","0.09448744687560436","0.2819995640430771","0.5951805575821408","0","","","","","","","",""
"","html-keyboard-response","398","1240750","0.0-213.0-1.0","null","<p></p>","null","","","","","","","","","","","","","","","","","","",""
"","do_trial","399","1246138","0.0-214.0-0.0","848.9000000059605","","","","51","0,0,1","4","city","157","probe-25","0.20692169491328521","0.32699513938656266","0.738262290347461","1","","","","","","","",""
"","html-keyboard-response","400","1247142","0.0-214.0-1.0","null","<p></p>","null","","","","","","","","","","","","","","","","","","",""
"","do_trial","401","1251692","0.0-215.0-0.0","7.700000017881393","","","","51","1,0,1","4","city","158","probe-34","0.2953600193548231","0.43581157495821404","0.5305686460749336","1","","","","","","","",""
"","html-keyboard-response","402","1252696","0.0-215.0-1.0","null","<p></p>","null","","","","","","","","","","","","","","","","","","",""
"","do_trial","403","1257390","0.0-216.0-0.0","153.30000001192093","","","","51","0,1,1","4","city","159","probe-92","0.31738517933280574","0.4089555879329425","0.6536980632180824","1","","","","","","","",""
"","html-keyboard-response","404","1258396","0.0-216.0-1.0","null","<p></p>","null","","","","","","","","","","","","","","","","","","",""
"","do_trial","405","1264468","0.0-217.0-0.0","1531.699999988079","","","","51","0,0,1","4","city","160","probe-03","0.3181231586512961","0.5042546158769942","0.669672862899824","1","","","","","","","",""
"","html-keyboard-response","406","1265469","0.0-217.0-1.0","null","<p></p>","null","","","","","","","","","","","","","","","","","","",""
"","do_trial","407","1270974","0.0-218.0-0.0","961.5","","","","51","0,0,1","4","city","161","probe-193","0.31488273982772347","0.5256608064711401","0.7171358880581049","1","","","","","","","",""
"","html-keyboard-response","408","1271978","0.0-218.0-1.0","null","<p></p>","null","","","","","","","","","","","","","","","","","","",""
"","do_trial","409","1277287","0.0-219.0-0.0","765.8999999761581","","","","51","1,0,0","4","city","162","probe-30","0.36904011898574296","0.6016536834147505","0.3561191674925653","0","","","","","","","",""
"","html-keyboard-response","410","1278291","0.0-219.0-1.0","null","<p></p>","null","","","","","","","","","","","","","","","","","","",""
"","do_trial","411","1283350","0.0-220.0-0.0","516.5","","","","51","1,1,0","4","city","163","probe-107","0.3321388128896877","0.49793285189777536","0.2442228262834204","0","","","","","","","",""
"","html-keyboard-response","412","1284355","0.0-220.0-1.0","null","<p></p>","null","","","","","","","","","","","","","","","","","","",""
"","do_trial","413","1289332","0.0-221.0-0.0","437.59999999403954","","","","50","1,0,1","4","city","164","probe-54","0.391366500933796","0.6544053603191959","0.22152473871516762","0","","","","","","","",""
"","html-keyboard-response","414","1290337","0.0-221.0-1.0","null","<p></p>","null","","","","","","","","","","","","","","","","","","",""
"","do_trial","415","1295280","0.0-222.0-0.0","400","","","","49","0,1,0","4","city","165","probe-150","0.2762232517790421","0.6529614404538634","0.14525361192628086","0","","","","","","","",""
"","html-keyboard-response","416","1296283","0.0-222.0-1.0","null","<p></p>","null","","","","","","","","","","","","","","","","","","",""
"","do_trial","417","1301622","0.0-223.0-0.0","796.0999999940395","","","","51","1,1,0","4","city","166","probe-125","0.3317207564265436","0.4286307598422836","0.08722066037819652","0","","","","","","","",""
"","html-keyboard-response","418","1302623","0.0-223.0-1.0","null","<p></p>","null","","","","","","","","","","","","","","","","","","",""
"","do_trial","419","1307665","0.0-224.0-0.0","492.5","","","","51","1,0,0","4","city","167","probe-40","0.3349139430043853","0.4704243427494717","0.12853201030841296","0","","","","","","","",""
"","html-keyboard-response","420","1308669","0.0-224.0-1.0","null","<p></p>","null","","","","","","","","","","","","","","","","","","",""
"","do_trial","421","1313325","0.0-225.0-0.0","115.40000000596046","","","","49","0,0,0","4","city","168","probe-108","0.2702904389064913","0.44243155182481986","0.20949820061191993","0","","","","","","","",""
"","html-keyboard-response","422","1314326","0.0-225.0-1.0","null","<p></p>","null","","","","","","","","","","","","","","","","","","",""
"","do_trial","423","1318952","0.0-226.0-0.0","83.10000002384186","","","","50","0,0,0","4","city","169","probe-102","0.2049068142323491","0.44629003145253343","0.20531761129297058","0","","","","","","","",""
"","html-keyboard-response","424","1319955","0.0-226.0-1.0","null","<p></p>","null","","","","","","","","","","","","","","","","","","",""
"","do_trial","425","1325580","0.0-227.0-0.0","1081.300000011921","","","","50","0,0,0","4","city","170","probe-171","0.2048115232787108","0.4250887086766054","0.15562576731500374","0","","","","","","","",""
"","html-keyboard-response","426","1326586","0.0-227.0-1.0","null","<p></p>","null","","","","","","","","","","","","","","","","","","",""
"","do_trial","427","1331210","0.0-228.0-0.0","81.80000001192093","","","","49","0,1,0","4","city","171","probe-172","0.2271550999410203","0.5865141315734389","0.08520485477225567","0","","","","","","","",""
"","html-keyboard-response","428","1332213","0.0-228.0-1.0","null","<p></p>","null","","","","","","","","","","","","","","","","","","",""
"","do_trial","429","1337696","0.0-229.0-0.0","944.6999999880791","","","","51","0,1,0","4","city","172","probe-71","0.14467699559735742","0.5965493042651194","0.08052239458321866","0","","","","","","","",""
"","html-keyboard-response","430","1338699","0.0-229.0-1.0","null","<p></p>","null","","","","","","","","","","","","","","","","","","",""
"","do_trial","431","1343586","0.0-230.0-0.0","343.69999998807907","","","","49","0,1,0","4","city","173","probe-194","0.1712980929210617","0.540833465443524","0.08764882861166343","0","","","","","","","",""
"","html-keyboard-response","432","1344590","0.0-230.0-1.0","null","<p></p>","null","","","","","","","","","","","","","","","","","","",""
"","do_trial","433","1349130","0.0-231.0-0.0","0.09999999403953552","","","","50","0,1,0","4","city","174","probe-196","0.2495122601997686","0.5651748877321044","0.07033963106925673","1","","","","","","","",""
"","html-keyboard-response","434","1350132","0.0-231.0-1.0","null","<p></p>","null","","","","","","","","","","","","","","","","","","",""
"","do_trial","435","1354751","0.0-232.0-0.0","76.19999998807907","","","","50","0,1,0","4","city","175","probe-45","0.37594205641094375","0.5239953973293499","0.09521509935556807","1","","","","","","","",""
"","html-keyboard-response","436","1355753","0.0-232.0-1.0","null","<p></p>","null","","","","","","","","","","","","","","","","","","",""
"","do_trial","437","1360306","0.0-233.0-0.0","15","","","","50","0,0,0","4","city","176","probe-188","0.19397000976148238","0.6112324436451465","0.13675627536435092","0","","","","","","","",""
"","html-keyboard-response","438","1361309","0.0-233.0-1.0","null","<p></p>","null","","","","","","","","","","","","","","","","","","",""
"","do_trial","439","1367603","0.0-234.0-0.0","1751.5","","","","50","1,1,1","4","city","177","probe-136","0.28412318324056673","0.6029099284509083","0.1725487594628736","1","","","","","","","",""
"","html-keyboard-response","440","1368607","0.0-234.0-1.0","null","<p></p>","null","","","","","","","","","","","","","","","","","","",""
"","do_trial","441","1374014","0.0-235.0-0.0","863.2999999821186","","","","50","0,0,0","4","city","178","probe-211","0.3584246936403895","0.5373593574696895","0.09898498159874075","0","","","","","","","",""
"","html-keyboard-response","442","1375017","0.0-235.0-1.0","null","<p></p>","null","","","","","","","","","","","","","","","","","","",""
"","do_trial","443","1379559","0.0-236.0-0.0","0.09999999403953552","","","","49","1,0,1","4","city","179","probe-164","0.4156990921946719","0.48208572296429864","0.0936037680122093","1","","","","","","","",""
"","html-keyboard-response","444","1380563","0.0-236.0-1.0","null","<p></p>","null","","","","","","","","","","","","","","","","","","",""
"","do_trial","445","1385889","0.0-237.0-0.0","782.6999999880791","","","","49","0,1,0","4","city","180","probe-04","0.23565160652589717","0.6221664518530287","0.09381118901610203","0","","","","","","","",""
"","html-keyboard-response","446","1386890","0.0-237.0-1.0","null","<p></p>","null","","","","","","","","","","","","","","","","","","",""
"","do_trial","447","1391954","0.0-238.0-0.0","520.0999999940395","","","","51","0,0,0","4","city","181","probe-113","0.16298805571172473","0.5543284184471408","0.0578677652572642","0","","","","","","","",""
"","html-keyboard-response","448","1392957","0.0-238.0-1.0","null","<p></p>","null","","","","","","","","","","","","","","","","","","",""
"","do_trial","449","1398302","0.0-239.0-0.0","802.0999999940395","","","","50","0,0,0","4","city","182","probe-210","0.20265305666522895","0.5091504323503666","0.16664915437299513","0","","","","","","","",""
"","html-keyboard-response","450","1399305","0.0-239.0-1.0","null","<p></p>","null","","","","","","","","","","","","","","","","","","",""
"","do_trial","451","1404683","0.0-240.0-0.0","837.5","","","","49","0,1,0","4","city","183","probe-119","0.2283807462638979","0.5976678323200862","0.11487266160998788","0","","","","","","","",""
"","html-keyboard-response","452","1405687","0.0-240.0-1.0","null","<p></p>","null","","","","","","","","","","","","","","","","","","",""
"","do_trial","453","1410876","0.0-241.0-0.0","649.5999999940395","","","","51","1,0,0","4","city","184","probe-51","0.19367270530319336","0.5236189159941078","0.08437900511649643","0","","","","","","","",""
"","html-keyboard-response","454","1411881","0.0-241.0-1.0","null","<p></p>","null","","","","","","","","","","","","","","","","","","",""
"","do_trial","455","1417940","0.0-242.0-0.0","1518.5","","","","50","0,1,0","4","city","185","probe-180","0.17982201971031958","0.5163850461890198","0.050980618041276494","1","","","","","","","",""
"","html-keyboard-response","456","1418946","0.0-242.0-1.0","null","<p></p>","null","","","","","","","","","","","","","","","","","","",""
"","do_trial","457","1424572","0.0-243.0-0.0","1082.199999988079","","","","50","1,0,0","4","city","186","probe-141","0.3391989728937778","0.511053849131091","0.06155846029533233","0","","","","","","","",""
"","html-keyboard-response","458","1425574","0.0-243.0-1.0","null","<p></p>","null","","","","","","","","","","","","","","","","","","",""
"","do_trial","459","1431565","0.0-244.0-0.0","1453","","","","49","0,1,1","4","city","187","probe-27","0.31029895428628645","0.49125564168807145","0.11320698329054593","0","","","","","","","",""
"","html-keyboard-response","460","1432569","0.0-244.0-1.0","null","<p></p>","null","","","","","","","","","","","","","","","","","","",""
"","do_trial","461","1437472","0.0-245.0-0.0","364.19999998807907","","","","49","0,0,0","4","city","188","probe-114","0.24435179994751177","0.7002930636576103","0.1468523210129536","0","","","","","","","",""
"","html-keyboard-response","462","1438474","0.0-245.0-1.0","null","<p></p>","null","","","","","","","","","","","","","","","","","","",""
"","do_trial","463","1443022","0.0-246.0-0.0","5.5999999940395355","","","","51","0,1,1","4","city","189","probe-230","0.14685248700494585","0.5756952124525018","0.07365546287042105","1","","","","","","","",""
"","html-keyboard-response","464","1444024","0.0-246.0-1.0","null","<p></p>","null","","","","","","","","","","","","","","","","","","",""
"","do_bye","465","1445529","0.0-247.0-0.0","null","","","","null","","","","","","","","","","","","","","","","",""
"","do_travel","466","1451533","0.0-248.0-0.0","null","","","","null","","","","","","","","","","","","","","","","",""
"","do_welcome","467","1453039","0.0-248.0-1.0","null","","","","null","","","","","","","","","","","","","","","","",""
"","do_trial","468","1458570","0.0-249.0-0.0","989.4000000059605","","","","50","0,1,0","5","coast","190","probe-103","0.17684529134754126","1","0.0949164226707453","1","","","","","","","",""
"","html-keyboard-response","469","1459573","0.0-249.0-1.0","null","<p></p>","null","","","","","","","","","","","","","","","","","","",""
"","do_trial","470","1464935","0.0-250.0-0.0","819.8000000119209","","","","50","0,1,0","5","coast","191","probe-15","0.13292695941146174","1","0.056876816318095005","1","","","","","","","",""
"","html-keyboard-response","471","1465939","0.0-250.0-1.0","null","<p></p>","null","","","","","","","","","","","","","","","","","","",""
"","do_trial","472","1470898","0.0-251.0-0.0","416","","","","50","0,1,0","5","coast","192","probe-175","0.17541951033619185","0.8555910545190267","0.16509754272604013","1","","","","","","","",""
"","html-keyboard-response","473","1471902","0.0-251.0-1.0","null","<p></p>","null","","","","","","","","","","","","","","","","","","",""
"","do_trial","474","1477246","0.0-252.0-0.0","800.0999999940395","","","","50","1,0,0","5","coast","193","probe-79","0.22264407604910194","0.6611743216599966","0.1408263270707604","0","","","","","","","",""
"","html-keyboard-response","475","1478249","0.0-252.0-1.0","null","<p></p>","null","","","","","","","","","","","","","","","","","","",""
"","do_trial","476","1483305","0.0-253.0-0.0","515.0999999940395","","","","50","0,1,0","5","coast","194","probe-35","0.3078577940056767","0.7032572506690753","0.09778075890679322","1","","","","","","","",""
"","html-keyboard-response","477","1484307","0.0-253.0-1.0","null","<p></p>","null","","","","","","","","","","","","","","","","","","",""
"","do_trial","478","1489323","0.0-254.0-0.0","478.40000000596046","","","","50","0,1,0","5","coast","195","probe-16","0.3192587487175399","0.6947471647259522","0.11689354477373141","1","","","","","","","",""
"","html-keyboard-response","479","1490327","0.0-254.0-1.0","null","<p></p>","null","","","","","","","","","","","","","","","","","","",""
"","do_trial","480","1495288","0.0-255.0-0.0","423","","","","50","1,1,0","5","coast","196","probe-120","0.24819151628354746","0.7592190590116635","0.10938986878311756","1","","","","","","","",""
"","html-keyboard-response","481","1496294","0.0-255.0-1.0","null","<p></p>","null","","","","","","","","","","","","","","","","","","",""
"","do_trial","482","1501893","0.0-256.0-0.0","1055.699999988079","","","","50","0,1,0","5","coast","197","probe-104","0.18143327320228017","0.7083916849735308","0.05733967724560567","1","","","","","","","",""
"","html-keyboard-response","483","1502897","0.0-256.0-1.0","null","<p></p>","null","","","","","","","","","","","","","","","","","","",""
"","do_trial","484","1510361","0.0-257.0-0.0","2921.5999999940395","","","","50","0,1,1","5","coast","198","probe-70","0.27503339417857975","0.5979277062847301","0.1520554997567705","1","","","","","","","",""
"","html-keyboard-response","485","1511365","0.0-257.0-1.0","null","<p></p>","null","","","","","","","","","","","","","","","","","","",""
"","do_trial","486","1516356","0.0-258.0-0.0","452.90000000596046","","","","50","1,1,0","5","coast","199","probe-105","0.4525727210665403","0.58602399258471","0.14545809411396815","1","","","","","","","",""
"","html-keyboard-response","487","1517361","0.0-258.0-1.0","null","<p></p>","null","","","","","","","","","","","","","","","","","","",""
"","do_trial","488","1522421","0.0-259.0-0.0","517.5","","","","50","1,0,0","5","coast","200","probe-173","0.5870908493884511","0.6665397261596826","0.11730097784184568","0","","","","","","","",""
"","html-keyboard-response","489","1523425","0.0-259.0-1.0","null","<p></p>","null","","","","","","","","","","","","","","","","","","",""
"","do_trial","490","1528647","0.0-260.0-0.0","679.5","","","","50","1,0,0","5","coast","201","probe-14","0.7035548373514159","0.6203270052506011","0.05574733708397019","0","","","","","","","",""
"","html-keyboard-response","491","1529650","0.0-260.0-1.0","null","<p></p>","null","","","","","","","","","","","","","","","","","","",""
"","do_trial","492","1537166","0.0-261.0-0.0","2977.0999999940395","","","","50","1,0,0","5","coast","202","probe-23","0.6143078649866748","0.40122125039044276","0.11058348152806524","0","","","","","","","",""
"","html-keyboard-response","493","1538170","0.0-261.0-1.0","null","<p></p>","null","","","","","","","","","","","","","","","","","","",""
"","do_trial","494","1543598","0.0-262.0-0.0","884.5","","","","51","0,0,0","5","coast","203","probe-83","0.6027425894325352","0.22771659978406888","0.06267989102097975","0","","","","","","","",""
"","html-keyboard-response","495","1544601","0.0-262.0-1.0","null","<p></p>","null","","","","","","","","","","","","","","","","","","",""
"","do_trial","496","1549607","0.0-263.0-0.0","465.90000000596046","","","","49","0,0,0","5","coast","204","probe-169","0.6314485849993057","0.08028993840006492","0.09904837180908833","0","","","","","","","",""
"","html-keyboard-response","497","1550611","0.0-263.0-1.0","null","<p></p>","null","","","","","","","","","","","","","","","","","","",""
"","do_trial","498","1555824","0.0-264.0-0.0","671.7999999821186","","","","49","0,0,0","5","coast","205","probe-121","0.5884835250143605","0.09619697604851174","0.06143717648823062","0","","","","","","","",""
"","html-keyboard-response","499","1556828","0.0-264.0-1.0","null","<p></p>","null","","","","","","","","","","","","","","","","","","",""
"","do_trial","500","1561467","0.0-265.0-0.0","101.7000000178814","","","","51","0,0,0","5","coast","206","probe-228","0.6113328249527088","0.06851632114692453","0.13916742552167732","0","","","","","","","",""
"","html-keyboard-response","501","1562471","0.0-265.0-1.0","null","<p></p>","null","","","","","","","","","","","","","","","","","","",""
"","do_trial","502","1567707","0.0-266.0-0.0","696.1999999880791","","","","51","1,0,1","5","coast","207","probe-195","0.44666912363631456","0.12433588317795724","0.22892158030708584","1","","","","","","","",""
"","html-keyboard-response","503","1568711","0.0-266.0-1.0","null","<p></p>","null","","","","","","","","","","","","","","","","","","",""
"","do_trial","504","1574279","0.0-267.0-0.0","1023.9000000059605","","","","51","0,0,0","5","coast","208","probe-170","0.5796064448174088","0.09239962832648833","0.19695261247289494","0","","","","","","","",""
"","html-keyboard-response","505","1575282","0.0-267.0-1.0","null","<p></p>","null","","","","","","","","","","","","","","","","","","",""
"","do_trial","506","1580423","0.0-268.0-0.0","602.6000000238419","","","","49","0,0,1","5","coast","209","probe-13","0.5693005312362877","0.06894561666238555","0.3089665718485694","0","","","","","","","",""
"","html-keyboard-response","507","1581427","0.0-268.0-1.0","null","<p></p>","null","","","","","","","","","","","","","","","","","","",""
"","do_trial","508","1586778","0.0-269.0-0.0","807.9000000059605","","","","50","0,0,0","5","coast","210","probe-147","0.613366161960253","0.2657939293974612","0.36760153220155994","0","","","","","","","",""
"","html-keyboard-response","509","1587782","0.0-269.0-1.0","null","<p></p>","null","","","","","","","","","","","","","","","","","","",""
"","do_trial","510","1593210","0.0-270.0-0.0","889.3000000119209","","","","51","0,0,0","5","coast","211","probe-18","0.5847742767884192","0.23323158783634565","0.3913917152618227","0","","","","","","","",""
"","html-keyboard-response","511","1594212","0.0-270.0-1.0","null","<p></p>","null","","","","","","","","","","","","","","","","","","",""
"","do_trial","512","1599561","0.0-271.0-0.0","809","","","","49","0,0,0","5","coast","212","probe-10","0.6374086932235499","0.3588190679483803","0.29231422884304753","0","","","","","","","",""
"","html-keyboard-response","513","1600565","0.0-271.0-1.0","null","<p></p>","null","","","","","","","","","","","","","","","","","","",""
"","do_trial","514","1605193","0.0-272.0-0.0","85.10000002384186","","","","49","1,1,0","5","coast","213","probe-208","0.7519297946041219","0.3441475567418572","0.28251948858136616","1","","","","","","","",""
"","html-keyboard-response","515","1606195","0.0-272.0-1.0","null","<p></p>","null","","","","","","","","","","","","","","","","","","",""
"","do_trial","516","1610825","0.0-273.0-0.0","89.09999999403954","","","","49","0,1,0","5","coast","214","probe-212","0.7152099518629825","0.3265673977468103","0.30966915771091696","0","","","","","","","",""
"","html-keyboard-response","517","1611828","0.0-273.0-1.0","null","<p></p>","null","","","","","","","","","","","","","","","","","","",""
"","do_trial","518","1616456","0.0-274.0-0.0","84","","","","50","1,0,0","5","coast","215","probe-179","0.6555439763840386","0.14358067863219545","0.3361793018193157","0","","","","","","","",""
"","html-keyboard-response","519","1617457","0.0-274.0-1.0","null","<p></p>","null","","","","","","","","","","","","","","","","","","",""
"","do_trial","520","1622078","0.0-275.0-0.0","78.09999999403954","","","","51","0,1,0","5","coast","216","probe-222","0.5545978296187232","0.1907861897637317","0.25920786339456137","0","","","","","","","",""
"","html-keyboard-response","521","1623082","0.0-275.0-1.0","null","<p></p>","null","","","","","","","","","","","","","","","","","","",""
"","do_trial","522","1627810","0.0-276.0-0.0","186.2000000178814","","","","51","1,0,1","5","coast","217","probe-229","0.6407461385434084","0.09566686200223788","0.288576830058782","1","","","","","","","",""
"","html-keyboard-response","523","1628813","0.0-276.0-1.0","null","<p></p>","null","","","","","","","","","","","","","","","","","","",""
"","do_trial","524","1633744","0.0-277.0-0.0","392.40000000596046","","","","51","1,1,0","5","coast","218","probe-12","0.6476298124348621","0.17445401405260433","0.27526925088680926","0","","","","","","","",""
"","html-keyboard-response","525","1634748","0.0-277.0-1.0","null","<p></p>","null","","","","","","","","","","","","","","","","","","",""
"","do_trial","526","1639419","0.0-278.0-0.0","133.59999999403954","","","","50","1,0,1","5","coast","219","probe-156","0.5467350463734707","0.05257349747482078","0.3318918805030397","0","","","","","","","",""
"","html-keyboard-response","527","1640423","0.0-278.0-1.0","null","<p></p>","null","","","","","","","","","","","","","","","","","","",""
"","do_trial","528","1645274","0.0-279.0-0.0","310.5","","","","50","0,0,0","5","coast","220","probe-82","0.522301013733222","0.22375398584708986","0.37296171986207205","0","","","","","","","",""
"","html-keyboard-response","529","1646277","0.0-279.0-1.0","null","<p></p>","null","","","","","","","","","","","","","","","","","","",""
"","do_trial","530","1650974","0.0-280.0-0.0","158.40000000596046","","","","49","1,0,1","5","coast","221","probe-56","0.508387697236903","0.34001693930815136","0.4548282161519241","1","","","","","","","",""
