"success","trial_type","trial_index","time_elapsed","internal_node_id","interactions","blur_events","focus_events","fullscreenenter_events","fullscreenexit_events","rt","stimulus","key_press","subject_id","participant_id","age","gender","prompt","response","choice_outcomes","context_n","context_img_id","trial_n","probe_img_id","pR_red","pR_white","pR_black","outcome","contextArray_ind","validImageProbes","invalidImageProbes","pRew_Red","pRew_White","pRew_Black","availableForMemProbe","choice_blocks"
"true","fullscreen","0","5131","0.0-0.0","""event"",""trial"",""time""
""fullscreenenter"",""0"",""4160""
","
","
","""event"",""trial"",""time""
""fullscreenenter"",""0"",""4160""
","
","","","","","","","","","","","","","","","","","","","","","","","","","",""
"","pavlovia","1","5140","0.0-1.0","""event"",""trial"",""time""
""fullscreenenter"",""0"",""4160""
","
","
","""event"",""trial"",""time""
""fullscreenenter"",""0"",""4160""
","
","","","","","","","","","","","","","","","","","","","","","","","","","",""
"","instruc1","2","50284","0.0-2.0","""event"",""trial"",""time""
""fullscreenenter"",""0"",""4160""
","
","
","""event"",""trial"",""time""
""fullscreenenter"",""0"",""4160""
","
","null","run_exp/static/audio/clip_1_welcome.m4a","null","119","191","9","Male","<div class='center'><p>Welcome! This is the first part of the study. It will last ~30 minutes. In part 1 and part 2 of the study, you are the head captain of a pirate ship traveling around the world to different islands. You will play a few different games throughout these two parts. Here is an overview of them:</p><br><p>Part 1 (today)</p><p>1. Instructions, practice game, and quiz</p><p>2. Pick a pirate game on 6 different islands</p><br><p>Part 2 (tomorrow)</p><p>3. Pick a pirate game and memory game</p><p>4. Where did you see this ship? </p></div>","","","","","","","","","","","","","","","","","",""
"","html-keyboard-response","3","50635","0.0-3.0","""event"",""trial"",""time""
""fullscreenenter"",""0"",""4160""
","
","
","""event"",""trial"",""time""
""fullscreenenter"",""0"",""4160""
","
","343.09999999962747","<div class='center'><p>Welcome! This is the first part of the study. It will last ~30 minutes. In part 1 and part 2 of the study, you are the head captain of a pirate ship traveling around the world to different islands. You will play a few different games throughout these two parts. Here is an overview of them:</p><br><p>Part 1 (today)</p><p>1. Instructions, practice game, and quiz</p><p>2. Pick a pirate game on 6 different islands</p><br><p>Part 2 (tomorrow)</p><p>3. Pick a pirate game and memory game</p><p>4. Where did you see this ship? </p><p><b>[Press the space bar to continue]</b></p></div>","32","","","","","","","","","","","","","","","","","","","","","","",""
"","instruc2","4","56128","0.0-4.0","""event"",""trial"",""time""
""fullscreenenter"",""0"",""4160""
","
","
","""event"",""trial"",""time""
""fullscreenenter"",""0"",""4160""
","
","null","run_exp/static/audio/clip_2_different_places.m4a","null","","","","","<div class='center'><p>Today, you’ll visit these 6 islands on your journey. You'll be able to see these islands from your ship.</p><p><img src='run_exp/static/images/contexts/all_contexts.png' height='500'></p></div>","","","","","","","","","","","","","","","","","",""
"","html-keyboard-response","5","57506","0.0-5.0","""event"",""trial"",""time""
""fullscreenenter"",""0"",""4160""
","
","
","""event"",""trial"",""time""
""fullscreenenter"",""0"",""4160""
","
","1372.9000000003725","<div class='center'><p>Today, you’ll visit these 6 islands on your journey. You'll be able to see these islands from your ship.</p><p><img src='run_exp/static/images/contexts/all_contexts.png' height='500'></p><p><b>[Press the space bar to continue]</b></p></div>","32","","","","","","","","","","","","","","","","","","","","","","",""
"","instruc3","6","67453","0.0-6.0","""event"",""trial"",""time""
""fullscreenenter"",""0"",""4160""
","
","
","""event"",""trial"",""time""
""fullscreenenter"",""0"",""4160""
","
","null","run_exp/static/audio/clip_3_goal_of_game_1.m4a","null","","","","","<div class='center'><p> The pirates on your ship will rob other ships as they leave the island.</p> These ships have just sold their goods to the islanders, so they will be filled with lots and lots of gold.</p><p><img src='run_exp/static/images/tutorial/ship_center.png' height='400'></p></div>","","","","","","","","","","","","","","","","","",""
"","html-keyboard-response","7","67463","0.0-7.0","""event"",""trial"",""time""
""fullscreenenter"",""0"",""4160""
","
","
","""event"",""trial"",""time""
""fullscreenenter"",""0"",""4160""
","
","5.099999999627471","<div class='center'><p> The pirates on your ship will rob other ships as they leave the island.</p> These ships have just sold their goods to the islanders, so they will be filled with lots and lots of gold.</p><p><img src='run_exp/static/images/tutorial/ship_center.png' height='400'></p><p><b>[Press the space bar to continue]</b></p></div>","32","","","","","","","","","","","","","","","","","","","","","","",""
"","instruc4","8","95674","0.0-8.0","""event"",""trial"",""time""
""fullscreenenter"",""0"",""4160""
","
","
","""event"",""trial"",""time""
""fullscreenenter"",""0"",""4160""
","
","null","run_exp/static/audio/clip_4_goal_of_game_2.m4a","null","","","","","<div class='center'><p>As the head captain, you do not have to rob any ships yourself. Another pirate will be doing the robbing for you. First, you will choose a pirate to rob the next ship.</p><p><img src='run_exp/static/images/tutorial/pirates_all_crop.png' height='200'></p><p>Then, you'll see if the pirate successfully robbed the ship of their gold. If they were successful, then you'll get a stack of gold coins like this:</p><p><img src='run_exp/static/images/tutorial/reward.png' height='150'></p><p> If they were <b>not</b> successful, then you'll get no gold coins, and you'll see a big red x like this: </p><p><img src='run_exp/static/images/tutorial/reward_no.png' height='150'></p><p> How much bonus money you make is based on how many gold coins you collect.</p><div>","","","","","","","","","","","","","","","","","",""
"","html-keyboard-response","9","96810","0.0-9.0","""event"",""trial"",""time""
""fullscreenenter"",""0"",""4160""
","
","
","""event"",""trial"",""time""
""fullscreenenter"",""0"",""4160""
","
","1133.6000000005588","<div class='center'><p>As the head captain, you do not have to rob any ships yourself. Another pirate will be doing the robbing for you. First, you will choose a pirate to rob the next ship.</p><p><img src='run_exp/static/images/tutorial/pirates_all_crop.png' height='200'></p><p>Then, you'll see if the pirate successfully robbed the ship of their gold. If they were successful, then you'll get a stack of gold coins like this:</p><p><img src='run_exp/static/images/tutorial/reward.png' height='150'></p><p> If they were <b>not</b> successful, then you'll get no gold coins, and you'll see a big red x like this: </p><p><img src='run_exp/static/images/tutorial/reward_no.png' height='150'></p><p> How much bonus money you make is based on how many gold coins you collect.</p<p><b>[Press the space bar to continue]</b></p></div>","32","","","","","","","","","","","","","","","","","","","","","","",""
"","instruc5","10","126470","0.0-10.0","""event"",""trial"",""time""
""fullscreenenter"",""0"",""4160""
","
","
","""event"",""trial"",""time""
""fullscreenenter"",""0"",""4160""
","
","29656.799999999814","run_exp/static/audio/clip_5_probabilistic.m4a","49","","","","","<div class='center'><p>Even the most skilled pirate can not rob EVERY ship.</p><p> Some ships will have very strong protections against pirate attacks.</p><p> Blue beard, here, is very, very good at robbing ships, but he won't be successful every time he tries to rob one.</p><p> You can press the <b>‘1’</b> key on the keyboard to choose him.</p><p> Try choosing him 10 times to see how often he succeeds at robbing a ship. </p><p><img src='run_exp/static/images/tutorial/blue.png' height='500'></p></div>","","","","","","","","","","","","","","","","","",""
"","html-keyboard-response","11","127974","0.0-11.0","""event"",""trial"",""time""
""fullscreenenter"",""0"",""4160""
","
","
","""event"",""trial"",""time""
""fullscreenenter"",""0"",""4160""
","
","null","<div class='center'><p><img src='run_exp/static/images/tutorial/blue_win.png' height='500'></p></div>","null","","","","","","","","","","","","","","","","","","","","","","",""
"","html-keyboard-response","12","128680","0.0-12.0","""event"",""trial"",""time""
""fullscreenenter"",""0"",""4160""
","
","
","""event"",""trial"",""time""
""fullscreenenter"",""0"",""4160""
","
","704.2000000001863","<div class='center'><img src='run_exp/static/images/tutorial/blue.png' height='500'></p></div>","49","","","","","","","","","","","","","","","","","","","","","","",""
"","html-keyboard-response","13","130183","0.0-13.0","""event"",""trial"",""time""
""fullscreenenter"",""0"",""4160""
","
","
","""event"",""trial"",""time""
""fullscreenenter"",""0"",""4160""
","
","null","<div class='center'><p><img src='run_exp/static/images/tutorial/blue_win.png' height='500'></p></div>","null","","","","","","","","","","","","","","","","","","","","","","",""
"","html-keyboard-response","14","130492","0.0-14.0","""event"",""trial"",""time""
""fullscreenenter"",""0"",""4160""
","
","
","""event"",""trial"",""time""
""fullscreenenter"",""0"",""4160""
","
","303.20000000018626","<div class='center'><img src='run_exp/static/images/tutorial/blue.png' height='500'></p></div>","49","","","","","","","","","","","","","","","","","","","","","","",""
"","html-keyboard-response","15","131995","0.0-15.0","""event"",""trial"",""time""
""fullscreenenter"",""0"",""4160""
","
","
","""event"",""trial"",""time""
""fullscreenenter"",""0"",""4160""
","
","null","<div class='center'><p><img src='run_exp/static/images/tutorial/blue_win.png' height='500'></p></div>","null","","","","","","","","","","","","","","","","","","","","","","",""
"","html-keyboard-response","16","132276","0.0-16.0","""event"",""trial"",""time""
""fullscreenenter"",""0"",""4160""
","
","
","""event"",""trial"",""time""
""fullscreenenter"",""0"",""4160""
","
","278.40000000037253","<div class='center'><img src='run_exp/static/images/tutorial/blue.png' height='500'></p></div>","49","","","","","","","","","","","","","","","","","","","","","","",""
"","html-keyboard-response","17","133778","0.0-17.0","""event"",""trial"",""time""
""fullscreenenter"",""0"",""4160""
","
","
","""event"",""trial"",""time""
""fullscreenenter"",""0"",""4160""
","
","null","<div class='center'><p><img src='run_exp/static/images/tutorial/blue_no_win.png' height='500'></p></div>","null","","","","","","","","","","","","","","","","","","","","","","",""
"","html-keyboard-response","18","134084","0.0-18.0","""event"",""trial"",""time""
""fullscreenenter"",""0"",""4160""
","
","
","""event"",""trial"",""time""
""fullscreenenter"",""0"",""4160""
","
","301.40000000037253","<div class='center'><img src='run_exp/static/images/tutorial/blue.png' height='500'></p></div>","49","","","","","","","","","","","","","","","","","","","","","","",""
"","html-keyboard-response","19","135588","0.0-19.0","""event"",""trial"",""time""
""fullscreenenter"",""0"",""4160""
","
","
","""event"",""trial"",""time""
""fullscreenenter"",""0"",""4160""
","
","null","<div class='center'><p><img src='run_exp/static/images/tutorial/blue_win.png' height='500'></p></div>","null","","","","","","","","","","","","","","","","","","","","","","",""
"","html-keyboard-response","20","135865","0.0-20.0","""event"",""trial"",""time""
""fullscreenenter"",""0"",""4160""
","
","
","""event"",""trial"",""time""
""fullscreenenter"",""0"",""4160""
","
","274.09999999962747","<div class='center'><img src='run_exp/static/images/tutorial/blue.png' height='500'></p></div>","49","","","","","","","","","","","","","","","","","","","","","","",""
"","html-keyboard-response","21","137367","0.0-21.0","""event"",""trial"",""time""
""fullscreenenter"",""0"",""4160""
","
","
","""event"",""trial"",""time""
""fullscreenenter"",""0"",""4160""
","
","null","<div class='center'><p><img src='run_exp/static/images/tutorial/blue_win.png' height='500'></p></div>","null","","","","","","","","","","","","","","","","","","","","","","",""
"","html-keyboard-response","22","137664","0.0-22.0","""event"",""trial"",""time""
""fullscreenenter"",""0"",""4160""
","
","
","""event"",""trial"",""time""
""fullscreenenter"",""0"",""4160""
","
","293.59999999962747","<div class='center'><img src='run_exp/static/images/tutorial/blue.png' height='500'></p></div>","49","","","","","","","","","","","","","","","","","","","","","","",""
"","html-keyboard-response","23","139167","0.0-23.0","""event"",""trial"",""time""
""fullscreenenter"",""0"",""4160""
","
","
","""event"",""trial"",""time""
""fullscreenenter"",""0"",""4160""
","
","null","<div class='center'><p><img src='run_exp/static/images/tutorial/blue_win.png' height='500'></p></div>","null","","","","","","","","","","","","","","","","","","","","","","",""
"","html-keyboard-response","24","140099","0.0-24.0","""event"",""trial"",""time""
""fullscreenenter"",""0"",""4160""
","
","
","""event"",""trial"",""time""
""fullscreenenter"",""0"",""4160""
","
","928.5999999996275","<div class='center'><img src='run_exp/static/images/tutorial/blue.png' height='500'></p></div>","49","","","","","","","","","","","","","","","","","","","","","","",""
"","html-keyboard-response","25","141604","0.0-25.0","""event"",""trial"",""time""
""fullscreenenter"",""0"",""4160""
","
","
","""event"",""trial"",""time""
""fullscreenenter"",""0"",""4160""
","
","null","<div class='center'><p><img src='run_exp/static/images/tutorial/blue_no_win.png' height='500'></p></div>","null","","","","","","","","","","","","","","","","","","","","","","",""
"","html-keyboard-response","26","142008","0.0-26.0","""event"",""trial"",""time""
""fullscreenenter"",""0"",""4160""
","
","
","""event"",""trial"",""time""
""fullscreenenter"",""0"",""4160""
","
","399.29999999981374","<div class='center'><img src='run_exp/static/images/tutorial/blue.png' height='500'></p></div>","49","","","","","","","","","","","","","","","","","","","","","","",""
"","html-keyboard-response","27","143512","0.0-27.0","""event"",""trial"",""time""
""fullscreenenter"",""0"",""4160""
","
","
","""event"",""trial"",""time""
""fullscreenenter"",""0"",""4160""
","
","null","<div class='center'><p><img src='run_exp/static/images/tutorial/blue_win.png' height='500'></p></div>","null","","","","","","","","","","","","","","","","","","","","","","",""
"","html-keyboard-response","28","143889","0.0-28.0","""event"",""trial"",""time""
""fullscreenenter"",""0"",""4160""
","
","
","""event"",""trial"",""time""
""fullscreenenter"",""0"",""4160""
","
","373.40000000037253","<div class='center'><img src='run_exp/static/images/tutorial/blue.png' height='500'></p></div>","49","","","","","","","","","","","","","","","","","","","","","","",""
"","html-keyboard-response","29","145393","0.0-29.0","""event"",""trial"",""time""
""fullscreenenter"",""0"",""4160""
","
","
","""event"",""trial"",""time""
""fullscreenenter"",""0"",""4160""
","
","null","<div class='center'><p><img src='run_exp/static/images/tutorial/blue_win.png' height='500'></p></div>","null","","","","","","","","","","","","","","","","","","","","","","",""
"","instruc6","30","150964","0.0-30.0","""event"",""trial"",""time""
""fullscreenenter"",""0"",""4160""
","
","
","""event"",""trial"",""time""
""fullscreenenter"",""0"",""4160""
","
","null","run_exp/static/audio/clip_6_blue_beard_outcome.m4a","null","","","","","<div class='center'><p> See, he succeeded in robbing the ships most of the time but not every time. </p></div>","","","","","","","","","","","","","","","","","",""
"","html-keyboard-response","31","152833","0.0-31.0","""event"",""trial"",""time""
""fullscreenenter"",""0"",""4160""
","
","
","""event"",""trial"",""time""
""fullscreenenter"",""0"",""4160""
","
","1866.6000000005588","<div class='center'><p> See, he succeeded in robbing the ships most of the time but not every time. </p><p><b>[Press the space bar to continue]</b></p></div>","32","","","","","","","","","","","","","","","","","","","","","","",""
"","audio-keyboard-response","32","168729","0.0-32.0","""event"",""trial"",""time""
""fullscreenenter"",""0"",""4160""
","
","
","""event"",""trial"",""time""
""fullscreenenter"",""0"",""4160""
","
","15886.799999999814","run_exp/static/audio/clip_7_pick_pirate.m4a","49","","","","","","","","","","","","","","","","","","","","","","",""
"","audio-keyboard-response","33","172792","0.0-33.0-0.0","""event"",""trial"",""time""
""fullscreenenter"",""0"",""4160""
","
","
","""event"",""trial"",""time""
""fullscreenenter"",""0"",""4160""
","
","4057.5","run_exp/static/audio/clip_8_chosen_pirate_win.m4a","32","","","","","","","","","","","","","","","","","","","","","","",""
"","audio-keyboard-response","34","175454","0.0-33.0-1.0","""event"",""trial"",""time""
""fullscreenenter"",""0"",""4160""
","
","
","""event"",""trial"",""time""
""fullscreenenter"",""0"",""4160""
","
","2654.5","run_exp/static/audio/clip_9_pick_a_pirate_again.m4a","49","","","","","","","","","","","","","","","","","","","","","","",""
"","audio-keyboard-response","35","179782","0.0-34.0-0.0","""event"",""trial"",""time""
""fullscreenenter"",""0"",""4160""
","
","
","""event"",""trial"",""time""
""fullscreenenter"",""0"",""4160""
","
","4317.9000000003725","run_exp/static/audio/clip_10_chosen_pirate_loss.m4a","32","","","","","","","","","","","","","","","","","","","","","","",""
"","instruc9","36","185498","0.0-35.0-0.0","""event"",""trial"",""time""
""fullscreenenter"",""0"",""4160""
","
","
","""event"",""trial"",""time""
""fullscreenenter"",""0"",""4160""
","
","null","run_exp/static/audio/clip_11_time_out.m4a","null","","","","","<div class='center'><p>If you don’t make your choice fast enough, you’ll have to wait a few seconds before you can make another one. </p><p><img src='run_exp/static/images/miscellaneous/hurry_up.png' height='500'></p></div>","","","","","","","","","","","","","","","","","",""
"","html-keyboard-response","37","186173","0.0-35.0-1.0","""event"",""trial"",""time""
""fullscreenenter"",""0"",""4160""
","
","
","""event"",""trial"",""time""
""fullscreenenter"",""0"",""4160""
","
","671.7000000001863","<div class='center'><p>If you don’t make your choice fast enough, you’ll have to wait a few seconds before you can make another one. </p><p><img src='run_exp/static/images/miscellaneous/hurry_up.png' height='500'></p><p><b>[Press the space bar to continue]</b></p></div>","32","","","","","","","","","","","","","","","","","","","","","","",""
"","instruc10","38","225423","0.0-35.0-2.0","""event"",""trial"",""time""
""fullscreenenter"",""0"",""4160""
","
","
","""event"",""trial"",""time""
""fullscreenenter"",""0"",""4160""
","
","null","run_exp/static/audio/clip_12_probe.m4a","null","","","","","<div class='center'><p>Once you've chosen a pirate, you’ll be shown the ship they are robbing. You will never rob the same ship twice. Ships can be told apart from one another by the image on them. These are the goods that they sell. See, this ship has a travel mug on it. </p><p> You’ll have to remember which island you saw each ship on. You will win more gold coins and hence more bonus money if you remember correctly! To help you remember, you can imagine a story. For example, here, you could imagine a mug full of water in the desert. Or, as another example, if on the forest island, your pirate robbed a ship with an apple on it, you could imagine an apple falling from a tree in the forest. </p><p><img src='run_exp/static/images/tutorial/example_probe.png' height='500'></p></div>","","","","","","","","","","","","","","","","","",""
"","html-keyboard-response","39","227282","0.0-35.0-3.0","""event"",""trial"",""time""
""fullscreenenter"",""0"",""4160""
","
","
","""event"",""trial"",""time""
""fullscreenenter"",""0"",""4160""
","
","1853.699999999255","<div class='center'><p>Once you've chosen a pirate, you’ll be shown the ship they are robbing. You will never rob the same ship twice. Ships can be told apart from one another by the image on them. These are the goods that they sell. See, this ship has a travel mug on it. </p><p> You’ll have to remember which island you saw each ship on. You will win more gold coins and hence more bonus money if you remember correctly! To help you remember, you can imagine a story. For example, here, you could imagine a mug full of water in the desert. Or, as another example, if on the forest island, your pirate robbed a ship with an apple on it, you could imagine an apple falling from a tree in the forest. </p><p><img src='run_exp/static/images/tutorial/example_probe.png' height='500'></p><p><b>[Press the space bar to continue]</b></p></div>","32","","","","","","","","","","","","","","","","","","","","","","",""
"","instruc11","40","243892","0.0-35.0-4.0","""event"",""trial"",""time""
""fullscreenenter"",""0"",""4160""
","
","
","""event"",""trial"",""time""
""fullscreenenter"",""0"",""4160""
","
","null","run_exp/static/audio/clip_13_changepoint.m4a","null","","","","","<div class='center'><p>How successful a pirate is at robbing ships will depend on the island you’re on.</p><p> A pirate may have visited this island many times before and gained a lot of practice robbing ships there.</p><p>So, they’re more likely to be successful than a pirate who has never visited the island before.</p></div>","","","","","","","","","","","","","","","","","",""
"","html-keyboard-response","41","244003","0.0-35.0-5.0","""event"",""trial"",""time""
""fullscreenenter"",""0"",""4160""
","
","
","""event"",""trial"",""time""
""fullscreenenter"",""0"",""4160""
","
","106.5","<div class='center'><p>How successful a pirate is at robbing ships will depend on the island you’re on.</p><p> A pirate may have visited this island many times before and gained a lot of practice robbing ships there.</p><p>So, they’re more likely to be successful than a pirate who has never visited the island before.</p><p><b>[Press the space bar to continue]</b></p></div>","32","","","","","","","","","","","","","","","","","","","","","","",""
"","instruc12","42","285295","0.0-35.0-6.0","""event"",""trial"",""time""
""fullscreenenter"",""0"",""4160""
","
","
","""event"",""trial"",""time""
""fullscreenenter"",""0"",""4160""
","
","null","run_exp/static/audio/clip_14_drift.m4a","null","","","","","<div class='center'><p>How successful a pirate is at robbing ships can also change over the time spent on the island. </p><p> Ships may hear from islanders about the pirates coming and will improve their protections against the attack. This may make it harder to rob them.</p><p> Ships may also become lazy and weaken the strength of their protections. This may make it easier to rob them.</p><br><p>Things are always changing on the high seas! So, try your best to pay attention!</p><p><img src='run_exp/static/images/tutorial/contingency.png' height='500'></p></div>","","","","","","","","","","","","","","","","","",""
"","html-keyboard-response","43","290340","0.0-35.0-7.0","""event"",""trial"",""time""
""fullscreenenter"",""0"",""4160""
","
","
","""event"",""trial"",""time""
""fullscreenenter"",""0"",""4160""
","
","5040.4000000003725","<div class='center'><p>How successful a pirate is at robbing ships can also change over the time spent on the island. </p><p> Ships may hear from islanders about the pirates coming and will improve their protections against the attack. This may make it harder to rob them.</p><p> Ships may also become lazy and weaken the strength of their protections. This may make it easier to rob them.</p><br><p>Things are always changing on the high seas! So, try your best to pay attention!</p><p><img src='run_exp/static/images/tutorial/contingency.png' height='500'></p><p><b>[Press the space bar to continue]</b></p></div>","32","","","","","","","","","","","","","","","","","","","","","","",""
"","instruc13","44","325677","0.0-35.0-8.0","""event"",""trial"",""time""
""fullscreenenter"",""0"",""4160""
","
","
","""event"",""trial"",""time""
""fullscreenenter"",""0"",""4160""
","
","null","run_exp/static/audio/clip_15_summary.m4a","null","","","","","<div class='center'><p>Let's go over the instructions quickly again. You have two important things to do: </p><b><p> 1. Pick the pirate who is the best at robbing ships on the current island. </p></b><b><p> 2. Remember on which island a ship was robbed.</p> </b><p>The amount of bonus money you can win depends on both.</p><p><br><p>Let’s try a practice game. The game will start by showing you the pirates. First, pick a pirate using the <b> 1, 2, 3 </b> keys on your keyboard. When you are shown a ship, try to remember which island you’re on by making up a story.</p><p>This is just a practice game, so you’re not playing for money. </p><p> Good luck! This game will be very difficult but try your best!</p></div>","","","","","","","","","","","","","","","","","",""
"","html-keyboard-response","45","326025","0.0-35.0-9.0","""event"",""trial"",""time""
""fullscreenenter"",""0"",""4160""
","
","
","""event"",""trial"",""time""
""fullscreenenter"",""0"",""4160""
","
","343.59999999962747","<div class='center'><p>Let's go over the instructions quickly again. You have two important things to do: </p><b><p> 1. Pick the pirate who is the best at robbing ships on the current island. </p></b><b><p> 2. Remember on which island a ship was robbed.</p> </b><p>The amount of bonus money you can win depends on both.</p><p><br><p>Let’s try a practice game. The game will start by showing you the pirates. First, pick a pirate using the <b> 1, 2, 3 </b> keys on your keyboard. When you are shown a ship, try to remember which island you’re on by making up a story.</p><p>This is just a practice game, so you’re not playing for money. </p><p> Good luck! This game will be very difficult but try your best!</p><p><b>[Press the space bar to continue]</b></p></div>","32","","","","","","","","","","","","","","","","","","","","","","",""
"","do_welcome","46","330051","0.0-35.0-10.0","""event"",""trial"",""time""
""fullscreenenter"",""0"",""4160""
","
","
","""event"",""trial"",""time""
""fullscreenenter"",""0"",""4160""
","
","null","","","","","","","","null","","","","","","","","","","","","","","","","",""
"","do_trial","47","336124","0.0-35.0-11.0","""event"",""trial"",""time""
""fullscreenenter"",""0"",""4160""
","
","
","""event"",""trial"",""time""
""fullscreenenter"",""0"",""4160""
","
","1546","","","","","","","","49","1,0,0","","","","","","","","","","","","","","","",""
"","html-keyboard-response","48","337127","0.0-36.0-0.0","""event"",""trial"",""time""
""fullscreenenter"",""0"",""4160""
","
","
","""event"",""trial"",""time""
""fullscreenenter"",""0"",""4160""
","
","null","<p></p>","null","","","","","","","","","","","","","","","","","","","","","","",""
"","do_trial","49","342266","0.0-36.0-1.0","""event"",""trial"",""time""
""fullscreenenter"",""0"",""4160""
","
","
","""event"",""trial"",""time""
""fullscreenenter"",""0"",""4160""
","
","625","","","","","","","","49","1,1,0","","","","","","","","","","","","","","","",""
"","html-keyboard-response","50","343271","0.0-37.0-0.0","""event"",""trial"",""time""
""fullscreenenter"",""0"",""4160""
","
","
","""event"",""trial"",""time""
""fullscreenenter"",""0"",""4160""
","
","null","<p></p>","null","","","","","","","","","","","","","","","","","","","","","","",""
"","do_trial","51","348075","0.0-37.0-1.0","""event"",""trial"",""time""
""fullscreenenter"",""0"",""4160""
","
","
","""event"",""trial"",""time""
""fullscreenenter"",""0"",""4160""
","
","288.20000000018626","","","","","","","","49","1,0,1","","","","","","","","","","","","","","","",""
"","html-keyboard-response","52","349078","0.0-38.0-0.0","""event"",""trial"",""time""
""fullscreenenter"",""0"",""4160""
","
","
","""event"",""trial"",""time""
""fullscreenenter"",""0"",""4160""
","
","null","<p></p>","null","","","","","","","","","","","","","","","","","","","","","","",""
"","do_trial","53","354688","0.0-38.0-1.0","""event"",""trial"",""time""
""fullscreenenter"",""0"",""4160""
","
","
","""event"",""trial"",""time""
""fullscreenenter"",""0"",""4160""
","
","1092.7000000001863","","","","","","","","51","0,1,0","","","","","","","","","","","","","","","",""
"","html-keyboard-response","54","355692","0.0-39.0-0.0","""event"",""trial"",""time""
""fullscreenenter"",""0"",""4160""
","
","
","""event"",""trial"",""time""
""fullscreenenter"",""0"",""4160""
","
","null","<p></p>","null","","","","","","","","","","","","","","","","","","","","","","",""
"","do_trial","55","360736","0.0-39.0-1.0","""event"",""trial"",""time""
""fullscreenenter"",""0"",""4160""
","
","
","""event"",""trial"",""time""
""fullscreenenter"",""0"",""4160""
","
","524.0999999996275","","","","","","","","49","1,0,0","","","","","","","","","","","","","","","",""
"","do_bye","56","362251","0.0-40.0-0.0","""event"",""trial"",""time""
""fullscreenenter"",""0"",""4160""
","
","
","""event"",""trial"",""time""
""fullscreenenter"",""0"",""4160""
","
","null","","","","","","","","null","","","","","","","","","","","","","","","","",""
"","do_travel","57","371262","0.0-40.0-1.0","""event"",""trial"",""time""
""fullscreenenter"",""0"",""4160""
","
","
","""event"",""trial"",""time""
""fullscreenenter"",""0"",""4160""
","
","null","","","","","","","","null","","","","","","","","","","","","","","","","",""
"","do_welcome","58","375281","0.0-40.0-2.0","""event"",""trial"",""time""
""fullscreenenter"",""0"",""4160""
","
","
","""event"",""trial"",""time""
""fullscreenenter"",""0"",""4160""
","
","null","","","","","","","","null","","","","","","","","","","","","","","","","",""
"","do_trial","59","380805","0.0-40.0-3.0","""event"",""trial"",""time""
""fullscreenenter"",""0"",""4160""
","
","
","""event"",""trial"",""time""
""fullscreenenter"",""0"",""4160""
","
","1012.7000000001863","","","","","","","","49","1,0,0","","","","","","","","","","","","","","","",""
"","html-keyboard-response","60","381812","0.0-41.0-0.0","""event"",""trial"",""time""
""fullscreenenter"",""0"",""4160""
","
","
","""event"",""trial"",""time""
""fullscreenenter"",""0"",""4160""
","
","null","<p></p>","null","","","","","","","","","","","","","","","","","","","","","","",""
"","do_trial","61","387239","0.0-41.0-1.0","""event"",""trial"",""time""
""fullscreenenter"",""0"",""4160""
","
","
","""event"",""trial"",""time""
""fullscreenenter"",""0"",""4160""
","
","905.0999999996275","","","","","","","","49","1,0,1","","","","","","","","","","","","","","","",""
"","html-keyboard-response","62","388241","0.0-42.0-0.0","""event"",""trial"",""time""
""fullscreenenter"",""0"",""4160""
","
","
","""event"",""trial"",""time""
""fullscreenenter"",""0"",""4160""
","
","null","<p></p>","null","","","","","","","","","","","","","","","","","","","","","","",""
"","do_trial","63","393925","0.0-42.0-1.0","""event"",""trial"",""time""
""fullscreenenter"",""0"",""4160""
","
","
","""event"",""trial"",""time""
""fullscreenenter"",""0"",""4160""
","
","1164.199999999255","","","","","","","","49","1,1,0","","","","","","","","","","","","","","","",""
"","html-keyboard-response","64","394930","0.0-43.0-0.0","""event"",""trial"",""time""
""fullscreenenter"",""0"",""4160""
","
","
","""event"",""trial"",""time""
""fullscreenenter"",""0"",""4160""
","
","null","<p></p>","null","","","","","","","","","","","","","","","","","","","","","","",""
"","do_trial","65","401149","0.0-43.0-1.0","""event"",""trial"",""time""
""fullscreenenter"",""0"",""4160""
","
","
","""event"",""trial"",""time""
""fullscreenenter"",""0"",""4160""
","
","1704.5999999996275","","","","","","","","49","0,0,1","","","","","","","","","","","","","","","",""
"","html-keyboard-response","66","402151","0.0-44.0-0.0","""event"",""trial"",""time""
""fullscreenenter"",""0"",""4160""
","
","
","""event"",""trial"",""time""
""fullscreenenter"",""0"",""4160""
","
","null","<p></p>","null","","","","","","","","","","","","","","","","","","","","","","",""
"","do_trial","67","407694","0.0-44.0-1.0","""event"",""trial"",""time""
""fullscreenenter"",""0"",""4160""
","
","
","""event"",""trial"",""time""
""fullscreenenter"",""0"",""4160""
","
","1026.2999999998137","","","","","","","","50","1,0,1","","","","","","","","","","","","","","","",""
"","html-keyboard-response","68","413193","0.0-45.0-0.0","""event"",""trial"",""time""
""fullscreenenter"",""0"",""4160""
","
","
","""event"",""trial"",""time""
""fullscreenenter"",""0"",""4160""
","
","5495.9000000003725","<div class='center'><p><img src='run_exp/static/images/tutorial/prac_best_pirate.png'  height='500'></p></div>","49","","","","","","","","","","","","","","","","","","","","","","",""
"","html-keyboard-response","69","415927","0.0-46.0-0.0","""event"",""trial"",""time""
""fullscreenenter"",""0"",""4160""
","
","
","""event"",""trial"",""time""
""fullscreenenter"",""0"",""4160""
","
","2729.9000000003725","<div class='center'><p>That's correct! Red beard was the best.</p><p><b>[Press the space bar to continue]</b></p></div>","32","","","","","","","","","","","","","","","","","","","","","","",""
"","html-keyboard-response","70","419210","0.0-46.0-1.0","""event"",""trial"",""time""
""fullscreenenter"",""0"",""4160""
","
","
","""event"",""trial"",""time""
""fullscreenenter"",""0"",""4160""
","
","3279.9000000003725","<div class='center'><p><img src='run_exp/static/images/tutorial/prac_source.png'  height='500'></p></div>","50","","","","","","","","","","","","","","","","","","","","","","",""
"","html-keyboard-response","71","420455","0.0-47.0-0.0","""event"",""trial"",""time""
""fullscreenenter"",""0"",""4160""
","
","
","""event"",""trial"",""time""
""fullscreenenter"",""0"",""4160""
","
","1243.0999999996275","<div class='center'><p>That's correct! You saw this ship on the cavern island.</p><p><b>[Press the space bar to continue]</b></p></div>","32","","","","","","","","","","","","","","","","","","","","","","",""
"","quiz_beginning","72","431773","0.0-47.0-1.0","""event"",""trial"",""time""
""fullscreenenter"",""0"",""4160""
","
","
","""event"",""trial"",""time""
""fullscreenenter"",""0"",""4160""
","
","null","run_exp/static/audio/clip_16_quiz_intro.m4a","null","","","","","<div class='center'><p>Good job on the practice game! Now, you will be asked some true or false questions to make sure you really understand the rules of the game.</p><p> Press <b>'1'</b> on the keyboard for true and press <b>'2'</b> for false.</p></div>","","","","","","","","","","","","","","","","","",""
"","audio-keyboard-response","73","439423","0.0-47.0-2.0","""event"",""trial"",""time""
""fullscreenenter"",""0"",""4160""
","
","
","""event"",""trial"",""time""
""fullscreenenter"",""0"",""4160""
","
","7647.199999999255","run_exp/static/audio/clip_17_q1.m4a","49","","","","","","","","","","","","","","","","","","","","","","",""
"","correct","74","441985","0.0-48.0-0.0","""event"",""trial"",""time""
""fullscreenenter"",""0"",""4160""
","
","
","""event"",""trial"",""time""
""fullscreenenter"",""0"",""4160""
","
","null","run_exp/static/audio/clip_18_correct.m4a","null","","","","","<div class='center'><p>That's correct!</p></div>","","","","","","","","","","","","","","","","","",""
"","html-keyboard-response","75","443906","0.0-48.0-1.0","""event"",""trial"",""time""
""fullscreenenter"",""0"",""4160""
","
","
","""event"",""trial"",""time""
""fullscreenenter"",""0"",""4160""
","
","1920.0999999996275","<div class='center'><p>That's correct!</p><p><b>[Press the space bar to continue]</b></p></div>","32","","","","","","","","","","","","","","","","","","","","","","",""
"","audio-keyboard-response","76","452638","0.0-48.0-2.0","""event"",""trial"",""time""
""fullscreenenter"",""0"",""4160""
","
","
","""event"",""trial"",""time""
""fullscreenenter"",""0"",""4160""
","
","8728.400000000373","run_exp/static/audio/clip_20_q2.m4a","50","","","","","","","","","","","","","","","","","","","","","","",""
"","correct","77","455166","0.0-49.0-0.0","""event"",""trial"",""time""
""fullscreenenter"",""0"",""4160""
","
","
","""event"",""trial"",""time""
""fullscreenenter"",""0"",""4160""
","
","null","run_exp/static/audio/clip_18_correct.m4a","null","","","","","<div class='center'><p>That's correct!</p></div>","","","","","","","","","","","","","","","","","",""
"","html-keyboard-response","78","457010","0.0-49.0-1.0","""event"",""trial"",""time""
""fullscreenenter"",""0"",""4160""
","
","
","""event"",""trial"",""time""
""fullscreenenter"",""0"",""4160""
","
","1842.7000000001863","<div class='center'><p>That's correct!</p><p><b>[Press the space bar to continue]</b></p></div>","32","","","","","","","","","","","","","","","","","","","","","","",""
"","audio-keyboard-response","79","462554","0.0-49.0-2.0","""event"",""trial"",""time""
""fullscreenenter"",""0"",""4160""
","
","
","""event"",""trial"",""time""
""fullscreenenter"",""0"",""4160""
","
","5541.700000000186","run_exp/static/audio/clip_22_q3.m4a","50","","","","","","","","","","","","","","","","","","","","","","",""
"","correct","80","465102","0.0-50.0-0.0","""event"",""trial"",""time""
""fullscreenenter"",""0"",""4160""
","
","
","""event"",""trial"",""time""
""fullscreenenter"",""0"",""4160""
","
","null","run_exp/static/audio/clip_18_correct.m4a","null","","","","","<div class='center'><p>That's correct!</p></div>","","","","","","","","","","","","","","","","","",""
"","html-keyboard-response","81","466467","0.0-50.0-1.0","""event"",""trial"",""time""
""fullscreenenter"",""0"",""4160""
","
","
","""event"",""trial"",""time""
""fullscreenenter"",""0"",""4160""
","
","1362.7000000001863","<div class='center'><p>That's correct!</p><p><b>[Press the space bar to continue]</b></p></div>","32","","","","","","","","","","","","","","","","","","","","","","",""
"","audio-keyboard-response","82","474551","0.0-50.0-2.0","""event"",""trial"",""time""
""fullscreenenter"",""0"",""4160""
","
","
","""event"",""trial"",""time""
""fullscreenenter"",""0"",""4160""
","
","8081.5","run_exp/static/audio/clip_24_q4.m4a","49","","","","","","","","","","","","","","","","","","","","","","",""
"","correct","83","477263","0.0-51.0-0.0","""event"",""trial"",""time""
""fullscreenenter"",""0"",""4160""
","
","
","""event"",""trial"",""time""
""fullscreenenter"",""0"",""4160""
","
","null","run_exp/static/audio/clip_18_correct.m4a","null","","","","","<div class='center'><p>That's correct!</p></div>","","","","","","","","","","","","","","","","","",""
"","html-keyboard-response","84","478598","0.0-51.0-1.0","""event"",""trial"",""time""
""fullscreenenter"",""0"",""4160""
","
","
","""event"",""trial"",""time""
""fullscreenenter"",""0"",""4160""
","
","1331.4000000003725","<div class='center'><p>That's correct!</p><p><b>[Press the space bar to continue]</b></p></div>","32","","","","","","","","","","","","","","","","","","","","","","",""
"","q_all_corr","85","487293","0.0-52.0-0.0","""event"",""trial"",""time""
""fullscreenenter"",""0"",""4160""
","
","
","""event"",""trial"",""time""
""fullscreenenter"",""0"",""4160""
","
","null","run_exp/static/audio/clip_27_quiz_all_correct.m4a","null","","","","","<div class='center'><p>Good job! You’re now ready to move on to the real game! Remember this game will be difficult but don't get discouraged and try your best!</p></div>","","","","","","","","","","","","","","","","","",""
"","html-keyboard-response","86","487677","0.0-52.0-1.0","""event"",""trial"",""time""
""fullscreenenter"",""0"",""4160""
","
","
","""event"",""trial"",""time""
""fullscreenenter"",""0"",""4160""
","
","378.20000000018626","<div class='center'><p>Good job! You’re now ready to move on to the real game! Remember this game will be difficult but don't get discouraged and try your best!</p><p><b>[Press the space bar to continue]</b></p></div>","32","","","","","","","","","","","","","","","","","","","","","","",""
"","do_welcome","87","491691","0.0-53.0-0.0","""event"",""trial"",""time""
""fullscreenenter"",""0"",""4160""
","
","
","""event"",""trial"",""time""
""fullscreenenter"",""0"",""4160""
","
","null","","","","","","","","null","","","","","","","","","","","","","","","","",""
"","do_trial","88","497310","0.0-54.0-0.0","""event"",""trial"",""time""
""fullscreenenter"",""0"",""4160""
","
","
","""event"",""trial"",""time""
""fullscreenenter"",""0"",""4160""
","
","1019.5","","","","","","","","49","0,1,0","0","coast","0","probe-215","0.6","0.3","0.1","0","","","","","","","",""
"","html-keyboard-response","89","498313","0.0-54.0-1.0","""event"",""trial"",""time""
""fullscreenenter"",""0"",""4160""
","
","
","""event"",""trial"",""time""
""fullscreenenter"",""0"",""4160""
","
","null","<p></p>","null","","","","","","","","","","","","","","","","","","","","","","",""
"","do_trial","90","503286","0.0-55.0-0.0","""event"",""trial"",""time""
""fullscreenenter"",""0"",""4160""
","
","
","""event"",""trial"",""time""
""fullscreenenter"",""0"",""4160""
","
","373.59999999962747","","","","","","","","49","1,0,0","0","coast","1","probe-44","0.6624048315732705","0.22289244326666377","0.0778837091102568","1","","","","","","","",""
"","html-keyboard-response","91","504289","0.0-55.0-1.0","""event"",""trial"",""time""
""fullscreenenter"",""0"",""4160""
","
","
","""event"",""trial"",""time""
""fullscreenenter"",""0"",""4160""
","
","null","<p></p>","null","","","","","","","","","","","","","","","","","","","","","","",""
"","do_trial","92","510248","0.0-56.0-0.0","""event"",""trial"",""time""
""fullscreenenter"",""0"",""4160""
","
","
","""event"",""trial"",""time""
""fullscreenenter"",""0"",""4160""
","
","1352.7000000001863","","","","","","","","49","1,0,0","0","coast","2","probe-31","0.7066925157793998","0.2934565692211799","0.10552872613228323","1","","","","","","","",""
"","html-keyboard-response","93","511250","0.0-56.0-1.0","""event"",""trial"",""time""
""fullscreenenter"",""0"",""4160""
","
","
","""event"",""trial"",""time""
""fullscreenenter"",""0"",""4160""
","
","null","<p></p>","null","","","","","","","","","","","","","","","","","","","","","","",""
"","do_trial","94","516175","0.0-57.0-0.0","""event"",""trial"",""time""
""fullscreenenter"",""0"",""4160""
","
","
","""event"",""trial"",""time""
""fullscreenenter"",""0"",""4160""
","
","312.79999999981374","","","","","","","","49","0,1,0","0","coast","3","probe-88","0.7032970243628981","0.2867054828982048","0.061972824245752664","0","","","","","","","",""
"","html-keyboard-response","95","517179","0.0-57.0-1.0","""event"",""trial"",""time""
""fullscreenenter"",""0"",""4160""
","
","
","""event"",""trial"",""time""
""fullscreenenter"",""0"",""4160""
","
","null","<p></p>","null","","","","","","","","","","","","","","","","","","","","","","",""
"","do_trial","96","522855","0.0-58.0-0.0","""event"",""trial"",""time""
""fullscreenenter"",""0"",""4160""
","
","
","""event"",""trial"",""time""
""fullscreenenter"",""0"",""4160""
","
","1064.5","","","","","","","","51","1,1,0","0","coast","4","probe-208","0.6367895842038697","0.360240401377311","0.08712159679967493","0","","","","","","","",""
"","html-keyboard-response","97","523861","0.0-58.0-1.0","""event"",""trial"",""time""
""fullscreenenter"",""0"",""4160""
","
","
","""event"",""trial"",""time""
""fullscreenenter"",""0"",""4160""
","
","null","<p></p>","null","","","","","","","","","","","","","","","","","","","","","","",""
"","do_trial","98","529344","0.0-59.0-0.0","""event"",""trial"",""time""
""fullscreenenter"",""0"",""4160""
","
","
","""event"",""trial"",""time""
""fullscreenenter"",""0"",""4160""
","
","873.2999999998137","","","","","","","","49","1,0,0","0","coast","5","probe-105","0.5955695415905029","0.38820317891367134","0.14045933221058288","1","","","","","","","",""
"","html-keyboard-response","99","530349","0.0-59.0-1.0","""event"",""trial"",""time""
""fullscreenenter"",""0"",""4160""
","
","
","""event"",""trial"",""time""
""fullscreenenter"",""0"",""4160""
","
","null","<p></p>","null","","","","","","","","","","","","","","","","","","","","","","",""
"","do_trial","100","535271","0.0-60.0-0.0","""event"",""trial"",""time""
""fullscreenenter"",""0"",""4160""
","
","
","""event"",""trial"",""time""
""fullscreenenter"",""0"",""4160""
","
","316.5","","","","","","","","49","0,1,0","0","coast","6","probe-70","0.48675909049919525","0.47667030695335877","0.10490770743042767","0","","","","","","","",""
"","html-keyboard-response","101","536273","0.0-60.0-1.0","""event"",""trial"",""time""
""fullscreenenter"",""0"",""4160""
","
","
","""event"",""trial"",""time""
""fullscreenenter"",""0"",""4160""
","
","null","<p></p>","null","","","","","","","","","","","","","","","","","","","","","","",""
"","do_trial","102","541762","0.0-61.0-0.0","""event"",""trial"",""time""
""fullscreenenter"",""0"",""4160""
","
","
","""event"",""trial"",""time""
""fullscreenenter"",""0"",""4160""
","
","892.1999999992549","","","","","","","","50","0,0,1","0","coast","7","probe-203","0.5224833373344417","0.5288147672403378","0.20395863423574073","0","","","","","","","",""
"","html-keyboard-response","103","542767","0.0-61.0-1.0","""event"",""trial"",""time""
""fullscreenenter"",""0"",""4160""
","
","
","""event"",""trial"",""time""
""fullscreenenter"",""0"",""4160""
","
","null","<p></p>","null","","","","","","","","","","","","","","","","","","","","","","",""
"","do_trial","104","548320","0.0-62.0-0.0","""event"",""trial"",""time""
""fullscreenenter"",""0"",""4160""
","
","
","""event"",""trial"",""time""
""fullscreenenter"",""0"",""4160""
","
","946.1000000005588","","","","","","","","50","0,0,1","0","coast","8","probe-213","0.5102439605904283","0.49202303708355516","0.3234106207159779","0","","","","","","","",""
"","html-keyboard-response","105","549323","0.0-62.0-1.0","""event"",""trial"",""time""
""fullscreenenter"",""0"",""4160""
","
","
","""event"",""trial"",""time""
""fullscreenenter"",""0"",""4160""
","
","null","<p></p>","null","","","","","","","","","","","","","","","","","","","","","","",""
"","do_trial","106","553932","0.0-63.0-0.0","""event"",""trial"",""time""
""fullscreenenter"",""0"",""4160""
","
","
","""event"",""trial"",""time""
""fullscreenenter"",""0"",""4160""
","
","9.400000000372529","","","","","","","","49","0,0,0","0","coast","9","probe-186","0.522891032549735","0.47657282623028197","0.25530797584274195","0","","","","","","","",""
"","html-keyboard-response","107","554936","0.0-63.0-1.0","""event"",""trial"",""time""
""fullscreenenter"",""0"",""4160""
","
","
","""event"",""trial"",""time""
""fullscreenenter"",""0"",""4160""
","
","null","<p></p>","null","","","","","","","","","","","","","","","","","","","","","","",""
"","do_trial","108","559837","0.0-64.0-0.0","""event"",""trial"",""time""
""fullscreenenter"",""0"",""4160""
","
","
","""event"",""trial"",""time""
""fullscreenenter"",""0"",""4160""
","
","302","","","","","","","","49","1,1,0","0","coast","10","probe-113","0.46389324888331035","0.3769821899369791","0.1167989071567152","1","","","","","","","",""
"","html-keyboard-response","109","560839","0.0-64.0-1.0","""event"",""trial"",""time""
""fullscreenenter"",""0"",""4160""
","
","
","""event"",""trial"",""time""
""fullscreenenter"",""0"",""4160""
","
","null","<p></p>","null","","","","","","","","","","","","","","","","","","","","","","",""
"","do_trial","110","565559","0.0-65.0-0.0","""event"",""trial"",""time""
""fullscreenenter"",""0"",""4160""
","
","
","""event"",""trial"",""time""
""fullscreenenter"",""0"",""4160""
","
","123.70000000018626","","","","","","","","49","1,0,0","0","coast","11","probe-06","0.4461715087462313","0.3671165947232872","0.14101655906244606","1","","","","","","","",""
"","html-keyboard-response","111","566564","0.0-65.0-1.0","""event"",""trial"",""time""
""fullscreenenter"",""0"",""4160""
","
","
","""event"",""trial"",""time""
""fullscreenenter"",""0"",""4160""
","
","null","<p></p>","null","","","","","","","","","","","","","","","","","","","","","","",""
"","do_trial","112","571267","0.0-66.0-0.0","""event"",""trial"",""time""
""fullscreenenter"",""0"",""4160""
","
","
","""event"",""trial"",""time""
""fullscreenenter"",""0"",""4160""
","
","103.40000000037253","","","","","","","","49","1,0,0","0","coast","12","probe-91","0.6826477764291471","0.29393592296386367","0.05164619306426015","1","","","","","","","",""
"","html-keyboard-response","113","572269","0.0-66.0-1.0","""event"",""trial"",""time""
""fullscreenenter"",""0"",""4160""
","
","
","""event"",""trial"",""time""
""fullscreenenter"",""0"",""4160""
","
","null","<p></p>","null","","","","","","","","","","","","","","","","","","","","","","",""
"","do_trial","114","576982","0.0-67.0-0.0","""event"",""trial"",""time""
""fullscreenenter"",""0"",""4160""
","
","
","""event"",""trial"",""time""
""fullscreenenter"",""0"",""4160""
","
","103.1000000005588","","","","","","","","49","0,1,0","0","coast","13","probe-53","0.782666809948161","0.28598374090649503","0.12155178024728867","0","","","","","","","",""
"","html-keyboard-response","115","577985","0.0-67.0-1.0","""event"",""trial"",""time""
""fullscreenenter"",""0"",""4160""
","
","
","""event"",""trial"",""time""
""fullscreenenter"",""0"",""4160""
","
","null","<p></p>","null","","","","","","","","","","","","","","","","","","","","","","",""
"","do_trial","116","583290","0.0-68.0-0.0","""event"",""trial"",""time""
""fullscreenenter"",""0"",""4160""
","
","
","""event"",""trial"",""time""
""fullscreenenter"",""0"",""4160""
","
","707","","","","","","","","49","1,0,0","0","coast","14","probe-100","0.6598370602837027","0.30184778757536923","0.23103122545513835","1","","","","","","","",""
"","html-keyboard-response","117","584295","0.0-68.0-1.0","""event"",""trial"",""time""
""fullscreenenter"",""0"",""4160""
","
","
","""event"",""trial"",""time""
""fullscreenenter"",""0"",""4160""
","
","null","<p></p>","null","","","","","","","","","","","","","","","","","","","","","","",""
"","do_trial","118","588904","0.0-69.0-0.0","""event"",""trial"",""time""
""fullscreenenter"",""0"",""4160""
","
","
","""event"",""trial"",""time""
""fullscreenenter"",""0"",""4160""
","
","0.20000000018626451","","","","","","","","49","1,1,0","0","coast","15","probe-41","0.7227122831369891","0.4106693071784065","0.15828732106681698","1","","","","","","","",""
"","html-keyboard-response","119","589908","0.0-69.0-1.0","""event"",""trial"",""time""
""fullscreenenter"",""0"",""4160""
","
","
","""event"",""trial"",""time""
""fullscreenenter"",""0"",""4160""
","
","null","<p></p>","null","","","","","","","","","","","","","","","","","","","","","","",""
"","do_trial","120","594522","0.0-70.0-0.0","""event"",""trial"",""time""
""fullscreenenter"",""0"",""4160""
","
","
","""event"",""trial"",""time""
""fullscreenenter"",""0"",""4160""
","
","11.100000000558794","","","","","","","","49","1,0,0","0","coast","16","probe-13","0.7866412591807261","0.43393333592427147","0.0621335145422049","1","","","","","","","",""
"","html-keyboard-response","121","595526","0.0-70.0-1.0","""event"",""trial"",""time""
""fullscreenenter"",""0"",""4160""
","
","
","""event"",""trial"",""time""
""fullscreenenter"",""0"",""4160""
","
","null","<p></p>","null","","","","","","","","","","","","","","","","","","","","","","",""
"","do_trial","122","600128","0.0-71.0-0.0","""event"",""trial"",""time""
""fullscreenenter"",""0"",""4160""
","
","
","""event"",""trial"",""time""
""fullscreenenter"",""0"",""4160""
","
","0.2999999998137355","","","","","","","","49","1,0,0","0","coast","17","probe-133","0.6844639516443958","0.4483644307533185","0.061354025915958454","1","","","","","","","",""
"","html-keyboard-response","123","601134","0.0-71.0-1.0","""event"",""trial"",""time""
""fullscreenenter"",""0"",""4160""
","
","
","""event"",""trial"",""time""
""fullscreenenter"",""0"",""4160""
","
","null","<p></p>","null","","","","","","","","","","","","","","","","","","","","","","",""
"","do_trial","124","606810","0.0-72.0-0.0","""event"",""trial"",""time""
""fullscreenenter"",""0"",""4160""
","
","
","""event"",""trial"",""time""
""fullscreenenter"",""0"",""4160""
","
","1068.2000000001863","","","","","","","","49","0,1,0","0","coast","18","probe-184","0.5279372476073384","0.39709115533826833","0.11674646156584036","0","","","","","","","",""
"","html-keyboard-response","125","607815","0.0-72.0-1.0","""event"",""trial"",""time""
""fullscreenenter"",""0"",""4160""
","
","
","""event"",""trial"",""time""
""fullscreenenter"",""0"",""4160""
","
","null","<p></p>","null","","","","","","","","","","","","","","","","","","","","","","",""
"","do_trial","126","613959","0.0-73.0-0.0","""event"",""trial"",""time""
""fullscreenenter"",""0"",""4160""
","
","
","""event"",""trial"",""time""
""fullscreenenter"",""0"",""4160""
","
","1541","","","","","","","","49","1,0,0","0","coast","19","probe-43","0.527463777638441","0.26259922526891416","0.15786498450183314","1","","","","","","","",""
"","html-keyboard-response","127","614965","0.0-73.0-1.0","""event"",""trial"",""time""
""fullscreenenter"",""0"",""4160""
","
","
","""event"",""trial"",""time""
""fullscreenenter"",""0"",""4160""
","
","null","<p></p>","null","","","","","","","","","","","","","","","","","","","","","","",""
"","do_trial","128","621308","0.0-74.0-0.0","""event"",""trial"",""time""
""fullscreenenter"",""0"",""4160""
","
","
","""event"",""trial"",""time""
""fullscreenenter"",""0"",""4160""
","
","1733.1000000005588","","","","","","","","49","1,0,0","0","coast","20","probe-155","0.7096518092604908","0.40581025746379523","0.20747384905869432","1","","","","","","","",""
"","html-keyboard-response","129","622315","0.0-74.0-1.0","""event"",""trial"",""time""
""fullscreenenter"",""0"",""4160""
","
","
","""event"",""trial"",""time""
""fullscreenenter"",""0"",""4160""
","
","null","<p></p>","null","","","","","","","","","","","","","","","","","","","","","","",""
"","do_trial","130","628192","0.0-75.0-0.0","""event"",""trial"",""time""
""fullscreenenter"",""0"",""4160""
","
","
","""event"",""trial"",""time""
""fullscreenenter"",""0"",""4160""
","
","1267.5","","","","","","","","49","0,1,0","0","coast","21","probe-177","0.6949190794378685","0.5902862195944389","0.293558036872533","0","","","","","","","",""
"","html-keyboard-response","131","629197","0.0-75.0-1.0","""event"",""trial"",""time""
""fullscreenenter"",""0"",""4160""
","
","
","""event"",""trial"",""time""
""fullscreenenter"",""0"",""4160""
","
","null","<p></p>","null","","","","","","","","","","","","","","","","","","","","","","",""
"","do_trial","132","635042","0.0-76.0-0.0","""event"",""trial"",""time""
""fullscreenenter"",""0"",""4160""
","
","
","""event"",""trial"",""time""
""fullscreenenter"",""0"",""4160""
","
","1227.7999999998137","","","","","","","","49","1,1,0","0","coast","22","probe-170","0.7550701283292155","0.4977810948862602","0.13274693219942235","1","","","","","","","",""
"","html-keyboard-response","133","636046","0.0-76.0-1.0","""event"",""trial"",""time""
""fullscreenenter"",""0"",""4160""
","
","
","""event"",""trial"",""time""
""fullscreenenter"",""0"",""4160""
","
","null","<p></p>","null","","","","","","","","","","","","","","","","","","","","","","",""
"","do_trial","134","641738","0.0-77.0-0.0","""event"",""trial"",""time""
""fullscreenenter"",""0"",""4160""
","
","
","""event"",""trial"",""time""
""fullscreenenter"",""0"",""4160""
","
","1079.6000000005588","","","","","","","","49","1,0,1","0","coast","23","probe-145","0.7482486424396625","0.3233044238835712","0.1444450517395821","1","","","","","","","",""
"","html-keyboard-response","135","642743","0.0-77.0-1.0","""event"",""trial"",""time""
""fullscreenenter"",""0"",""4160""
","
","
","""event"",""trial"",""time""
""fullscreenenter"",""0"",""4160""
","
","null","<p></p>","null","","","","","","","","","","","","","","","","","","","","","","",""
"","do_trial","136","647459","0.0-78.0-0.0","""event"",""trial"",""time""
""fullscreenenter"",""0"",""4160""
","
","
","""event"",""trial"",""time""
""fullscreenenter"",""0"",""4160""
","
","119.40000000037253","","","","","","","","49","0,0,1","0","coast","24","probe-137","0.6301691196496573","0.2524057191886607","0.23707476567619742","0","","","","","","","",""
"","html-keyboard-response","137","648464","0.0-78.0-1.0","""event"",""trial"",""time""
""fullscreenenter"",""0"",""4160""
","
","
","""event"",""trial"",""time""
""fullscreenenter"",""0"",""4160""
","
","null","<p></p>","null","","","","","","","","","","","","","","","","","","","","","","",""
"","do_trial","138","653071","0.0-79.0-0.0","""event"",""trial"",""time""
""fullscreenenter"",""0"",""4160""
","
","
","""event"",""trial"",""time""
""fullscreenenter"",""0"",""4160""
","
","0.20000000018626451","","","","","","","","49","1,0,0","0","coast","25","probe-125","0.7312731311372794","0.24643845750250917","0.1427850141802426","1","","","","","","","",""
"","html-keyboard-response","139","654075","0.0-79.0-1.0","""event"",""trial"",""time""
""fullscreenenter"",""0"",""4160""
","
","
","""event"",""trial"",""time""
""fullscreenenter"",""0"",""4160""
","
","null","<p></p>","null","","","","","","","","","","","","","","","","","","","","","","",""
"","do_trial","140","658688","0.0-80.0-0.0","""event"",""trial"",""time""
""fullscreenenter"",""0"",""4160""
","
","
","""event"",""trial"",""time""
""fullscreenenter"",""0"",""4160""
","
","2.900000000372529","","","","","","","","49","0,1,0","0","coast","26","probe-140","0.6293096901408151","0.46860967235418427","0.20604577244328526","0","","","","","","","",""
"","html-keyboard-response","141","659691","0.0-80.0-1.0","""event"",""trial"",""time""
""fullscreenenter"",""0"",""4160""
","
","
","""event"",""trial"",""time""
""fullscreenenter"",""0"",""4160""
","
","null","<p></p>","null","","","","","","","","","","","","","","","","","","","","","","",""
"","do_trial","142","664620","0.0-81.0-0.0","""event"",""trial"",""time""
""fullscreenenter"",""0"",""4160""
","
","
","""event"",""trial"",""time""
""fullscreenenter"",""0"",""4160""
","
","328.59999999962747","","","","","","","","49","1,0,0","0","coast","27","probe-161","0.6781299186321246","0.42341099358332834","0.15987720137156117","1","","","","","","","",""
"","html-keyboard-response","143","665622","0.0-81.0-1.0","""event"",""trial"",""time""
""fullscreenenter"",""0"",""4160""
","
","
","""event"",""trial"",""time""
""fullscreenenter"",""0"",""4160""
","
","null","<p></p>","null","","","","","","","","","","","","","","","","","","","","","","",""
"","do_trial","144","670220","0.0-82.0-0.0","""event"",""trial"",""time""
""fullscreenenter"",""0"",""4160""
","
","
","""event"",""trial"",""time""
""fullscreenenter"",""0"",""4160""
","
","0.30000000074505806","","","","","","","","49","0,1,0","0","coast","28","probe-15","0.7151680094043461","0.45836765325534806","0.14779685306246537","0","","","","","","","",""
"","html-keyboard-response","145","671223","0.0-82.0-1.0","""event"",""trial"",""time""
""fullscreenenter"",""0"",""4160""
","
","
","""event"",""trial"",""time""
""fullscreenenter"",""0"",""4160""
","
","null","<p></p>","null","","","","","","","","","","","","","","","","","","","","","","",""
"","do_trial","146","675943","0.0-83.0-0.0","""event"",""trial"",""time""
""fullscreenenter"",""0"",""4160""
","
","
","""event"",""trial"",""time""
""fullscreenenter"",""0"",""4160""
","
","126.80000000074506","","","","","","","","49","1,0,0","0","coast","29","probe-38","0.5848044119240261","0.5332451192719186","0.08489121246110556","1","","","","","","","",""
"","html-keyboard-response","147","676946","0.0-83.0-1.0","""event"",""trial"",""time""
""fullscreenenter"",""0"",""4160""
","
","
","""event"",""trial"",""time""
""fullscreenenter"",""0"",""4160""
","
","null","<p></p>","null","","","","","","","","","","","","","","","","","","","","","","",""
"","do_bye","148","678457","0.0-84.0-0.0","""event"",""trial"",""time""
""fullscreenenter"",""0"",""4160""
","
","
","""event"",""trial"",""time""
""fullscreenenter"",""0"",""4160""
","
","null","","","","","","","","null","","","","","","","","","","","","","","","","",""
"","break","149","680194","0.0-84.0-1.0","""event"",""trial"",""time""
""fullscreenenter"",""0"",""4160""
","
","
","""event"",""trial"",""time""
""fullscreenenter"",""0"",""4160""
","
","1735.7000000001863","<div class='center'><p>Time to take a quick break! You have 2 minutes to rest, but you can move on sooner if you'd like.</p><p> Press the <b>space bar</b> to continue.</p></div>","32","","","","","","","","","","","","","","","","","","","","","","",""
"","do_travel","150","689200","0.0-85.0-0.0","""event"",""trial"",""time""
""fullscreenenter"",""0"",""4160""
","
","
","""event"",""trial"",""time""
""fullscreenenter"",""0"",""4160""
","
","null","","","","","","","","null","","","","","","","","","","","","","","","","",""
"","do_welcome","151","693218","0.0-85.0-1.0","""event"",""trial"",""time""
""fullscreenenter"",""0"",""4160""
","
","
","""event"",""trial"",""time""
""fullscreenenter"",""0"",""4160""
","
","null","","","","","","","","null","","","","","","","","","","","","","","","","",""
"","do_trial","152","698816","0.0-86.0-0.0","""event"",""trial"",""time""
""fullscreenenter"",""0"",""4160""
","
","
","""event"",""trial"",""time""
""fullscreenenter"",""0"",""4160""
","
","987.4000000003725","","","","","","","","49","1,0,0","1","city","30","probe-129","1","0.41082312193414633","0.11471538694867742","1","","","","","","","",""
"","html-keyboard-response","153","699822","0.0-86.0-1.0","""event"",""trial"",""time""
""fullscreenenter"",""0"",""4160""
","
","
","""event"",""trial"",""time""
""fullscreenenter"",""0"",""4160""
","
","null","<p></p>","null","","","","","","","","","","","","","","","","","","","","","","",""
"","do_trial","154","704491","0.0-87.0-0.0","""event"",""trial"",""time""
""fullscreenenter"",""0"",""4160""
","
","
","""event"",""trial"",""time""
""fullscreenenter"",""0"",""4160""
","
","50.59999999962747","","","","","","","","49","1,0,0","1","city","31","probe-87","1","0.3462012823176596","0.27881784341880017","1","","","","","","","",""
"","html-keyboard-response","155","705496","0.0-87.0-1.0","""event"",""trial"",""time""
""fullscreenenter"",""0"",""4160""
","
","
","""event"",""trial"",""time""
""fullscreenenter"",""0"",""4160""
","
","null","<p></p>","null","","","","","","","","","","","","","","","","","","","","","","",""
"","do_trial","156","710608","0.0-88.0-0.0","""event"",""trial"",""time""
""fullscreenenter"",""0"",""4160""
","
","
","""event"",""trial"",""time""
""fullscreenenter"",""0"",""4160""
","
","504.09999999962747","","","","","","","","49","1,1,0","1","city","32","probe-54","1","0.4200131458579921","0.31578180711509235","1","","","","","","","",""
"","html-keyboard-response","157","711612","0.0-88.0-1.0","""event"",""trial"",""time""
""fullscreenenter"",""0"",""4160""
","
","
","""event"",""trial"",""time""
""fullscreenenter"",""0"",""4160""
","
","null","<p></p>","null","","","","","","","","","","","","","","","","","","","","","","",""
"","do_trial","158","716693","0.0-89.0-0.0","""event"",""trial"",""time""
""fullscreenenter"",""0"",""4160""
","
","
","""event"",""trial"",""time""
""fullscreenenter"",""0"",""4160""
","
","471","","","","","","","","49","1,0,1","1","city","33","probe-21","0.7144100755591962","0.26502196429843716","0.2429619658567033","1","","","","","","","",""
"","html-keyboard-response","159","717700","0.0-89.0-1.0","""event"",""trial"",""time""
""fullscreenenter"",""0"",""4160""
","
","
","""event"",""trial"",""time""
""fullscreenenter"",""0"",""4160""
","
","null","<p></p>","null","","","","","","","","","","","","","","","","","","","","","","",""
"","do_trial","160","722667","0.0-90.0-0.0","""event"",""trial"",""time""
""fullscreenenter"",""0"",""4160""
","
","
","""event"",""trial"",""time""
""fullscreenenter"",""0"",""4160""
","
","359","","","","","","","","49","0,0,0","1","city","34","probe-174","0.743072197260481","0.3467351279476394","0.2104840732222382","0","","","","","","","",""
"","html-keyboard-response","161","723675","0.0-90.0-1.0","""event"",""trial"",""time""
""fullscreenenter"",""0"",""4160""
","
","
","""event"",""trial"",""time""
""fullscreenenter"",""0"",""4160""
","
","null","<p></p>","null","","","","","","","","","","","","","","","","","","","","","","",""
"","do_trial","162","729437","0.0-91.0-0.0","""event"",""trial"",""time""
""fullscreenenter"",""0"",""4160""
","
","
","""event"",""trial"",""time""
""fullscreenenter"",""0"",""4160""
","
","1148.0999999996275","","","","","","","","49","1,0,1","1","city","35","probe-72","0.6954651875444243","0.27780849328277113","0.23886261070767303","1","","","","","","","",""
"","html-keyboard-response","163","730443","0.0-91.0-1.0","""event"",""trial"",""time""
""fullscreenenter"",""0"",""4160""
","
","
","""event"",""trial"",""time""
""fullscreenenter"",""0"",""4160""
","
","null","<p></p>","null","","","","","","","","","","","","","","","","","","","","","","",""
"","do_trial","164","735567","0.0-92.0-0.0","""event"",""trial"",""time""
""fullscreenenter"",""0"",""4160""
","
","
","""event"",""trial"",""time""
""fullscreenenter"",""0"",""4160""
","
","514.2999999998137","","","","","","","","49","1,0,0","1","city","36","probe-176","0.6838693547690963","0.38129794388952803","0.13993606000570438","1","","","","","","","",""
"","html-keyboard-response","165","736571","0.0-92.0-1.0","""event"",""trial"",""time""
""fullscreenenter"",""0"",""4160""
","
","
","""event"",""trial"",""time""
""fullscreenenter"",""0"",""4160""
","
","null","<p></p>","null","","","","","","","","","","","","","","","","","","","","","","",""
"","do_trial","166","741169","0.0-93.0-0.0","""event"",""trial"",""time""
""fullscreenenter"",""0"",""4160""
","
","
","""event"",""trial"",""time""
""fullscreenenter"",""0"",""4160""
","
","0.2999999998137355","","","","","","","","49","0,0,1","1","city","37","probe-189","0.5942264719888758","0.2690592322339482","0.1036763179778259","0","","","","","","","",""
"","html-keyboard-response","167","742175","0.0-93.0-1.0","""event"",""trial"",""time""
""fullscreenenter"",""0"",""4160""
","
","
","""event"",""trial"",""time""
""fullscreenenter"",""0"",""4160""
","
","null","<p></p>","null","","","","","","","","","","","","","","","","","","","","","","",""
"","do_trial","168","748831","0.0-94.0-0.0","""event"",""trial"",""time""
""fullscreenenter"",""0"",""4160""
","
","
","""event"",""trial"",""time""
""fullscreenenter"",""0"",""4160""
","
","2045.199999999255","","","","","","","","49","1,0,0","1","city","38","probe-89","0.5236743175811658","0.1693873006803375","0.2104926216569192","1","","","","","","","",""
"","html-keyboard-response","169","749836","0.0-94.0-1.0","""event"",""trial"",""time""
""fullscreenenter"",""0"",""4160""
","
","
","""event"",""trial"",""time""
""fullscreenenter"",""0"",""4160""
","
","null","<p></p>","null","","","","","","","","","","","","","","","","","","","","","","",""
"","do_trial","170","756303","0.0-95.0-0.0","""event"",""trial"",""time""
""fullscreenenter"",""0"",""4160""
","
","
","""event"",""trial"",""time""
""fullscreenenter"",""0"",""4160""
","
","1861.3999999994412","","","","","","","","49","1,0,0","1","city","39","probe-153","0.5293066260056551","0.18177202576031376","0.14837849318531426","1","","","","","","","",""
"","html-keyboard-response","171","757309","0.0-95.0-1.0","""event"",""trial"",""time""
""fullscreenenter"",""0"",""4160""
","
","
","""event"",""trial"",""time""
""fullscreenenter"",""0"",""4160""
","
","null","<p></p>","null","","","","","","","","","","","","","","","","","","","","","","",""
"","do_trial","172","761956","0.0-96.0-0.0","""event"",""trial"",""time""
""fullscreenenter"",""0"",""4160""
","
","
","""event"",""trial"",""time""
""fullscreenenter"",""0"",""4160""
","
","41.19999999925494","","","","","","","","49","1,0,0","1","city","40","probe-144","0.5205881201351799","0.05840339720535893","0.13031140973186894","1","","","","","","","",""
"","html-keyboard-response","173","762959","0.0-96.0-1.0","""event"",""trial"",""time""
""fullscreenenter"",""0"",""4160""
","
","
","""event"",""trial"",""time""
""fullscreenenter"",""0"",""4160""
","
","null","<p></p>","null","","","","","","","","","","","","","","","","","","","","","","",""
"","do_trial","174","767693","0.0-97.0-0.0","""event"",""trial"",""time""
""fullscreenenter"",""0"",""4160""
","
","
","""event"",""trial"",""time""
""fullscreenenter"",""0"",""4160""
","
","127","","","","","","","","49","0,0,0","1","city","41","probe-114","0.5403644916599574","0.2691732265502503","0.18925676745438846","0","","","","","","","",""
"","html-keyboard-response","175","768699","0.0-97.0-1.0","""event"",""trial"",""time""
""fullscreenenter"",""0"",""4160""
","
","
","""event"",""trial"",""time""
""fullscreenenter"",""0"",""4160""
","
","null","<p></p>","null","","","","","","","","","","","","","","","","","","","","","","",""
"","do_trial","176","775597","0.0-98.0-0.0","""event"",""trial"",""time""
""fullscreenenter"",""0"",""4160""
","
","
","""event"",""trial"",""time""
""fullscreenenter"",""0"",""4160""
","
","2299.7999999998137","","","","","","","","49","0,1,0","1","city","42","probe-230","0.4054729392159201","0.2678524565160724","0.42446508077015693","0","","","","","","","",""
"","html-keyboard-response","177","776601","0.0-98.0-1.0","""event"",""trial"",""time""
""fullscreenenter"",""0"",""4160""
","
","
","""event"",""trial"",""time""
""fullscreenenter"",""0"",""4160""
","
","null","<p></p>","null","","","","","","","","","","","","","","","","","","","","","","",""
"","do_trial","178","781193","0.0-99.0-0.0","""event"",""trial"",""time""
""fullscreenenter"",""0"",""4160""
","
","
","""event"",""trial"",""time""
""fullscreenenter"",""0"",""4160""
","
","0.20000000018626451","","","","","","","","49","0,1,0","1","city","43","probe-82","0.37584044752127305","0.09285285049432354","0.5250027057957583","0","","","","","","","",""
"","html-keyboard-response","179","782197","0.0-99.0-1.0","""event"",""trial"",""time""
""fullscreenenter"",""0"",""4160""
","
","
","""event"",""trial"",""time""
""fullscreenenter"",""0"",""4160""
","
","null","<p></p>","null","","","","","","","","","","","","","","","","","","","","","","",""
"","do_trial","180","787057","0.0-100.0-0.0","""event"",""trial"",""time""
""fullscreenenter"",""0"",""4160""
","
","
","""event"",""trial"",""time""
""fullscreenenter"",""0"",""4160""
","
","249.1000000005588","","","","","","","","49","0,0,0","1","city","44","probe-159","0.3275717973992312","0.19602319598745674","0.6632546275893704","0","","","","","","","",""
"","html-keyboard-response","181","788064","0.0-100.0-1.0","""event"",""trial"",""time""
""fullscreenenter"",""0"",""4160""
","
","
","""event"",""trial"",""time""
""fullscreenenter"",""0"",""4160""
","
","null","<p></p>","null","","","","","","","","","","","","","","","","","","","","","","",""
"","do_trial","182","792713","0.0-101.0-0.0","""event"",""trial"",""time""
""fullscreenenter"",""0"",""4160""
","
","
","""event"",""trial"",""time""
""fullscreenenter"",""0"",""4160""
","
","42.5","","","","","","","","49","1,0,1","1","city","45","probe-68","0.5014536733901518","0.1924476783704592","0.5323432152704995","1","","","","","","","",""
"","html-keyboard-response","183","793719","0.0-101.0-1.0","""event"",""trial"",""time""
""fullscreenenter"",""0"",""4160""
","
","
","""event"",""trial"",""time""
""fullscreenenter"",""0"",""4160""
","
","null","<p></p>","null","","","","","","","","","","","","","","","","","","","","","","",""
"","do_trial","184","799112","0.0-102.0-0.0","""event"",""trial"",""time""
""fullscreenenter"",""0"",""4160""
","
","
","""event"",""trial"",""time""
""fullscreenenter"",""0"",""4160""
","
","784","","","","","","","","49","0,1,1","1","city","46","probe-80","0.4766298441854352","0.23039964347538872","0.6825507506986904","0","","","","","","","",""
"","html-keyboard-response","185","800118","0.0-102.0-1.0","""event"",""trial"",""time""
""fullscreenenter"",""0"",""4160""
","
","
","""event"",""trial"",""time""
""fullscreenenter"",""0"",""4160""
","
","null","<p></p>","null","","","","","","","","","","","","","","","","","","","","","","",""
"","do_trial","186","804734","0.0-103.0-0.0","""event"",""trial"",""time""
""fullscreenenter"",""0"",""4160""
","
","
","""event"",""trial"",""time""
""fullscreenenter"",""0"",""4160""
","
","6.8999999994412065","","","","","","","","49","0,0,0","1","city","47","probe-156","0.32521632160421216","0.28297995277976307","0.7155653078450842","0","","","","","","","",""
"","html-keyboard-response","187","805738","0.0-103.0-1.0","""event"",""trial"",""time""
""fullscreenenter"",""0"",""4160""
","
","
","""event"",""trial"",""time""
""fullscreenenter"",""0"",""4160""
","
","null","<p></p>","null","","","","","","","","","","","","","","","","","","","","","","",""
"","do_trial","188","810459","0.0-104.0-0.0","""event"",""trial"",""time""
""fullscreenenter"",""0"",""4160""
","
","
","""event"",""trial"",""time""
""fullscreenenter"",""0"",""4160""
","
","109.79999999981374","","","","","","","","49","0,0,0","1","city","48","probe-48","0.21669034702948586","0.22385796115711099","0.6635043238028168","0","","","","","","","",""
"","html-keyboard-response","189","811466","0.0-104.0-1.0","""event"",""trial"",""time""
""fullscreenenter"",""0"",""4160""
","
","
","""event"",""trial"",""time""
""fullscreenenter"",""0"",""4160""
","
","null","<p></p>","null","","","","","","","","","","","","","","","","","","","","","","",""
"","do_trial","190","816393","0.0-105.0-0.0","""event"",""trial"",""time""
""fullscreenenter"",""0"",""4160""
","
","
","""event"",""trial"",""time""
""fullscreenenter"",""0"",""4160""
","
","314.5","","","","","","","","49","1,0,1","1","city","49","probe-35","0.26497187463242655","0.14966748785966336","0.6604792744881088","1","","","","","","","",""
"","html-keyboard-response","191","817399","0.0-105.0-1.0","""event"",""trial"",""time""
""fullscreenenter"",""0"",""4160""
","
","
","""event"",""trial"",""time""
""fullscreenenter"",""0"",""4160""
","
","null","<p></p>","null","","","","","","","","","","","","","","","","","","","","","","",""
"","do_trial","192","822485","0.0-106.0-0.0","""event"",""trial"",""time""
""fullscreenenter"",""0"",""4160""
","
","
","""event"",""trial"",""time""
""fullscreenenter"",""0"",""4160""
","
","481.5","","","","","","","","49","0,0,1","1","city","50","probe-200","0.1366119308926514","0.07026153262766346","0.7358325950153086","0","","","","","","","",""
"","html-keyboard-response","193","823491","0.0-106.0-1.0","""event"",""trial"",""time""
""fullscreenenter"",""0"",""4160""
","
","
","""event"",""trial"",""time""
""fullscreenenter"",""0"",""4160""
","
","null","<p></p>","null","","","","","","","","","","","","","","","","","","","","","","",""
"","do_trial","194","828100","0.0-107.0-0.0","""event"",""trial"",""time""
""fullscreenenter"",""0"",""4160""
","
","
","""event"",""trial"",""time""
""fullscreenenter"",""0"",""4160""
","
","0.2999999998137355","","","","","","","","49","0,1,1","1","city","51","probe-216","0.1816064283097493","0.11257790155895758","0.6036634430898005","0","","","","","","","",""
"","html-keyboard-response","195","829104","0.0-107.0-1.0","""event"",""trial"",""time""
""fullscreenenter"",""0"",""4160""
","
","
","""event"",""trial"",""time""
""fullscreenenter"",""0"",""4160""
","
","null","<p></p>","null","","","","","","","","","","","","","","","","","","","","","","",""
"","do_trial","196","833716","0.0-108.0-0.0","""event"",""trial"",""time""
""fullscreenenter"",""0"",""4160""
","
","
","""event"",""trial"",""time""
""fullscreenenter"",""0"",""4160""
","
","0.20000000018626451","","","","","","","","49","1,1,1","1","city","52","probe-09","0.33766296295428816","0.14287409342306337","0.6655281761887375","1","","","","","","","",""
"","html-keyboard-response","197","834720","0.0-108.0-1.0","""event"",""trial"",""time""
""fullscreenenter"",""0"",""4160""
","
","
","""event"",""trial"",""time""
""fullscreenenter"",""0"",""4160""
","
","null","<p></p>","null","","","","","","","","","","","","","","","","","","","","","","",""
"","do_trial","198","839331","0.0-109.0-0.0","""event"",""trial"",""time""
""fullscreenenter"",""0"",""4160""
","
","
","""event"",""trial"",""time""
""fullscreenenter"",""0"",""4160""
","
","0.20000000018626451","","","","","","","","49","1,0,0","1","city","53","probe-123","0.3323781362775233","0.15483967647537042","0.6164465339786257","1","","","","","","","",""
"","html-keyboard-response","199","840334","0.0-109.0-1.0","""event"",""trial"",""time""
""fullscreenenter"",""0"",""4160""
","
","
","""event"",""trial"",""time""
""fullscreenenter"",""0"",""4160""
","
","null","<p></p>","null","","","","","","","","","","","","","","","","","","","","","","",""
"","do_trial","200","844939","0.0-110.0-0.0","""event"",""trial"",""time""
""fullscreenenter"",""0"",""4160""
","
","
","""event"",""trial"",""time""
""fullscreenenter"",""0"",""4160""
","
","0.30000000074505806","","","","","","","","49","0,0,0","1","city","54","probe-76","0.40385575850543676","0.26423995089186003","0.5404478561949165","0","","","","","","","",""
"","html-keyboard-response","201","845945","0.0-110.0-1.0","""event"",""trial"",""time""
""fullscreenenter"",""0"",""4160""
","
","
","""event"",""trial"",""time""
""fullscreenenter"",""0"",""4160""
","
","null","<p></p>","null","","","","","","","","","","","","","","","","","","","","","","",""
"","do_trial","202","850546","0.0-111.0-0.0","""event"",""trial"",""time""
""fullscreenenter"",""0"",""4160""
","
","
","""event"",""trial"",""time""
""fullscreenenter"",""0"",""4160""
","
","0.7999999998137355","","","","","","","","49","0,0,0","1","city","55","probe-66","0.38925515459095367","0.12883254940107516","0.6823074148676688","0","","","","","","","",""
"","html-keyboard-response","203","851550","0.0-111.0-1.0","""event"",""trial"",""time""
""fullscreenenter"",""0"",""4160""
","
","
","""event"",""trial"",""time""
""fullscreenenter"",""0"",""4160""
","
","null","<p></p>","null","","","","","","","","","","","","","","","","","","","","","","",""
"","do_trial","204","856160","0.0-112.0-0.0","""event"",""trial"",""time""
""fullscreenenter"",""0"",""4160""
","
","
","""event"",""trial"",""time""
""fullscreenenter"",""0"",""4160""
","
","0.5","","","","","","","","49","0,0,1","1","city","56","probe-11","0.41640362384118945","0.2322217897759854","0.621453146509854","0","","","","","","","",""
"","html-keyboard-response","205","857167","0.0-112.0-1.0","""event"",""trial"",""time""
""fullscreenenter"",""0"",""4160""
","
","
","""event"",""trial"",""time""
""fullscreenenter"",""0"",""4160""
","
","null","<p></p>","null","","","","","","","","","","","","","","","","","","","","","","",""
"","do_trial","206","863151","0.0-113.0-0.0","""event"",""trial"",""time""
""fullscreenenter"",""0"",""4160""
","
","
","""event"",""trial"",""time""
""fullscreenenter"",""0"",""4160""
","
","1373.2000000001863","","","","","","","","49","0,0,0","1","city","57","probe-173","0.2866948891921138","0.10674573476113908","0.5659825447296022","0","","","","","","","",""
"","html-keyboard-response","207","864158","0.0-113.0-1.0","""event"",""trial"",""time""
""fullscreenenter"",""0"",""4160""
","
","
","""event"",""trial"",""time""
""fullscreenenter"",""0"",""4160""
","
","null","<p></p>","null","","","","","","","","","","","","","","","","","","","","","","",""
"","do_trial","208","868769","0.0-114.0-0.0","""event"",""trial"",""time""
""fullscreenenter"",""0"",""4160""
","
","
","""event"",""trial"",""time""
""fullscreenenter"",""0"",""4160""
","
","0.6000000005587935","","","","","","","","49","1,0,0","1","city","58","probe-138","0.26308013542408004","0.09408761926539279","0.6564892894975561","1","","","","","","","",""
"","html-keyboard-response","209","869776","0.0-114.0-1.0","""event"",""trial"",""time""
""fullscreenenter"",""0"",""4160""
","
","
","""event"",""trial"",""time""
""fullscreenenter"",""0"",""4160""
","
","null","<p></p>","null","","","","","","","","","","","","","","","","","","","","","","",""
"","do_trial","210","874452","0.0-115.0-0.0","""event"",""trial"",""time""
""fullscreenenter"",""0"",""4160""
","
","
","""event"",""trial"",""time""
""fullscreenenter"",""0"",""4160""
","
","68.40000000037253","","","","","","","","49","0,0,0","1","city","59","probe-206","0.27624352573100525","0.09467190013023188","0.49801400160146436","0","","","","","","","",""
"","html-keyboard-response","211","875458","0.0-115.0-1.0","""event"",""trial"",""time""
""fullscreenenter"",""0"",""4160""
","
","
","""event"",""trial"",""time""
""fullscreenenter"",""0"",""4160""
","
","null","<p></p>","null","","","","","","","","","","","","","","","","","","","","","","",""
"","do_trial","212","880365","0.0-116.0-0.0","""event"",""trial"",""time""
""fullscreenenter"",""0"",""4160""
","
","
","""event"",""trial"",""time""
""fullscreenenter"",""0"",""4160""
","
","295.70000000018626","","","","","","","","50","0,0,0","1","city","60","probe-05","0.24825997334537964","0.09352184498950418","0.6166719508087634","0","","","","","","","",""
"","html-keyboard-response","213","881371","0.0-116.0-1.0","""event"",""trial"",""time""
""fullscreenenter"",""0"",""4160""
","
","
","""event"",""trial"",""time""
""fullscreenenter"",""0"",""4160""
","
","null","<p></p>","null","","","","","","","","","","","","","","","","","","","","","","",""
"","do_trial","214","886274","0.0-117.0-0.0","""event"",""trial"",""time""
""fullscreenenter"",""0"",""4160""
","
","
","""event"",""trial"",""time""
""fullscreenenter"",""0"",""4160""
","
","289.59999999962747","","","","","","","","50","1,0,0","1","city","61","probe-49","0.4304530299151978","0.062488783501191796","0.7677882886083847","0","","","","","","","",""
"","html-keyboard-response","215","887280","0.0-117.0-1.0","""event"",""trial"",""time""
""fullscreenenter"",""0"",""4160""
","
","
","""event"",""trial"",""time""
""fullscreenenter"",""0"",""4160""
","
","null","<p></p>","null","","","","","","","","","","","","","","","","","","","","","","",""
"","do_trial","216","892025","0.0-118.0-0.0","""event"",""trial"",""time""
""fullscreenenter"",""0"",""4160""
","
","
","""event"",""trial"",""time""
""fullscreenenter"",""0"",""4160""
","
","140.29999999981374","","","","","","","","49","1,0,1","1","city","62","probe-65","0.2961600446304849","0.053450330535828","0.5936402105550055","1","","","","","","","",""
"","html-keyboard-response","217","893029","0.0-118.0-1.0","""event"",""trial"",""time""
""fullscreenenter"",""0"",""4160""
","
","
","""event"",""trial"",""time""
""fullscreenenter"",""0"",""4160""
","
","null","<p></p>","null","","","","","","","","","","","","","","","","","","","","","","",""
"","do_trial","218","897747","0.0-119.0-0.0","""event"",""trial"",""time""
""fullscreenenter"",""0"",""4160""
","
","
","""event"",""trial"",""time""
""fullscreenenter"",""0"",""4160""
","
","119.09999999962747","","","","","","","","49","0,0,0","1","city","63","probe-79","0.40990090546857916","0.06981964244827205","0.5654024555444881","0","","","","","","","",""
"","html-keyboard-response","219","898749","0.0-119.0-1.0","""event"",""trial"",""time""
""fullscreenenter"",""0"",""4160""
","
","
","""event"",""trial"",""time""
""fullscreenenter"",""0"",""4160""
","
","null","<p></p>","null","","","","","","","","","","","","","","","","","","","","","","",""
"","do_trial","220","903619","0.0-120.0-0.0","""event"",""trial"",""time""
""fullscreenenter"",""0"",""4160""
","
","
","""event"",""trial"",""time""
""fullscreenenter"",""0"",""4160""
","
","274.70000000018626","","","","","","","","49","1,0,1","1","city","64","probe-218","0.3622798475982272","0.11908204580095026","0.7755655340970161","1","","","","","","","",""
"","html-keyboard-response","221","904622","0.0-120.0-1.0","""event"",""trial"",""time""
""fullscreenenter"",""0"",""4160""
","
","
","""event"",""trial"",""time""
""fullscreenenter"",""0"",""4160""
","
","null","<p></p>","null","","","","","","","","","","","","","","","","","","","","","","",""
"","do_trial","222","909708","0.0-121.0-0.0","""event"",""trial"",""time""
""fullscreenenter"",""0"",""4160""
","
","
","""event"",""trial"",""time""
""fullscreenenter"",""0"",""4160""
","
","491.59999999962747","","","","","","","","49","0,0,0","1","city","65","probe-19","0.20529432697745087","0.17018478675816393","0.6773211966086757","0","","","","","","","",""
"","html-keyboard-response","223","910710","0.0-121.0-1.0","""event"",""trial"",""time""
""fullscreenenter"",""0"",""4160""
","
","
","""event"",""trial"",""time""
""fullscreenenter"",""0"",""4160""
","
","null","<p></p>","null","","","","","","","","","","","","","","","","","","","","","","",""
"","do_trial","224","915309","0.0-122.0-0.0","""event"",""trial"",""time""
""fullscreenenter"",""0"",""4160""
","
","
","""event"",""trial"",""time""
""fullscreenenter"",""0"",""4160""
","
","0.2999999998137355","","","","","","","","49","1,0,0","1","city","66","probe-111","0.22806375664118478","0.21997750986584355","0.7367362562927119","1","","","","","","","",""
"","html-keyboard-response","225","916311","0.0-122.0-1.0","""event"",""trial"",""time""
""fullscreenenter"",""0"",""4160""
","
","
","""event"",""trial"",""time""
""fullscreenenter"",""0"",""4160""
","
","null","<p></p>","null","","","","","","","","","","","","","","","","","","","","","","",""
"","do_trial","226","921409","0.0-123.0-0.0","""event"",""trial"",""time""
""fullscreenenter"",""0"",""4160""
","
","
","""event"",""trial"",""time""
""fullscreenenter"",""0"",""4160""
","
","504.5","","","","","","","","49","0,0,1","1","city","67","probe-34","0.20752144955775048","0.1611739030455134","0.7956529566249587","0","","","","","","","",""
"","html-keyboard-response","227","922412","0.0-123.0-1.0","""event"",""trial"",""time""
""fullscreenenter"",""0"",""4160""
","
","
","""event"",""trial"",""time""
""fullscreenenter"",""0"",""4160""
","
","null","<p></p>","null","","","","","","","","","","","","","","","","","","","","","","",""
"","do_trial","228","927067","0.0-124.0-0.0","""event"",""trial"",""time""
""fullscreenenter"",""0"",""4160""
","
","
","""event"",""trial"",""time""
""fullscreenenter"",""0"",""4160""
","
","62","","","","","","","","49","0,0,1","1","city","68","probe-86","0.3273945002498761","0.08119077805078018","0.8653306808029624","0","","","","","","","",""
"","html-keyboard-response","229","928071","0.0-124.0-1.0","""event"",""trial"",""time""
""fullscreenenter"",""0"",""4160""
","
","
","""event"",""trial"",""time""
""fullscreenenter"",""0"",""4160""
","
","null","<p></p>","null","","","","","","","","","","","","","","","","","","","","","","",""
"","do_trial","230","932673","0.0-125.0-0.0","""event"",""trial"",""time""
""fullscreenenter"",""0"",""4160""
","
","
","""event"",""trial"",""time""
""fullscreenenter"",""0"",""4160""
","
","0.30000000074505806","","","","","","","","49","1,0,1","1","city","69","probe-211","0.2274537777852092","0.19758132336519652","0.7348448988781148","1","","","","","","","",""
"","html-keyboard-response","231","933676","0.0-125.0-1.0","""event"",""trial"",""time""
""fullscreenenter"",""0"",""4160""
","
","
","""event"",""trial"",""time""
""fullscreenenter"",""0"",""4160""
","
","null","<p></p>","null","","","","","","","","","","","","","","","","","","","","","","",""
"","do_bye","232","935183","0.0-126.0-0.0","""event"",""trial"",""time""
""fullscreenenter"",""0"",""4160""
","
","
","""event"",""trial"",""time""
""fullscreenenter"",""0"",""4160""
","
","null","","","","","","","","null","","","","","","","","","","","","","","","","",""
"","break","233","936463","0.0-126.0-1.0","""event"",""trial"",""time""
""fullscreenenter"",""0"",""4160""
","
","
","""event"",""trial"",""time""
""fullscreenenter"",""0"",""4160""
","
","1278.2999999998137","<div class='center'><p>Time to take a quick break! You have 2 minutes to rest, but you can move on sooner if you'd like.</p><p> Press the <b>space bar</b> to continue.</p></div>","32","","","","","","","","","","","","","","","","","","","","","","",""
"","do_travel","234","945473","0.0-127.0-0.0","""event"",""trial"",""time""
""fullscreenenter"",""0"",""4160""
","
","
","""event"",""trial"",""time""
""fullscreenenter"",""0"",""4160""
","
","null","","","","","","","","null","","","","","","","","","","","","","","","","",""
"","do_welcome","235","949494","0.0-127.0-1.0","""event"",""trial"",""time""
""fullscreenenter"",""0"",""4160""
","
","
","""event"",""trial"",""time""
""fullscreenenter"",""0"",""4160""
","
","null","","","","","","","","null","","","","","","","","","","","","","","","","",""
"","do_trial","236","956514","0.0-128.0-0.0","""event"",""trial"",""time""
""fullscreenenter"",""0"",""4160""
","
","
","""event"",""trial"",""time""
""fullscreenenter"",""0"",""4160""
","
","2421.5","","","","","","","","49","0,0,1","2","highway","70","probe-222","0.07803373976817721","0.14570595191032987","1","0","","","","","","","",""
"","html-keyboard-response","237","957518","0.0-128.0-1.0","""event"",""trial"",""time""
""fullscreenenter"",""0"",""4160""
","
","
","""event"",""trial"",""time""
""fullscreenenter"",""0"",""4160""
","
","null","<p></p>","null","","","","","","","","","","","","","","","","","","","","","","",""
"","do_trial","238","962527","0.0-129.0-0.0","""event"",""trial"",""time""
""fullscreenenter"",""0"",""4160""
","
","
","""event"",""trial"",""time""
""fullscreenenter"",""0"",""4160""
","
","399","","","","","","","","49","0,0,1","2","highway","71","probe-212","0.2277796092870457","0.13748564056295412","1","0","","","","","","","",""
"","html-keyboard-response","239","963533","0.0-129.0-1.0","""event"",""trial"",""time""
""fullscreenenter"",""0"",""4160""
","
","
","""event"",""trial"",""time""
""fullscreenenter"",""0"",""4160""
","
","null","<p></p>","null","","","","","","","","","","","","","","","","","","","","","","",""
"","do_trial","240","968235","0.0-130.0-0.0","""event"",""trial"",""time""
""fullscreenenter"",""0"",""4160""
","
","
","""event"",""trial"",""time""
""fullscreenenter"",""0"",""4160""
","
","89.20000000018626","","","","","","","","49","0,1,1","2","highway","72","probe-143","0.346006428964744","0.1987679838691819","0.9415540058307198","0","","","","","","","",""
"","html-keyboard-response","241","969239","0.0-130.0-1.0","""event"",""trial"",""time""
""fullscreenenter"",""0"",""4160""
","
","
","""event"",""trial"",""time""
""fullscreenenter"",""0"",""4160""
","
","null","<p></p>","null","","","","","","","","","","","","","","","","","","","","","","",""
"","do_trial","242","973874","0.0-131.0-0.0","""event"",""trial"",""time""
""fullscreenenter"",""0"",""4160""
","
","
","""event"",""trial"",""time""
""fullscreenenter"",""0"",""4160""
","
","38.90000000037253","","","","","","","","49","1,0,0","2","highway","73","probe-131","0.29426504759430877","0.19772783245443035","0.7287818530964283","1","","","","","","","",""
"","html-keyboard-response","243","974877","0.0-131.0-1.0","""event"",""trial"",""time""
""fullscreenenter"",""0"",""4160""
","
","
","""event"",""trial"",""time""
""fullscreenenter"",""0"",""4160""
","
","null","<p></p>","null","","","","","","","","","","","","","","","","","","","","","","",""
"","do_trial","244","981245","0.0-132.0-0.0","""event"",""trial"",""time""
""fullscreenenter"",""0"",""4160""
","
","
","""event"",""trial"",""time""
""fullscreenenter"",""0"",""4160""
","
","1773.199999999255","","","","","","","","49","0,1,0","2","highway","74","probe-73","0.28870010272671753","0.2348407401686933","0.5820981308683089","0","","","","","","","",""
"","html-keyboard-response","245","982251","0.0-132.0-1.0","""event"",""trial"",""time""
""fullscreenenter"",""0"",""4160""
","
","
","""event"",""trial"",""time""
""fullscreenenter"",""0"",""4160""
","
","null","<p></p>","null","","","","","","","","","","","","","","","","","","","","","","",""
"","do_trial","246","989061","0.0-133.0-0.0","""event"",""trial"",""time""
""fullscreenenter"",""0"",""4160""
","
","
","""event"",""trial"",""time""
""fullscreenenter"",""0"",""4160""
","
","2195.0999999996275","","","","","","","","49","0,0,1","2","highway","75","probe-192","0.27299511328075216","0.19457111846096","0.5653863044568913","0","","","","","","","",""
"","html-keyboard-response","247","990066","0.0-133.0-1.0","""event"",""trial"",""time""
""fullscreenenter"",""0"",""4160""
","
","
","""event"",""trial"",""time""
""fullscreenenter"",""0"",""4160""
","
","null","<p></p>","null","","","","","","","","","","","","","","","","","","","","","","",""
"","do_trial","248","994770","0.0-134.0-0.0","""event"",""trial"",""time""
""fullscreenenter"",""0"",""4160""
","
","
","""event"",""trial"",""time""
""fullscreenenter"",""0"",""4160""
","
","94.8999999994412","","","","","","","","49","0,0,1","2","highway","76","probe-18","0.25465954198542257","0.1856137063401786","0.6604522670433336","0","","","","","","","",""
"","html-keyboard-response","249","995776","0.0-134.0-1.0","""event"",""trial"",""time""
""fullscreenenter"",""0"",""4160""
","
","
","""event"",""trial"",""time""
""fullscreenenter"",""0"",""4160""
","
","null","<p></p>","null","","","","","","","","","","","","","","","","","","","","","","",""
"","do_trial","250","1001377","0.0-135.0-0.0","""event"",""trial"",""time""
""fullscreenenter"",""0"",""4160""
","
","
","""event"",""trial"",""time""
""fullscreenenter"",""0"",""4160""
","
","991.4000000003725","","","","","","","","49","1,0,1","2","highway","77","probe-205","0.35203451615780684","0.15796362742854733","0.7616995485154678","1","","","","","","","",""
"","html-keyboard-response","251","1002382","0.0-135.0-1.0","""event"",""trial"",""time""
""fullscreenenter"",""0"",""4160""
","
","
","""event"",""trial"",""time""
""fullscreenenter"",""0"",""4160""
","
","null","<p></p>","null","","","","","","","","","","","","","","","","","","","","","","",""
"","do_trial","252","1009182","0.0-136.0-0.0","""event"",""trial"",""time""
""fullscreenenter"",""0"",""4160""
","
","
","""event"",""trial"",""time""
""fullscreenenter"",""0"",""4160""
","
","2188.9000000003725","","","","","","","","49","0,0,1","2","highway","78","probe-108","0.4670876274503671","0.10469744298399249","0.7269169538348068","0","","","","","","","",""
"","html-keyboard-response","253","1010186","0.0-136.0-1.0","""event"",""trial"",""time""
""fullscreenenter"",""0"",""4160""
","
","
","""event"",""trial"",""time""
""fullscreenenter"",""0"",""4160""
","
","null","<p></p>","null","","","","","","","","","","","","","","","","","","","","","","",""
"","do_trial","254","1016734","0.0-137.0-0.0","""event"",""trial"",""time""
""fullscreenenter"",""0"",""4160""
","
","
","""event"",""trial"",""time""
""fullscreenenter"",""0"",""4160""
","
","1936.5","","","","","","","","51","0,0,0","2","highway","79","probe-196","0.42146848410375604","0.09334722066140635","0.7066470946739599","0","","","","","","","",""
"","html-keyboard-response","255","1017739","0.0-137.0-1.0","""event"",""trial"",""time""
""fullscreenenter"",""0"",""4160""
","
","
","""event"",""trial"",""time""
""fullscreenenter"",""0"",""4160""
","
","null","<p></p>","null","","","","","","","","","","","","","","","","","","","","","","",""
"","do_trial","256","1022350","0.0-138.0-0.0","""event"",""trial"",""time""
""fullscreenenter"",""0"",""4160""
","
","
","""event"",""trial"",""time""
""fullscreenenter"",""0"",""4160""
","
","0.5","","","","","","","","51","0,0,1","2","highway","80","probe-201","0.4401663736524455","0.09884966661025754","0.5811212673327427","1","","","","","","","",""
"","html-keyboard-response","257","1023355","0.0-138.0-1.0","""event"",""trial"",""time""
""fullscreenenter"",""0"",""4160""
","
","
","""event"",""trial"",""time""
""fullscreenenter"",""0"",""4160""
","
","null","<p></p>","null","","","","","","","","","","","","","","","","","","","","","","",""
"","do_trial","258","1028445","0.0-139.0-0.0","""event"",""trial"",""time""
""fullscreenenter"",""0"",""4160""
","
","
","""event"",""trial"",""time""
""fullscreenenter"",""0"",""4160""
","
","480.09999999962747","","","","","","","","51","0,0,0","2","highway","81","probe-202","0.48808600766272064","0.08410690799521194","0.6423264694098973","0","","","","","","","",""
"","html-keyboard-response","259","1029449","0.0-139.0-1.0","""event"",""trial"",""time""
""fullscreenenter"",""0"",""4160""
","
","
","""event"",""trial"",""time""
""fullscreenenter"",""0"",""4160""
","
","null","<p></p>","null","","","","","","","","","","","","","","","","","","","","","","",""
"","do_trial","260","1034268","0.0-140.0-0.0","""event"",""trial"",""time""
""fullscreenenter"",""0"",""4160""
","
","
","""event"",""trial"",""time""
""fullscreenenter"",""0"",""4160""
","
","215.70000000018626","","","","","","","","51","1,0,1","2","highway","82","probe-29","0.5728376983773706","0.05212961670054614","0.4353316999245845","1","","","","","","","",""
"","html-keyboard-response","261","1035272","0.0-140.0-1.0","""event"",""trial"",""time""
""fullscreenenter"",""0"",""4160""
","
","
","""event"",""trial"",""time""
""fullscreenenter"",""0"",""4160""
","
","null","<p></p>","null","","","","","","","","","","","","","","","","","","","","","","",""
