"success","trial_type","trial_index","time_elapsed","internal_node_id","interactions","blur_events","focus_events","fullscreenenter_events","fullscreenexit_events","rt","stimulus","key_press","subject_id","participant_id","age","gender","prompt","response","choice_outcomes","context_n","context_img_id","trial_n","probe_img_id","pR_red","pR_white","pR_black","outcome","contextArray_ind","validImageProbes","invalidImageProbes","pRew_Red","pRew_White","pRew_Black","availableForMemProbe","choice_blocks"
"true","fullscreen","0","6546","0.0-0.0","""event"",""trial"",""time""
""fullscreenenter"",""0"",""5542""
","
","
","""event"",""trial"",""time""
""fullscreenenter"",""0"",""5542""
","
","","","","","","","","","","","","","","","","","","","","","","","","","",""
"","pavlovia","1","6551","0.0-1.0","""event"",""trial"",""time""
""fullscreenenter"",""0"",""5542""
","
","
","""event"",""trial"",""time""
""fullscreenenter"",""0"",""5542""
","
","","","","","","","","","","","","","","","","","","","","","","","","","",""
"","instruc1","2","51642","0.0-2.0","""event"",""trial"",""time""
""fullscreenenter"",""0"",""5542""
","
","
","""event"",""trial"",""time""
""fullscreenenter"",""0"",""5542""
","
","null","run_exp/static/audio/clip_1_welcome.m4a","null","369","741","23","Female","<div class='center'><p>Welcome! This is the first part of the study. It will last ~30 minutes. In part 1 and part 2 of the study, you are the head captain of a pirate ship traveling around the world to different islands. You will play a few different games throughout these two parts. Here is an overview of them:</p><br><p>Part 1 (today)</p><p>1. Instructions, practice game, and quiz</p><p>2. Pick a pirate game on 6 different islands</p><br><p>Part 2 (tomorrow)</p><p>3. Pick a pirate game and memory game</p><p>4. Where did you see this ship? </p></div>","","","","","","","","","","","","","","","","","",""
"","html-keyboard-response","3","52489","0.0-3.0","""event"",""trial"",""time""
""fullscreenenter"",""0"",""5542""
","
","
","""event"",""trial"",""time""
""fullscreenenter"",""0"",""5542""
","
","845.2000000029802","<div class='center'><p>Welcome! This is the first part of the study. It will last ~30 minutes. In part 1 and part 2 of the study, you are the head captain of a pirate ship traveling around the world to different islands. You will play a few different games throughout these two parts. Here is an overview of them:</p><br><p>Part 1 (today)</p><p>1. Instructions, practice game, and quiz</p><p>2. Pick a pirate game on 6 different islands</p><br><p>Part 2 (tomorrow)</p><p>3. Pick a pirate game and memory game</p><p>4. Where did you see this ship? </p><p><b>[Press the space bar to continue]</b></p></div>","32","","","","","","","","","","","","","","","","","","","","","","",""
"","instruc2","4","57781","0.0-4.0","""event"",""trial"",""time""
""fullscreenenter"",""0"",""5542""
","
","
","""event"",""trial"",""time""
""fullscreenenter"",""0"",""5542""
","
","null","run_exp/static/audio/clip_2_different_places.m4a","null","","","","","<div class='center'><p>Today, you’ll visit these 6 islands on your journey. You'll be able to see these islands from your ship.</p><p><img src='run_exp/static/images/contexts/all_contexts.png' height='500'></p></div>","","","","","","","","","","","","","","","","","",""
"","html-keyboard-response","5","59187","0.0-5.0","""event"",""trial"",""time""
""fullscreenenter"",""0"",""5542""
","
","
","""event"",""trial"",""time""
""fullscreenenter"",""0"",""5542""
","
","1403.7000000029802","<div class='center'><p>Today, you’ll visit these 6 islands on your journey. You'll be able to see these islands from your ship.</p><p><img src='run_exp/static/images/contexts/all_contexts.png' height='500'></p><p><b>[Press the space bar to continue]</b></p></div>","32","","","","","","","","","","","","","","","","","","","","","","",""
"","instruc3","6","68861","0.0-6.0","""event"",""trial"",""time""
""fullscreenenter"",""0"",""5542""
","
","
","""event"",""trial"",""time""
""fullscreenenter"",""0"",""5542""
","
","null","run_exp/static/audio/clip_3_goal_of_game_1.m4a","null","","","","","<div class='center'><p> The pirates on your ship will rob other ships as they leave the island.</p> These ships have just sold their goods to the islanders, so they will be filled with lots and lots of gold.</p><p><img src='run_exp/static/images/tutorial/ship_center.png' height='400'></p></div>","","","","","","","","","","","","","","","","","",""
"","html-keyboard-response","7","70888","0.0-7.0","""event"",""trial"",""time""
""fullscreenenter"",""0"",""5542""
","
","
","""event"",""trial"",""time""
""fullscreenenter"",""0"",""5542""
","
","2025.8999999910593","<div class='center'><p> The pirates on your ship will rob other ships as they leave the island.</p> These ships have just sold their goods to the islanders, so they will be filled with lots and lots of gold.</p><p><img src='run_exp/static/images/tutorial/ship_center.png' height='400'></p><p><b>[Press the space bar to continue]</b></p></div>","32","","","","","","","","","","","","","","","","","","","","","","",""
"","instruc4","8","98881","0.0-8.0","""event"",""trial"",""time""
""fullscreenenter"",""0"",""5542""
","
","
","""event"",""trial"",""time""
""fullscreenenter"",""0"",""5542""
","
","null","run_exp/static/audio/clip_4_goal_of_game_2.m4a","null","","","","","<div class='center'><p>As the head captain, you do not have to rob any ships yourself. Another pirate will be doing the robbing for you. First, you will choose a pirate to rob the next ship.</p><p><img src='run_exp/static/images/tutorial/pirates_all_crop.png' height='200'></p><p>Then, you'll see if the pirate successfully robbed the ship of their gold. If they were successful, then you'll get a stack of gold coins like this:</p><p><img src='run_exp/static/images/tutorial/reward.png' height='150'></p><p> If they were <b>not</b> successful, then you'll get no gold coins, and you'll see a big red x like this: </p><p><img src='run_exp/static/images/tutorial/reward_no.png' height='150'></p><p> How much bonus money you make is based on how many gold coins you collect.</p><div>","","","","","","","","","","","","","","","","","",""
"","html-keyboard-response","9","101040","0.0-9.0","""event"",""trial"",""time""
""fullscreenenter"",""0"",""5542""
","
","
","""event"",""trial"",""time""
""fullscreenenter"",""0"",""5542""
","
","2157.9000000059605","<div class='center'><p>As the head captain, you do not have to rob any ships yourself. Another pirate will be doing the robbing for you. First, you will choose a pirate to rob the next ship.</p><p><img src='run_exp/static/images/tutorial/pirates_all_crop.png' height='200'></p><p>Then, you'll see if the pirate successfully robbed the ship of their gold. If they were successful, then you'll get a stack of gold coins like this:</p><p><img src='run_exp/static/images/tutorial/reward.png' height='150'></p><p> If they were <b>not</b> successful, then you'll get no gold coins, and you'll see a big red x like this: </p><p><img src='run_exp/static/images/tutorial/reward_no.png' height='150'></p><p> How much bonus money you make is based on how many gold coins you collect.</p<p><b>[Press the space bar to continue]</b></p></div>","32","","","","","","","","","","","","","","","","","","","","","","",""
"","instruc5","10","123952","0.0-10.0","""event"",""trial"",""time""
""fullscreenenter"",""0"",""5542""
","
","
","""event"",""trial"",""time""
""fullscreenenter"",""0"",""5542""
","
","22910.90000000596","run_exp/static/audio/clip_5_probabilistic.m4a","49","","","","","<div class='center'><p>Even the most skilled pirate can not rob EVERY ship.</p><p> Some ships will have very strong protections against pirate attacks.</p><p> Blue beard, here, is very, very good at robbing ships, but he won't be successful every time he tries to rob one.</p><p> You can press the <b>‘1’</b> key on the keyboard to choose him.</p><p> Try choosing him 10 times to see how often he succeeds at robbing a ship. </p><p><img src='run_exp/static/images/tutorial/blue.png' height='500'></p></div>","","","","","","","","","","","","","","","","","",""
"","html-keyboard-response","11","125458","0.0-11.0","""event"",""trial"",""time""
""fullscreenenter"",""0"",""5542""
","
","
","""event"",""trial"",""time""
""fullscreenenter"",""0"",""5542""
","
","null","<div class='center'><p><img src='run_exp/static/images/tutorial/blue_win.png' height='500'></p></div>","null","","","","","","","","","","","","","","","","","","","","","","",""
"","html-keyboard-response","12","126736","0.0-12.0","""event"",""trial"",""time""
""fullscreenenter"",""0"",""5542""
","
","
","""event"",""trial"",""time""
""fullscreenenter"",""0"",""5542""
","
","1277.2999999970198","<div class='center'><img src='run_exp/static/images/tutorial/blue.png' height='500'></p></div>","49","","","","","","","","","","","","","","","","","","","","","","",""
"","html-keyboard-response","13","128249","0.0-13.0","""event"",""trial"",""time""
""fullscreenenter"",""0"",""5542""
","
","
","""event"",""trial"",""time""
""fullscreenenter"",""0"",""5542""
","
","null","<div class='center'><p><img src='run_exp/static/images/tutorial/blue_win.png' height='500'></p></div>","null","","","","","","","","","","","","","","","","","","","","","","",""
"","html-keyboard-response","14","128865","0.0-14.0","""event"",""trial"",""time""
""fullscreenenter"",""0"",""5542""
","
","
","""event"",""trial"",""time""
""fullscreenenter"",""0"",""5542""
","
","613.6999999880791","<div class='center'><img src='run_exp/static/images/tutorial/blue.png' height='500'></p></div>","49","","","","","","","","","","","","","","","","","","","","","","",""
"","html-keyboard-response","15","130369","0.0-15.0","""event"",""trial"",""time""
""fullscreenenter"",""0"",""5542""
","
","
","""event"",""trial"",""time""
""fullscreenenter"",""0"",""5542""
","
","null","<div class='center'><p><img src='run_exp/static/images/tutorial/blue_win.png' height='500'></p></div>","null","","","","","","","","","","","","","","","","","","","","","","",""
"","html-keyboard-response","16","130824","0.0-16.0","""event"",""trial"",""time""
""fullscreenenter"",""0"",""5542""
","
","
","""event"",""trial"",""time""
""fullscreenenter"",""0"",""5542""
","
","454.70000000298023","<div class='center'><img src='run_exp/static/images/tutorial/blue.png' height='500'></p></div>","49","","","","","","","","","","","","","","","","","","","","","","",""
"","html-keyboard-response","17","132332","0.0-17.0","""event"",""trial"",""time""
""fullscreenenter"",""0"",""5542""
","
","
","""event"",""trial"",""time""
""fullscreenenter"",""0"",""5542""
","
","null","<div class='center'><p><img src='run_exp/static/images/tutorial/blue_no_win.png' height='500'></p></div>","null","","","","","","","","","","","","","","","","","","","","","","",""
"","html-keyboard-response","18","132849","0.0-18.0","""event"",""trial"",""time""
""fullscreenenter"",""0"",""5542""
","
","
","""event"",""trial"",""time""
""fullscreenenter"",""0"",""5542""
","
","516.2000000029802","<div class='center'><img src='run_exp/static/images/tutorial/blue.png' height='500'></p></div>","49","","","","","","","","","","","","","","","","","","","","","","",""
"","html-keyboard-response","19","134364","0.0-19.0","""event"",""trial"",""time""
""fullscreenenter"",""0"",""5542""
","
","
","""event"",""trial"",""time""
""fullscreenenter"",""0"",""5542""
","
","null","<div class='center'><p><img src='run_exp/static/images/tutorial/blue_win.png' height='500'></p></div>","null","","","","","","","","","","","","","","","","","","","","","","",""
"","html-keyboard-response","20","134761","0.0-20.0","""event"",""trial"",""time""
""fullscreenenter"",""0"",""5542""
","
","
","""event"",""trial"",""time""
""fullscreenenter"",""0"",""5542""
","
","395.40000000596046","<div class='center'><img src='run_exp/static/images/tutorial/blue.png' height='500'></p></div>","49","","","","","","","","","","","","","","","","","","","","","","",""
"","html-keyboard-response","21","136267","0.0-21.0","""event"",""trial"",""time""
""fullscreenenter"",""0"",""5542""
","
","
","""event"",""trial"",""time""
""fullscreenenter"",""0"",""5542""
","
","null","<div class='center'><p><img src='run_exp/static/images/tutorial/blue_win.png' height='500'></p></div>","null","","","","","","","","","","","","","","","","","","","","","","",""
"","html-keyboard-response","22","136681","0.0-22.0","""event"",""trial"",""time""
""fullscreenenter"",""0"",""5542""
","
","
","""event"",""trial"",""time""
""fullscreenenter"",""0"",""5542""
","
","412.5","<div class='center'><img src='run_exp/static/images/tutorial/blue.png' height='500'></p></div>","49","","","","","","","","","","","","","","","","","","","","","","",""
"","html-keyboard-response","23","138194","0.0-23.0","""event"",""trial"",""time""
""fullscreenenter"",""0"",""5542""
","
","
","""event"",""trial"",""time""
""fullscreenenter"",""0"",""5542""
","
","null","<div class='center'><p><img src='run_exp/static/images/tutorial/blue_win.png' height='500'></p></div>","null","","","","","","","","","","","","","","","","","","","","","","",""
"","html-keyboard-response","24","138552","0.0-24.0","""event"",""trial"",""time""
""fullscreenenter"",""0"",""5542""
","
","
","""event"",""trial"",""time""
""fullscreenenter"",""0"",""5542""
","
","356.40000000596046","<div class='center'><img src='run_exp/static/images/tutorial/blue.png' height='500'></p></div>","49","","","","","","","","","","","","","","","","","","","","","","",""
"","html-keyboard-response","25","140067","0.0-25.0","""event"",""trial"",""time""
""fullscreenenter"",""0"",""5542""
","
","
","""event"",""trial"",""time""
""fullscreenenter"",""0"",""5542""
","
","null","<div class='center'><p><img src='run_exp/static/images/tutorial/blue_no_win.png' height='500'></p></div>","null","","","","","","","","","","","","","","","","","","","","","","",""
"","html-keyboard-response","26","140425","0.0-26.0","""event"",""trial"",""time""
""fullscreenenter"",""0"",""5542""
","
","
","""event"",""trial"",""time""
""fullscreenenter"",""0"",""5542""
","
","356.8999999910593","<div class='center'><img src='run_exp/static/images/tutorial/blue.png' height='500'></p></div>","49","","","","","","","","","","","","","","","","","","","","","","",""
"","html-keyboard-response","27","141935","0.0-27.0","""event"",""trial"",""time""
""fullscreenenter"",""0"",""5542""
","
","
","""event"",""trial"",""time""
""fullscreenenter"",""0"",""5542""
","
","null","<div class='center'><p><img src='run_exp/static/images/tutorial/blue_win.png' height='500'></p></div>","null","","","","","","","","","","","","","","","","","","","","","","",""
"","html-keyboard-response","28","142321","0.0-28.0","""event"",""trial"",""time""
""fullscreenenter"",""0"",""5542""
","
","
","""event"",""trial"",""time""
""fullscreenenter"",""0"",""5542""
","
","384.5","<div class='center'><img src='run_exp/static/images/tutorial/blue.png' height='500'></p></div>","49","","","","","","","","","","","","","","","","","","","","","","",""
"","html-keyboard-response","29","143834","0.0-29.0","""event"",""trial"",""time""
""fullscreenenter"",""0"",""5542""
","
","
","""event"",""trial"",""time""
""fullscreenenter"",""0"",""5542""
","
","null","<div class='center'><p><img src='run_exp/static/images/tutorial/blue_win.png' height='500'></p></div>","null","","","","","","","","","","","","","","","","","","","","","","",""
"","instruc6","30","149584","0.0-30.0","""event"",""trial"",""time""
""fullscreenenter"",""0"",""5542""
","
","
","""event"",""trial"",""time""
""fullscreenenter"",""0"",""5542""
","
","null","run_exp/static/audio/clip_6_blue_beard_outcome.m4a","null","","","","","<div class='center'><p> See, he succeeded in robbing the ships most of the time but not every time. </p></div>","","","","","","","","","","","","","","","","","",""
"","html-keyboard-response","31","150705","0.0-31.0","""event"",""trial"",""time""
""fullscreenenter"",""0"",""5542""
","
","
","""event"",""trial"",""time""
""fullscreenenter"",""0"",""5542""
","
","1120.2000000029802","<div class='center'><p> See, he succeeded in robbing the ships most of the time but not every time. </p><p><b>[Press the space bar to continue]</b></p></div>","32","","","","","","","","","","","","","","","","","","","","","","",""
"","audio-keyboard-response","32","160625","0.0-32.0","""event"",""trial"",""time""
""fullscreenenter"",""0"",""5542""
","
","
","""event"",""trial"",""time""
""fullscreenenter"",""0"",""5542""
","
","9918.60000000894","run_exp/static/audio/clip_7_pick_pirate.m4a","51","","","","","","","","","","","","","","","","","","","","","","",""
"","audio-keyboard-response","33","162938","0.0-33.0-0.0","""event"",""trial"",""time""
""fullscreenenter"",""0"",""5542""
","
","
","""event"",""trial"",""time""
""fullscreenenter"",""0"",""5542""
","
","2309.8999999910593","run_exp/static/audio/clip_8_chosen_pirate_win.m4a","32","","","","","","","","","","","","","","","","","","","","","","",""
"","audio-keyboard-response","34","165841","0.0-33.0-1.0","""event"",""trial"",""time""
""fullscreenenter"",""0"",""5542""
","
","
","""event"",""trial"",""time""
""fullscreenenter"",""0"",""5542""
","
","2902.2999999970198","run_exp/static/audio/clip_9_pick_a_pirate_again.m4a","49","","","","","","","","","","","","","","","","","","","","","","",""
"","audio-keyboard-response","35","167585","0.0-34.0-0.0","""event"",""trial"",""time""
""fullscreenenter"",""0"",""5542""
","
","
","""event"",""trial"",""time""
""fullscreenenter"",""0"",""5542""
","
","1741.5","run_exp/static/audio/clip_10_chosen_pirate_loss.m4a","32","","","","","","","","","","","","","","","","","","","","","","",""
"","instruc9","36","173063","0.0-35.0-0.0","""event"",""trial"",""time""
""fullscreenenter"",""0"",""5542""
","
","
","""event"",""trial"",""time""
""fullscreenenter"",""0"",""5542""
","
","null","run_exp/static/audio/clip_11_time_out.m4a","null","","","","","<div class='center'><p>If you don’t make your choice fast enough, you’ll have to wait a few seconds before you can make another one. </p><p><img src='run_exp/static/images/miscellaneous/hurry_up.png' height='500'></p></div>","","","","","","","","","","","","","","","","","",""
"","html-keyboard-response","37","173801","0.0-35.0-1.0","""event"",""trial"",""time""
""fullscreenenter"",""0"",""5542""
","
","
","""event"",""trial"",""time""
""fullscreenenter"",""0"",""5542""
","
","736.4000000059605","<div class='center'><p>If you don’t make your choice fast enough, you’ll have to wait a few seconds before you can make another one. </p><p><img src='run_exp/static/images/miscellaneous/hurry_up.png' height='500'></p><p><b>[Press the space bar to continue]</b></p></div>","32","","","","","","","","","","","","","","","","","","","","","","",""
"","instruc10","38","212883","0.0-35.0-2.0","""event"",""trial"",""time""
""fullscreenenter"",""0"",""5542""
","
","
","""event"",""trial"",""time""
""fullscreenenter"",""0"",""5542""
","
","null","run_exp/static/audio/clip_12_probe.m4a","null","","","","","<div class='center'><p>Once you've chosen a pirate, you’ll be shown the ship they are robbing. You will never rob the same ship twice. Ships can be told apart from one another by the image on them. These are the goods that they sell. See, this ship has a travel mug on it. </p><p> You’ll have to remember which island you saw each ship on. You will win more gold coins and hence more bonus money if you remember correctly! To help you remember, you can imagine a story. For example, here, you could imagine a mug full of water in the desert. Or, as another example, if on the forest island, your pirate robbed a ship with an apple on it, you could imagine an apple falling from a tree in the forest. </p><p><img src='run_exp/static/images/tutorial/example_probe.png' height='500'></p></div>","","","","","","","","","","","","","","","","","",""
"","html-keyboard-response","39","218817","0.0-35.0-3.0","""event"",""trial"",""time""
""fullscreenenter"",""0"",""5542""
","
","
","""event"",""trial"",""time""
""fullscreenenter"",""0"",""5542""
","
","5932.0999999940395","<div class='center'><p>Once you've chosen a pirate, you’ll be shown the ship they are robbing. You will never rob the same ship twice. Ships can be told apart from one another by the image on them. These are the goods that they sell. See, this ship has a travel mug on it. </p><p> You’ll have to remember which island you saw each ship on. You will win more gold coins and hence more bonus money if you remember correctly! To help you remember, you can imagine a story. For example, here, you could imagine a mug full of water in the desert. Or, as another example, if on the forest island, your pirate robbed a ship with an apple on it, you could imagine an apple falling from a tree in the forest. </p><p><img src='run_exp/static/images/tutorial/example_probe.png' height='500'></p><p><b>[Press the space bar to continue]</b></p></div>","32","","","","","","","","","","","","","","","","","","","","","","",""
"","instruc11","40","235223","0.0-35.0-4.0","""event"",""trial"",""time""
""fullscreenenter"",""0"",""5542""
","
","
","""event"",""trial"",""time""
""fullscreenenter"",""0"",""5542""
","
","null","run_exp/static/audio/clip_13_changepoint.m4a","null","","","","","<div class='center'><p>How successful a pirate is at robbing ships will depend on the island you’re on.</p><p> A pirate may have visited this island many times before and gained a lot of practice robbing ships there.</p><p>So, they’re more likely to be successful than a pirate who has never visited the island before.</p></div>","","","","","","","","","","","","","","","","","",""
"","html-keyboard-response","41","236017","0.0-35.0-5.0","""event"",""trial"",""time""
""fullscreenenter"",""0"",""5542""
","
","
","""event"",""trial"",""time""
""fullscreenenter"",""0"",""5542""
","
","793.1000000089407","<div class='center'><p>How successful a pirate is at robbing ships will depend on the island you’re on.</p><p> A pirate may have visited this island many times before and gained a lot of practice robbing ships there.</p><p>So, they’re more likely to be successful than a pirate who has never visited the island before.</p><p><b>[Press the space bar to continue]</b></p></div>","32","","","","","","","","","","","","","","","","","","","","","","",""
"","instruc12","42","277104","0.0-35.0-6.0","""event"",""trial"",""time""
""fullscreenenter"",""0"",""5542""
","
","
","""event"",""trial"",""time""
""fullscreenenter"",""0"",""5542""
","
","null","run_exp/static/audio/clip_14_drift.m4a","null","","","","","<div class='center'><p>How successful a pirate is at robbing ships can also change over the time spent on the island. </p><p> Ships may hear from islanders about the pirates coming and will improve their protections against the attack. This may make it harder to rob them.</p><p> Ships may also become lazy and weaken the strength of their protections. This may make it easier to rob them.</p><br><p>Things are always changing on the high seas! So, try your best to pay attention!</p><p><img src='run_exp/static/images/tutorial/contingency.png' height='500'></p></div>","","","","","","","","","","","","","","","","","",""
"","html-keyboard-response","43","278441","0.0-35.0-7.0","""event"",""trial"",""time""
""fullscreenenter"",""0"",""5542""
","
","
","""event"",""trial"",""time""
""fullscreenenter"",""0"",""5542""
","
","1335.9000000059605","<div class='center'><p>How successful a pirate is at robbing ships can also change over the time spent on the island. </p><p> Ships may hear from islanders about the pirates coming and will improve their protections against the attack. This may make it harder to rob them.</p><p> Ships may also become lazy and weaken the strength of their protections. This may make it easier to rob them.</p><br><p>Things are always changing on the high seas! So, try your best to pay attention!</p><p><img src='run_exp/static/images/tutorial/contingency.png' height='500'></p><p><b>[Press the space bar to continue]</b></p></div>","32","","","","","","","","","","","","","","","","","","","","","","",""
"","instruc13","44","313624","0.0-35.0-8.0","""event"",""trial"",""time""
""fullscreenenter"",""0"",""5542""
","
","
","""event"",""trial"",""time""
""fullscreenenter"",""0"",""5542""
","
","null","run_exp/static/audio/clip_15_summary.m4a","null","","","","","<div class='center'><p>Let's go over the instructions quickly again. You have two important things to do: </p><b><p> 1. Pick the pirate who is the best at robbing ships on the current island. </p></b><b><p> 2. Remember on which island a ship was robbed.</p> </b><p>The amount of bonus money you can win depends on both.</p><p><br><p>Let’s try a practice game. The game will start by showing you the pirates. First, pick a pirate using the <b> 1, 2, 3 </b> keys on your keyboard. When you are shown a ship, try to remember which island you’re on by making up a story.</p><p>This is just a practice game, so you’re not playing for money. </p><p> Good luck! This game will be very difficult but try your best!</p></div>","","","","","","","","","","","","","","","","","",""
"","html-keyboard-response","45","314705","0.0-35.0-9.0","""event"",""trial"",""time""
""fullscreenenter"",""0"",""5542""
","
","
","""event"",""trial"",""time""
""fullscreenenter"",""0"",""5542""
","
","1080.0999999940395","<div class='center'><p>Let's go over the instructions quickly again. You have two important things to do: </p><b><p> 1. Pick the pirate who is the best at robbing ships on the current island. </p></b><b><p> 2. Remember on which island a ship was robbed.</p> </b><p>The amount of bonus money you can win depends on both.</p><p><br><p>Let’s try a practice game. The game will start by showing you the pirates. First, pick a pirate using the <b> 1, 2, 3 </b> keys on your keyboard. When you are shown a ship, try to remember which island you’re on by making up a story.</p><p>This is just a practice game, so you’re not playing for money. </p><p> Good luck! This game will be very difficult but try your best!</p><p><b>[Press the space bar to continue]</b></p></div>","32","","","","","","","","","","","","","","","","","","","","","","",""
"","do_welcome","46","318721","0.0-35.0-10.0","""event"",""trial"",""time""
""fullscreenenter"",""0"",""5542""
","
","
","""event"",""trial"",""time""
""fullscreenenter"",""0"",""5542""
","
","null","","","","","","","","null","","","","","","","","","","","","","","","","",""
"","do_trial","47","324747","0.0-35.0-11.0","""event"",""trial"",""time""
""fullscreenenter"",""0"",""5542""
","
","
","""event"",""trial"",""time""
""fullscreenenter"",""0"",""5542""
","
","null","","","","","","","","null","1,0,0","","","","","","","","","","","","","","","",""
"","html-keyboard-response","48","325760","0.0-36.0-0.0","""event"",""trial"",""time""
""fullscreenenter"",""0"",""5542""
","
","
","""event"",""trial"",""time""
""fullscreenenter"",""0"",""5542""
","
","null","<p></p>","null","","","","","","","","","","","","","","","","","","","","","","",""
"","do_trial","49","330766","0.0-36.0-1.0","""event"",""trial"",""time""
""fullscreenenter"",""0"",""5542""
","
","
","""event"",""trial"",""time""
""fullscreenenter"",""0"",""5542""
","
","491.6000000089407","","","","","","","","51","1,0,0","","","","","","","","","","","","","","","",""
"","html-keyboard-response","50","331775","0.0-37.0-0.0","""event"",""trial"",""time""
""fullscreenenter"",""0"",""5542""
","
","
","""event"",""trial"",""time""
""fullscreenenter"",""0"",""5542""
","
","null","<p></p>","null","","","","","","","","","","","","","","","","","","","","","","",""
"","do_trial","51","337389","0.0-37.0-1.0","""event"",""trial"",""time""
""fullscreenenter"",""0"",""5542""
","
","
","""event"",""trial"",""time""
""fullscreenenter"",""0"",""5542""
","
","1092.9000000059605","","","","","","","","50","1,1,0","","","","","","","","","","","","","","","",""
"","html-keyboard-response","52","338399","0.0-38.0-0.0","""event"",""trial"",""time""
""fullscreenenter"",""0"",""5542""
","
","
","""event"",""trial"",""time""
""fullscreenenter"",""0"",""5542""
","
","null","<p></p>","null","","","","","","","","","","","","","","","","","","","","","","",""
"","do_trial","53","345502","0.0-38.0-1.0","""event"",""trial"",""time""
""fullscreenenter"",""0"",""5542""
","
","
","""event"",""trial"",""time""
""fullscreenenter"",""0"",""5542""
","
","2587.8999999910593","","","","","","","","49","1,0,1","","","","","","","","","","","","","","","",""
"","html-keyboard-response","54","346514","0.0-39.0-0.0","""event"",""trial"",""time""
""fullscreenenter"",""0"",""5542""
","
","
","""event"",""trial"",""time""
""fullscreenenter"",""0"",""5542""
","
","null","<p></p>","null","","","","","","","","","","","","","","","","","","","","","","",""
"","do_trial","55","353164","0.0-39.0-1.0","""event"",""trial"",""time""
""fullscreenenter"",""0"",""5542""
","
","
","""event"",""trial"",""time""
""fullscreenenter"",""0"",""5542""
","
","2129.9000000059605","","","","","","","","50","0,1,0","","","","","","","","","","","","","","","",""
"","html-keyboard-response","56","354176","0.0-40.0-0.0","""event"",""trial"",""time""
""fullscreenenter"",""0"",""5542""
","
","
","""event"",""trial"",""time""
""fullscreenenter"",""0"",""5542""
","
","null","<p></p>","null","","","","","","","","","","","","","","","","","","","","","","",""
"","do_trial","57","359636","0.0-40.0-1.0","""event"",""trial"",""time""
""fullscreenenter"",""0"",""5542""
","
","
","""event"",""trial"",""time""
""fullscreenenter"",""0"",""5542""
","
","947.1999999880791","","","","","","","","50","1,0,0","","","","","","","","","","","","","","","",""
"","do_bye","58","361149","0.0-41.0-0.0","""event"",""trial"",""time""
""fullscreenenter"",""0"",""5542""
","
","
","""event"",""trial"",""time""
""fullscreenenter"",""0"",""5542""
","
","null","","","","","","","","null","","","","","","","","","","","","","","","","",""
"","do_travel","59","370156","0.0-41.0-1.0","""event"",""trial"",""time""
""fullscreenenter"",""0"",""5542""
","
","
","""event"",""trial"",""time""
""fullscreenenter"",""0"",""5542""
","
","null","","","","","","","","null","","","","","","","","","","","","","","","","",""
"","do_welcome","60","374170","0.0-41.0-2.0","""event"",""trial"",""time""
""fullscreenenter"",""0"",""5542""
","
","
","""event"",""trial"",""time""
""fullscreenenter"",""0"",""5542""
","
","null","","","","","","","","null","","","","","","","","","","","","","","","","",""
"","do_trial","61","379945","0.0-41.0-3.0","""event"",""trial"",""time""
""fullscreenenter"",""0"",""5542""
","
","
","""event"",""trial"",""time""
""fullscreenenter"",""0"",""5542""
","
","1255.2000000029802","","","","","","","","49","1,0,0","","","","","","","","","","","","","","","",""
"","html-keyboard-response","62","380960","0.0-42.0-0.0","""event"",""trial"",""time""
""fullscreenenter"",""0"",""5542""
","
","
","""event"",""trial"",""time""
""fullscreenenter"",""0"",""5542""
","
","null","<p></p>","null","","","","","","","","","","","","","","","","","","","","","","",""
"","do_trial","63","385990","0.0-42.0-1.0","""event"",""trial"",""time""
""fullscreenenter"",""0"",""5542""
","
","
","""event"",""trial"",""time""
""fullscreenenter"",""0"",""5542""
","
","523.8999999910593","","","","","","","","49","1,0,1","","","","","","","","","","","","","","","",""
"","html-keyboard-response","64","387002","0.0-43.0-0.0","""event"",""trial"",""time""
""fullscreenenter"",""0"",""5542""
","
","
","""event"",""trial"",""time""
""fullscreenenter"",""0"",""5542""
","
","null","<p></p>","null","","","","","","","","","","","","","","","","","","","","","","",""
"","do_trial","65","392153","0.0-43.0-1.0","""event"",""trial"",""time""
""fullscreenenter"",""0"",""5542""
","
","
","""event"",""trial"",""time""
""fullscreenenter"",""0"",""5542""
","
","642.3000000119209","","","","","","","","49","1,1,0","","","","","","","","","","","","","","","",""
"","html-keyboard-response","66","393166","0.0-44.0-0.0","""event"",""trial"",""time""
""fullscreenenter"",""0"",""5542""
","
","
","""event"",""trial"",""time""
""fullscreenenter"",""0"",""5542""
","
","null","<p></p>","null","","","","","","","","","","","","","","","","","","","","","","",""
"","do_trial","67","398652","0.0-44.0-1.0","""event"",""trial"",""time""
""fullscreenenter"",""0"",""5542""
","
","
","""event"",""trial"",""time""
""fullscreenenter"",""0"",""5542""
","
","967.7999999970198","","","","","","","","49","0,0,1","","","","","","","","","","","","","","","",""
"","html-keyboard-response","68","399655","0.0-45.0-0.0","""event"",""trial"",""time""
""fullscreenenter"",""0"",""5542""
","
","
","""event"",""trial"",""time""
""fullscreenenter"",""0"",""5542""
","
","null","<p></p>","null","","","","","","","","","","","","","","","","","","","","","","",""
"","do_trial","69","404904","0.0-45.0-1.0","""event"",""trial"",""time""
""fullscreenenter"",""0"",""5542""
","
","
","""event"",""trial"",""time""
""fullscreenenter"",""0"",""5542""
","
","727","","","","","","","","50","1,0,1","","","","","","","","","","","","","","","",""
"","html-keyboard-response","70","409505","0.0-46.0-0.0","""event"",""trial"",""time""
""fullscreenenter"",""0"",""5542""
","
","
","""event"",""trial"",""time""
""fullscreenenter"",""0"",""5542""
","
","4598.70000000298","<div class='center'><p><img src='run_exp/static/images/tutorial/prac_best_pirate.png'  height='500'></p></div>","50","","","","","","","","","","","","","","","","","","","","","","",""
"","html-keyboard-response","71","412313","0.0-47.0-0.0","""event"",""trial"",""time""
""fullscreenenter"",""0"",""5542""
","
","
","""event"",""trial"",""time""
""fullscreenenter"",""0"",""5542""
","
","2806.9000000059605","<div class='center'><p>That's incorrect! Red beard was the best.</p><p><b>[Press the space bar to continue]</b></p></div>","32","","","","","","","","","","","","","","","","","","","","","","",""
"","html-keyboard-response","72","414897","0.0-47.0-1.0","""event"",""trial"",""time""
""fullscreenenter"",""0"",""5542""
","
","
","""event"",""trial"",""time""
""fullscreenenter"",""0"",""5542""
","
","2582.5","<div class='center'><p><img src='run_exp/static/images/tutorial/prac_source.png'  height='500'></p></div>","50","","","","","","","","","","","","","","","","","","","","","","",""
"","html-keyboard-response","73","417313","0.0-48.0-0.0","""event"",""trial"",""time""
""fullscreenenter"",""0"",""5542""
","
","
","""event"",""trial"",""time""
""fullscreenenter"",""0"",""5542""
","
","2415.6000000089407","<div class='center'><p>That's correct! You saw this ship on the cavern island.</p><p><b>[Press the space bar to continue]</b></p></div>","32","","","","","","","","","","","","","","","","","","","","","","",""
"","quiz_beginning","74","428829","0.0-48.0-1.0","""event"",""trial"",""time""
""fullscreenenter"",""0"",""5542""
","
","
","""event"",""trial"",""time""
""fullscreenenter"",""0"",""5542""
","
","null","run_exp/static/audio/clip_16_quiz_intro.m4a","null","","","","","<div class='center'><p>Good job on the practice game! Now, you will be asked some true or false questions to make sure you really understand the rules of the game.</p><p> Press <b>'1'</b> on the keyboard for true and press <b>'2'</b> for false.</p></div>","","","","","","","","","","","","","","","","","",""
"","audio-keyboard-response","75","432929","0.0-48.0-2.0","""event"",""trial"",""time""
""fullscreenenter"",""0"",""5542""
","
","
","""event"",""trial"",""time""
""fullscreenenter"",""0"",""5542""
","
","4098.79999999702","run_exp/static/audio/clip_17_q1.m4a","49","","","","","","","","","","","","","","","","","","","","","","",""
"","correct","76","435329","0.0-49.0-0.0","""event"",""trial"",""time""
""fullscreenenter"",""0"",""5542""
","
","
","""event"",""trial"",""time""
""fullscreenenter"",""0"",""5542""
","
","null","run_exp/static/audio/clip_18_correct.m4a","null","","","","","<div class='center'><p>That's correct!</p></div>","","","","","","","","","","","","","","","","","",""
"","html-keyboard-response","77","437081","0.0-49.0-1.0","""event"",""trial"",""time""
""fullscreenenter"",""0"",""5542""
","
","
","""event"",""trial"",""time""
""fullscreenenter"",""0"",""5542""
","
","1751","<div class='center'><p>That's correct!</p><p><b>[Press the space bar to continue]</b></p></div>","32","","","","","","","","","","","","","","","","","","","","","","",""
"","audio-keyboard-response","78","444755","0.0-49.0-2.0","""event"",""trial"",""time""
""fullscreenenter"",""0"",""5542""
","
","
","""event"",""trial"",""time""
""fullscreenenter"",""0"",""5542""
","
","7673.29999999702","run_exp/static/audio/clip_20_q2.m4a","50","","","","","","","","","","","","","","","","","","","","","","",""
"","correct","79","447149","0.0-50.0-0.0","""event"",""trial"",""time""
""fullscreenenter"",""0"",""5542""
","
","
","""event"",""trial"",""time""
""fullscreenenter"",""0"",""5542""
","
","null","run_exp/static/audio/clip_18_correct.m4a","null","","","","","<div class='center'><p>That's correct!</p></div>","","","","","","","","","","","","","","","","","",""
"","html-keyboard-response","80","447889","0.0-50.0-1.0","""event"",""trial"",""time""
""fullscreenenter"",""0"",""5542""
","
","
","""event"",""trial"",""time""
""fullscreenenter"",""0"",""5542""
","
","739.2999999970198","<div class='center'><p>That's correct!</p><p><b>[Press the space bar to continue]</b></p></div>","32","","","","","","","","","","","","","","","","","","","","","","",""
"","audio-keyboard-response","81","451353","0.0-50.0-2.0","""event"",""trial"",""time""
""fullscreenenter"",""0"",""5542""
","
","
","""event"",""trial"",""time""
""fullscreenenter"",""0"",""5542""
","
","3462.7000000029802","run_exp/static/audio/clip_22_q3.m4a","50","","","","","","","","","","","","","","","","","","","","","","",""
"","correct","82","453748","0.0-51.0-0.0","""event"",""trial"",""time""
""fullscreenenter"",""0"",""5542""
","
","
","""event"",""trial"",""time""
""fullscreenenter"",""0"",""5542""
","
","null","run_exp/static/audio/clip_18_correct.m4a","null","","","","","<div class='center'><p>That's correct!</p></div>","","","","","","","","","","","","","","","","","",""
"","html-keyboard-response","83","454137","0.0-51.0-1.0","""event"",""trial"",""time""
""fullscreenenter"",""0"",""5542""
","
","
","""event"",""trial"",""time""
""fullscreenenter"",""0"",""5542""
","
","387.90000000596046","<div class='center'><p>That's correct!</p><p><b>[Press the space bar to continue]</b></p></div>","32","","","","","","","","","","","","","","","","","","","","","","",""
"","audio-keyboard-response","84","459098","0.0-51.0-2.0","""event"",""trial"",""time""
""fullscreenenter"",""0"",""5542""
","
","
","""event"",""trial"",""time""
""fullscreenenter"",""0"",""5542""
","
","4959.79999999702","run_exp/static/audio/clip_24_q4.m4a","49","","","","","","","","","","","","","","","","","","","","","","",""
"","correct","85","461509","0.0-52.0-0.0","""event"",""trial"",""time""
""fullscreenenter"",""0"",""5542""
","
","
","""event"",""trial"",""time""
""fullscreenenter"",""0"",""5542""
","
","null","run_exp/static/audio/clip_18_correct.m4a","null","","","","","<div class='center'><p>That's correct!</p></div>","","","","","","","","","","","","","","","","","",""
"","html-keyboard-response","86","461921","0.0-52.0-1.0","""event"",""trial"",""time""
""fullscreenenter"",""0"",""5542""
","
","
","""event"",""trial"",""time""
""fullscreenenter"",""0"",""5542""
","
","411.79999999701977","<div class='center'><p>That's correct!</p><p><b>[Press the space bar to continue]</b></p></div>","32","","","","","","","","","","","","","","","","","","","","","","",""
"","q_all_corr","87","470409","0.0-53.0-0.0","""event"",""trial"",""time""
""fullscreenenter"",""0"",""5542""
","
","
","""event"",""trial"",""time""
""fullscreenenter"",""0"",""5542""
","
","null","run_exp/static/audio/clip_27_quiz_all_correct.m4a","null","","","","","<div class='center'><p>Good job! You’re now ready to move on to the real game! Remember this game will be difficult but don't get discouraged and try your best!</p></div>","","","","","","","","","","","","","","","","","",""
"","html-keyboard-response","88","471169","0.0-53.0-1.0","""event"",""trial"",""time""
""fullscreenenter"",""0"",""5542""
","
","
","""event"",""trial"",""time""
""fullscreenenter"",""0"",""5542""
","
","759.0999999940395","<div class='center'><p>Good job! You’re now ready to move on to the real game! Remember this game will be difficult but don't get discouraged and try your best!</p><p><b>[Press the space bar to continue]</b></p></div>","32","","","","","","","","","","","","","","","","","","","","","","",""
"","do_welcome","89","475180","0.0-54.0-0.0","""event"",""trial"",""time""
""fullscreenenter"",""0"",""5542""
","
","
","""event"",""trial"",""time""
""fullscreenenter"",""0"",""5542""
","
","null","","","","","","","","null","","","","","","","","","","","","","","","","",""
"","do_trial","90","480743","0.0-55.0-0.0","""event"",""trial"",""time""
""fullscreenenter"",""0"",""5542""
","
","
","""event"",""trial"",""time""
""fullscreenenter"",""0"",""5542""
","
","1035","","","","","","","","49","1,0,0","0","forest","0","probe-178","0.6","0.3","0.1","1","","","","","","","",""
"","html-keyboard-response","91","481758","0.0-55.0-1.0","""event"",""trial"",""time""
""fullscreenenter"",""0"",""5542""
","
","
","""event"",""trial"",""time""
""fullscreenenter"",""0"",""5542""
","
","null","<p></p>","null","","","","","","","","","","","","","","","","","","","","","","",""
"","do_trial","92","487227","0.0-56.0-0.0","""event"",""trial"",""time""
""fullscreenenter"",""0"",""5542""
","
","
","""event"",""trial"",""time""
""fullscreenenter"",""0"",""5542""
","
","933.2999999970198","","","","","","","","49","1,0,1","0","forest","1","probe-48","0.5468005417724909","0.2611793577169363","0.10397227368113995","1","","","","","","","",""
"","html-keyboard-response","93","488236","0.0-56.0-1.0","""event"",""trial"",""time""
""fullscreenenter"",""0"",""5542""
","
","
","""event"",""trial"",""time""
""fullscreenenter"",""0"",""5542""
","
","null","<p></p>","null","","","","","","","","","","","","","","","","","","","","","","",""
"","do_trial","94","493637","0.0-57.0-0.0","""event"",""trial"",""time""
""fullscreenenter"",""0"",""5542""
","
","
","""event"",""trial"",""time""
""fullscreenenter"",""0"",""5542""
","
","869","","","","","","","","49","0,0,0","0","forest","2","probe-31","0.47143776244664537","0.24867414730063286","0.07324854469616383","0","","","","","","","",""
"","html-keyboard-response","95","494647","0.0-57.0-1.0","""event"",""trial"",""time""
""fullscreenenter"",""0"",""5542""
","
","
","""event"",""trial"",""time""
""fullscreenenter"",""0"",""5542""
","
","null","<p></p>","null","","","","","","","","","","","","","","","","","","","","","","",""
"","do_trial","96","499735","0.0-58.0-0.0","""event"",""trial"",""time""
""fullscreenenter"",""0"",""5542""
","
","
","""event"",""trial"",""time""
""fullscreenenter"",""0"",""5542""
","
","554.5","","","","","","","","49","1,0,0","0","forest","3","probe-141","0.4882680780045844","0.2756088285357886","0.17539872614477978","1","","","","","","","",""
"","html-keyboard-response","97","500750","0.0-58.0-1.0","""event"",""trial"",""time""
""fullscreenenter"",""0"",""5542""
","
","
","""event"",""trial"",""time""
""fullscreenenter"",""0"",""5542""
","
","null","<p></p>","null","","","","","","","","","","","","","","","","","","","","","","",""
"","do_trial","98","505976","0.0-59.0-0.0","""event"",""trial"",""time""
""fullscreenenter"",""0"",""5542""
","
","
","""event"",""trial"",""time""
""fullscreenenter"",""0"",""5542""
","
","689.0999999940395","","","","","","","","49","1,0,0","0","forest","4","probe-22","0.5072786713464946","0.25903475824271766","0.1345740174141155","1","","","","","","","",""
"","html-keyboard-response","99","506986","0.0-59.0-1.0","""event"",""trial"",""time""
""fullscreenenter"",""0"",""5542""
","
","
","""event"",""trial"",""time""
""fullscreenenter"",""0"",""5542""
","
","null","<p></p>","null","","","","","","","","","","","","","","","","","","","","","","",""
"","do_trial","100","512073","0.0-60.0-0.0","""event"",""trial"",""time""
""fullscreenenter"",""0"",""5542""
","
","
","""event"",""trial"",""time""
""fullscreenenter"",""0"",""5542""
","
","558.0999999940395","","","","","","","","49","0,0,0","0","forest","5","probe-123","0.559618813651025","0.2033857201432086","0.11403920051455757","0","","","","","","","",""
"","html-keyboard-response","101","513086","0.0-60.0-1.0","""event"",""trial"",""time""
""fullscreenenter"",""0"",""5542""
","
","
","""event"",""trial"",""time""
""fullscreenenter"",""0"",""5542""
","
","null","<p></p>","null","","","","","","","","","","","","","","","","","","","","","","",""
"","do_trial","102","518055","0.0-61.0-0.0","""event"",""trial"",""time""
""fullscreenenter"",""0"",""5542""
","
","
","""event"",""trial"",""time""
""fullscreenenter"",""0"",""5542""
","
","432.70000000298023","","","","","","","","51","0,0,0","0","forest","6","probe-227","0.5839145533921032","0.3296690965750747","0.061394996677815776","0","","","","","","","",""
"","html-keyboard-response","103","519067","0.0-61.0-1.0","""event"",""trial"",""time""
""fullscreenenter"",""0"",""5542""
","
","
","""event"",""trial"",""time""
""fullscreenenter"",""0"",""5542""
","
","null","<p></p>","null","","","","","","","","","","","","","","","","","","","","","","",""
"","do_trial","104","524229","0.0-62.0-0.0","""event"",""trial"",""time""
""fullscreenenter"",""0"",""5542""
","
","
","""event"",""trial"",""time""
""fullscreenenter"",""0"",""5542""
","
","627","","","","","","","","50","1,0,0","0","forest","7","probe-63","0.6199373540253112","0.2443936144040119","0.0661443233721625","0","","","","","","","",""
"","html-keyboard-response","105","525240","0.0-62.0-1.0","""event"",""trial"",""time""
""fullscreenenter"",""0"",""5542""
","
","
","""event"",""trial"",""time""
""fullscreenenter"",""0"",""5542""
","
","null","<p></p>","null","","","","","","","","","","","","","","","","","","","","","","",""
"","do_trial","106","530146","0.0-63.0-0.0","""event"",""trial"",""time""
""fullscreenenter"",""0"",""5542""
","
","
","""event"",""trial"",""time""
""fullscreenenter"",""0"",""5542""
","
","366.70000000298023","","","","","","","","49","0,0,0","0","forest","8","probe-226","0.5890579849194116","0.2868882369144902","0.13868310390468516","0","","","","","","","",""
"","html-keyboard-response","107","531162","0.0-63.0-1.0","""event"",""trial"",""time""
""fullscreenenter"",""0"",""5542""
","
","
","""event"",""trial"",""time""
""fullscreenenter"",""0"",""5542""
","
","null","<p></p>","null","","","","","","","","","","","","","","","","","","","","","","",""
"","do_trial","108","537104","0.0-64.0-0.0","""event"",""trial"",""time""
""fullscreenenter"",""0"",""5542""
","
","
","""event"",""trial"",""time""
""fullscreenenter"",""0"",""5542""
","
","1402.2999999970198","","","","","","","","49","0,1,1","0","forest","9","probe-177","0.4884514379752765","0.2580687146132154","0.12302433829657376","0","","","","","","","",""
"","html-keyboard-response","109","538114","0.0-64.0-1.0","""event"",""trial"",""time""
""fullscreenenter"",""0"",""5542""
","
","
","""event"",""trial"",""time""
""fullscreenenter"",""0"",""5542""
","
","null","<p></p>","null","","","","","","","","","","","","","","","","","","","","","","",""
"","do_trial","110","543083","0.0-65.0-0.0","""event"",""trial"",""time""
""fullscreenenter"",""0"",""5542""
","
","
","""event"",""trial"",""time""
""fullscreenenter"",""0"",""5542""
","
","428.40000000596046","","","","","","","","50","1,0,0","0","forest","10","probe-140","0.3980196016843868","0.4185648559083211","0.1256403701991618","0","","","","","","","",""
"","html-keyboard-response","111","544091","0.0-65.0-1.0","""event"",""trial"",""time""
""fullscreenenter"",""0"",""5542""
","
","
","""event"",""trial"",""time""
""fullscreenenter"",""0"",""5542""
","
","null","<p></p>","null","","","","","","","","","","","","","","","","","","","","","","",""
"","do_trial","112","549582","0.0-66.0-0.0","""event"",""trial"",""time""
""fullscreenenter"",""0"",""5542""
","
","
","""event"",""trial"",""time""
""fullscreenenter"",""0"",""5542""
","
","965","","","","","","","","49","1,1,0","0","forest","11","probe-41","0.6223079806771505","0.3282252834487369","0.15253282202660137","1","","","","","","","",""
"","html-keyboard-response","113","550592","0.0-66.0-1.0","""event"",""trial"",""time""
""fullscreenenter"",""0"",""5542""
","
","
","""event"",""trial"",""time""
""fullscreenenter"",""0"",""5542""
","
","null","<p></p>","null","","","","","","","","","","","","","","","","","","","","","","",""
"","do_trial","114","555896","0.0-67.0-0.0","""event"",""trial"",""time""
""fullscreenenter"",""0"",""5542""
","
","
","""event"",""trial"",""time""
""fullscreenenter"",""0"",""5542""
","
","775.5","","","","","","","","49","1,0,0","0","forest","12","probe-157","0.6711134298180201","0.38077094393563776","0.07017977507599289","1","","","","","","","",""
"","html-keyboard-response","115","556904","0.0-67.0-1.0","""event"",""trial"",""time""
""fullscreenenter"",""0"",""5542""
","
","
","""event"",""trial"",""time""
""fullscreenenter"",""0"",""5542""
","
","null","<p></p>","null","","","","","","","","","","","","","","","","","","","","","","",""
"","do_trial","116","561955","0.0-68.0-0.0","""event"",""trial"",""time""
""fullscreenenter"",""0"",""5542""
","
","
","""event"",""trial"",""time""
""fullscreenenter"",""0"",""5542""
","
","520.7999999970198","","","","","","","","49","1,0,0","0","forest","13","probe-165","0.742037343734207","0.2862199747667419","0.18864058631558941","1","","","","","","","",""
"","html-keyboard-response","117","562969","0.0-68.0-1.0","""event"",""trial"",""time""
""fullscreenenter"",""0"",""5542""
","
","
","""event"",""trial"",""time""
""fullscreenenter"",""0"",""5542""
","
","null","<p></p>","null","","","","","","","","","","","","","","","","","","","","","","",""
"","do_trial","118","568526","0.0-69.0-0.0","""event"",""trial"",""time""
""fullscreenenter"",""0"",""5542""
","
","
","""event"",""trial"",""time""
""fullscreenenter"",""0"",""5542""
","
","1022.5","","","","","","","","49","0,0,0","0","forest","14","probe-173","0.750837864298503","0.3576290397554385","0.07010881612333285","0","","","","","","","",""
"","html-keyboard-response","119","569537","0.0-69.0-1.0","""event"",""trial"",""time""
""fullscreenenter"",""0"",""5542""
","
","
","""event"",""trial"",""time""
""fullscreenenter"",""0"",""5542""
","
","null","<p></p>","null","","","","","","","","","","","","","","","","","","","","","","",""
"","do_trial","120","574741","0.0-70.0-0.0","""event"",""trial"",""time""
""fullscreenenter"",""0"",""5542""
","
","
","""event"",""trial"",""time""
""fullscreenenter"",""0"",""5542""
","
","671.1999999880791","","","","","","","","49","0,0,0","0","forest","15","probe-25","0.6215502101827702","0.3169322337246819","0.15907541820843174","0","","","","","","","",""
"","html-keyboard-response","121","575756","0.0-70.0-1.0","""event"",""trial"",""time""
""fullscreenenter"",""0"",""5542""
","
","
","""event"",""trial"",""time""
""fullscreenenter"",""0"",""5542""
","
","null","<p></p>","null","","","","","","","","","","","","","","","","","","","","","","",""
"","do_trial","122","580608","0.0-71.0-0.0","""event"",""trial"",""time""
""fullscreenenter"",""0"",""5542""
","
","
","""event"",""trial"",""time""
""fullscreenenter"",""0"",""5542""
","
","323.1000000089407","","","","","","","","51","0,1,0","0","forest","16","probe-225","0.5304859100031709","0.2519962949203769","0.11831919003085847","0","","","","","","","",""
"","html-keyboard-response","123","581617","0.0-71.0-1.0","""event"",""trial"",""time""
""fullscreenenter"",""0"",""5542""
","
","
","""event"",""trial"",""time""
""fullscreenenter"",""0"",""5542""
","
","null","<p></p>","null","","","","","","","","","","","","","","","","","","","","","","",""
"","do_trial","124","586699","0.0-72.0-0.0","""event"",""trial"",""time""
""fullscreenenter"",""0"",""5542""
","
","
","""event"",""trial"",""time""
""fullscreenenter"",""0"",""5542""
","
","541.2999999970198","","","","","","","","49","1,0,0","0","forest","17","probe-139","0.41042466482931905","0.40368133253348937","0.08333286492871973","1","","","","","","","",""
"","html-keyboard-response","125","587713","0.0-72.0-1.0","""event"",""trial"",""time""
""fullscreenenter"",""0"",""5542""
","
","
","""event"",""trial"",""time""
""fullscreenenter"",""0"",""5542""
","
","null","<p></p>","null","","","","","","","","","","","","","","","","","","","","","","",""
"","do_trial","126","593030","0.0-73.0-0.0","""event"",""trial"",""time""
""fullscreenenter"",""0"",""5542""
","
","
","""event"",""trial"",""time""
""fullscreenenter"",""0"",""5542""
","
","778.4000000059605","","","","","","","","49","0,1,0","0","forest","18","probe-52","0.3994123370731212","0.18902610247113455","0.185531603284791","0","","","","","","","",""
"","html-keyboard-response","127","594040","0.0-73.0-1.0","""event"",""trial"",""time""
""fullscreenenter"",""0"",""5542""
","
","
","""event"",""trial"",""time""
""fullscreenenter"",""0"",""5542""
","
","null","<p></p>","null","","","","","","","","","","","","","","","","","","","","","","",""
"","do_trial","128","599018","0.0-74.0-0.0","""event"",""trial"",""time""
""fullscreenenter"",""0"",""5542""
","
","
","""event"",""trial"",""time""
""fullscreenenter"",""0"",""5542""
","
","446.5","","","","","","","","50","0,0,0","0","forest","19","probe-84","0.5197088659607438","0.25576156701255703","0.14864473400993622","0","","","","","","","",""
"","html-keyboard-response","129","600033","0.0-74.0-1.0","""event"",""trial"",""time""
""fullscreenenter"",""0"",""5542""
","
","
","""event"",""trial"",""time""
""fullscreenenter"",""0"",""5542""
","
","null","<p></p>","null","","","","","","","","","","","","","","","","","","","","","","",""
"","do_trial","130","604859","0.0-75.0-0.0","""event"",""trial"",""time""
""fullscreenenter"",""0"",""5542""
","
","
","""event"",""trial"",""time""
""fullscreenenter"",""0"",""5542""
","
","285.29999999701977","","","","","","","","49","0,0,0","0","forest","20","probe-45","0.5069134076003392","0.35561435742478126","0.05063740501166431","0","","","","","","","",""
"","html-keyboard-response","131","605861","0.0-75.0-1.0","""event"",""trial"",""time""
""fullscreenenter"",""0"",""5542""
","
","
","""event"",""trial"",""time""
""fullscreenenter"",""0"",""5542""
","
","null","<p></p>","null","","","","","","","","","","","","","","","","","","","","","","",""
"","do_trial","132","610678","0.0-76.0-0.0","""event"",""trial"",""time""
""fullscreenenter"",""0"",""5542""
","
","
","""event"",""trial"",""time""
""fullscreenenter"",""0"",""5542""
","
","282.6000000089407","","","","","","","","49","0,1,0","0","forest","21","probe-228","0.5505904156652791","0.31409391857591173","0.16125411497351752","0","","","","","","","",""
"","html-keyboard-response","133","611691","0.0-76.0-1.0","""event"",""trial"",""time""
""fullscreenenter"",""0"",""5542""
","
","
","""event"",""trial"",""time""
""fullscreenenter"",""0"",""5542""
","
","null","<p></p>","null","","","","","","","","","","","","","","","","","","","","","","",""
"","do_trial","134","617014","0.0-77.0-0.0","""event"",""trial"",""time""
""fullscreenenter"",""0"",""5542""
","
","
","""event"",""trial"",""time""
""fullscreenenter"",""0"",""5542""
","
","780.5","","","","","","","","50","0,0,1","0","forest","22","probe-189","0.564781495877439","0.3522723520583347","0.2900721112836138","0","","","","","","","",""
"","html-keyboard-response","135","618023","0.0-77.0-1.0","""event"",""trial"",""time""
""fullscreenenter"",""0"",""5542""
","
","
","""event"",""trial"",""time""
""fullscreenenter"",""0"",""5542""
","
","null","<p></p>","null","","","","","","","","","","","","","","","","","","","","","","",""
"","do_trial","136","622873","0.0-78.0-0.0","""event"",""trial"",""time""
""fullscreenenter"",""0"",""5542""
","
","
","""event"",""trial"",""time""
""fullscreenenter"",""0"",""5542""
","
","309","","","","","","","","49","1,0,0","0","forest","23","probe-151","0.5808916720147147","0.3484475027368781","0.14300105272079297","1","","","","","","","",""
"","html-keyboard-response","137","623884","0.0-78.0-1.0","""event"",""trial"",""time""
""fullscreenenter"",""0"",""5542""
","
","
","""event"",""trial"",""time""
""fullscreenenter"",""0"",""5542""
","
","null","<p></p>","null","","","","","","","","","","","","","","","","","","","","","","",""
"","do_trial","138","628965","0.0-79.0-0.0","""event"",""trial"",""time""
""fullscreenenter"",""0"",""5542""
","
","
","""event"",""trial"",""time""
""fullscreenenter"",""0"",""5542""
","
","539.7000000029802","","","","","","","","49","0,1,1","0","forest","24","probe-116","0.5322112247289428","0.3524153907904835","0.28851384560230503","0","","","","","","","",""
"","html-keyboard-response","139","629975","0.0-79.0-1.0","""event"",""trial"",""time""
""fullscreenenter"",""0"",""5542""
","
","
","""event"",""trial"",""time""
""fullscreenenter"",""0"",""5542""
","
","null","<p></p>","null","","","","","","","","","","","","","","","","","","","","","","",""
"","do_trial","140","634834","0.0-80.0-0.0","""event"",""trial"",""time""
""fullscreenenter"",""0"",""5542""
","
","
","""event"",""trial"",""time""
""fullscreenenter"",""0"",""5542""
","
","324.1000000089407","","","","","","","","51","0,0,0","0","forest","25","probe-24","0.38549879951534427","0.14876874676914864","0.10130672446753332","0","","","","","","","",""
"","html-keyboard-response","141","635848","0.0-80.0-1.0","""event"",""trial"",""time""
""fullscreenenter"",""0"",""5542""
","
","
","""event"",""trial"",""time""
""fullscreenenter"",""0"",""5542""
","
","null","<p></p>","null","","","","","","","","","","","","","","","","","","","","","","",""
"","do_trial","142","641562","0.0-81.0-0.0","""event"",""trial"",""time""
""fullscreenenter"",""0"",""5542""
","
","
","""event"",""trial"",""time""
""fullscreenenter"",""0"",""5542""
","
","1183.2999999970198","","","","","","","","49","0,0,1","0","forest","26","probe-222","0.4760632796711963","0.12388335806366244","0.22939202751049792","0","","","","","","","",""
"","html-keyboard-response","143","642570","0.0-81.0-1.0","""event"",""trial"",""time""
""fullscreenenter"",""0"",""5542""
","
","
","""event"",""trial"",""time""
""fullscreenenter"",""0"",""5542""
","
","null","<p></p>","null","","","","","","","","","","","","","","","","","","","","","","",""
"","do_trial","144","647957","0.0-82.0-0.0","""event"",""trial"",""time""
""fullscreenenter"",""0"",""5542""
","
","
","""event"",""trial"",""time""
""fullscreenenter"",""0"",""5542""
","
","853.8000000119209","","","","","","","","49","1,1,0","0","forest","27","probe-179","0.44421327338953553","0.23676898237873162","0.2680514699789704","1","","","","","","","",""
"","html-keyboard-response","145","648970","0.0-82.0-1.0","""event"",""trial"",""time""
""fullscreenenter"",""0"",""5542""
","
","
","""event"",""trial"",""time""
""fullscreenenter"",""0"",""5542""
","
","null","<p></p>","null","","","","","","","","","","","","","","","","","","","","","","",""
"","do_trial","146","655732","0.0-83.0-0.0","""event"",""trial"",""time""
""fullscreenenter"",""0"",""5542""
","
","
","""event"",""trial"",""time""
""fullscreenenter"",""0"",""5542""
","
","2224.6000000089407","","","","","","","","50","0,1,0","0","forest","28","probe-218","0.34341271216767527","0.1986167651904325","0.1518563440084384","1","","","","","","","",""
"","html-keyboard-response","147","656741","0.0-83.0-1.0","""event"",""trial"",""time""
""fullscreenenter"",""0"",""5542""
","
","
","""event"",""trial"",""time""
""fullscreenenter"",""0"",""5542""
","
","null","<p></p>","null","","","","","","","","","","","","","","","","","","","","","","",""
"","do_trial","148","662340","0.0-84.0-0.0","""event"",""trial"",""time""
""fullscreenenter"",""0"",""5542""
","
","
","""event"",""trial"",""time""
""fullscreenenter"",""0"",""5542""
","
","1065.5999999940395","","","","","","","","49","0,0,0","0","forest","29","probe-42","0.3489982576222082","0.34010354003145926","0.15010629776453724","0","","","","","","","",""
"","html-keyboard-response","149","663350","0.0-84.0-1.0","""event"",""trial"",""time""
""fullscreenenter"",""0"",""5542""
","
","
","""event"",""trial"",""time""
""fullscreenenter"",""0"",""5542""
","
","null","<p></p>","null","","","","","","","","","","","","","","","","","","","","","","",""
"","do_bye","150","664859","0.0-85.0-0.0","""event"",""trial"",""time""
""fullscreenenter"",""0"",""5542""
","
","
","""event"",""trial"",""time""
""fullscreenenter"",""0"",""5542""
","
","null","","","","","","","","null","","","","","","","","","","","","","","","","",""
"","break","151","686489","0.0-85.0-1.0","""event"",""trial"",""time""
""fullscreenenter"",""0"",""5542""
","
","
","""event"",""trial"",""time""
""fullscreenenter"",""0"",""5542""
","
","21629.10000000894","<div class='center'><p>Time to take a quick break! You have 2 minutes to rest, but you can move on sooner if you'd like.</p><p> Press the <b>space bar</b> to continue.</p></div>","32","","","","","","","","","","","","","","","","","","","","","","",""
"","do_travel","152","695502","0.0-86.0-0.0","""event"",""trial"",""time""
""fullscreenenter"",""0"",""5542""
","
","
","""event"",""trial"",""time""
""fullscreenenter"",""0"",""5542""
","
","null","","","","","","","","null","","","","","","","","","","","","","","","","",""
"","do_welcome","153","699513","0.0-86.0-1.0","""event"",""trial"",""time""
""fullscreenenter"",""0"",""5542""
","
","
","""event"",""trial"",""time""
""fullscreenenter"",""0"",""5542""
","
","null","","","","","","","","null","","","","","","","","","","","","","","","","",""
"","do_trial","154","705344","0.0-87.0-0.0","""event"",""trial"",""time""
""fullscreenenter"",""0"",""5542""
","
","
","""event"",""trial"",""time""
""fullscreenenter"",""0"",""5542""
","
","1302.0999999940395","","","","","","","","51","1,0,1","1","highway","30","probe-164","1","0.3955057835168095","0.14977374233356774","1","","","","","","","",""
"","html-keyboard-response","155","706359","0.0-87.0-1.0","""event"",""trial"",""time""
""fullscreenenter"",""0"",""5542""
","
","
","""event"",""trial"",""time""
""fullscreenenter"",""0"",""5542""
","
","null","<p></p>","null","","","","","","","","","","","","","","","","","","","","","","",""
"","do_trial","156","711131","0.0-88.0-0.0","""event"",""trial"",""time""
""fullscreenenter"",""0"",""5542""
","
","
","""event"",""trial"",""time""
""fullscreenenter"",""0"",""5542""
","
","231.90000000596046","","","","","","","","51","1,0,0","1","highway","31","probe-146","1","0.33274907786391766","0.08447273221421032","0","","","","","","","",""
"","html-keyboard-response","157","712146","0.0-88.0-1.0","""event"",""trial"",""time""
""fullscreenenter"",""0"",""5542""
","
","
","""event"",""trial"",""time""
""fullscreenenter"",""0"",""5542""
","
","null","<p></p>","null","","","","","","","","","","","","","","","","","","","","","","",""
"","do_trial","158","716938","0.0-89.0-0.0","""event"",""trial"",""time""
""fullscreenenter"",""0"",""5542""
","
","
","""event"",""trial"",""time""
""fullscreenenter"",""0"",""5542""
","
","261.59999999403954","","","","","","","","51","1,0,0","1","highway","32","probe-166","1","0.2686093825949915","0.09766112629798163","0","","","","","","","",""
"","html-keyboard-response","159","717951","0.0-89.0-1.0","""event"",""trial"",""time""
""fullscreenenter"",""0"",""5542""
","
","
","""event"",""trial"",""time""
""fullscreenenter"",""0"",""5542""
","
","null","<p></p>","null","","","","","","","","","","","","","","","","","","","","","","",""
"","do_trial","160","722833","0.0-90.0-0.0","""event"",""trial"",""time""
""fullscreenenter"",""0"",""5542""
","
","
","""event"",""trial"",""time""
""fullscreenenter"",""0"",""5542""
","
","350","","","","","","","","50","1,0,0","1","highway","33","probe-87","0.7726775794994314","0.1700479432016848","0.1438455874885954","0","","","","","","","",""
"","html-keyboard-response","161","723842","0.0-90.0-1.0","""event"",""trial"",""time""
""fullscreenenter"",""0"",""5542""
","
","
","""event"",""trial"",""time""
""fullscreenenter"",""0"",""5542""
","
","null","<p></p>","null","","","","","","","","","","","","","","","","","","","","","","",""
"","do_trial","162","728750","0.0-91.0-0.0","""event"",""trial"",""time""
""fullscreenenter"",""0"",""5542""
","
","
","""event"",""trial"",""time""
""fullscreenenter"",""0"",""5542""
","
","380.09999999403954","","","","","","","","50","0,0,0","1","highway","34","probe-121","0.6812391593722965","0.2745265293643885","0.1575790794713839","0","","","","","","","",""
"","html-keyboard-response","163","729764","0.0-91.0-1.0","""event"",""trial"",""time""
""fullscreenenter"",""0"",""5542""
","
","
","""event"",""trial"",""time""
""fullscreenenter"",""0"",""5542""
","
","null","<p></p>","null","","","","","","","","","","","","","","","","","","","","","","",""
"","do_trial","164","734973","0.0-92.0-0.0","""event"",""trial"",""time""
""fullscreenenter"",""0"",""5542""
","
","
","""event"",""trial"",""time""
""fullscreenenter"",""0"",""5542""
","
","668.4000000059605","","","","","","","","49","1,1,0","1","highway","35","probe-229","0.5932969077954289","0.18832514163220362","0.1863968879540006","1","","","","","","","",""
"","html-keyboard-response","165","735984","0.0-92.0-1.0","""event"",""trial"",""time""
""fullscreenenter"",""0"",""5542""
","
","
","""event"",""trial"",""time""
""fullscreenenter"",""0"",""5542""
","
","null","<p></p>","null","","","","","","","","","","","","","","","","","","","","","","",""
"","do_trial","166","740829","0.0-93.0-0.0","""event"",""trial"",""time""
""fullscreenenter"",""0"",""5542""
","
","
","""event"",""trial"",""time""
""fullscreenenter"",""0"",""5542""
","
","307.3999999910593","","","","","","","","49","1,1,0","1","highway","36","probe-113","0.73239989189279","0.3240027914191636","0.1787642130613838","1","","","","","","","",""
"","html-keyboard-response","167","741842","0.0-93.0-1.0","""event"",""trial"",""time""
""fullscreenenter"",""0"",""5542""
","
","
","""event"",""trial"",""time""
""fullscreenenter"",""0"",""5542""
","
","null","<p></p>","null","","","","","","","","","","","","","","","","","","","","","","",""
"","do_trial","168","746747","0.0-94.0-0.0","""event"",""trial"",""time""
""fullscreenenter"",""0"",""5542""
","
","
","""event"",""trial"",""time""
""fullscreenenter"",""0"",""5542""
","
","364.29999999701977","","","","","","","","49","1,0,0","1","highway","37","probe-205","0.8427568594856453","0.26772234312465354","0.36287953033127257","1","","","","","","","",""
"","html-keyboard-response","169","747761","0.0-94.0-1.0","""event"",""trial"",""time""
""fullscreenenter"",""0"",""5542""
","
","
","""event"",""trial"",""time""
""fullscreenenter"",""0"",""5542""
","
","null","<p></p>","null","","","","","","","","","","","","","","","","","","","","","","",""
"","do_trial","170","752702","0.0-95.0-0.0","""event"",""trial"",""time""
""fullscreenenter"",""0"",""5542""
","
","
","""event"",""trial"",""time""
""fullscreenenter"",""0"",""5542""
","
","407.5","","","","","","","","49","1,0,0","1","highway","38","probe-65","0.7403052348955446","0.2706065198337858","0.14629072587259667","1","","","","","","","",""
"","html-keyboard-response","171","753714","0.0-95.0-1.0","""event"",""trial"",""time""
""fullscreenenter"",""0"",""5542""
","
","
","""event"",""trial"",""time""
""fullscreenenter"",""0"",""5542""
","
","null","<p></p>","null","","","","","","","","","","","","","","","","","","","","","","",""
"","do_trial","172","758595","0.0-96.0-0.0","""event"",""trial"",""time""
""fullscreenenter"",""0"",""5542""
","
","
","""event"",""trial"",""time""
""fullscreenenter"",""0"",""5542""
","
","349.30000001192093","","","","","","","","49","1,0,0","1","highway","39","probe-110","0.8235951233525706","0.27733566324749975","0.21596094374308877","1","","","","","","","",""
"","html-keyboard-response","173","759606","0.0-96.0-1.0","""event"",""trial"",""time""
""fullscreenenter"",""0"",""5542""
","
","
","""event"",""trial"",""time""
""fullscreenenter"",""0"",""5542""
","
","null","<p></p>","null","","","","","","","","","","","","","","","","","","","","","","",""
"","do_trial","174","764493","0.0-97.0-0.0","""event"",""trial"",""time""
""fullscreenenter"",""0"",""5542""
","
","
","""event"",""trial"",""time""
""fullscreenenter"",""0"",""5542""
","
","354.59999999403954","","","","","","","","49","0,0,0","1","highway","40","probe-202","0.7699980822210918","0.2675994525167087","0.2683086547540656","0","","","","","","","",""
"","html-keyboard-response","175","765506","0.0-97.0-1.0","""event"",""trial"",""time""
""fullscreenenter"",""0"",""5542""
","
","
","""event"",""trial"",""time""
""fullscreenenter"",""0"",""5542""
","
","null","<p></p>","null","","","","","","","","","","","","","","","","","","","","","","",""
"","do_trial","176","770365","0.0-98.0-0.0","""event"",""trial"",""time""
""fullscreenenter"",""0"",""5542""
","
","
","""event"",""trial"",""time""
""fullscreenenter"",""0"",""5542""
","
","325.3999999910593","","","","","","","","49","1,0,1","1","highway","41","probe-75","0.8146427260516247","0.23763830274940886","0.2548079991770632","1","","","","","","","",""
"","html-keyboard-response","177","771377","0.0-98.0-1.0","""event"",""trial"",""time""
""fullscreenenter"",""0"",""5542""
","
","
","""event"",""trial"",""time""
""fullscreenenter"",""0"",""5542""
","
","null","<p></p>","null","","","","","","","","","","","","","","","","","","","","","","",""
"","do_trial","178","776348","0.0-99.0-0.0","""event"",""trial"",""time""
""fullscreenenter"",""0"",""5542""
","
","
","""event"",""trial"",""time""
""fullscreenenter"",""0"",""5542""
","
","431.90000000596046","","","","","","","","49","0,0,1","1","highway","42","probe-158","0.6447315144455484","0.06175632806329052","0.4877433005797008","0","","","","","","","",""
"","html-keyboard-response","179","777359","0.0-99.0-1.0","""event"",""trial"",""time""
""fullscreenenter"",""0"",""5542""
","
","
","""event"",""trial"",""time""
""fullscreenenter"",""0"",""5542""
","
","null","<p></p>","null","","","","","","","","","","","","","","","","","","","","","","",""
"","do_trial","180","782360","0.0-100.0-0.0","""event"",""trial"",""time""
""fullscreenenter"",""0"",""5542""
","
","
","""event"",""trial"",""time""
""fullscreenenter"",""0"",""5542""
","
","464.59999999403954","","","","","","","","49","1,0,1","1","highway","43","probe-188","0.5567929355280635","0.12417825533303013","0.539029571662742","1","","","","","","","",""
"","html-keyboard-response","181","783371","0.0-100.0-1.0","""event"",""trial"",""time""
""fullscreenenter"",""0"",""5542""
","
","
","""event"",""trial"",""time""
""fullscreenenter"",""0"",""5542""
","
","null","<p></p>","null","","","","","","","","","","","","","","","","","","","","","","",""
"","do_trial","182","788246","0.0-101.0-0.0","""event"",""trial"",""time""
""fullscreenenter"",""0"",""5542""
","
","
","""event"",""trial"",""time""
""fullscreenenter"",""0"",""5542""
","
","331.6000000089407","","","","","","","","50","0,0,1","1","highway","44","probe-115","0.525426360009172","0.05604844945682262","0.45846482475344796","0","","","","","","","",""
"","html-keyboard-response","183","789255","0.0-101.0-1.0","""event"",""trial"",""time""
""fullscreenenter"",""0"",""5542""
","
","
","""event"",""trial"",""time""
""fullscreenenter"",""0"",""5542""
","
","null","<p></p>","null","","","","","","","","","","","","","","","","","","","","","","",""
"","do_trial","184","794100","0.0-102.0-0.0","""event"",""trial"",""time""
""fullscreenenter"",""0"",""5542""
","
","
","""event"",""trial"",""time""
""fullscreenenter"",""0"",""5542""
","
","312.1000000089407","","","","","","","","49","0,0,1","1","highway","45","probe-191","0.37325674847166335","0.05517518427569378","0.6277252628442826","0","","","","","","","",""
"","html-keyboard-response","185","795106","0.0-102.0-1.0","""event"",""trial"",""time""
""fullscreenenter"",""0"",""5542""
","
","
","""event"",""trial"",""time""
""fullscreenenter"",""0"",""5542""
","
","null","<p></p>","null","","","","","","","","","","","","","","","","","","","","","","",""
"","do_trial","186","800024","0.0-103.0-0.0","""event"",""trial"",""time""
""fullscreenenter"",""0"",""5542""
","
","
","""event"",""trial"",""time""
""fullscreenenter"",""0"",""5542""
","
","381.90000000596046","","","","","","","","49","0,0,0","1","highway","46","probe-29","0.4487279683156162","0.14078177379407417","0.5880315701735264","0","","","","","","","",""
"","html-keyboard-response","187","801039","0.0-103.0-1.0","""event"",""trial"",""time""
""fullscreenenter"",""0"",""5542""
","
","
","""event"",""trial"",""time""
""fullscreenenter"",""0"",""5542""
","
","null","<p></p>","null","","","","","","","","","","","","","","","","","","","","","","",""
"","do_trial","188","806146","0.0-104.0-0.0","""event"",""trial"",""time""
""fullscreenenter"",""0"",""5542""
","
","
","""event"",""trial"",""time""
""fullscreenenter"",""0"",""5542""
","
","568.2999999970198","","","","","","","","49","1,0,1","1","highway","47","probe-27","0.3194415797832819","0.1777228702145856","0.5549507377242486","1","","","","","","","",""
"","html-keyboard-response","189","807154","0.0-104.0-1.0","""event"",""trial"",""time""
""fullscreenenter"",""0"",""5542""
","
","
","""event"",""trial"",""time""
""fullscreenenter"",""0"",""5542""
","
","null","<p></p>","null","","","","","","","","","","","","","","","","","","","","","","",""
"","do_trial","190","812232","0.0-105.0-0.0","""event"",""trial"",""time""
""fullscreenenter"",""0"",""5542""
","
","
","""event"",""trial"",""time""
""fullscreenenter"",""0"",""5542""
","
","539.5","","","","","","","","49","1,0,1","1","highway","48","probe-190","0.425101555968603","0.14769454532445447","0.556170903117725","1","","","","","","","",""
"","html-keyboard-response","191","813245","0.0-105.0-1.0","""event"",""trial"",""time""
""fullscreenenter"",""0"",""5542""
","
","
","""event"",""trial"",""time""
""fullscreenenter"",""0"",""5542""
","
","null","<p></p>","null","","","","","","","","","","","","","","","","","","","","","","",""
"","do_trial","192","818128","0.0-106.0-0.0","""event"",""trial"",""time""
""fullscreenenter"",""0"",""5542""
","
","
","""event"",""trial"",""time""
""fullscreenenter"",""0"",""5542""
","
","348.79999999701977","","","","","","","","49","0,0,1","1","highway","49","probe-124","0.38425902842603143","0.21543750554082797","0.5994123145821327","0","","","","","","","",""
"","html-keyboard-response","193","819136","0.0-106.0-1.0","""event"",""trial"",""time""
""fullscreenenter"",""0"",""5542""
","
","
","""event"",""trial"",""time""
""fullscreenenter"",""0"",""5542""
","
","null","<p></p>","null","","","","","","","","","","","","","","","","","","","","","","",""
"","do_trial","194","824250","0.0-107.0-0.0","""event"",""trial"",""time""
""fullscreenenter"",""0"",""5542""
","
","
","""event"",""trial"",""time""
""fullscreenenter"",""0"",""5542""
","
","574.4000000059605","","","","","","","","50","1,0,0","1","highway","50","probe-221","0.2983245467486268","0.07759636565418247","0.3819468563434485","0","","","","","","","",""
"","html-keyboard-response","195","825261","0.0-107.0-1.0","""event"",""trial"",""time""
""fullscreenenter"",""0"",""5542""
","
","
","""event"",""trial"",""time""
""fullscreenenter"",""0"",""5542""
","
","null","<p></p>","null","","","","","","","","","","","","","","","","","","","","","","",""
"","do_trial","196","830433","0.0-108.0-0.0","""event"",""trial"",""time""
""fullscreenenter"",""0"",""5542""
","
","
","""event"",""trial"",""time""
""fullscreenenter"",""0"",""5542""
","
","633.7999999970198","","","","","","","","50","0,0,1","1","highway","51","probe-80","0.394276664210105","0.10293775848996134","0.43928930608715233","0","","","","","","","",""
"","html-keyboard-response","197","831449","0.0-108.0-1.0","""event"",""trial"",""time""
""fullscreenenter"",""0"",""5542""
","
","
","""event"",""trial"",""time""
""fullscreenenter"",""0"",""5542""
","
","null","<p></p>","null","","","","","","","","","","","","","","","","","","","","","","",""
"","do_trial","198","836926","0.0-109.0-0.0","""event"",""trial"",""time""
""fullscreenenter"",""0"",""5542""
","
","
","""event"",""trial"",""time""
""fullscreenenter"",""0"",""5542""
","
","934.2000000029802","","","","","","","","51","1,0,1","1","highway","52","probe-150","0.3030392964541138","0.060044859202997625","0.6387692019383298","1","","","","","","","",""
"","html-keyboard-response","199","837939","0.0-109.0-1.0","""event"",""trial"",""time""
""fullscreenenter"",""0"",""5542""
","
","
","""event"",""trial"",""time""
""fullscreenenter"",""0"",""5542""
","
","null","<p></p>","null","","","","","","","","","","","","","","","","","","","","","","",""
"","do_trial","200","842826","0.0-110.0-0.0","""event"",""trial"",""time""
""fullscreenenter"",""0"",""5542""
","
","
","""event"",""trial"",""time""
""fullscreenenter"",""0"",""5542""
","
","351.90000000596046","","","","","","","","51","0,0,1","1","highway","53","probe-92","0.34890141888259096","0.1150722006683419","0.7485809366283742","1","","","","","","","",""
"","html-keyboard-response","201","843840","0.0-110.0-1.0","""event"",""trial"",""time""
""fullscreenenter"",""0"",""5542""
","
","
","""event"",""trial"",""time""
""fullscreenenter"",""0"",""5542""
","
","null","<p></p>","null","","","","","","","","","","","","","","","","","","","","","","",""
"","do_trial","202","848902","0.0-111.0-0.0","""event"",""trial"",""time""
""fullscreenenter"",""0"",""5542""
","
","
","""event"",""trial"",""time""
""fullscreenenter"",""0"",""5542""
","
","527.7000000029802","","","","","","","","51","1,0,1","1","highway","54","probe-32","0.36209699819394614","0.11578863574178133","0.7105922869761195","1","","","","","","","",""
"","html-keyboard-response","203","849912","0.0-111.0-1.0","""event"",""trial"",""time""
""fullscreenenter"",""0"",""5542""
","
","
","""event"",""trial"",""time""
""fullscreenenter"",""0"",""5542""
","
","null","<p></p>","null","","","","","","","","","","","","","","","","","","","","","","",""
"","do_trial","204","855139","0.0-112.0-0.0","""event"",""trial"",""time""
""fullscreenenter"",""0"",""5542""
","
","
","""event"",""trial"",""time""
""fullscreenenter"",""0"",""5542""
","
","688.5","","","","","","","","51","0,0,1","1","highway","55","probe-216","0.3263698029597569","0.29869702041722423","0.6518876994265523","1","","","","","","","",""
"","html-keyboard-response","205","856148","0.0-112.0-1.0","""event"",""trial"",""time""
""fullscreenenter"",""0"",""5542""
","
","
","""event"",""trial"",""time""
""fullscreenenter"",""0"",""5542""
","
","null","<p></p>","null","","","","","","","","","","","","","","","","","","","","","","",""
"","do_trial","206","860993","0.0-113.0-0.0","""event"",""trial"",""time""
""fullscreenenter"",""0"",""5542""
","
","
","""event"",""trial"",""time""
""fullscreenenter"",""0"",""5542""
","
","310.59999999403954","","","","","","","","51","0,0,1","1","highway","56","probe-34","0.27232817033448664","0.26749377428526044","0.6346612928329485","1","","","","","","","",""
"","html-keyboard-response","207","862007","0.0-113.0-1.0","""event"",""trial"",""time""
""fullscreenenter"",""0"",""5542""
","
","
","""event"",""trial"",""time""
""fullscreenenter"",""0"",""5542""
","
","null","<p></p>","null","","","","","","","","","","","","","","","","","","","","","","",""
"","do_trial","208","866839","0.0-114.0-0.0","""event"",""trial"",""time""
""fullscreenenter"",""0"",""5542""
","
","
","""event"",""trial"",""time""
""fullscreenenter"",""0"",""5542""
","
","286.70000000298023","","","","","","","","51","0,0,1","1","highway","57","probe-143","0.3039987522253031","0.19647993927294863","0.5978830280988643","1","","","","","","","",""
"","html-keyboard-response","209","867852","0.0-114.0-1.0","""event"",""trial"",""time""
""fullscreenenter"",""0"",""5542""
","
","
","""event"",""trial"",""time""
""fullscreenenter"",""0"",""5542""
","
","null","<p></p>","null","","","","","","","","","","","","","","","","","","","","","","",""
"","do_trial","210","872816","0.0-115.0-0.0","""event"",""trial"",""time""
""fullscreenenter"",""0"",""5542""
","
","
","""event"",""trial"",""time""
""fullscreenenter"",""0"",""5542""
","
","434.59999999403954","","","","","","","","51","0,0,1","1","highway","58","probe-13","0.32978852547294785","0.20714744729531284","0.6322000505397748","1","","","","","","","",""
"","html-keyboard-response","211","873828","0.0-115.0-1.0","""event"",""trial"",""time""
""fullscreenenter"",""0"",""5542""
","
","
","""event"",""trial"",""time""
""fullscreenenter"",""0"",""5542""
","
","null","<p></p>","null","","","","","","","","","","","","","","","","","","","","","","",""
"","do_trial","212","878642","0.0-116.0-0.0","""event"",""trial"",""time""
""fullscreenenter"",""0"",""5542""
","
","
","""event"",""trial"",""time""
""fullscreenenter"",""0"",""5542""
","
","274.29999999701977","","","","","","","","51","0,0,1","1","highway","59","probe-60","0.3296241761848851","0.07987467650358974","0.7235479323008092","1","","","","","","","",""
"","html-keyboard-response","213","879652","0.0-116.0-1.0","""event"",""trial"",""time""
""fullscreenenter"",""0"",""5542""
","
","
","""event"",""trial"",""time""
""fullscreenenter"",""0"",""5542""
","
","null","<p></p>","null","","","","","","","","","","","","","","","","","","","","","","",""
"","do_trial","214","885089","0.0-117.0-0.0","""event"",""trial"",""time""
""fullscreenenter"",""0"",""5542""
","
","
","""event"",""trial"",""time""
""fullscreenenter"",""0"",""5542""
","
","900.7000000029802","","","","","","","","51","0,0,1","1","highway","60","probe-171","0.2959875983864494","0.053562914933551475","0.5371398468278932","1","","","","","","","",""
"","html-keyboard-response","215","886099","0.0-117.0-1.0","""event"",""trial"",""time""
""fullscreenenter"",""0"",""5542""
","
","
","""event"",""trial"",""time""
""fullscreenenter"",""0"",""5542""
","
","null","<p></p>","null","","","","","","","","","","","","","","","","","","","","","","",""
"","do_trial","216","891023","0.0-118.0-0.0","""event"",""trial"",""time""
""fullscreenenter"",""0"",""5542""
","
","
","""event"",""trial"",""time""
""fullscreenenter"",""0"",""5542""
","
","397.29999999701977","","","","","","","","51","0,0,1","1","highway","61","probe-223","0.2177381986496273","0.2886016822091058","0.5344893139601493","1","","","","","","","",""
"","html-keyboard-response","217","892037","0.0-118.0-1.0","""event"",""trial"",""time""
""fullscreenenter"",""0"",""5542""
","
","
","""event"",""trial"",""time""
""fullscreenenter"",""0"",""5542""
","
","null","<p></p>","null","","","","","","","","","","","","","","","","","","","","","","",""
"","do_trial","218","896847","0.0-119.0-0.0","""event"",""trial"",""time""
""fullscreenenter"",""0"",""5542""
","
","
","""event"",""trial"",""time""
""fullscreenenter"",""0"",""5542""
","
","281.59999999403954","","","","","","","","51","0,0,0","1","highway","62","probe-53","0.3081866743734832","0.2908091138989514","0.6472208062670325","0","","","","","","","",""
"","html-keyboard-response","219","897855","0.0-119.0-1.0","""event"",""trial"",""time""
""fullscreenenter"",""0"",""5542""
","
","
","""event"",""trial"",""time""
""fullscreenenter"",""0"",""5542""
","
","null","<p></p>","null","","","","","","","","","","","","","","","","","","","","","","",""
"","do_trial","220","902633","0.0-120.0-0.0","""event"",""trial"",""time""
""fullscreenenter"",""0"",""5542""
","
","
","""event"",""trial"",""time""
""fullscreenenter"",""0"",""5542""
","
","248.79999999701977","","","","","","","","51","1,0,1","1","highway","63","probe-127","0.33910024912185477","0.1350483774882971","0.6836190176577874","1","","","","","","","",""
"","html-keyboard-response","221","903645","0.0-120.0-1.0","""event"",""trial"",""time""
""fullscreenenter"",""0"",""5542""
","
","
","""event"",""trial"",""time""
""fullscreenenter"",""0"",""5542""
","
","null","<p></p>","null","","","","","","","","","","","","","","","","","","","","","","",""
"","do_trial","222","908534","0.0-121.0-0.0","""event"",""trial"",""time""
""fullscreenenter"",""0"",""5542""
","
","
","""event"",""trial"",""time""
""fullscreenenter"",""0"",""5542""
","
","355.29999999701977","","","","","","","","51","0,0,1","1","highway","64","probe-200","0.3390592889333112","0.05659434086001","0.7613084312149434","1","","","","","","","",""
"","html-keyboard-response","223","909545","0.0-121.0-1.0","""event"",""trial"",""time""
""fullscreenenter"",""0"",""5542""
","
","
","""event"",""trial"",""time""
""fullscreenenter"",""0"",""5542""
","
","null","<p></p>","null","","","","","","","","","","","","","","","","","","","","","","",""
"","do_trial","224","914370","0.0-122.0-0.0","""event"",""trial"",""time""
""fullscreenenter"",""0"",""5542""
","
","
","""event"",""trial"",""time""
""fullscreenenter"",""0"",""5542""
","
","285.5","","","","","","","","51","0,0,1","1","highway","65","probe-47","0.2751756812155873","0.1382303789756976","0.639616993320374","1","","","","","","","",""
"","html-keyboard-response","225","915382","0.0-122.0-1.0","""event"",""trial"",""time""
""fullscreenenter"",""0"",""5542""
","
","
","""event"",""trial"",""time""
""fullscreenenter"",""0"",""5542""
","
","null","<p></p>","null","","","","","","","","","","","","","","","","","","","","","","",""
"","do_trial","226","920210","0.0-123.0-0.0","""event"",""trial"",""time""
""fullscreenenter"",""0"",""5542""
","
","
","""event"",""trial"",""time""
""fullscreenenter"",""0"",""5542""
","
","297.69999998807907","","","","","","","","51","1,0,1","1","highway","66","probe-192","0.26554896010374035","0.16731496823325315","0.6765808794730118","1","","","","","","","",""
"","html-keyboard-response","227","921226","0.0-123.0-1.0","""event"",""trial"",""time""
""fullscreenenter"",""0"",""5542""
","
","
","""event"",""trial"",""time""
""fullscreenenter"",""0"",""5542""
","
","null","<p></p>","null","","","","","","","","","","","","","","","","","","","","","","",""
"","do_trial","228","926489","0.0-124.0-0.0","""event"",""trial"",""time""
""fullscreenenter"",""0"",""5542""
","
","
","""event"",""trial"",""time""
""fullscreenenter"",""0"",""5542""
","
","731.7999999970198","","","","","","","","51","1,0,1","1","highway","67","probe-156","0.32922648677458055","0.23821444035972916","0.7975980653516992","1","","","","","","","",""
"","html-keyboard-response","229","927503","0.0-124.0-1.0","""event"",""trial"",""time""
""fullscreenenter"",""0"",""5542""
","
","
","""event"",""trial"",""time""
""fullscreenenter"",""0"",""5542""
","
","null","<p></p>","null","","","","","","","","","","","","","","","","","","","","","","",""
"","do_trial","230","932475","0.0-125.0-0.0","""event"",""trial"",""time""
""fullscreenenter"",""0"",""5542""
","
","
","""event"",""trial"",""time""
""fullscreenenter"",""0"",""5542""
","
","441.09999999403954","","","","","","","","51","0,0,1","1","highway","68","probe-211","0.31701963516798776","0.11345965037116137","0.6927308773494449","1","","","","","","","",""
"","html-keyboard-response","231","933491","0.0-125.0-1.0","""event"",""trial"",""time""
""fullscreenenter"",""0"",""5542""
","
","
","""event"",""trial"",""time""
""fullscreenenter"",""0"",""5542""
","
","null","<p></p>","null","","","","","","","","","","","","","","","","","","","","","","",""
"","do_trial","232","938702","0.0-126.0-0.0","""event"",""trial"",""time""
""fullscreenenter"",""0"",""5542""
","
","
","""event"",""trial"",""time""
""fullscreenenter"",""0"",""5542""
","
","676.2999999970198","","","","","","","","51","0,1,1","1","highway","69","probe-180","0.3954958986638486","0.14168221980755266","0.8014295857416305","1","","","","","","","",""
"","html-keyboard-response","233","939711","0.0-126.0-1.0","""event"",""trial"",""time""
""fullscreenenter"",""0"",""5542""
","
","
","""event"",""trial"",""time""
""fullscreenenter"",""0"",""5542""
","
","null","<p></p>","null","","","","","","","","","","","","","","","","","","","","","","",""
"","do_bye","234","941230","0.0-127.0-0.0","""event"",""trial"",""time""
""fullscreenenter"",""0"",""5542""
","
","
","""event"",""trial"",""time""
""fullscreenenter"",""0"",""5542""
","
","null","","","","","","","","null","","","","","","","","","","","","","","","","",""
"","break","235","942521","0.0-127.0-1.0","""event"",""trial"",""time""
""fullscreenenter"",""0"",""5542""
","
","
","""event"",""trial"",""time""
""fullscreenenter"",""0"",""5542""
","
","1290.4000000059605","<div class='center'><p>Time to take a quick break! You have 2 minutes to rest, but you can move on sooner if you'd like.</p><p> Press the <b>space bar</b> to continue.</p></div>","32","","","","","","","","","","","","","","","","","","","","","","",""
"","do_travel","236","951534","0.0-128.0-0.0","""event"",""trial"",""time""
""fullscreenenter"",""0"",""5542""
","
","
","""event"",""trial"",""time""
""fullscreenenter"",""0"",""5542""
","
","null","","","","","","","","null","","","","","","","","","","","","","","","","",""
"","do_welcome","237","955547","0.0-128.0-1.0","""event"",""trial"",""time""
""fullscreenenter"",""0"",""5542""
","
","
","""event"",""trial"",""time""
""fullscreenenter"",""0"",""5542""
","
","null","","","","","","","","null","","","","","","","","","","","","","","","","",""
"","do_trial","238","961395","0.0-129.0-0.0","""event"",""trial"",""time""
""fullscreenenter"",""0"",""5542""
","
","
","""event"",""trial"",""time""
""fullscreenenter"",""0"",""5542""
","
","1307.7000000029802","","","","","","","","50","0,0,1","2","mountain","70","probe-152","0.5527701883594502","0.06860717763034108","1","0","","","","","","","",""
"","html-keyboard-response","239","962406","0.0-129.0-1.0","""event"",""trial"",""time""
""fullscreenenter"",""0"",""5542""
","
","
","""event"",""trial"",""time""
""fullscreenenter"",""0"",""5542""
","
","null","<p></p>","null","","","","","","","","","","","","","","","","","","","","","","",""
"","do_trial","240","967260","0.0-130.0-0.0","""event"",""trial"",""time""
""fullscreenenter"",""0"",""5542""
","
","
","""event"",""trial"",""time""
""fullscreenenter"",""0"",""5542""
","
","321.3999999910593","","","","","","","","50","1,1,1","2","mountain","71","probe-135","0.3974659415937682","0.08054167648129347","1","1","","","","","","","",""
"","html-keyboard-response","241","968274","0.0-130.0-1.0","""event"",""trial"",""time""
""fullscreenenter"",""0"",""5542""
","
","
","""event"",""trial"",""time""
""fullscreenenter"",""0"",""5542""
","
","null","<p></p>","null","","","","","","","","","","","","","","","","","","","","","","",""
"","do_trial","242","972858","0.0-131.0-0.0","""event"",""trial"",""time""
""fullscreenenter"",""0"",""5542""
","
","
","""event"",""trial"",""time""
""fullscreenenter"",""0"",""5542""
","
","46.3999999910593","","","","","","","","50","1,1,1","2","mountain","72","probe-170","0.43750295823231755","0.180302788129006","0.834789523300783","1","","","","","","","",""
"","html-keyboard-response","243","973873","0.0-131.0-1.0","""event"",""trial"",""time""
""fullscreenenter"",""0"",""5542""
","
","
","""event"",""trial"",""time""
""fullscreenenter"",""0"",""5542""
","
","null","<p></p>","null","","","","","","","","","","","","","","","","","","","","","","",""
"","do_trial","244","980365","0.0-132.0-0.0","""event"",""trial"",""time""
""fullscreenenter"",""0"",""5542""
","
","
","""event"",""trial"",""time""
""fullscreenenter"",""0"",""5542""
","
","1961.7999999970198","","","","","","","","50","0,1,1","2","mountain","73","probe-209","0.3274837087655226","0.18836734069359032","0.7403668196185476","1","","","","","","","",""
"","html-keyboard-response","245","981375","0.0-132.0-1.0","""event"",""trial"",""time""
""fullscreenenter"",""0"",""5542""
","
","
","""event"",""trial"",""time""
""fullscreenenter"",""0"",""5542""
","
","null","<p></p>","null","","","","","","","","","","","","","","","","","","","","","","",""
"","do_trial","246","986215","0.0-133.0-0.0","""event"",""trial"",""time""
""fullscreenenter"",""0"",""5542""
","
","
","""event"",""trial"",""time""
""fullscreenenter"",""0"",""5542""
","
","307.79999999701977","","","","","","","","50","0,0,1","2","mountain","74","probe-01","0.21131178384013655","0.3597466735763134","0.709410172345989","0","","","","","","","",""
"","html-keyboard-response","247","987228","0.0-133.0-1.0","""event"",""trial"",""time""
""fullscreenenter"",""0"",""5542""
","
","
","""event"",""trial"",""time""
""fullscreenenter"",""0"",""5542""
","
","null","<p></p>","null","","","","","","","","","","","","","","","","","","","","","","",""
"","do_trial","248","992060","0.0-134.0-0.0","""event"",""trial"",""time""
""fullscreenenter"",""0"",""5542""
","
","
","""event"",""trial"",""time""
""fullscreenenter"",""0"",""5542""
","
","299.20000000298023","","","","","","","","50","0,1,0","2","mountain","75","probe-197","0.41073180380143226","0.3285719756526792","0.6232177225310376","1","","","","","","","",""
"","html-keyboard-response","249","993066","0.0-134.0-1.0","""event"",""trial"",""time""
""fullscreenenter"",""0"",""5542""
","
","
","""event"",""trial"",""time""
""fullscreenenter"",""0"",""5542""
","
","null","<p></p>","null","","","","","","","","","","","","","","","","","","","","","","",""
"","do_trial","250","997854","0.0-135.0-0.0","""event"",""trial"",""time""
""fullscreenenter"",""0"",""5542""
","
","
","""event"",""trial"",""time""
""fullscreenenter"",""0"",""5542""
","
","254.30000001192093","","","","","","","","50","1,0,1","2","mountain","76","probe-169","0.3787295527662144","0.29261213101096895","0.6021191398020203","0","","","","","","","",""
"","html-keyboard-response","251","998865","0.0-135.0-1.0","""event"",""trial"",""time""
""fullscreenenter"",""0"",""5542""
","
","
","""event"",""trial"",""time""
""fullscreenenter"",""0"",""5542""
","
","null","<p></p>","null","","","","","","","","","","","","","","","","","","","","","","",""
"","do_trial","252","1003739","0.0-136.0-0.0","""event"",""trial"",""time""
""fullscreenenter"",""0"",""5542""
","
","
","""event"",""trial"",""time""
""fullscreenenter"",""0"",""5542""
","
","342.69999998807907","","","","","","","","50","1,0,1","2","mountain","77","probe-147","0.29443754368081043","0.1739978785246776","0.5428453815447881","0","","","","","","","",""
"","html-keyboard-response","253","1004754","0.0-136.0-1.0","""event"",""trial"",""time""
""fullscreenenter"",""0"",""5542""
","
","
","""event"",""trial"",""time""
""fullscreenenter"",""0"",""5542""
","
","null","<p></p>","null","","","","","","","","","","","","","","","","","","","","","","",""
"","do_trial","254","1009629","0.0-137.0-0.0","""event"",""trial"",""time""
""fullscreenenter"",""0"",""5542""
","
","
","""event"",""trial"",""time""
""fullscreenenter"",""0"",""5542""
","
","340.90000000596046","","","","","","","","49","0,0,0","2","mountain","78","probe-02","0.33087349913892383","0.290498675646793","0.6793631653078461","0","","","","","","","",""
"","html-keyboard-response","255","1010644","0.0-137.0-1.0","""event"",""trial"",""time""
""fullscreenenter"",""0"",""5542""
","
","
","""event"",""trial"",""time""
""fullscreenenter"",""0"",""5542""
","
","null","<p></p>","null","","","","","","","","","","","","","","","","","","","","","","",""
"","do_trial","256","1015464","0.0-138.0-0.0","""event"",""trial"",""time""
""fullscreenenter"",""0"",""5542""
","
","
","""event"",""trial"",""time""
""fullscreenenter"",""0"",""5542""
","
","283.59999999403954","","","","","","","","49","0,0,0","2","mountain","79","probe-55","0.36930813944331137","0.20107254035599162","0.6252838062040093","0","","","","","","","",""
"","html-keyboard-response","257","1016478","0.0-138.0-1.0","""event"",""trial"",""time""
""fullscreenenter"",""0"",""5542""
","
","
","""event"",""trial"",""time""
""fullscreenenter"",""0"",""5542""
","
","null","<p></p>","null","","","","","","","","","","","","","","","","","","","","","","",""
"","do_trial","258","1021298","0.0-139.0-0.0","""event"",""trial"",""time""
""fullscreenenter"",""0"",""5542""
","
","
","""event"",""trial"",""time""
""fullscreenenter"",""0"",""5542""
","
","281","","","","","","","","51","0,1,1","2","mountain","80","probe-230","0.43247067383271015","0.4323772913772632","0.6714745328534282","1","","","","","","","",""
"","html-keyboard-response","259","1022313","0.0-139.0-1.0","""event"",""trial"",""time""
""fullscreenenter"",""0"",""5542""
","
","
","""event"",""trial"",""time""
""fullscreenenter"",""0"",""5542""
","
","null","<p></p>","null","","","","","","","","","","","","","","","","","","","","","","",""
"","do_trial","260","1027109","0.0-140.0-0.0","""event"",""trial"",""time""
""fullscreenenter"",""0"",""5542""
","
","
","""event"",""trial"",""time""
""fullscreenenter"",""0"",""5542""
","
","257.40000000596046","","","","","","","","51","0,0,1","2","mountain","81","probe-102","0.38382416093121374","0.4230437325511214","0.7600672959555237","1","","","","","","","",""
"","html-keyboard-response","261","1028117","0.0-140.0-1.0","""event"",""trial"",""time""
""fullscreenenter"",""0"",""5542""
","
","
","""event"",""trial"",""time""
""fullscreenenter"",""0"",""5542""
","
