"success","trial_type","trial_index","time_elapsed","internal_node_id","rt","stimulus","key_press","subject_id","response","choice_outcomes","context_n","context_img_id","trial_n","probe_img_id","pR_red","pR_white","pR_black","outcome","contextArray_ind","validImageProbes","invalidImageProbes","pRew_Red","pRew_White","pRew_Black","availableForMemProbe","choice_blocks"
"true","fullscreen","0","7263","0.0-0.0","","","","","","","","","","","","","","","","","","","","","",""
"","pavlovia","1","7277","0.0-1.0","","","","","","","","","","","","","","","","","","","","","",""
"","html-keyboard-response","2","32625","0.0-2.0","25342","<div class='center'><p>Welcome! This is the first day of the experiment which will last ~30 minutes. In this experiment, you are the head captain of a pirate ship traveling around the world to different places. You will complete several different tasks during this experiment. Here is an overview of these tasks:</p><br><p>Day 1</p><p>1. Tutorial and quiz</p><p>2. Pick a pirate game in 6 different places</p><br><p>Day 2</p><p>3. Pick a pirate game and memory game</p><p>4. Final questions and payment</p><br><p>If you complete the entire experiment, you will receive $15 and a possible bonus payment.</p><p><b>[Press the space bar to begin the tutorial]</b></p></div>","32","616f2dc24df7a8664076ceab","","","","","","","","","","","","","","","","","",""
"","html-keyboard-response","3","48740","0.0-3.0","16112","<div class='center'><p>You’ll stop at these 6 islands on your journey. You'll be able to see them in the distance from your ship.</p><p><img src='run_exp/static/images/contexts/all_contexts.png' height='500'></p><p><b>[Press the space bar to continue]</b></p></div>","32","","","","","","","","","","","","","","","","","","",""
"","html-keyboard-response","4","58804","0.0-4.0","10061","<div class='center'><p> The pirates on your ship will rob other ships as they leave island</p> These ships have just sold their things to the people living on the island, so they will have lots and lots of gold on them.</p><p><img src='run_exp/static/images/tutorial/ship_center.png' height='400'></p><p><b>[Press the space bar to continue]</b></p></div>","32","","","","","","","","","","","","","","","","","","",""
"","html-keyboard-response","5","70920","0.0-5.0","12112","<div class='center'><p>As the head captain, you do not have to rob any ships yourself.</p><p>Another pirate will be doing the robbing for you. </p><p><img src='run_exp/static/images/tutorial/pirates_all_crop.png' height='200'></p><p>If they could rob the ship, then you will get a stack of gold coins like this:</p><p><img src='run_exp/static/images/tutorial/reward.png' height='150'></p><p> If they couldn't rob the ship, then you will get no gold coins and you'll see a big red x like this: </p><p><img src='run_exp/static/images/tutorial/reward_no.png' height='150'></p><p> How much bonus money you make is based on how many gold coins you collect.</p><p><b>[Press the space bar to continue]</b></p><div>","32","","","","","","","","","","","","","","","","","","",""
"","html-keyboard-response","6","87144","0.0-6.0","16223","<div class='center'><p>Even the most skilled pirate can not rob EVERY ship.</p><p> Some ships will have very strong defenses against pirate attacks.</p><p> For example, blue beard, here, is very, very good at robbing ships.</p><p> You can press the <b>‘1’</b> button on the keyboard to choose him.</p><p> Try choosing him 10 times to see how often he can rob a ship. </p><p><img src='run_exp/static/images/tutorial/blue.png' height='500'></p></div>","49","","","","","","","","","","","","","","","","","","",""
"","html-keyboard-response","7","88656","0.0-7.0","null","<div class='center'><p><img src='run_exp/static/images/tutorial/blue_win.png' height='500'></p></div>","null","","","","","","","","","","","","","","","","","","",""
"","html-keyboard-response","8","89958","0.0-8.0","1299","<div class='center'><img src='run_exp/static/images/tutorial/blue.png' height='500'></p></div>","49","","","","","","","","","","","","","","","","","","",""
"","html-keyboard-response","9","91470","0.0-9.0","null","<div class='center'><p><img src='run_exp/static/images/tutorial/blue_win.png' height='500'></p></div>","null","","","","","","","","","","","","","","","","","","",""
"","html-keyboard-response","10","91913","0.0-10.0","441","<div class='center'><img src='run_exp/static/images/tutorial/blue.png' height='500'></p></div>","49","","","","","","","","","","","","","","","","","","",""
"","html-keyboard-response","11","93420","0.0-11.0","null","<div class='center'><p><img src='run_exp/static/images/tutorial/blue_win.png' height='500'></p></div>","null","","","","","","","","","","","","","","","","","","",""
"","html-keyboard-response","12","93758","0.0-12.0","337","<div class='center'><img src='run_exp/static/images/tutorial/blue.png' height='500'></p></div>","49","","","","","","","","","","","","","","","","","","",""
"","html-keyboard-response","13","95270","0.0-13.0","null","<div class='center'><p><img src='run_exp/static/images/tutorial/blue_no_win.png' height='500'></p></div>","null","","","","","","","","","","","","","","","","","","",""
"","html-keyboard-response","14","95642","0.0-14.0","371","<div class='center'><img src='run_exp/static/images/tutorial/blue.png' height='500'></p></div>","49","","","","","","","","","","","","","","","","","","",""
"","html-keyboard-response","15","97152","0.0-15.0","null","<div class='center'><p><img src='run_exp/static/images/tutorial/blue_win.png' height='500'></p></div>","null","","","","","","","","","","","","","","","","","","",""
"","html-keyboard-response","16","97529","0.0-16.0","376","<div class='center'><img src='run_exp/static/images/tutorial/blue.png' height='500'></p></div>","49","","","","","","","","","","","","","","","","","","",""
"","html-keyboard-response","17","99033","0.0-17.0","null","<div class='center'><p><img src='run_exp/static/images/tutorial/blue_win.png' height='500'></p></div>","null","","","","","","","","","","","","","","","","","","",""
"","html-keyboard-response","18","99974","0.0-18.0","938","<div class='center'><img src='run_exp/static/images/tutorial/blue.png' height='500'></p></div>","49","","","","","","","","","","","","","","","","","","",""
"","html-keyboard-response","19","101482","0.0-19.0","null","<div class='center'><p><img src='run_exp/static/images/tutorial/blue_win.png' height='500'></p></div>","null","","","","","","","","","","","","","","","","","","",""
"","html-keyboard-response","20","101905","0.0-20.0","421","<div class='center'><img src='run_exp/static/images/tutorial/blue.png' height='500'></p></div>","49","","","","","","","","","","","","","","","","","","",""
"","html-keyboard-response","21","103416","0.0-21.0","null","<div class='center'><p><img src='run_exp/static/images/tutorial/blue_no_win.png' height='500'></p></div>","null","","","","","","","","","","","","","","","","","","",""
"","html-keyboard-response","22","105467","0.0-22.0","2049","<div class='center'><img src='run_exp/static/images/tutorial/blue.png' height='500'></p></div>","49","","","","","","","","","","","","","","","","","","",""
"","html-keyboard-response","23","106980","0.0-23.0","null","<div class='center'><p><img src='run_exp/static/images/tutorial/blue_win.png' height='500'></p></div>","null","","","","","","","","","","","","","","","","","","",""
"","html-keyboard-response","24","108248","0.0-24.0","1267","<div class='center'><img src='run_exp/static/images/tutorial/blue.png' height='500'></p></div>","49","","","","","","","","","","","","","","","","","","",""
"","html-keyboard-response","25","109762","0.0-25.0","null","<div class='center'><p><img src='run_exp/static/images/tutorial/blue_win.png' height='500'></p></div>","null","","","","","","","","","","","","","","","","","","",""
"","html-keyboard-response","26","113336","0.0-26.0","3573","<div class='center'><p> See, he could rob the ships most of the time but not every time. </p><p><b>[Press the space bar to continue]</b></p></div>","32","","","","","","","","","","","","","","","","","","",""
"","html-keyboard-response","27","122649","0.0-27.0","9311","<div class='center'><p>You will get to choose which of three pirates you want to rob the next ship. <p>Press the <b>‘1’</b> button on your keyboard to pick the pirate with the red beard.</p><p> Press <b>‘2’</b> to pick the pirate with the white beard.</p><p> Press <b>‘3’</b> to pick the pirate with the black beard.</p><p>Try picking a pirate now!</p><p><img src='run_exp/static/images/tutorial/all_pirates.png' height='500'></p></div>","51","","","","","","","","","","","","","","","","","","",""
"","html-keyboard-response","28","124758","0.0-28.0-0.0","2106","<div class='center'><p>This pirate could rob the ship!</p><p><img src='run_exp/static/images/tutorial/black_win.png' height='500'></p><p><b>[Press the space bar to continue]</b></p></div>","32","","","","","","","","","","","","","","","","","","",""
"","html-keyboard-response","29","126914","0.0-28.0-1.0","2154","<div class='center'><p>Now try choosing another</p><p><img src='run_exp/static/images/tutorial/all_pirates.png' height='500'></p></div>","50","","","","","","","","","","","","","","","","","","",""
"","html-keyboard-response","30","128661","0.0-29.0-0.0","1746","<div class='center'><p>This pirate could not rob the ship!</p><p><img src='run_exp/static/images/tutorial/white_no_win.png' height='500'></p><p><b>[Press the space bar to continue]</b></p></div>","32","","","","","","","","","","","","","","","","","","",""
"","html-keyboard-response","31","136866","0.0-30.0-0.0","8202","<div class='center'><p>If you don’t make your choice fast enough, you’ll have to wait a few seconds before you can make another one. </p><p>You can’t collect more gold coins. You just have to sit and wait.</p><p><img src='run_exp/static/images/miscellaneous/hurry_up.png' height='500'></p><p><b>[Press the space bar to continue]</b></p></div>","32","","","","","","","","","","","","","","","","","","",""
"","html-keyboard-response","32","164095","0.0-30.0-1.0","27228","<div class='center'><p>Once you choose a pirate, you’ll be shown the ship they are robbing.</p><p>You will never rob the same ship twice.</p><p>Ships can be told apart from one another by the image on them.</p><p> Every time you see a ship, you will have to remember on which island you saw it.</p><p> Remembering correctly will help you win more bonus money!</p><p>A helpful strategy is to try to come up with a story of the object on the ship interacting with the current island scene.</p><p> For example, here, you could imagine a mug full of water in the desert. </p><p>For a ship with an apple on it on the forest island, you could imagine an apple falling from a tree in the forest.</p><p><img src='run_exp/static/images/tutorial/example_probe.png' height='500'></p><p><b>[Press the space bar to continue]</b></p></div>","32","","","","","","","","","","","","","","","","","","",""
"","html-keyboard-response","33","179160","0.0-30.0-2.0","15063","<div class='center'><p>How good a pirate is at robbing ships will depend on the current island.</p><p> A pirate may have visited the island many times before and gained a lot of practice robbing ships there.</p><p>So, they're more likely to bring back gold coins than a pirate who has never visited this island before. </p><p><b>[Press the space bar to continue]</b></p></div>","32","","","","","","","","","","","","","","","","","","",""
"","html-keyboard-response","34","196731","0.0-30.0-3.0","17570","<div class='center'><p>How good a pirate is at robbing ships can also change over the time spent on the island<p> Ships may hear from islanders about the pirates coming and will improve their protection against the attack. This may make it harder to rob them.</p><p> Ships may also become lazy and lower their protection. This may make it easier to rob them.</p><br><p>Things are always changing on the high seas! So, try your best to pay attention!</p><p><img src='run_exp/static/images/tutorial/contingency.png' height='500'></p><p><b>[Press the space bar to continue]</b></p></div>","32","","","","","","","","","","","","","","","","","","",""
"","html-keyboard-response","35","233946","0.0-30.0-4.0","37215","<div class='center'><p>Let's go over the instructions quickly again.You have two important things to do: </p><b><p> 1. Pick the pirate who is the best at robbing ships on the current island.</p></b><b><p> 2. Remember on which island a ship was robbed.</p> </b><p>How much bonus money you make is based on both. </p><br><p>Let’s try a practice game. The game will start by showing you the pirates. First pick a pirate using the <b> 1, 2, 3 </b> buttons on your keyboard. When you are shown a ship, try to remember the island you’re on by making up a story.</p><p> You only have 3 seconds to pick a pirate, so please make a choice quickly! If you are too slow, you’ll have to wait a bit during the time out.</p><p> Don’t feel rushed, but please do try to make a choice every time.</p><p>This is just a practice game, so you’re not playing for money. </p><p> Good luck, remember press <b>'1'</b> to choose red beard, <b>'2'</b> to choose white beard, and <b>'3'</b> to choose black beard</p><p><b>[Press the space bar to begin the practice game]</b></p></div>","32","","","","","","","","","","","","","","","","","","",""
"","do_welcome","36","235467","0.0-30.0-5.0","null","","","","null","","","","","","","","","","","","","","","","",""
"","do_trial","37","241382","0.0-30.0-6.0","1397","","","","49","1,0,0","","","","","","","","","","","","","","","",""
"","html-keyboard-response","38","242397","0.0-31.0-0.0","null","<p></p>","null","","","","","","","","","","","","","","","","","","",""
"","do_trial","39","247878","0.0-31.0-1.0","954","","","","50","1,1,0","","","","","","","","","","","","","","","",""
"","html-keyboard-response","40","248889","0.0-32.0-0.0","null","<p></p>","null","","","","","","","","","","","","","","","","","","",""
"","do_trial","41","254591","0.0-32.0-1.0","1186","","","","49","1,0,1","","","","","","","","","","","","","","","",""
"","html-keyboard-response","42","255607","0.0-33.0-0.0","null","<p></p>","null","","","","","","","","","","","","","","","","","","",""
"","do_trial","43","261089","0.0-33.0-1.0","957","","","","51","0,1,0","","","","","","","","","","","","","","","",""
"","html-keyboard-response","44","262103","0.0-34.0-0.0","null","<p></p>","null","","","","","","","","","","","","","","","","","","",""
"","do_trial","45","267200","0.0-34.0-1.0","572","","","","50","1,0,0","","","","","","","","","","","","","","","",""
"","do_bye","46","268718","0.0-35.0-0.0","null","","","","null","","","","","","","","","","","","","","","","",""
"","do_travel","47","274730","0.0-35.0-1.0","null","","","","null","","","","","","","","","","","","","","","","",""
"","do_welcome","48","276248","0.0-35.0-2.0","null","","","","null","","","","","","","","","","","","","","","","",""
"","do_trial","49","282578","0.0-35.0-3.0","1818","","","","49","1,0,0","","","","","","","","","","","","","","","",""
"","html-keyboard-response","50","283593","0.0-36.0-0.0","null","<p></p>","null","","","","","","","","","","","","","","","","","","",""
"","do_trial","51","289190","0.0-36.0-1.0","1083","","","","50","1,0,1","","","","","","","","","","","","","","","",""
"","html-keyboard-response","52","290207","0.0-37.0-0.0","null","<p></p>","null","","","","","","","","","","","","","","","","","","",""
"","do_trial","53","295304","0.0-37.0-1.0","577","","","","51","1,1,0","","","","","","","","","","","","","","","",""
"","html-keyboard-response","54","296315","0.0-38.0-0.0","null","<p></p>","null","","","","","","","","","","","","","","","","","","",""
"","do_trial","55","301283","0.0-38.0-1.0","458","","","","49","0,0,1","","","","","","","","","","","","","","","",""
"","html-keyboard-response","56","302299","0.0-39.0-0.0","null","<p></p>","null","","","","","","","","","","","","","","","","","","",""
"","do_trial","57","307230","0.0-39.0-1.0","414","","","","49","1,0,1","","","","","","","","","","","","","","","",""
"","html-keyboard-response","58","309650","0.0-40.0-0.0","2417","<div class='center'><p><img src='run_exp/static/images/tutorial/prac_best_pirate.png'  height='500'></p></div>","49","","","","","","","","","","","","","","","","","","",""
"","html-keyboard-response","59","312268","0.0-41.0-0.0","2618","<div class='center'><p>That's correct! Red beard was the best.</p><p><b>[Press the space bar to continue]</b></p></div>","32","","","","","","","","","","","","","","","","","","",""
"","html-keyboard-response","60","318153","0.0-41.0-1.0","5882","<div class='center'><p><img src='run_exp/static/images/tutorial/prac_source.png'  height='500'></p></div>","50","","","","","","","","","","","","","","","","","","",""
"","html-keyboard-response","61","320096","0.0-42.0-0.0","1942","<div class='center'><p>That's correct! You saw this ship on the cavern island.</p><p><b>[Press the space bar to continue]</b></p></div>","32","","","","","","","","","","","","","","","","","","",""
"","html-keyboard-response","62","326604","0.0-42.0-1.0","6506","<div class='center'><p>Good job on the practice game! Now, you will be asked you some true or false questions to make sure you really understand the rules of the game.</p><p> Press <b>'1'</b> on the keyboard for true and press <b>'2'</b> for false.</p><p><b>[Press the space bar to begin the quiz]</b></p></div>","32","","","","","","","","","","","","","","","","","","",""
"","html-keyboard-response","63","336396","0.0-42.0-2.0","9791","<div class='center'><p>You win bonus money by making choices as fast as possible.</p><p>Press 1 for true and press  2 for false.</p></div>","50","","","","","","","","","","","","","","","","","","",""
"","html-keyboard-response","64","338212","0.0-43.0-0.0","1816","<div class='center'><p>That's correct!</p> <p><b>[press the space bar to continue with the quiz]</b></p></div>","32","","","","","","","","","","","","","","","","","","",""
"","html-keyboard-response","65","342949","0.0-43.0-1.0","4735","<div class='center'><p>You press the <b>‘3’</b> button on the keyboard to choose the red bearded pirate. </p><p>Press 1 for true and press  2 for false.</p></div>","50","","","","","","","","","","","","","","","","","","",""
"","html-keyboard-response","66","344188","0.0-44.0-0.0","1238","<div class='center'><p>That's correct!</p> <p><b>[press the space bar to continue with the quiz]</b></p></div>","32","","","","","","","","","","","","","","","","","","",""
"","html-keyboard-response","67","348212","0.0-44.0-1.0","4024","<div class='center'><p>The pirate who is the best at robbing ships on the first island will be the best on every other island.</p><p>Press 1 for true and press  2 for false.</p></div>","50","","","","","","","","","","","","","","","","","","",""
"","html-keyboard-response","68","349089","0.0-45.0-0.0","876","<div class='center'><p>That's correct!</p> <p><b>[press the space bar to continue with the quiz]</b></p></div>","32","","","","","","","","","","","","","","","","","","",""
"","html-keyboard-response","69","355879","0.0-45.0-1.0","6789","<div class='center'><p>You should remember the island where a pirate robbed a ship.</p><p>Press 1 for true and press  2 for false.</p></div>","49","","","","","","","","","","","","","","","","","","",""
"","html-keyboard-response","70","357081","0.0-46.0-0.0","1179","<div class='center'><p>That's correct!</p> <p><b>[press the space bar to continue with the quiz]</b></p></div>","32","","","","","","","","","","","","","","","","","","",""
"","html-keyboard-response","71","360970","0.0-47.0-0.0","3888","<div class='center'><p>Good job! You’re now ready to move on to the real game!</p> <p><br>[press the space bar to begin!]</br></p></div>","32","","","","","","","","","","","","","","","","","","",""
"","do_welcome","72","362488","0.0-48.0-0.0","null","","","","null","","","","","","","","","","","","","","","","",""
"","do_trial","73","368585","0.0-49.0-0.0","1505","","","","49","1,1,0","0","mountain","0","probe-112","0.6","0.3","0.1","1","","","","","","","",""
"","html-keyboard-response","74","369600","0.0-49.0-1.0","null","<p></p>","null","","","","","","","","","","","","","","","","","","",""
"","do_trial","75","375149","0.0-50.0-0.0","959","","","","50","1,0,0","0","mountain","1","probe-99","0.6054071500619171","0.18506438225716856","0.10922016879696597","0","","","","","","","",""
"","html-keyboard-response","76","376165","0.0-50.0-1.0","null","<p></p>","null","","","","","","","","","","","","","","","","","","",""
"","do_trial","77","381212","0.0-51.0-0.0","453","","","","51","1,0,0","0","mountain","2","probe-120","0.6321611925646015","0.2883690153606613","0.12570277893604964","0","","","","","","","",""
"","html-keyboard-response","78","382230","0.0-51.0-1.0","null","<p></p>","null","","","","","","","","","","","","","","","","","","",""
"","do_trial","79","387143","0.0-52.0-0.0","322","","","","49","1,0,0","0","mountain","3","probe-207","0.5893370603016734","0.19290058652341086","0.18702953014553433","1","","","","","","","",""
"","html-keyboard-response","80","388160","0.0-52.0-1.0","null","<p></p>","null","","","","","","","","","","","","","","","","","","",""
"","do_trial","81","393590","0.0-53.0-0.0","839","","","","49","1,0,0","0","mountain","4","probe-72","0.6107091323350375","0.10251717430499771","0.06778437802763575","1","","","","","","","",""
"","html-keyboard-response","82","394606","0.0-53.0-1.0","null","<p></p>","null","","","","","","","","","","","","","","","","","","",""
"","do_trial","83","400286","0.0-54.0-0.0","1091","","","","49","0,0,0","0","mountain","5","probe-25","0.6429413672666227","0.06027863399806826","0.12487771299062128","0","","","","","","","",""
"","html-keyboard-response","84","401302","0.0-54.0-1.0","null","<p></p>","null","","","","","","","","","","","","","","","","","","",""
"","do_trial","85","406967","0.0-55.0-0.0","1067","","","","49","0,0,0","0","mountain","6","probe-98","0.5785979966136293","0.07203707026593467","0.22331403713526193","0","","","","","","","",""
"","html-keyboard-response","86","407980","0.0-55.0-1.0","null","<p></p>","null","","","","","","","","","","","","","","","","","","",""
"","do_trial","87","412881","0.0-56.0-0.0","313","","","","51","1,0,0","0","mountain","7","probe-22","0.5281032006640891","0.3366013291024206","0.22559622138389623","0","","","","","","","",""
"","html-keyboard-response","88","413896","0.0-56.0-1.0","null","<p></p>","null","","","","","","","","","","","","","","","","","","",""
"","do_trial","89","418928","0.0-57.0-0.0","436","","","","50","0,0,0","0","mountain","8","probe-58","0.5310586407881008","0.15055716741565675","0.1675909141801087","0","","","","","","","",""
"","html-keyboard-response","90","419942","0.0-57.0-1.0","null","<p></p>","null","","","","","","","","","","","","","","","","","","",""
"","do_trial","91","424891","0.0-58.0-0.0","359","","","","49","0,0,0","0","mountain","9","probe-182","0.5263775079843014","0.18727480362319995","0.11529438552270413","0","","","","","","","",""
"","html-keyboard-response","92","425907","0.0-58.0-1.0","null","<p></p>","null","","","","","","","","","","","","","","","","","","",""
"","do_trial","93","430921","0.0-59.0-0.0","419","","","","49","1,0,0","0","mountain","10","probe-157","0.6104352259737312","0.17964074097232682","0.1729570452583857","1","","","","","","","",""
"","html-keyboard-response","94","431938","0.0-59.0-1.0","null","<p></p>","null","","","","","","","","","","","","","","","","","","",""
"","do_trial","95","436869","0.0-60.0-0.0","339","","","","49","1,1,1","0","mountain","11","probe-39","0.6397482233867676","0.2983345827279622","0.2563493149550572","1","","","","","","","",""
"","html-keyboard-response","96","437885","0.0-60.0-1.0","null","<p></p>","null","","","","","","","","","","","","","","","","","","",""
"","do_trial","97","442865","0.0-61.0-0.0","392","","","","49","0,0,1","0","mountain","12","probe-143","0.7385911725229604","0.37288686735576554","0.402495403332748","0","","","","","","","",""
"","html-keyboard-response","98","443881","0.0-61.0-1.0","null","<p></p>","null","","","","","","","","","","","","","","","","","","",""
"","do_trial","99","449024","0.0-62.0-0.0","550","","","","49","0,0,0","0","mountain","13","probe-230","0.658505466642216","0.42202901982992863","0.4091589802365247","0","","","","","","","",""
"","html-keyboard-response","100","450029","0.0-62.0-1.0","null","<p></p>","null","","","","","","","","","","","","","","","","","","",""
"","do_trial","101","455576","0.0-63.0-0.0","963","","","","51","0,0,1","0","mountain","14","probe-195","0.6391261144322439","0.41974975667971715","0.30679798707206724","1","","","","","","","",""
"","html-keyboard-response","102","456591","0.0-63.0-1.0","null","<p></p>","null","","","","","","","","","","","","","","","","","","",""
"","do_trial","103","461953","0.0-64.0-0.0","781","","","","50","0,0,0","0","mountain","15","probe-111","0.6254317363290843","0.5506151919241316","0.3000106536018294","0","","","","","","","",""
"","html-keyboard-response","104","462971","0.0-64.0-1.0","null","<p></p>","null","","","","","","","","","","","","","","","","","","",""
"","do_trial","105","468153","0.0-65.0-0.0","579","","","","51","0,0,0","0","mountain","16","probe-197","0.531540748609868","0.34992466174353537","0.19684439068987825","0","","","","","","","",""
"","html-keyboard-response","106","469169","0.0-65.0-1.0","null","<p></p>","null","","","","","","","","","","","","","","","","","","",""
"","do_trial","107","474432","0.0-66.0-0.0","672","","","","49","1,0,1","0","mountain","17","probe-176","0.5910372167464335","0.32935983882170666","0.09840083000981042","1","","","","","","","",""
"","html-keyboard-response","108","475449","0.0-66.0-1.0","null","<p></p>","null","","","","","","","","","","","","","","","","","","",""
"","do_trial","109","480480","0.0-67.0-0.0","434","","","","49","1,0,0","0","mountain","18","probe-08","0.7263245366840317","0.4840212205768443","0.0511764516977612","1","","","","","","","",""
"","html-keyboard-response","110","481497","0.0-67.0-1.0","null","<p></p>","null","","","","","","","","","","","","","","","","","","",""
"","do_trial","111","486411","0.0-68.0-0.0","324","","","","49","1,0,0","0","mountain","19","probe-214","0.6914736897039688","0.24464343640713376","0.1943099551543892","1","","","","","","","",""
"","html-keyboard-response","112","487427","0.0-68.0-1.0","null","<p></p>","null","","","","","","","","","","","","","","","","","","",""
"","do_trial","113","492591","0.0-69.0-0.0","578","","","","49","1,1,0","0","mountain","20","probe-15","0.7368533327386719","0.23437656928616915","0.08992080837261465","1","","","","","","","",""
"","html-keyboard-response","114","493607","0.0-69.0-1.0","null","<p></p>","null","","","","","","","","","","","","","","","","","","",""
"","do_trial","115","498538","0.0-70.0-0.0","334","","","","49","1,1,0","0","mountain","21","probe-211","0.7422849921423648","0.0920148786033037","0.0874959620734711","1","","","","","","","",""
"","html-keyboard-response","116","499554","0.0-70.0-1.0","null","<p></p>","null","","","","","","","","","","","","","","","","","","",""
"","do_trial","117","504668","0.0-71.0-0.0","530","","","","49","0,0,0","0","mountain","22","probe-142","0.5738166120624004","0.1032805028795545","0.12329207634515087","0","","","","","","","",""
"","html-keyboard-response","118","505684","0.0-71.0-1.0","null","<p></p>","null","","","","","","","","","","","","","","","","","","",""
"","do_trial","119","511615","0.0-72.0-0.0","1331","","","","49","0,1,0","0","mountain","23","probe-136","0.43611431916785093","0.18127487740438558","0.14166123241362047","0","","","","","","","",""
"","html-keyboard-response","120","512631","0.0-72.0-1.0","null","<p></p>","null","","","","","","","","","","","","","","","","","","",""
"","do_trial","121","517629","0.0-73.0-0.0","402","","","","49","1,0,0","0","mountain","24","probe-14","0.48199594308288385","0.1920122748477651","0.16341104688798808","1","","","","","","","",""
"","html-keyboard-response","122","518642","0.0-73.0-1.0","null","<p></p>","null","","","","","","","","","","","","","","","","","","",""
"","do_trial","123","523709","0.0-74.0-0.0","458","","","","49","1,0,0","0","mountain","25","probe-32","0.45653113962177905","0.3791101309984503","0.16591060536653734","1","","","","","","","",""
"","html-keyboard-response","124","524725","0.0-74.0-1.0","null","<p></p>","null","","","","","","","","","","","","","","","","","","",""
"","do_trial","125","529973","0.0-75.0-0.0","656","","","","49","1,1,0","0","mountain","26","probe-103","0.5055990133194965","0.31759614763577704","0.07210007855557457","1","","","","","","","",""
"","html-keyboard-response","126","530989","0.0-75.0-1.0","null","<p></p>","null","","","","","","","","","","","","","","","","","","",""
"","do_trial","127","536120","0.0-76.0-0.0","534","","","","49","1,0,0","0","mountain","27","probe-50","0.4404817416251043","0.33048036833302813","0.06999572049454542","1","","","","","","","",""
"","html-keyboard-response","128","537136","0.0-76.0-1.0","null","<p></p>","null","","","","","","","","","","","","","","","","","","",""
"","do_trial","129","542900","0.0-77.0-0.0","1175","","","","49","0,0,0","0","mountain","28","probe-158","0.4603051854281845","0.20718889778800972","0.12767354944034107","0","","","","","","","",""
"","html-keyboard-response","130","543916","0.0-77.0-1.0","null","<p></p>","null","","","","","","","","","","","","","","","","","","",""
"","do_trial","131","549480","0.0-78.0-0.0","970","","","","49","1,0,0","0","mountain","29","probe-210","0.5099206872250868","0.3311709704813389","0.23241784716801853","1","","","","","","","",""
"","html-keyboard-response","132","550496","0.0-78.0-1.0","null","<p></p>","null","","","","","","","","","","","","","","","","","","",""
"","do_bye","133","552011","0.0-79.0-0.0","null","","","","null","","","","","","","","","","","","","","","","",""
"","do_travel","134","558023","0.0-80.0-0.0","null","","","","null","","","","","","","","","","","","","","","","",""
"","do_welcome","135","559540","0.0-80.0-1.0","null","","","","null","","","","","","","","","","","","","","","","",""
"","do_trial","136","566155","0.0-81.0-0.0","2016","","","","51","1,0,1","1","coast","30","probe-145","1","0.40587720880804223","0.18832383321242624","1","","","","","","","",""
"","html-keyboard-response","137","567170","0.0-81.0-1.0","null","<p></p>","null","","","","","","","","","","","","","","","","","","",""
"","do_trial","138","572816","0.0-82.0-0.0","1046","","","","51","1,0,0","1","coast","31","probe-67","1","0.4170568649839228","0.11967236301754186","0","","","","","","","",""
"","html-keyboard-response","139","573817","0.0-82.0-1.0","null","<p></p>","null","","","","","","","","","","","","","","","","","","",""
"","do_trial","140","578965","0.0-83.0-0.0","545","","","","51","1,0,0","1","coast","32","probe-104","1","0.35972371988950064","0.09143717697616537","0","","","","","","","",""
"","html-keyboard-response","141","579980","0.0-83.0-1.0","null","<p></p>","null","","","","","","","","","","","","","","","","","","",""
"","do_trial","142","584879","0.0-84.0-0.0","314","","","","51","1,0,0","1","coast","33","probe-166","0.914464015521264","0.40702632254041915","0.07833190243611259","0","","","","","","","",""
"","html-keyboard-response","143","585894","0.0-84.0-1.0","null","<p></p>","null","","","","","","","","","","","","","","","","","","",""
"","do_trial","144","590792","0.0-85.0-0.0","304","","","","50","1,1,0","1","coast","34","probe-229","0.7842714461267475","0.35779513990337763","0.09665100284827315","1","","","","","","","",""
"","html-keyboard-response","145","591809","0.0-85.0-1.0","null","<p></p>","null","","","","","","","","","","","","","","","","","","",""
"","do_trial","146","596690","0.0-86.0-0.0","288","","","","50","0,1,0","1","coast","35","probe-74","0.5521206802967372","0.3071194041084449","0.10213455857296491","1","","","","","","","",""
"","html-keyboard-response","147","597705","0.0-86.0-1.0","null","<p></p>","null","","","","","","","","","","","","","","","","","","",""
"","do_trial","148","603317","0.0-87.0-0.0","1011","","","","50","0,1,0","1","coast","36","probe-219","0.5145710758212728","0.30861855717349446","0.0970767227629602","1","","","","","","","",""
"","html-keyboard-response","149","604334","0.0-87.0-1.0","null","<p></p>","null","","","","","","","","","","","","","","","","","","",""
"","do_trial","150","609350","0.0-88.0-0.0","436","","","","50","1,0,0","1","coast","37","probe-61","0.5938371514055036","0.233828527096101","0.11336642254916551","0","","","","","","","",""
"","html-keyboard-response","151","610366","0.0-88.0-1.0","null","<p></p>","null","","","","","","","","","","","","","","","","","","",""
"","do_trial","152","615280","0.0-89.0-0.0","320","","","","50","1,0,0","1","coast","38","probe-170","0.6577570280438805","0.13001419493570984","0.11846813621625568","0","","","","","","","",""
"","html-keyboard-response","153","616298","0.0-89.0-1.0","null","<p></p>","null","","","","","","","","","","","","","","","","","","",""
"","do_trial","154","621443","0.0-90.0-0.0","563","","","","50","0,1,0","1","coast","39","probe-215","0.5616110648866237","0.24367875840899256","0.2956464648068883","1","","","","","","","",""
"","html-keyboard-response","155","622460","0.0-90.0-1.0","null","<p></p>","null","","","","","","","","","","","","","","","","","","",""
"","do_trial","156","627435","0.0-91.0-0.0","383","","","","49","1,0,0","1","coast","40","probe-59","0.6996861130423707","0.1939666000464556","0.44506059321361785","1","","","","","","","",""
"","html-keyboard-response","157","628440","0.0-91.0-1.0","null","<p></p>","null","","","","","","","","","","","","","","","","","","",""
"","do_trial","158","633289","0.0-92.0-0.0","261","","","","49","1,0,1","1","coast","41","probe-40","0.6413842782181987","0.22743725691453864","0.4275133961052749","1","","","","","","","",""
"","html-keyboard-response","159","634304","0.0-92.0-1.0","null","<p></p>","null","","","","","","","","","","","","","","","","","","",""
"","do_trial","160","639385","0.0-93.0-0.0","492","","","","49","0,0,0","1","coast","42","probe-35","0.35207485593983434","0.3221354653668528","0.3246054678672332","0","","","","","","","",""
"","html-keyboard-response","161","640394","0.0-93.0-1.0","null","<p></p>","null","","","","","","","","","","","","","","","","","","",""
"","do_trial","162","645299","0.0-94.0-0.0","308","","","","49","1,0,0","1","coast","43","probe-181","0.3227038098376749","0.3658263834240338","0.3904494637695674","1","","","","","","","",""
"","html-keyboard-response","163","646314","0.0-94.0-1.0","null","<p></p>","null","","","","","","","","","","","","","","","","","","",""
"","do_trial","164","651296","0.0-95.0-0.0","395","","","","49","0,1,0","1","coast","44","probe-31","0.1668962380197567","0.41690068829546234","0.40380672200729784","0","","","","","","","",""
"","html-keyboard-response","165","652312","0.0-95.0-1.0","null","<p></p>","null","","","","","","","","","","","","","","","","","","",""
"","do_trial","166","657610","0.0-96.0-0.0","703","","","","49","1,1,0","1","coast","45","probe-193","0.1831150316673041","0.38660282768734716","0.24471529612921672","1","","","","","","","",""
"","html-keyboard-response","167","658625","0.0-96.0-1.0","null","<p></p>","null","","","","","","","","","","","","","","","","","","",""
"","do_trial","168","663723","0.0-97.0-0.0","507","","","","49","0,0,0","1","coast","46","probe-105","0.2968131655166477","0.47595665636441487","0.2011206309249208","0","","","","","","","",""
"","html-keyboard-response","169","664739","0.0-97.0-1.0","null","<p></p>","null","","","","","","","","","","","","","","","","","","",""
"","do_trial","170","669953","0.0-98.0-0.0","614","","","","50","0,1,0","1","coast","47","probe-191","0.11815398168906681","0.45920100571883377","0.28376139488302743","1","","","","","","","",""
"","html-keyboard-response","171","670970","0.0-98.0-1.0","null","<p></p>","null","","","","","","","","","","","","","","","","","","",""
"","do_trial","172","675834","0.0-99.0-0.0","277","","","","50","0,0,0","1","coast","48","probe-228","0.13544723031658834","0.6195457143708497","0.2221588630369348","0","","","","","","","",""
"","html-keyboard-response","173","676850","0.0-99.0-1.0","null","<p></p>","null","","","","","","","","","","","","","","","","","","",""
"","do_trial","174","681697","0.0-100.0-0.0","253","","","","50","1,0,1","1","coast","49","probe-225","0.11281859945431516","0.6701854917759069","0.3036895460577224","0","","","","","","","",""
"","html-keyboard-response","175","682713","0.0-100.0-1.0","null","<p></p>","null","","","","","","","","","","","","","","","","","","",""
"","do_trial","176","687628","0.0-101.0-0.0","329","","","","50","0,0,1","1","coast","50","probe-21","0.08009345538664835","0.6416290696626638","0.35684830312731985","0","","","","","","","",""
"","html-keyboard-response","177","688643","0.0-101.0-1.0","null","<p></p>","null","","","","","","","","","","","","","","","","","","",""
"","do_trial","178","693509","0.0-102.0-0.0","273","","","","49","0,0,0","1","coast","51","probe-123","0.14212635604201077","0.6118001601835931","0.32849180329431016","0","","","","","","","",""
"","html-keyboard-response","179","694524","0.0-102.0-1.0","null","<p></p>","null","","","","","","","","","","","","","","","","","","",""
"","do_trial","180","699340","0.0-103.0-0.0","225","","","","49","1,1,1","1","coast","52","probe-09","0.1999454274568583","0.5862583339739517","0.3389140873202019","1","","","","","","","",""
"","html-keyboard-response","181","700355","0.0-103.0-1.0","null","<p></p>","null","","","","","","","","","","","","","","","","","","",""
"","do_trial","182","705719","0.0-104.0-0.0","767","","","","49","0,1,1","1","coast","53","probe-168","0.07198299963378026","0.5139399917977138","0.3093894974412409","0","","","","","","","",""
"","html-keyboard-response","183","706735","0.0-104.0-1.0","null","<p></p>","null","","","","","","","","","","","","","","","","","","",""
"","do_trial","184","711633","0.0-105.0-0.0","312","","","","49","0,1,1","1","coast","54","probe-34","0.12745604828859664","0.4050103148346695","0.20916695290546108","0","","","","","","","",""
"","html-keyboard-response","185","712649","0.0-105.0-1.0","null","<p></p>","null","","","","","","","","","","","","","","","","","","",""
"","do_trial","186","717530","0.0-106.0-0.0","292","","","","49","0,0,0","1","coast","55","probe-81","0.24484380233944883","0.6583288981254597","0.3844440122189602","0","","","","","","","",""
"","html-keyboard-response","187","718546","0.0-106.0-1.0","null","<p></p>","null","","","","","","","","","","","","","","","","","","",""
"","do_trial","188","723627","0.0-107.0-0.0","498","","","","49","0,0,1","1","coast","56","probe-86","0.1955150849179305","0.6410354244668011","0.329619577566051","0","","","","","","","",""
"","html-keyboard-response","189","724642","0.0-107.0-1.0","null","<p></p>","null","","","","","","","","","","","","","","","","","","",""
"","do_trial","190","729572","0.0-108.0-0.0","347","","","","50","0,1,1","1","coast","57","probe-161","0.07255371748571258","0.7887625035081505","0.37822572822962985","1","","","","","","","",""
"","html-keyboard-response","191","730590","0.0-108.0-1.0","null","<p></p>","null","","","","","","","","","","","","","","","","","","",""
"","do_trial","192","735871","0.0-109.0-0.0","688","","","","50","0,1,0","1","coast","58","probe-90","0.10649351688386477","0.5913067920716852","0.38366154676140457","1","","","","","","","",""
"","html-keyboard-response","193","736887","0.0-109.0-1.0","null","<p></p>","null","","","","","","","","","","","","","","","","","","",""
"","do_trial","194","741801","0.0-110.0-0.0","324","","","","50","0,1,0","1","coast","59","probe-180","0.1426187764466319","0.5660475698328794","0.26766345516690193","1","","","","","","","",""
"","html-keyboard-response","195","742817","0.0-110.0-1.0","null","<p></p>","null","","","","","","","","","","","","","","","","","","",""
"","do_trial","196","747780","0.0-111.0-0.0","371","","","","50","1,0,0","1","coast","60","probe-132","0.21222275328823073","0.3698294064653135","0.41978940288980077","0","","","","","","","",""
"","html-keyboard-response","197","748798","0.0-111.0-1.0","null","<p></p>","null","","","","","","","","","","","","","","","","","","",""
"","do_trial","198","753660","0.0-112.0-0.0","261","","","","50","1,0,0","1","coast","61","probe-37","0.2688946388876557","0.3408785533562758","0.3007754223962811","0","","","","","","","",""
"","html-keyboard-response","199","754679","0.0-112.0-1.0","null","<p></p>","null","","","","","","","","","","","","","","","","","","",""
"","do_trial","200","759776","0.0-113.0-0.0","500","","","","50","0,1,0","1","coast","62","probe-201","0.05259539167432285","0.4986237127498543","0.1774686388261634","1","","","","","","","",""
"","html-keyboard-response","201","760791","0.0-113.0-1.0","null","<p></p>","null","","","","","","","","","","","","","","","","","","",""
"","do_trial","202","765757","0.0-114.0-0.0","377","","","","50","0,1,0","1","coast","63","probe-83","0.2201384125566545","0.4474754014771305","0.24663430425929853","1","","","","","","","",""
"","html-keyboard-response","203","766772","0.0-114.0-1.0","null","<p></p>","null","","","","","","","","","","","","","","","","","","",""
"","do_trial","204","771603","0.0-115.0-0.0","246","","","","50","0,1,1","1","coast","64","probe-138","0.1802340503678042","0.5605295694292988","0.19975489650756756","1","","","","","","","",""
"","html-keyboard-response","205","772619","0.0-115.0-1.0","null","<p></p>","null","","","","","","","","","","","","","","","","","","",""
"","do_trial","206","777567","0.0-116.0-0.0","357","","","","50","1,1,0","1","coast","65","probe-73","0.19780433093583194","0.5891106406763299","0.32011903840971484","1","","","","","","","",""
"","html-keyboard-response","207","778583","0.0-116.0-1.0","null","<p></p>","null","","","","","","","","","","","","","","","","","","",""
"","do_trial","208","783180","0.0-117.0-0.0","3","","","","50","0,1,0","1","coast","66","probe-153","0.1541458763565827","0.7106900286824045","0.4149318588551939","1","","","","","","","",""
"","html-keyboard-response","209","784197","0.0-117.0-1.0","null","<p></p>","null","","","","","","","","","","","","","","","","","","",""
"","do_trial","210","789378","0.0-118.0-0.0","588","","","","50","0,1,0","1","coast","67","probe-134","0.23065530976548032","0.649248874269376","0.3428412517735642","1","","","","","","","",""
"","html-keyboard-response","211","790394","0.0-118.0-1.0","null","<p></p>","null","","","","","","","","","","","","","","","","","","",""
"","do_trial","212","795374","0.0-119.0-0.0","381","","","","50","0,1,0","1","coast","68","probe-65","0.14896424304804287","0.776472400834507","0.38519271810524613","1","","","","","","","",""
"","html-keyboard-response","213","796391","0.0-119.0-1.0","null","<p></p>","null","","","","","","","","","","","","","","","","","","",""
"","do_trial","214","801521","0.0-120.0-0.0","535","","","","50","1,1,0","1","coast","69","probe-124","0.19364604236277164","0.7118981579501836","0.3405800408753486","1","","","","","","","",""
"","html-keyboard-response","215","802539","0.0-120.0-1.0","null","<p></p>","null","","","","","","","","","","","","","","","","","","",""
"","do_bye","216","804052","0.0-121.0-0.0","null","","","","null","","","","","","","","","","","","","","","","",""
"","do_travel","217","810068","0.0-122.0-0.0","null","","","","null","","","","","","","","","","","","","","","","",""
"","do_welcome","218","811583","0.0-122.0-1.0","null","","","","null","","","","","","","","","","","","","","","","",""
"","do_trial","219","818097","0.0-123.0-0.0","1924","","","","51","0,1,0","2","countryside","70","probe-87","0.17095196126774526","1","0.3912380386925645","0","","","","","","","",""
"","html-keyboard-response","220","819112","0.0-123.0-1.0","null","<p></p>","null","","","","","","","","","","","","","","","","","","",""
"","do_trial","221","824160","0.0-124.0-0.0","457","","","","51","0,1,0","2","countryside","71","probe-62","0.08639110506884333","1","0.3920402923400165","0","","","","","","","",""
"","html-keyboard-response","222","825177","0.0-124.0-1.0","null","<p></p>","null","","","","","","","","","","","","","","","","","","",""
"","do_trial","223","830208","0.0-125.0-0.0","438","","","","51","0,1,0","2","countryside","72","probe-159","0.06787748673789905","0.8001343112873123","0.35722893900970226","0","","","","","","","",""
"","html-keyboard-response","224","831222","0.0-125.0-1.0","null","<p></p>","null","","","","","","","","","","","","","","","","","","",""
"","do_trial","225","836201","0.0-126.0-0.0","375","","","","49","0,0,1","2","countryside","73","probe-141","0.0886212260550023","0.7136584100975536","0.45707080291105506","0","","","","","","","",""
"","html-keyboard-response","226","837204","0.0-126.0-1.0","null","<p></p>","null","","","","","","","","","","","","","","","","","","",""
"","do_trial","227","842101","0.0-127.0-0.0","295","","","","49","0,1,1","2","countryside","74","probe-227","0.24680335535584647","0.757677699237445","0.4238628957639543","0","","","","","","","",""
"","html-keyboard-response","228","843119","0.0-127.0-1.0","null","<p></p>","null","","","","","","","","","","","","","","","","","","",""
"","do_trial","229","848099","0.0-128.0-0.0","379","","","","49","0,0,1","2","countryside","75","probe-223","0.2559165599196757","0.6227789375790079","0.41127667723422046","0","","","","","","","",""
"","html-keyboard-response","230","849115","0.0-128.0-1.0","null","<p></p>","null","","","","","","","","","","","","","","","","","","",""
"","do_trial","231","853962","0.0-129.0-0.0","259","","","","50","1,1,0","2","countryside","76","probe-121","0.1980589518842503","0.7437034234504197","0.3920601934886379","1","","","","","","","",""
"","html-keyboard-response","232","854979","0.0-129.0-1.0","null","<p></p>","null","","","","","","","","","","","","","","","","","","",""
"","do_trial","233","859827","0.0-130.0-0.0","260","","","","50","0,1,1","2","countryside","77","probe-165","0.1404127401768427","0.7584837146190918","0.48080472206542263","1","","","","","","","",""
"","html-keyboard-response","234","860842","0.0-130.0-1.0","null","<p></p>","null","","","","","","","","","","","","","","","","","","",""
"","do_trial","235","865690","0.0-131.0-0.0","262","","","","50","0,0,0","2","countryside","78","probe-185","0.15856949918177823","0.7607217201056693","0.3572627977539597","0","","","","","","","",""
"","html-keyboard-response","236","866706","0.0-131.0-1.0","null","<p></p>","null","","","","","","","","","","","","","","","","","","",""
"","do_trial","237","871553","0.0-132.0-0.0","259","","","","50","1,1,0","2","countryside","79","probe-154","0.09721586088560155","0.8247795971966552","0.39618587946151546","1","","","","","","","",""
"","html-keyboard-response","238","872570","0.0-132.0-1.0","null","<p></p>","null","","","","","","","","","","","","","","","","","","",""
"","do_trial","239","877551","0.0-133.0-0.0","393","","","","50","0,1,0","2","countryside","80","probe-30","0.1837708701260995","0.8096893246008294","0.39036558719290393","1","","","","","","","",""
"","html-keyboard-response","240","878567","0.0-133.0-1.0","null","<p></p>","null","","","","","","","","","","","","","","","","","","",""
"","do_trial","241","883749","0.0-134.0-0.0","584","","","","50","1,0,0","2","countryside","81","probe-54","0.3317080577731792","0.668888669132","0.3136925828821462","0","","","","","","","",""
"","html-keyboard-response","242","884764","0.0-134.0-1.0","null","<p></p>","null","","","","","","","","","","","","","","","","","","",""
"","do_trial","243","889829","0.0-135.0-0.0","468","","","","50","1,1,0","2","countryside","82","probe-28","0.30568829933877817","0.6696627145935932","0.32243794870727466","1","","","","","","","",""
"","html-keyboard-response","244","890843","0.0-135.0-1.0","null","<p></p>","null","","","","","","","","","","","","","","","","","","",""
"","do_trial","245","896423","0.0-136.0-0.0","997","","","","50","0,1,0","2","countryside","83","probe-127","0.06665631900315233","0.5305561607182434","0.46596319061874475","1","","","","","","","",""
"","html-keyboard-response","246","897441","0.0-136.0-1.0","null","<p></p>","null","","","","","","","","","","","","","","","","","","",""
"","do_trial","247","902605","0.0-137.0-0.0","572","","","","50","0,1,0","2","countryside","84","probe-208","0.05581474454920121","0.5136155088215687","0.6057458721881394","1","","","","","","","",""
"","html-keyboard-response","248","903620","0.0-137.0-1.0","null","<p></p>","null","","","","","","","","","","","","","","","","","","",""
"","do_trial","249","908752","0.0-138.0-0.0","550","","","","50","1,0,1","2","countryside","85","probe-163","0.06784402656174825","0.5195533966591205","0.6358345616739544","0","","","","","","","",""
"","html-keyboard-response","250","909768","0.0-138.0-1.0","null","<p></p>","null","","","","","","","","","","","","","","","","","","",""
"","do_trial","251","914866","0.0-139.0-0.0","514","","","","50","1,0,1","2","countryside","86","probe-205","0.1921301856137715","0.4022822639406148","0.5418287928797713","0","","","","","","","",""
"","html-keyboard-response","252","915882","0.0-139.0-1.0","null","<p></p>","null","","","","","","","","","","","","","","","","","","",""
"","do_trial","253","920845","0.0-140.0-0.0","376","","","","50","0,1,1","2","countryside","87","probe-206","0.2792689673181834","0.27538978053001245","0.5784783696668557","1","","","","","","","",""
"","html-keyboard-response","254","921862","0.0-140.0-1.0","null","<p></p>","null","","","","","","","","","","","","","","","","","","",""
"","do_trial","255","926977","0.0-141.0-0.0","523","","","","50","1,1,1","2","countryside","88","probe-53","0.28018373504605676","0.3090048410437738","0.5814873106297613","1","","","","","","","",""
"","html-keyboard-response","256","927992","0.0-141.0-1.0","null","<p></p>","null","","","","","","","","","","","","","","","","","","",""
"","do_trial","257","933357","0.0-142.0-0.0","782","","","","50","0,0,0","2","countryside","89","probe-10","0.08832174596250111","0.14881399803320058","0.4836835247740005","0","","","","","","","",""
"","html-keyboard-response","258","934373","0.0-142.0-1.0","null","<p></p>","null","","","","","","","","","","","","","","","","","","",""
"","do_trial","259","939402","0.0-143.0-0.0","438","","","","50","0,0,1","2","countryside","90","probe-150","0.15267267739602056","0.155743730359566","0.45452842000039967","0","","","","","","","",""
"","html-keyboard-response","260","940420","0.0-143.0-1.0","null","<p></p>","null","","","","","","","","","","","","","","","","","","",""
"","do_trial","261","945603","0.0-144.0-0.0","583","","","","50","1,1,1","2","countryside","91","probe-133","0.14741425251426965","0.3002951180806885","0.6966131532356502","1","","","","","","","",""
"","html-keyboard-response","262","946616","0.0-144.0-1.0","null","<p></p>","null","","","","","","","","","","","","","","","","","","",""
"","do_trial","263","951631","0.0-145.0-0.0","415","","","","50","0,0,1","2","countryside","92","probe-82","0.1638033730958853","0.3837159075941112","0.7228288050574335","0","","","","","","","",""
"","html-keyboard-response","264","952648","0.0-145.0-1.0","null","<p></p>","null","","","","","","","","","","","","","","","","","","",""
"","do_trial","265","957845","0.0-146.0-0.0","608","","","","50","0,0,1","2","countryside","93","probe-16","0.13962264008016623","0.43880041435865674","0.745962805775179","0","","","","","","","",""
"","html-keyboard-response","266","958860","0.0-146.0-1.0","null","<p></p>","null","","","","","","","","","","","","","","","","","","",""
"","do_trial","267","963859","0.0-147.0-0.0","412","","","","50","0,0,1","2","countryside","94","probe-226","0.13691990543882196","0.21562381166811964","0.8484752495127564","0","","","","","","","",""
"","html-keyboard-response","268","964874","0.0-147.0-1.0","null","<p></p>","null","","","","","","","","","","","","","","","","","","",""
"","do_trial","269","970040","0.0-148.0-0.0","570","","","","50","0,0,1","2","countryside","95","probe-196","0.0782597621654621","0.2647592748133965","0.8732255027485504","0","","","","","","","",""
"","html-keyboard-response","270","971054","0.0-148.0-1.0","null","<p></p>","null","","","","","","","","","","","","","","","","","","",""
"","do_trial","271","976053","0.0-149.0-0.0","412","","","","50","0,1,0","2","countryside","96","probe-97","0.16151523139488283","0.3958039269045833","0.7449954111996132","1","","","","","","","",""
"","html-keyboard-response","272","977069","0.0-149.0-1.0","null","<p></p>","null","","","","","","","","","","","","","","","","","","",""
"","do_trial","273","982750","0.0-150.0-0.0","1093","","","","50","0,0,1","2","countryside","97","probe-36","0.23834746374151863","0.4121611951519039","0.548671747064601","0","","","","","","","",""
"","html-keyboard-response","274","983765","0.0-150.0-1.0","null","<p></p>","null","","","","","","","","","","","","","","","","","","",""
"","do_trial","275","988697","0.0-151.0-0.0","343","","","","50","0,1,0","2","countryside","98","probe-91","0.1471255584356829","0.43195630037997745","0.6332904409910289","1","","","","","","","",""
"","html-keyboard-response","276","989712","0.0-151.0-1.0","null","<p></p>","null","","","","","","","","","","","","","","","","","","",""
"","do_trial","277","994660","0.0-152.0-0.0","360","","","","50","0,1,0","2","countryside","99","probe-199","0.12394740095552825","0.29556769952210127","0.6344245377050561","1","","","","","","","",""
"","html-keyboard-response","278","995676","0.0-152.0-1.0","null","<p></p>","null","","","","","","","","","","","","","","","","","","",""
"","do_trial","279","1001542","0.0-153.0-0.0","1263","","","","50","0,0,1","2","countryside","100","probe-55","0.09993878622881414","0.43662753705234286","0.7629000062179461","0","","","","","","","",""
"","html-keyboard-response","280","1002556","0.0-153.0-1.0","null","<p></p>","null","","","","","","","","","","","","","","","","","","",""
"","do_trial","281","1007470","0.0-154.0-0.0","309","","","","50","0,1,1","2","countryside","101","probe-33","0.1143380970645804","0.35425428287190547","0.7046448761596773","1","","","","","","","",""
"","html-keyboard-response","282","1008487","0.0-154.0-1.0","null","<p></p>","null","","","","","","","","","","","","","","","","","","",""
"","do_trial","283","1013401","0.0-155.0-0.0","319","","","","50","1,0,0","2","countryside","102","probe-46","0.10561256127332333","0.16849541819330222","0.7283605726358247","0","","","","","","","",""
"","html-keyboard-response","284","1014417","0.0-155.0-1.0","null","<p></p>","null","","","","","","","","","","","","","","","","","","",""
"","do_trial","285","1019414","0.0-156.0-0.0","404","","","","50","0,0,0","2","countryside","103","probe-84","0.06297827809331286","0.19339547544067034","0.7366438636514627","0","","","","","","","",""
"","html-keyboard-response","286","1020430","0.0-156.0-1.0","null","<p></p>","null","","","","","","","","","","","","","","","","","","",""
"","do_trial","287","1025460","0.0-157.0-0.0","437","","","","50","0,0,1","2","countryside","104","probe-57","0.15369844400148766","0.18304724017135637","0.591432089812392","0","","","","","","","",""
"","html-keyboard-response","288","1026476","0.0-157.0-1.0","null","<p></p>","null","","","","","","","","","","","","","","","","","","",""
"","do_trial","289","1031360","0.0-158.0-0.0","292","","","","50","0,0,1","2","countryside","105","probe-76","0.10519849721250736","0.1886652518856171","0.8067632096385158","0","","","","","","","",""
"","html-keyboard-response","290","1032375","0.0-158.0-1.0","null","<p></p>","null","","","","","","","","","","","","","","","","","","",""
"","do_trial","291","1037373","0.0-159.0-0.0","407","","","","50","1,0,0","2","countryside","106","probe-23","0.22307120761048368","0.10745289794203805","0.6604536152909687","0","","","","","","","",""
"","html-keyboard-response","292","1038389","0.0-159.0-1.0","null","<p></p>","null","","","","","","","","","","","","","","","","","","",""
"","do_trial","293","1043669","0.0-160.0-0.0","686","","","","49","0,1,0","2","countryside","107","probe-06","0.1277853101743595","0.23594007156775823","0.6111178477932081","0","","","","","","","",""
"","html-keyboard-response","294","1044685","0.0-160.0-1.0","null","<p></p>","null","","","","","","","","","","","","","","","","","","",""
"","do_trial","295","1049949","0.0-161.0-0.0","670","","","","49","0,1,0","2","countryside","108","probe-128","0.16732540489345177","0.27486049854776556","0.5606197351969958","0","","","","","","","",""
"","html-keyboard-response","296","1050966","0.0-161.0-1.0","null","<p></p>","null","","","","","","","","","","","","","","","","","","",""
"","do_trial","297","1056430","0.0-162.0-0.0","879","","","","49","0,0,1","2","countryside","109","probe-02","0.2680455864083078","0.27971096239584703","0.6462991648371867","0","","","","","","","",""
"","html-keyboard-response","298","1057446","0.0-162.0-1.0","null","<p></p>","null","","","","","","","","","","","","","","","","","","",""
"","do_bye","299","1058961","0.0-163.0-0.0","null","","","","null","","","","","","","","","","","","","","","","",""
"","do_travel","300","1064976","0.0-164.0-0.0","null","","","","null","","","","","","","","","","","","","","","","",""
"","do_welcome","301","1066490","0.0-164.0-1.0","null","","","","null","","","","","","","","","","","","","","","","",""
"","do_trial","302","1072789","0.0-165.0-0.0","1702","","","","51","0,0,1","3","city","110","probe-56","0.2813810696487812","0.3655272347310855","1","1","","","","","","","",""
"","html-keyboard-response","303","1073802","0.0-165.0-1.0","null","<p></p>","null","","","","","","","","","","","","","","","","","","",""
"","do_trial","304","1078835","0.0-166.0-0.0","438","","","","51","1,0,1","3","city","111","probe-117","0.26404242763168617","0.38964751145427556","1","1","","","","","","","",""
"","html-keyboard-response","305","1079850","0.0-166.0-1.0","null","<p></p>","null","","","","","","","","","","","","","","","","","","",""
"","do_trial","306","1085315","0.0-167.0-0.0","878","","","","51","0,0,1","3","city","112","probe-162","0.16789292444104817","0.417907757162123","0.7826168407923311","1","","","","","","","",""
"","html-keyboard-response","307","1086330","0.0-167.0-1.0","null","<p></p>","null","","","","","","","","","","","","","","","","","","",""
"","do_trial","308","1091230","0.0-168.0-0.0","303","","","","51","0,0,1","3","city","113","probe-44","0.06928229923140967","0.3672354445970541","0.7667710432392986","1","","","","","","","",""
"","html-keyboard-response","309","1092244","0.0-168.0-1.0","null","<p></p>","null","","","","","","","","","","","","","","","","","","",""
"","do_trial","310","1097093","0.0-169.0-0.0","260","","","","51","0,1,0","3","city","114","probe-05","0.09276718271955961","0.3322758600812282","0.5612816307444463","0","","","","","","","",""
"","html-keyboard-response","311","1098109","0.0-169.0-1.0","null","<p></p>","null","","","","","","","","","","","","","","","","","","",""
"","do_trial","312","1102957","0.0-170.0-0.0","262","","","","51","0,1,1","3","city","115","probe-202","0.17281209778406328","0.27549916060249713","0.5115155872476074","1","","","","","","","",""
"","html-keyboard-response","313","1103973","0.0-170.0-1.0","null","<p></p>","null","","","","","","","","","","","","","","","","","","",""
"","do_trial","314","1108870","0.0-171.0-0.0","316","","","","51","0,0,1","3","city","116","probe-151","0.22490493968374206","0.3624024503189234","0.4678242433553732","1","","","","","","","",""
"","html-keyboard-response","315","1109887","0.0-171.0-1.0","null","<p></p>","null","","","","","","","","","","","","","","","","","","",""
"","do_trial","316","1114750","0.0-172.0-0.0","280","","","","51","0,0,1","3","city","117","probe-100","0.15784538569830822","0.42662523311337125","0.48849126371387963","1","","","","","","","",""
"","html-keyboard-response","317","1115767","0.0-172.0-1.0","null","<p></p>","null","","","","","","","","","","","","","","","","","","",""
"","do_trial","318","1120630","0.0-173.0-0.0","269","","","","51","0,0,1","3","city","118","probe-85","0.12370335623276464","0.2870412972687956","0.5420109961641909","1","","","","","","","",""
"","html-keyboard-response","319","1121647","0.0-173.0-1.0","null","<p></p>","null","","","","","","","","","","","","","","","","","","",""
"","do_trial","320","1126661","0.0-174.0-0.0","423","","","","51","0,0,1","3","city","119","probe-101","0.14898170016041296","0.25740611606142294","0.5843359205885645","1","","","","","","","",""
"","html-keyboard-response","321","1127678","0.0-174.0-1.0","null","<p></p>","null","","","","","","","","","","","","","","","","","","",""
"","do_trial","322","1132540","0.0-175.0-0.0","275","","","","51","0,0,1","3","city","120","probe-149","0.06244752129020212","0.2229553264761125","0.5981082624156635","1","","","","","","","",""
"","html-keyboard-response","323","1133558","0.0-175.0-1.0","null","<p></p>","null","","","","","","","","","","","","","","","","","","",""
"","do_trial","324","1138507","0.0-176.0-0.0","361","","","","51","0,0,1","3","city","121","probe-11","0.0872375042382126","0.19929576877830696","0.6338743093379989","1","","","","","","","",""
"","html-keyboard-response","325","1139522","0.0-176.0-1.0","null","<p></p>","null","","","","","","","","","","","","","","","","","","",""
"","do_trial","326","1145539","0.0-177.0-0.0","1432","","","","51","0,0,1","3","city","122","probe-69","0.24610613080962143","0.20146288570200174","0.2785921221859197","1","","","","","","","",""
"","html-keyboard-response","327","1146551","0.0-177.0-1.0","null","<p></p>","null","","","","","","","","","","","","","","","","","","",""
"","do_trial","328","1151483","0.0-178.0-0.0","340","","","","51","0,0,1","3","city","123","probe-80","0.3184297217151689","0.257332995901492","0.2715400760908478","1","","","","","","","",""
"","html-keyboard-response","329","1152499","0.0-178.0-1.0","null","<p></p>","null","","","","","","","","","","","","","","","","","","",""
"","do_trial","330","1157480","0.0-179.0-0.0","390","","","","51","1,0,1","3","city","124","probe-66","0.37138165227240505","0.3059194039760058","0.18780408747589422","1","","","","","","","",""
"","html-keyboard-response","331","1158496","0.0-179.0-1.0","null","<p></p>","null","","","","","","","","","","","","","","","","","","",""
"","do_trial","332","1163693","0.0-180.0-0.0","612","","","","51","1,0,1","3","city","125","probe-108","0.5119212563668486","0.2927407696440591","0.2824938465547931","1","","","","","","","",""
"","html-keyboard-response","333","1164710","0.0-180.0-1.0","null","<p></p>","null","","","","","","","","","","","","","","","","","","",""
"","do_trial","334","1169707","0.0-181.0-0.0","410","","","","51","0,0,0","3","city","126","probe-88","0.5651007744966603","0.28508542377864077","0.2460610007587186","0","","","","","","","",""
"","html-keyboard-response","335","1170722","0.0-181.0-1.0","null","<p></p>","null","","","","","","","","","","","","","","","","","","",""
"","do_trial","336","1175637","0.0-182.0-0.0","327","","","","51","0,1,0","3","city","127","probe-129","0.4559126344962317","0.1941144144665822","0.33073378624693406","0","","","","","","","",""
"","html-keyboard-response","337","1176653","0.0-182.0-1.0","null","<p></p>","null","","","","","","","","","","","","","","","","","","",""
"","do_trial","338","1181685","0.0-183.0-0.0","440","","","","51","1,1,0","3","city","128","probe-186","0.4992808460573597","0.4084525889790519","0.21561358128036556","0","","","","","","","",""
"","html-keyboard-response","339","1182700","0.0-183.0-1.0","null","<p></p>","null","","","","","","","","","","","","","","","","","","",""
"","do_trial","340","1187598","0.0-184.0-0.0","312","","","","51","1,1,0","3","city","129","probe-173","0.4858266470856313","0.31001016292694195","0.2090332928376328","0","","","","","","","",""
"","html-keyboard-response","341","1188614","0.0-184.0-1.0","null","<p></p>","null","","","","","","","","","","","","","","","","","","",""
"","do_trial","342","1193562","0.0-185.0-0.0","349","","","","51","0,0,0","3","city","130","probe-146","0.4579777894020127","0.25935319723430456","0.07737441693054083","0","","","","","","","",""
"","html-keyboard-response","343","1194578","0.0-185.0-1.0","null","<p></p>","null","","","","","","","","","","","","","","","","","","",""
"","do_trial","344","1199742","0.0-186.0-0.0","573","","","","51","0,0,0","3","city","131","probe-71","0.6318817362470724","0.3359584401004102","0.07291547506762598","0","","","","","","","",""
"","html-keyboard-response","345","1200758","0.0-186.0-1.0","null","<p></p>","null","","","","","","","","","","","","","","","","","","",""
"","do_trial","346","1205648","0.0-187.0-0.0","300","","","","50","0,1,0","3","city","132","probe-192","0.6488052496809666","0.35012108083294186","0.10543786529174749","1","","","","","","","",""
"","html-keyboard-response","347","1206656","0.0-187.0-1.0","null","<p></p>","null","","","","","","","","","","","","","","","","","","",""
"","do_trial","348","1211820","0.0-188.0-0.0","579","","","","50","1,1,0","3","city","133","probe-114","0.5888402078083612","0.360757421688668","0.1463913987747095","1","","","","","","","",""
"","html-keyboard-response","349","1212836","0.0-188.0-1.0","null","<p></p>","null","","","","","","","","","","","","","","","","","","",""
"","do_trial","350","1217983","0.0-189.0-0.0","550","","","","50","1,0,0","3","city","134","probe-115","0.5417535944834062","0.43251574380130775","0.17708241587927415","0","","","","","","","",""
"","html-keyboard-response","351","1218998","0.0-189.0-1.0","null","<p></p>","null","","","","","","","","","","","","","","","","","","",""
"","do_trial","352","1223931","0.0-190.0-0.0","336","","","","50","1,0,0","3","city","135","probe-204","0.536153193931071","0.2865962853195993","0.2631551593885396","0","","","","","","","",""
"","html-keyboard-response","353","1224946","0.0-190.0-1.0","null","<p></p>","null","","","","","","","","","","","","","","","","","","",""
"","do_trial","354","1229878","0.0-191.0-0.0","333","","","","50","1,0,0","3","city","136","probe-63","0.5542520802842249","0.15301605296748988","0.1607781661973524","0","","","","","","","",""
"","html-keyboard-response","355","1230893","0.0-191.0-1.0","null","<p></p>","null","","","","","","","","","","","","","","","","","","",""
"","do_trial","356","1235891","0.0-192.0-0.0","418","","","","49","1,0,1","3","city","137","probe-119","0.5485745072582797","0.2639597324523403","0.1441409613707185","1","","","","","","","",""
"","html-keyboard-response","357","1236907","0.0-192.0-1.0","null","<p></p>","null","","","","","","","","","","","","","","","","","","",""
"","do_trial","358","1242039","0.0-193.0-0.0","535","","","","49","0,0,0","3","city","138","probe-12","0.583144456405284","0.2734904855984882","0.2530911634732752","0","","","","","","","",""
"","html-keyboard-response","359","1243054","0.0-193.0-1.0","null","<p></p>","null","","","","","","","","","","","","","","","","","","",""
"","do_trial","360","1247985","0.0-194.0-0.0","337","","","","49","1,0,0","3","city","139","probe-194","0.5803725826454853","0.1893144454408421","0.06035789513414733","1","","","","","","","",""
"","html-keyboard-response","361","1249000","0.0-194.0-1.0","null","<p></p>","null","","","","","","","","","","","","","","","","","","",""
"","do_trial","362","1253915","0.0-195.0-0.0","330","","","","49","0,1,0","3","city","140","probe-217","0.619621360832546","0.3974546915708665","0.08126822159004521","0","","","","","","","",""
"","html-keyboard-response","363","1254930","0.0-195.0-1.0","null","<p></p>","null","","","","","","","","","","","","","","","","","","",""
"","do_trial","364","1260080","0.0-196.0-0.0","564","","","","49","1,1,0","3","city","141","probe-42","0.5968947489944931","0.3695549895301631","0.06309472798417837","1","","","","","","","",""
"","html-keyboard-response","365","1261094","0.0-196.0-1.0","null","<p></p>","null","","","","","","","","","","","","","","","","","","",""
"","do_trial","366","1266077","0.0-197.0-0.0","403","","","","49","0,0,0","3","city","142","probe-79","0.6561752393376628","0.3416565109834047","0.07645712225077848","0","","","","","","","",""
"","html-keyboard-response","367","1267092","0.0-197.0-1.0","null","<p></p>","null","","","","","","","","","","","","","","","","","","",""
"","do_trial","368","1272040","0.0-198.0-0.0","359","","","","49","0,1,0","3","city","143","probe-26","0.4799128760179371","0.25990769833880334","0.07734172318844455","0","","","","","","","",""
"","html-keyboard-response","369","1273056","0.0-198.0-1.0","null","<p></p>","null","","","","","","","","","","","","","","","","","","",""
"","do_trial","370","1277970","0.0-199.0-0.0","314","","","","49","1,0,0","3","city","144","probe-27","0.6111117345322211","0.2391459669625369","0.18431381900671942","1","","","","","","","",""
"","html-keyboard-response","371","1278987","0.0-199.0-1.0","null","<p></p>","null","","","","","","","","","","","","","","","","","","",""
"","do_trial","372","1283900","0.0-200.0-0.0","326","","","","49","0,0,0","3","city","145","probe-198","0.6660412677483835","0.18344971411713737","0.11329998398171849","0","","","","","","","",""
"","html-keyboard-response","373","1284917","0.0-200.0-1.0","null","<p></p>","null","","","","","","","","","","","","","","","","","","",""
"","do_trial","374","1289748","0.0-201.0-0.0","241","","","","49","0,0,0","3","city","146","probe-118","0.5804558073387768","0.32089493204117764","0.11929324461537019","0","","","","","","","",""
"","html-keyboard-response","375","1290763","0.0-201.0-1.0","null","<p></p>","null","","","","","","","","","","","","","","","","","","",""
"","do_trial","376","1296094","0.0-202.0-0.0","744","","","","51","0,0,0","3","city","147","probe-45","0.6450650777527469","0.28886342654301694","0.0664813459292619","0","","","","","","","",""
"","html-keyboard-response","377","1297110","0.0-202.0-1.0","null","<p></p>","null","","","","","","","","","","","","","","","","","","",""
"","do_trial","378","1301940","0.0-203.0-0.0","240","","","","51","0,1,0","3","city","148","probe-17","0.5284720871643297","0.3127744666542452","0.08723854940372214","0","","","","","","","",""
"","html-keyboard-response","379","1302958","0.0-203.0-1.0","null","<p></p>","null","","","","","","","","","","","","","","","","","","",""
"","do_trial","380","1308122","0.0-204.0-0.0","564","","","","51","1,1,0","3","city","149","probe-175","0.491808350942245","0.29232604575498117","0.0653428422874974","0","","","","","","","",""
"","html-keyboard-response","381","1309138","0.0-204.0-1.0","null","<p></p>","null","","","","","","","","","","","","","","","","","","",""
"","do_bye","382","1310654","0.0-205.0-0.0","null","","","","null","","","","","","","","","","","","","","","","",""
"","do_travel","383","1316668","0.0-206.0-0.0","null","","","","null","","","","","","","","","","","","","","","","",""
"","do_welcome","384","1318183","0.0-206.0-1.0","null","","","","null","","","","","","","","","","","","","","","","",""
"","do_trial","385","1324214","0.0-207.0-0.0","1445","","","","49","1,1,0","4","highway","150","probe-131","1","0.2846425266925932","0.11834875503610541","1","","","","","","","",""
"","html-keyboard-response","386","1325230","0.0-207.0-1.0","null","<p></p>","null","","","","","","","","","","","","","","","","","","",""
"","do_trial","387","1330594","0.0-208.0-0.0","768","","","","49","1,0,0","4","highway","151","probe-113","1","0.3485996337061437","0.07788449726099574","1","","","","","","","",""
"","html-keyboard-response","388","1331610","0.0-208.0-1.0","null","<p></p>","null","","","","","","","","","","","","","","","","","","",""
"","do_trial","389","1337040","0.0-209.0-0.0","833","","","","49","1,0,0","4","highway","152","probe-41","0.654490687047772","0.29313781654886717","0.2120321576842287","1","","","","","","","",""
"","html-keyboard-response","390","1338057","0.0-209.0-1.0","null","<p></p>","null","","","","","","","","","","","","","","","","","","",""
"","do_trial","391","1343585","0.0-210.0-0.0","946","","","","49","1,0,0","4","highway","153","probe-13","0.7298751295406366","0.3126062684746189","0.32295233625413267","1","","","","","","","",""
"","html-keyboard-response","392","1344587","0.0-210.0-1.0","null","<p></p>","null","","","","","","","","","","","","","","","","","","",""
"","do_trial","393","1349668","0.0-211.0-0.0","483","","","","49","0,0,0","4","highway","154","probe-139","0.7541578625144212","0.32326904961477837","0.32028518869396555","0","","","","","","","",""
"","html-keyboard-response","394","1350683","0.0-211.0-1.0","null","<p></p>","null","","","","","","","","","","","","","","","","","","",""
"","do_trial","395","1355748","0.0-212.0-0.0","476","","","","49","1,0,0","4","highway","155","probe-107","0.6152704090141817","0.3010490898626959","0.24209571337627883","1","","","","","","","",""
"","html-keyboard-response","396","1356764","0.0-212.0-1.0","null","<p></p>","null","","","","","","","","","","","","","","","","","","",""
"","do_trial","397","1361729","0.0-213.0-0.0","363","","","","49","0,1,0","4","highway","156","probe-188","0.5130687044503496","0.30690871822305815","0.055983988081905134","0","","","","","","","",""
"","html-keyboard-response","398","1362744","0.0-213.0-1.0","null","<p></p>","null","","","","","","","","","","","","","","","","","","",""
"","do_trial","399","1368359","0.0-214.0-0.0","1016","","","","49","1,0,0","4","highway","157","probe-102","0.43151351734089477","0.40583945522669757","0.06315981271637826","1","","","","","","","",""
"","html-keyboard-response","400","1369375","0.0-214.0-1.0","null","<p></p>","null","","","","","","","","","","","","","","","","","","",""
"","do_trial","401","1374523","0.0-215.0-0.0","559","","","","49","0,0,0","4","highway","158","probe-190","0.47815558752733667","0.3293064608965452","0.1299262645089372","0","","","","","","","",""
"","html-keyboard-response","402","1375539","0.0-215.0-1.0","null","<p></p>","null","","","","","","","","","","","","","","","","","","",""
"","do_trial","403","1381353","0.0-216.0-0.0","1218","","","","49","0,0,0","4","highway","159","probe-01","0.4759536104411102","0.3319466832820936","0.09658838453695635","0","","","","","","","",""
"","html-keyboard-response","404","1382369","0.0-216.0-1.0","null","<p></p>","null","","","","","","","","","","","","","","","","","","",""
"","do_trial","405","1387316","0.0-217.0-0.0","354","","","","49","0,0,0","4","highway","160","probe-51","0.5801448871225714","0.44023390485996017","0.20622521297853624","0","","","","","","","",""
"","html-keyboard-response","406","1388332","0.0-217.0-1.0","null","<p></p>","null","","","","","","","","","","","","","","","","","","",""
"","do_trial","407","1393247","0.0-218.0-0.0","336","","","","49","0,1,1","4","highway","161","probe-106","0.5692915025670111","0.38164434331945224","0.246285711001312","0","","","","","","","",""
"","html-keyboard-response","408","1394263","0.0-218.0-1.0","null","<p></p>","null","","","","","","","","","","","","","","","","","","",""
"","do_trial","409","1399261","0.0-219.0-0.0","405","","","","50","1,0,0","4","highway","162","probe-96","0.4871956781145439","0.3575115895650071","0.34669938843884773","0","","","","","","","",""
"","html-keyboard-response","410","1400277","0.0-219.0-1.0","null","<p></p>","null","","","","","","","","","","","","","","","","","","",""
"","do_trial","411","1405140","0.0-220.0-0.0","284","","","","50","1,0,1","4","highway","163","probe-07","0.4090132711581723","0.21092108028322146","0.5069925299724072","0","","","","","","","",""
"","html-keyboard-response","412","1406157","0.0-220.0-1.0","null","<p></p>","null","","","","","","","","","","","","","","","","","","",""
"","do_trial","413","1411839","0.0-221.0-0.0","1082","","","","50","1,0,0","4","highway","164","probe-92","0.3572950572808074","0.1365646552414661","0.543108966045211","0","","","","","","","",""
"","html-keyboard-response","414","1412852","0.0-221.0-1.0","null","<p></p>","null","","","","","","","","","","","","","","","","","","",""
"","do_trial","415","1417819","0.0-222.0-0.0","366","","","","51","0,1,0","4","highway","165","probe-221","0.26367637796946386","0.14305734556129007","0.44263667781533556","0","","","","","","","",""
"","html-keyboard-response","416","1418834","0.0-222.0-1.0","null","<p></p>","null","","","","","","","","","","","","","","","","","","",""
"","do_trial","417","1423864","0.0-223.0-0.0","431","","","","51","0,0,0","4","highway","166","probe-70","0.27986545834213966","0.17742167921085766","0.5762835876097948","0","","","","","","","",""
"","html-keyboard-response","418","1424880","0.0-223.0-1.0","null","<p></p>","null","","","","","","","","","","","","","","","","","","",""
"","do_trial","419","1429979","0.0-224.0-0.0","502","","","","51","1,1,1","4","highway","167","probe-148","0.2897674074463804","0.24102622457097048","0.6438509127772977","1","","","","","","","",""
"","html-keyboard-response","420","1430994","0.0-224.0-1.0","null","<p></p>","null","","","","","","","","","","","","","","","","","","",""
"","do_trial","421","1436958","0.0-225.0-0.0","1370","","","","51","0,0,1","4","highway","168","probe-93","0.31304541631987337","0.1960253923810853","0.6470758544121421","1","","","","","","","",""
"","html-keyboard-response","422","1437974","0.0-225.0-1.0","null","<p></p>","null","","","","","","","","","","","","","","","","","","",""
"","do_trial","423","1443190","0.0-226.0-0.0","630","","","","51","0,0,1","4","highway","169","probe-144","0.3352759465698331","0.12128213552360126","0.6930972899214178","1","","","","","","","",""
"","html-keyboard-response","424","1444204","0.0-226.0-1.0","null","<p></p>","null","","","","","","","","","","","","","","","","","","",""
"","do_trial","425","1449268","0.0-227.0-0.0","478","","","","51","0,0,0","4","highway","170","probe-95","0.339848402232388","0.11355990553674283","0.7269524835420847","0","","","","","","","",""
"","html-keyboard-response","426","1450286","0.0-227.0-1.0","null","<p></p>","null","","","","","","","","","","","","","","","","","","",""
"","do_trial","427","1455317","0.0-228.0-0.0","443","","","","51","1,1,1","4","highway","171","probe-179","0.36556759613099155","0.12324872655500041","0.6009911609335109","1","","","","","","","",""
"","html-keyboard-response","428","1456331","0.0-228.0-1.0","null","<p></p>","null","","","","","","","","","","","","","","","","","","",""
"","do_trial","429","1461230","0.0-229.0-0.0","318","","","","51","1,0,0","4","highway","172","probe-184","0.30307411525808503","0.23756890929225627","0.5873199030781769","0","","","","","","","",""
"","html-keyboard-response","430","1462247","0.0-229.0-1.0","null","<p></p>","null","","","","","","","","","","","","","","","","","","",""
"","do_trial","431","1467127","0.0-230.0-0.0","288","","","","51","0,0,0","4","highway","173","probe-116","0.228198376758072","0.18747300252962615","0.5192788347105192","0","","","","","","","",""
"","html-keyboard-response","432","1468142","0.0-230.0-1.0","null","<p></p>","null","","","","","","","","","","","","","","","","","","",""
"","do_trial","433","1473190","0.0-231.0-0.0","460","","","","51","0,0,0","4","highway","174","probe-178","0.14283347376220148","0.0549477448440569","0.5469350771279569","0","","","","","","","",""
"","html-keyboard-response","434","1474207","0.0-231.0-1.0","null","<p></p>","null","","","","","","","","","","","","","","","","","","",""
"","do_trial","435","1479154","0.0-232.0-0.0","353","","","","49","1,0,0","4","highway","175","probe-19","0.31995824802863204","0.11507850224264786","0.5798201097666191","1","","","","","","","",""
"","html-keyboard-response","436","1480170","0.0-232.0-1.0","null","<p></p>","null","","","","","","","","","","","","","","","","","","",""
"","do_trial","437","1485119","0.0-233.0-0.0","359","","","","49","0,0,1","4","highway","176","probe-152","0.22364809200878","0.25982991019696705","0.5035696823779003","0","","","","","","","",""
"","html-keyboard-response","438","1486134","0.0-233.0-1.0","null","<p></p>","null","","","","","","","","","","","","","","","","","","",""
"","do_trial","439","1491215","0.0-234.0-0.0","485","","","","49","0,0,1","4","highway","177","probe-222","0.34060265352517133","0.260733849740315","0.46503339690966466","0","","","","","","","",""
"","html-keyboard-response","440","1492231","0.0-234.0-1.0","null","<p></p>","null","","","","","","","","","","","","","","","","","","",""
"","do_trial","441","1497245","0.0-235.0-0.0","418","","","","49","0,0,0","4","highway","178","probe-38","0.30204889551366415","0.2459537008723811","0.5132829654447728","0","","","","","","","",""
"","html-keyboard-response","442","1498259","0.0-235.0-1.0","null","<p></p>","null","","","","","","","","","","","","","","","","","","",""
"","do_trial","443","1503242","0.0-236.0-0.0","393","","","","49","0,0,1","4","highway","179","probe-189","0.33100898442707466","0.21217025247856797","0.5606829990320149","0","","","","","","","",""
"","html-keyboard-response","444","1504255","0.0-236.0-1.0","null","<p></p>","null","","","","","","","","","","","","","","","","","","",""
"","do_trial","445","1509157","0.0-237.0-0.0","306","","","","49","0,0,0","4","highway","180","probe-209","0.3470700915032815","0.21644500140160639","0.6268510318847649","0","","","","","","","",""
"","html-keyboard-response","446","1510172","0.0-237.0-1.0","null","<p></p>","null","","","","","","","","","","","","","","","","","","",""
"","do_trial","447","1515270","0.0-238.0-0.0","516","","","","50","0,0,0","4","highway","181","probe-216","0.27157112125064214","0.054832570240375224","0.5725736553160276","0","","","","","","","",""
"","html-keyboard-response","448","1516286","0.0-238.0-1.0","null","<p></p>","null","","","","","","","","","","","","","","","","","","",""
"","do_trial","449","1522117","0.0-239.0-0.0","1238","","","","51","1,0,0","4","highway","182","probe-169","0.3625075048897691","0.058146972682556496","0.6593831462117986","0","","","","","","","",""
"","html-keyboard-response","450","1523130","0.0-239.0-1.0","null","<p></p>","null","","","","","","","","","","","","","","","","","","",""
"","do_trial","451","1528197","0.0-240.0-0.0","479","","","","51","1,0,1","4","highway","183","probe-29","0.3672502293315329","0.11295556052238567","0.7334578606395378","1","","","","","","","",""
"","html-keyboard-response","452","1529213","0.0-240.0-1.0","null","<p></p>","null","","","","","","","","","","","","","","","","","","",""
"","do_trial","453","1534377","0.0-241.0-0.0","568","","","","51","0,0,1","4","highway","184","probe-03","0.30420443406296904","0.109219487129142","0.7508881121243931","1","","","","","","","",""
"","html-keyboard-response","454","1535393","0.0-241.0-1.0","null","<p></p>","null","","","","","","","","","","","","","","","","","","",""
"","do_trial","455","1540291","0.0-242.0-0.0","302","","","","51","1,0,1","4","highway","185","probe-171","0.13202808194553697","0.11144881005722017","0.7768600321480105","1","","","","","","","",""
"","html-keyboard-response","456","1541308","0.0-242.0-1.0","null","<p></p>","null","","","","","","","","","","","","","","","","","","",""
"","do_trial","457","1546304","0.0-243.0-0.0","400","","","","51","0,0,1","4","highway","186","probe-110","0.24880954309744802","0.13550104871087235","0.6898278368351612","1","","","","","","","",""
"","html-keyboard-response","458","1547319","0.0-243.0-1.0","null","<p></p>","null","","","","","","","","","","","","","","","","","","",""
"","do_trial","459","1552285","0.0-244.0-0.0","378","","","","51","0,0,1","4","highway","187","probe-60","0.2733973016815019","0.13453505963702347","0.6764240919191233","1","","","","","","","",""
"","html-keyboard-response","460","1553301","0.0-244.0-1.0","null","<p></p>","null","","","","","","","","","","","","","","","","","","",""
"","do_trial","461","1558612","0.0-245.0-0.0","731","","","","51","0,1,0","4","highway","188","probe-47","0.26027189365816567","0.17819196284740318","0.6045668302231006","0","","","","","","","",""
"","html-keyboard-response","462","1559630","0.0-245.0-1.0","null","<p></p>","null","","","","","","","","","","","","","","","","","","",""
"","do_trial","463","1564946","0.0-246.0-0.0","726","","","","51","0,0,0","4","highway","189","probe-200","0.2872188888514485","0.23214242295830517","0.5934330246591704","0","","","","","","","",""
"","html-keyboard-response","464","1565962","0.0-246.0-1.0","null","<p></p>","null","","","","","","","","","","","","","","","","","","",""
"","do_bye","465","1567478","0.0-247.0-0.0","null","","","","null","","","","","","","","","","","","","","","","",""
"","do_travel","466","1573492","0.0-248.0-0.0","null","","","","null","","","","","","","","","","","","","","","","",""
"","do_welcome","467","1575008","0.0-248.0-1.0","null","","","","null","","","","","","","","","","","","","","","","",""
"","do_trial","468","1581438","0.0-249.0-0.0","1840","","","","49","0,0,1","5","forest","190","probe-147","0.3525159395021006","0.06708720319281909","1","0","","","","","","","",""
"","html-keyboard-response","469","1582453","0.0-249.0-1.0","null","<p></p>","null","","","","","","","","","","","","","","","","","","",""
"","do_trial","470","1587468","0.0-250.0-0.0","432","","","","49","0,0,1","5","forest","191","probe-187","0.2911485847430349","0.14195384722525548","1","0","","","","","","","",""
"","html-keyboard-response","471","1588483","0.0-250.0-1.0","null","<p></p>","null","","","","","","","","","","","","","","","","","","",""
"","do_trial","472","1593448","0.0-251.0-0.0","382","","","","49","1,0,0","5","forest","192","probe-140","0.3279787394274837","0.22707378042751727","0.789768989003027","1","","","","","","","",""
"","html-keyboard-response","473","1594464","0.0-251.0-1.0","null","<p></p>","null","","","","","","","","","","","","","","","","","","",""
"","do_trial","474","1599614","0.0-252.0-0.0","568","","","","49","1,1,1","5","forest","193","probe-212","0.2492215745138109","0.05501312987385909","0.7138057731297586","1","","","","","","","",""
"","html-keyboard-response","475","1600629","0.0-252.0-1.0","null","<p></p>","null","","","","","","","","","","","","","","","","","","",""
"","do_trial","476","1606192","0.0-253.0-0.0","965","","","","49","0,0,1","5","forest","194","probe-64","0.2509209836175348","0.1250954571880221","0.7305843646102358","0","","","","","","","",""
"","html-keyboard-response","477","1607209","0.0-253.0-1.0","null","<p></p>","null","","","","","","","","","","","","","","","","","","",""
"","do_trial","478","1612172","0.0-254.0-0.0","359","","","","49","0,0,1","5","forest","195","probe-174","0.3498551801510789","0.18851112697133196","0.7152933003046422","0","","","","","","","",""
"","html-keyboard-response","479","1613189","0.0-254.0-1.0","null","<p></p>","null","","","","","","","","","","","","","","","","","","",""
"","do_trial","480","1618120","0.0-255.0-0.0","339","","","","49","1,0,1","5","forest","196","probe-43","0.4368372171335871","0.30861435776650753","0.6864963304830921","1","","","","","","","",""
"","html-keyboard-response","481","1619135","0.0-255.0-1.0","null","<p></p>","null","","","","","","","","","","","","","","","","","","",""
"","do_trial","482","1624232","0.0-256.0-0.0","508","","","","49","0,0,1","5","forest","197","probe-220","0.37713459480205963","0.18353528479108597","0.8088788913806214","0","","","","","","","",""
"","html-keyboard-response","483","1625249","0.0-256.0-1.0","null","<p></p>","null","","","","","","","","","","","","","","","","","","",""
"","do_trial","484","1630144","0.0-257.0-0.0","299","","","","49","0,0,1","5","forest","198","probe-218","0.21561761855817388","0.1993197423534186","0.7451381789431166","0","","","","","","","",""
"","html-keyboard-response","485","1631163","0.0-257.0-1.0","null","<p></p>","null","","","","","","","","","","","","","","","","","","",""
"","do_trial","486","1636093","0.0-258.0-0.0","341","","","","49","0,0,0","5","forest","199","probe-172","0.2619459400017552","0.19882826945994198","0.685230100033463","0","","","","","","","",""
"","html-keyboard-response","487","1637110","0.0-258.0-1.0","null","<p></p>","null","","","","","","","","","","","","","","","","","","",""
"","do_trial","488","1642041","0.0-259.0-0.0","331","","","","49","1,0,0","5","forest","200","probe-160","0.2721388458186741","0.15325441880961227","0.6375369760053244","1","","","","","","","",""
"","html-keyboard-response","489","1643058","0.0-259.0-1.0","null","<p></p>","null","","","","","","","","","","","","","","","","","","",""
"","do_trial","490","1648089","0.0-260.0-0.0","435","","","","49","0,1,0","5","forest","201","probe-177","0.12634836088690968","0.12173153605889933","0.5898392402064678","0","","","","","","","",""
"","html-keyboard-response","491","1649100","0.0-260.0-1.0","null","<p></p>","null","","","","","","","","","","","","","","","","","","",""
"","do_trial","492","1654135","0.0-261.0-0.0","440","","","","49","0,0,1","5","forest","202","probe-18","0.2936267063779338","0.22312746667507155","0.30040211736166883","0","","","","","","","",""
"","html-keyboard-response","493","1655151","0.0-261.0-1.0","null","<p></p>","null","","","","","","","","","","","","","","","","","","",""
"","do_trial","494","1660050","0.0-262.0-0.0","324","","","","50","0,1,0","5","forest","203","probe-183","0.5363804287587093","0.3422566546364297","0.20343087089729306","1","","","","","","","",""
"","html-keyboard-response","495","1661065","0.0-262.0-1.0","null","<p></p>","null","","","","","","","","","","","","","","","","","","",""
"","do_trial","496","1666030","0.0-263.0-0.0","376","","","","50","0,1,0","5","forest","204","probe-77","0.5592823277922012","0.43556953470325194","0.19034526642376892","1","","","","","","","",""
"","html-keyboard-response","497","1667045","0.0-263.0-1.0","null","<p></p>","null","","","","","","","","","","","","","","","","","","",""
"","do_trial","498","1672426","0.0-264.0-0.0","776","","","","50","0,1,0","5","forest","205","probe-122","0.4751413307759723","0.3885914975645476","0.1584686932130586","1","","","","","","","",""
"","html-keyboard-response","499","1673441","0.0-264.0-1.0","null","<p></p>","null","","","","","","","","","","","","","","","","","","",""
"","do_trial","500","1678538","0.0-265.0-0.0","497","","","","50","0,1,0","5","forest","206","probe-94","0.6045187652493474","0.2766961068354313","0.18874001332756404","1","","","","","","","",""
"","html-keyboard-response","501","1679556","0.0-265.0-1.0","null","<p></p>","null","","","","","","","","","","","","","","","","","","",""
"","do_trial","502","1684736","0.0-266.0-0.0","596","","","","50","0,1,0","5","forest","207","probe-04","0.7021187400100429","0.295607964214899","0.10392130133711927","1","","","","","","","",""
"","html-keyboard-response","503","1685752","0.0-266.0-1.0","null","<p></p>","null","","","","","","","","","","","","","","","","","","",""
"","do_trial","504","1690667","0.0-267.0-0.0","315","","","","50","1,1,0","5","forest","208","probe-167","0.6418923099936802","0.3698511639045109","0.08469431330170293","1","","","","","","","",""
"","html-keyboard-response","505","1691682","0.0-267.0-1.0","null","<p></p>","null","","","","","","","","","","","","","","","","","","",""
"","do_trial","506","1696598","0.0-268.0-0.0","328","","","","50","1,1,0","5","forest","209","probe-75","0.6065770552376967","0.3125861519564566","0.09895682370745487","1","","","","","","","",""
"","html-keyboard-response","507","1697613","0.0-268.0-1.0","null","<p></p>","null","","","","","","","","","","","","","","","","","","",""
"","do_trial","508","1702644","0.0-269.0-0.0","443","","","","50","0,1,0","5","forest","210","probe-78","0.6046946103522531","0.34029092596066823","0.17885511890608485","1","","","","","","","",""
"","html-keyboard-response","509","1703660","0.0-269.0-1.0","null","<p></p>","null","","","","","","","","","","","","","","","","","","",""
"","do_trial","510","1708740","0.0-270.0-0.0","492","","","","50","0,0,0","5","forest","211","probe-224","0.6104900267155206","0.34456649326763045","0.20662358905303735","0","","","","","","","",""
"","html-keyboard-response","511","1709757","0.0-270.0-1.0","null","<p></p>","null","","","","","","","","","","","","","","","","","","",""
"","do_trial","512","1714689","0.0-271.0-0.0","328","","","","50","0,0,0","5","forest","212","probe-213","0.5589437736620892","0.3051835664841591","0.13414399220894072","0","","","","","","","",""
"","html-keyboard-response","513","1715704","0.0-271.0-1.0","null","<p></p>","null","","","","","","","","","","","","","","","","","","",""
"","do_trial","514","1720801","0.0-272.0-0.0","500","","","","50","0,0,0","5","forest","213","probe-52","0.6782227169149779","0.4048002180642119","0.13933292080946683","0","","","","","","","",""
"","html-keyboard-response","515","1721818","0.0-272.0-1.0","null","<p></p>","null","","","","","","","","","","","","","","","","","","",""
"","do_trial","516","1726899","0.0-273.0-0.0","484","","","","50","1,0,0","5","forest","214","probe-49","0.5639354207625007","0.4744461479291089","0.12424934667414846","0","","","","","","","",""
"","html-keyboard-response","517","1727911","0.0-273.0-1.0","null","<p></p>","null","","","","","","","","","","","","","","","","","","",""
"","do_trial","518","1732943","0.0-274.0-0.0","433","","","","51","1,0,0","5","forest","215","probe-24","0.7676374940108915","0.3008286385078521","0.16830093338582164","0","","","","","","","",""
"","html-keyboard-response","519","1733962","0.0-274.0-1.0","null","<p></p>","null","","","","","","","","","","","","","","","","","","",""
"","do_trial","520","1738860","0.0-275.0-0.0","308","","","","51","1,1,0","5","forest","216","probe-20","0.7691961769369807","0.2965754425489117","0.17669864458975873","0","","","","","","","",""
"","html-keyboard-response","521","1739876","0.0-275.0-1.0","null","<p></p>","null","","","","","","","","","","","","","","","","","","",""
"","do_trial","522","1744923","0.0-276.0-0.0","452","","","","51","0,1,0","5","forest","217","probe-89","0.5368728339845178","0.3566041488116059","0.18517235211042035","0","","","","","","","",""
"","html-keyboard-response","523","1745938","0.0-276.0-1.0","null","<p></p>","null","","","","","","","","","","","","","","","","","","",""
"","do_trial","524","1751903","0.0-277.0-0.0","1367","","","","49","0,1,0","5","forest","218","probe-68","0.4120797964723542","0.38527333125412727","0.22748922036573185","0","","","","","","","",""
"","html-keyboard-response","525","1752919","0.0-277.0-1.0","null","<p></p>","null","","","","","","","","","","","","","","","","","","",""
"","do_trial","526","1757933","0.0-278.0-0.0","412","","","","49","1,0,0","5","forest","219","probe-125","0.4769484974867788","0.18402152201001193","0.12961317477840445","1","","","","","","","",""
"","html-keyboard-response","527","1758950","0.0-278.0-1.0","null","<p></p>","null","","","","","","","","","","","","","","","","","","",""
"","do_trial","528","1763964","0.0-279.0-0.0","426","","","","49","1,1,0","5","forest","220","probe-156","0.5801492824931564","0.22375402578187087","0.19369961708497596","1","","","","","","","",""
"","html-keyboard-response","529","1764980","0.0-279.0-1.0","null","<p></p>","null","","","","","","","","","","","","","","","","","","",""
"","do_trial","530","1770078","0.0-280.0-0.0","499","","","","49","0,0,0","5","forest","221","probe-48","0.65697230470591","0.08033361172914372","0.07373775214729793","0","","","","","","","",""
"","html-keyboard-response","531","1771094","0.0-280.0-1.0","null","<p></p>","null","","","","","","","","","","","","","","","","","","",""
"","do_trial","532","1776174","0.0-281.0-0.0","486","","","","49","1,0,0","5","forest","222","probe-135","0.7108701723955307","0.3648898786666971","0.0542447563664803","1","","","","","","","",""
"","html-keyboard-response","533","1777190","0.0-281.0-1.0","null","<p></p>","null","","","","","","","","","","","","","","","","","","",""
"","do_trial","534","1782405","0.0-282.0-0.0","625","","","","49","1,0,0","5","forest","223","probe-126","0.7008058292669235","0.2684986320757438","0.07846061540426809","1","","","","","","","",""
"","html-keyboard-response","535","1783420","0.0-282.0-1.0","null","<p></p>","null","","","","","","","","","","","","","","","","","","",""
"","do_trial","536","1788486","0.0-283.0-0.0","475","","","","49","1,0,0","5","forest","224","probe-137","0.4785400960006575","0.4690146676695659","0.10537804417030641","1","","","","","","","",""
"","html-keyboard-response","537","1789501","0.0-283.0-1.0","null","<p></p>","null","","","","","","","","","","","","","","","","","","",""
"","do_trial","538","1794949","0.0-284.0-0.0","851","","","","49","0,0,0","5","forest","225","probe-203","0.6048422161993624","0.41309818001135057","0.1405013414574489","0","","","","","","","",""
"","html-keyboard-response","539","1795965","0.0-284.0-1.0","null","<p></p>","null","","","","","","","","","","","","","","","","","","",""
"","do_trial","540","1800880","0.0-285.0-0.0","336","","","","49","0,0,0","5","forest","226","probe-155","0.3891632715071129","0.2640926079476764","0.10286440491752315","0","","","","","","","",""
"","html-keyboard-response","541","1801895","0.0-285.0-1.0","null","<p></p>","null","","","","","","","","","","","","","","","","","","",""
"","do_trial","542","1806809","0.0-286.0-0.0","328","","","","49","0,0,0","5","forest","227","probe-109","0.4746288306502505","0.3579508041180627","0.09624134774767677","0","","","","","","","",""
"","html-keyboard-response","543","1807825","0.0-286.0-1.0","null","<p></p>","null","","","","","","","","","","","","","","","","","","",""
"","do_trial","544","1812822","0.0-287.0-0.0","418","","","","50","0,0,0","5","forest","228","probe-130","0.3994903508019597","0.42918991152022823","0.12242225008395026","0","","","","","","","",""
"","html-keyboard-response","545","1813839","0.0-287.0-1.0","null","<p></p>","null","","","","","","","","","","","","","","","","","","",""
"","do_trial","546","1818737","0.0-288.0-0.0","311","","","","50","0,0,0","5","forest","229","probe-164","0.36990395133772547","0.48917205652405216","0.11086910668160693","0","","","","","","","",""
"","html-keyboard-response","547","1819752","0.0-288.0-1.0","null","<p></p>","null","","","","","","","","","","","","","","","","","","",""
"","do_bye","548","1821270","0.0-289.0-0.0","null","","","","null","","","","","","","","","","","","","","","","",""
