"success","trial_type","trial_index","time_elapsed","internal_node_id","rt","stimulus","key_press","subject_id","response","choice_outcomes","context_n","context_img_id","trial_n","probe_img_id","pR_red","pR_white","pR_black","outcome","contextArray_ind","validImageProbes","invalidImageProbes","pRew_Red","pRew_White","pRew_Black","availableForMemProbe","choice_blocks"
"true","fullscreen","0","37986","0.0-0.0","","","","","","","","","","","","","","","","","","","","","",""
"","pavlovia","1","37990","0.0-1.0","","","","","","","","","","","","","","","","","","","","","",""
"","html-keyboard-response","2","58255","0.0-2.0","20264.100000023842","<div class='center'><p>Welcome! This is the first day of the experiment which will last ~30 minutes. In this experiment, you are the head captain of a pirate ship traveling around the world to different places. You will complete several different tasks during this experiment. Here is an overview of these tasks:</p><br><p>Day 1</p><p>1. Tutorial and quiz</p><p>2. Pick a pirate game in 6 different places</p><br><p>Day 2</p><p>3. Pick a pirate game and memory game</p><p>4. Final questions and payment</p><br><p>If you complete the entire experiment, you will receive $15 and a possible bonus payment.</p><p><b>[Press the space bar to begin the tutorial]</b></p></div>","32","610879c499bf4c12a478adb9","","","","","","","","","","","","","","","","","",""
"","html-keyboard-response","3","63972","0.0-3.0","5716.5","<div class='center'><p>You’ll stop at these 6 islands on your journey. You'll be able to see them in the distance from your ship.</p><p><img src='run_exp/static/images/contexts/all_contexts.png' height='500'></p><p><b>[Press the space bar to continue]</b></p></div>","32","","","","","","","","","","","","","","","","","","",""
"","html-keyboard-response","4","73631","0.0-4.0","9658.100000023842","<div class='center'><p> The pirates on your ship will rob other ships as they leave island</p> These ships have just sold their things to the people living on the island, so they will have lots and lots of gold on them.</p><p><img src='run_exp/static/images/tutorial/ship_center.png' height='400'></p><p><b>[Press the space bar to continue]</b></p></div>","32","","","","","","","","","","","","","","","","","","",""
"","html-keyboard-response","5","82058","0.0-5.0","8426.800000071526","<div class='center'><p>As the head captain, you do not have to rob any ships yourself.</p><p>Another pirate will be doing the robbing for you. </p><p><img src='run_exp/static/images/tutorial/pirates_all_crop.png' height='200'></p><p>If they could rob the ship, then you will get a stack of gold coins like this:</p><p><img src='run_exp/static/images/tutorial/reward.png' height='150'></p><p> If they couldn't rob the ship, then you will get no gold coins and you'll see a big red x like this: </p><p><img src='run_exp/static/images/tutorial/reward_no.png' height='150'></p><p> How much bonus money you make is based on how many gold coins you collect.</p><p><b>[Press the space bar to continue]</b></p><div>","32","","","","","","","","","","","","","","","","","","",""
"","html-keyboard-response","6","94402","0.0-6.0","12343.099999904633","<div class='center'><p>Even the most skilled pirate can not rob EVERY ship.</p><p> Some ships will have very strong defenses against pirate attacks.</p><p> For example, blue beard, here, is very, very good at robbing ships.</p><p> You can press the <b>‘1’</b> button on the keyboard to choose him.</p><p> Try choosing him 10 times to see how often he can rob a ship. </p><p><img src='run_exp/static/images/tutorial/blue.png' height='500'></p></div>","49","","","","","","","","","","","","","","","","","","",""
"","html-keyboard-response","7","95906","0.0-7.0","null","<div class='center'><p><img src='run_exp/static/images/tutorial/blue_win.png' height='500'></p></div>","null","","","","","","","","","","","","","","","","","","",""
"","html-keyboard-response","8","97689","0.0-8.0","1781.7999999523163","<div class='center'><img src='run_exp/static/images/tutorial/blue.png' height='500'></p></div>","49","","","","","","","","","","","","","","","","","","",""
"","html-keyboard-response","9","99193","0.0-9.0","null","<div class='center'><p><img src='run_exp/static/images/tutorial/blue_win.png' height='500'></p></div>","null","","","","","","","","","","","","","","","","","","",""
"","html-keyboard-response","10","99841","0.0-10.0","646.8000000715256","<div class='center'><img src='run_exp/static/images/tutorial/blue.png' height='500'></p></div>","49","","","","","","","","","","","","","","","","","","",""
"","html-keyboard-response","11","101343","0.0-11.0","null","<div class='center'><p><img src='run_exp/static/images/tutorial/blue_win.png' height='500'></p></div>","null","","","","","","","","","","","","","","","","","","",""
"","html-keyboard-response","12","102145","0.0-12.0","801.1999999284744","<div class='center'><img src='run_exp/static/images/tutorial/blue.png' height='500'></p></div>","49","","","","","","","","","","","","","","","","","","",""
"","html-keyboard-response","13","103647","0.0-13.0","null","<div class='center'><p><img src='run_exp/static/images/tutorial/blue_no_win.png' height='500'></p></div>","null","","","","","","","","","","","","","","","","","","",""
"","html-keyboard-response","14","104385","0.0-14.0","736.8000000715256","<div class='center'><img src='run_exp/static/images/tutorial/blue.png' height='500'></p></div>","49","","","","","","","","","","","","","","","","","","",""
"","html-keyboard-response","15","105888","0.0-15.0","null","<div class='center'><p><img src='run_exp/static/images/tutorial/blue_win.png' height='500'></p></div>","null","","","","","","","","","","","","","","","","","","",""
"","html-keyboard-response","16","106858","0.0-16.0","969.2000000476837","<div class='center'><img src='run_exp/static/images/tutorial/blue.png' height='500'></p></div>","49","","","","","","","","","","","","","","","","","","",""
"","html-keyboard-response","17","108363","0.0-17.0","null","<div class='center'><p><img src='run_exp/static/images/tutorial/blue_win.png' height='500'></p></div>","null","","","","","","","","","","","","","","","","","","",""
"","html-keyboard-response","18","109049","0.0-18.0","685","<div class='center'><img src='run_exp/static/images/tutorial/blue.png' height='500'></p></div>","49","","","","","","","","","","","","","","","","","","",""
"","html-keyboard-response","19","110550","0.0-19.0","null","<div class='center'><p><img src='run_exp/static/images/tutorial/blue_win.png' height='500'></p></div>","null","","","","","","","","","","","","","","","","","","",""
"","html-keyboard-response","20","111433","0.0-20.0","882.0999999046326","<div class='center'><img src='run_exp/static/images/tutorial/blue.png' height='500'></p></div>","49","","","","","","","","","","","","","","","","","","",""
"","html-keyboard-response","21","112935","0.0-21.0","null","<div class='center'><p><img src='run_exp/static/images/tutorial/blue_no_win.png' height='500'></p></div>","null","","","","","","","","","","","","","","","","","","",""
"","html-keyboard-response","22","113304","0.0-22.0","368.2999999523163","<div class='center'><img src='run_exp/static/images/tutorial/blue.png' height='500'></p></div>","49","","","","","","","","","","","","","","","","","","",""
"","html-keyboard-response","23","114810","0.0-23.0","null","<div class='center'><p><img src='run_exp/static/images/tutorial/blue_win.png' height='500'></p></div>","null","","","","","","","","","","","","","","","","","","",""
"","html-keyboard-response","24","115105","0.0-24.0","293.7000000476837","<div class='center'><img src='run_exp/static/images/tutorial/blue.png' height='500'></p></div>","49","","","","","","","","","","","","","","","","","","",""
"","html-keyboard-response","25","116610","0.0-25.0","null","<div class='center'><p><img src='run_exp/static/images/tutorial/blue_win.png' height='500'></p></div>","null","","","","","","","","","","","","","","","","","","",""
"","html-keyboard-response","26","119654","0.0-26.0","3044.100000023842","<div class='center'><p> See, he could rob the ships most of the time but not every time. </p><p><b>[Press the space bar to continue]</b></p></div>","32","","","","","","","","","","","","","","","","","","",""
"","html-keyboard-response","27","128113","0.0-27.0","8458","<div class='center'><p>You will get to choose which of three pirates you want to rob the next ship. <p>Press the <b>‘1’</b> button on your keyboard to pick the pirate with the red beard.</p><p> Press <b>‘2’</b> to pick the pirate with the white beard.</p><p> Press <b>‘3’</b> to pick the pirate with the black beard.</p><p>Try picking a pirate now!</p><p><img src='run_exp/static/images/tutorial/all_pirates.png' height='500'></p></div>","50","","","","","","","","","","","","","","","","","","",""
"","html-keyboard-response","28","130865","0.0-28.0-0.0","2751.2999999523163","<div class='center'><p>This pirate could rob the ship!</p><p><img src='run_exp/static/images/tutorial/white_win.png' height='500'></p><p><b>[Press the space bar to continue]</b></p></div>","32","","","","","","","","","","","","","","","","","","",""
"","html-keyboard-response","29","133857","0.0-28.0-1.0","2990.6999999284744","<div class='center'><p>Now try choosing another</p><p><img src='run_exp/static/images/tutorial/all_pirates.png' height='500'></p></div>","50","","","","","","","","","","","","","","","","","","",""
"","html-keyboard-response","30","135417","0.0-29.0-0.0","1558.6000000238419","<div class='center'><p>This pirate could not rob the ship!</p><p><img src='run_exp/static/images/tutorial/white_no_win.png' height='500'></p><p><b>[Press the space bar to continue]</b></p></div>","32","","","","","","","","","","","","","","","","","","",""
"","html-keyboard-response","31","138736","0.0-30.0-0.0","3319","<div class='center'><p>If you don’t make your choice fast enough, you’ll have to wait a few seconds before you can make another one. </p><p>You can’t collect more gold coins. You just have to sit and wait.</p><p><img src='run_exp/static/images/miscellaneous/hurry_up.png' height='500'></p><p><b>[Press the space bar to continue]</b></p></div>","32","","","","","","","","","","","","","","","","","","",""
"","html-keyboard-response","32","170381","0.0-30.0-1.0","31644.400000095367","<div class='center'><p>Once you choose a pirate, you’ll be shown the ship they are robbing.</p><p>You will never rob the same ship twice.</p><p>Ships can be told apart from one another by the image on them.</p><p> Every time you see a ship, you will have to remember on which island you saw it.</p><p> Remembering correctly will help you win more bonus money!</p><p>A helpful strategy is to try to come up with a story of the object on the ship interacting with the current island scene.</p><p> For example, here, you could imagine a mug full of water in the desert. </p><p>For a ship with an apple on it on the forest island, you could imagine an apple falling from a tree in the forest.</p><p><img src='run_exp/static/images/tutorial/example_probe.png' height='500'></p><p><b>[Press the space bar to continue]</b></p></div>","32","","","","","","","","","","","","","","","","","","",""
"","html-keyboard-response","33","177473","0.0-30.0-2.0","7091.799999952316","<div class='center'><p>How good a pirate is at robbing ships will depend on the current island.</p><p> A pirate may have visited the island many times before and gained a lot of practice robbing ships there.</p><p>So, they're more likely to bring back gold coins than a pirate who has never visited this island before. </p><p><b>[Press the space bar to continue]</b></p></div>","32","","","","","","","","","","","","","","","","","","",""
"","html-keyboard-response","34","205492","0.0-30.0-3.0","28019.199999928474","<div class='center'><p>How good a pirate is at robbing ships can also change over the time spent on the island<p> Ships may hear from islanders about the pirates coming and will improve their protection against the attack. This may make it harder to rob them.</p><p> Ships may also become lazy and lower their protection. This may make it easier to rob them.</p><br><p>Things are always changing on the high seas! So, try your best to pay attention!</p><p><img src='run_exp/static/images/tutorial/contingency.png' height='500'></p><p><b>[Press the space bar to continue]</b></p></div>","32","","","","","","","","","","","","","","","","","","",""
"","html-keyboard-response","35","229873","0.0-30.0-4.0","24380.700000047684","<div class='center'><p>Let's go over the instructions quickly again.You have two important things to do: </p><b><p> 1. Pick the pirate who is the best at robbing ships on the current island.</p></b><b><p> 2. Remember on which island a ship was robbed.</p> </b><p>How much bonus money you make is based on both. </p><br><p>Let’s try a practice game. The game will start by showing you the pirates. First pick a pirate using the <b> 1, 2, 3 </b> buttons on your keyboard. When you are shown a ship, try to remember the island you’re on by making up a story.</p><p> You only have 3 seconds to pick a pirate, so please make a choice quickly! If you are too slow, you’ll have to wait a bit during the time out.</p><p> Don’t feel rushed, but please do try to make a choice every time.</p><p>This is just a practice game, so you’re not playing for money. </p><p> Good luck, remember press <b>'1'</b> to choose red beard, <b>'2'</b> to choose white beard, and <b>'3'</b> to choose black beard</p><p><b>[Press the space bar to begin the practice game]</b></p></div>","32","","","","","","","","","","","","","","","","","","",""
"","do_welcome","36","231378","0.0-30.0-5.0","null","","","","null","","","","","","","","","","","","","","","","",""
"","do_trial","37","237095","0.0-30.0-6.0","1206","","","","49","1,0,0","","","","","","","","","","","","","","","",""
"","html-keyboard-response","38","238099","0.0-31.0-0.0","null","<p></p>","null","","","","","","","","","","","","","","","","","","",""
"","do_trial","39","243968","0.0-31.0-1.0","1360.3999999761581","","","","49","1,1,0","","","","","","","","","","","","","","","",""
"","html-keyboard-response","40","244972","0.0-32.0-0.0","null","<p></p>","null","","","","","","","","","","","","","","","","","","",""
"","do_trial","41","250301","0.0-32.0-1.0","817.8999999761581","","","","50","1,0,1","","","","","","","","","","","","","","","",""
"","html-keyboard-response","42","251305","0.0-33.0-0.0","null","<p></p>","null","","","","","","","","","","","","","","","","","","",""
"","do_trial","43","256489","0.0-33.0-1.0","675","","","","49","0,1,0","","","","","","","","","","","","","","","",""
"","html-keyboard-response","44","257493","0.0-34.0-0.0","null","<p></p>","null","","","","","","","","","","","","","","","","","","",""
"","do_trial","45","263281","0.0-34.0-1.0","1280","","","","51","1,0,0","","","","","","","","","","","","","","","",""
"","do_bye","46","264790","0.0-35.0-0.0","null","","","","null","","","","","","","","","","","","","","","","",""
"","do_travel","47","270792","0.0-35.0-1.0","null","","","","null","","","","","","","","","","","","","","","","",""
"","do_welcome","48","272302","0.0-35.0-2.0","null","","","","null","","","","","","","","","","","","","","","","",""
"","do_trial","49","277810","0.0-35.0-3.0","998.2999999523163","","","","49","1,0,0","","","","","","","","","","","","","","","",""
"","html-keyboard-response","50","278815","0.0-36.0-0.0","null","<p></p>","null","","","","","","","","","","","","","","","","","","",""
"","do_trial","51","283905","0.0-36.0-1.0","580.2999999523163","","","","49","1,0,1","","","","","","","","","","","","","","","",""
"","html-keyboard-response","52","284910","0.0-37.0-0.0","null","<p></p>","null","","","","","","","","","","","","","","","","","","",""
"","do_trial","53","289913","0.0-37.0-1.0","496.10000002384186","","","","49","1,1,0","","","","","","","","","","","","","","","",""
"","html-keyboard-response","54","290918","0.0-38.0-0.0","null","<p></p>","null","","","","","","","","","","","","","","","","","","",""
"","do_trial","55","297765","0.0-38.0-1.0","2338","","","","49","0,0,1","","","","","","","","","","","","","","","",""
"","html-keyboard-response","56","298766","0.0-39.0-0.0","null","<p></p>","null","","","","","","","","","","","","","","","","","","",""
"","do_trial","57","304181","0.0-39.0-1.0","906.8000000715256","","","","50","1,0,1","","","","","","","","","","","","","","","",""
"","html-keyboard-response","58","306206","0.0-40.0-0.0","2023.1000000238419","<div class='center'><p><img src='run_exp/static/images/tutorial/prac_best_pirate.png'  height='500'></p></div>","49","","","","","","","","","","","","","","","","","","",""
"","html-keyboard-response","59","307662","0.0-41.0-0.0","1454.7000000476837","<div class='center'><p>That's correct! Red beard was the best.</p><p><b>[Press the space bar to continue]</b></p></div>","32","","","","","","","","","","","","","","","","","","",""
"","html-keyboard-response","60","310615","0.0-41.0-1.0","2951.7000000476837","<div class='center'><p><img src='run_exp/static/images/tutorial/prac_source.png'  height='500'></p></div>","50","","","","","","","","","","","","","","","","","","",""
"","html-keyboard-response","61","311886","0.0-42.0-0.0","1270.2000000476837","<div class='center'><p>That's correct! You saw this ship on the cavern island.</p><p><b>[Press the space bar to continue]</b></p></div>","32","","","","","","","","","","","","","","","","","","",""
"","html-keyboard-response","62","316148","0.0-42.0-1.0","4261.700000047684","<div class='center'><p>Good job on the practice game! Now, you will be asked you some true or false questions to make sure you really understand the rules of the game.</p><p> Press <b>'1'</b> on the keyboard for true and press <b>'2'</b> for false.</p><p><b>[Press the space bar to begin the quiz]</b></p></div>","32","","","","","","","","","","","","","","","","","","",""
"","html-keyboard-response","63","319036","0.0-42.0-2.0","2888.1999999284744","<div class='center'><p>You win bonus money by making choices as fast as possible.</p><p>Press 1 for true and press  2 for false.</p></div>","50","","","","","","","","","","","","","","","","","","",""
"","html-keyboard-response","64","320339","0.0-43.0-0.0","1302.3999999761581","<div class='center'><p>That's correct!</p> <p><b>[press the space bar to continue with the quiz]</b></p></div>","32","","","","","","","","","","","","","","","","","","",""
"","html-keyboard-response","65","323629","0.0-43.0-1.0","3288.899999976158","<div class='center'><p>You press the <b>‘3’</b> button on the keyboard to choose the red bearded pirate. </p><p>Press 1 for true and press  2 for false.</p></div>","50","","","","","","","","","","","","","","","","","","",""
"","html-keyboard-response","66","324724","0.0-44.0-0.0","1094.2999999523163","<div class='center'><p>That's correct!</p> <p><b>[press the space bar to continue with the quiz]</b></p></div>","32","","","","","","","","","","","","","","","","","","",""
"","html-keyboard-response","67","327308","0.0-44.0-1.0","2583.5","<div class='center'><p>The pirate who is the best at robbing ships on the first island will be the best on every other island.</p><p>Press 1 for true and press  2 for false.</p></div>","50","","","","","","","","","","","","","","","","","","",""
"","html-keyboard-response","68","328636","0.0-45.0-0.0","1327.1000000238419","<div class='center'><p>That's correct!</p> <p><b>[press the space bar to continue with the quiz]</b></p></div>","32","","","","","","","","","","","","","","","","","","",""
"","html-keyboard-response","69","332435","0.0-45.0-1.0","3799.1999999284744","<div class='center'><p>You should remember the island where a pirate robbed a ship.</p><p>Press 1 for true and press  2 for false.</p></div>","49","","","","","","","","","","","","","","","","","","",""
"","html-keyboard-response","70","333467","0.0-46.0-0.0","1019.7000000476837","<div class='center'><p>That's correct!</p> <p><b>[press the space bar to continue with the quiz]</b></p></div>","32","","","","","","","","","","","","","","","","","","",""
"","html-keyboard-response","71","334884","0.0-47.0-0.0","1416.1000000238419","<div class='center'><p>Good job! You’re now ready to move on to the real game!</p> <p><br>[press the space bar to begin!]</br></p></div>","32","","","","","","","","","","","","","","","","","","",""
"","do_welcome","72","336393","0.0-48.0-0.0","null","","","","null","","","","","","","","","","","","","","","","",""
"","do_trial","73","341844","0.0-49.0-0.0","908.3999999761581","","","","49","0,0,0","0","countryside","0","probe-111","0.6","0.3","0.1","0","","","","","","","",""
"","html-keyboard-response","74","342848","0.0-49.0-1.0","null","<p></p>","null","","","","","","","","","","","","","","","","","","",""
"","do_trial","75","347951","0.0-50.0-0.0","563.3999999761581","","","","50","0,0,0","0","countryside","1","probe-217","0.5911896725165147","0.2572018449135036","0.06567530536092163","0","","","","","","","",""
"","html-keyboard-response","76","348954","0.0-50.0-1.0","null","<p></p>","null","","","","","","","","","","","","","","","","","","",""
"","do_trial","77","354248","0.0-51.0-0.0","756.3999999761581","","","","51","0,1,0","0","countryside","2","probe-189","0.480127649624093","0.2039430611384033","0.17969123168926374","0","","","","","","","",""
"","html-keyboard-response","78","355253","0.0-51.0-1.0","null","<p></p>","null","","","","","","","","","","","","","","","","","","",""
"","do_trial","79","360285","0.0-52.0-0.0","490.1999999284744","","","","50","1,0,1","0","countryside","3","probe-69","0.5010631435341866","0.14934033296859292","0.2778147761711708","0","","","","","","","",""
"","html-keyboard-response","80","361290","0.0-52.0-1.0","null","<p></p>","null","","","","","","","","","","","","","","","","","","",""
"","do_trial","81","366232","0.0-53.0-0.0","403.09999990463257","","","","49","0,1,0","0","countryside","4","probe-121","0.46668508285522725","0.1426473270927707","0.18144779674031095","0","","","","","","","",""
"","html-keyboard-response","82","367234","0.0-53.0-1.0","null","<p></p>","null","","","","","","","","","","","","","","","","","","",""
"","do_trial","83","372208","0.0-54.0-0.0","433.2000000476837","","","","51","0,0,0","0","countryside","5","probe-99","0.5291501812908731","0.20100620229213673","0.2656926335910422","0","","","","","","","",""
"","html-keyboard-response","84","373213","0.0-54.0-1.0","null","<p></p>","null","","","","","","","","","","","","","","","","","","",""
"","do_trial","85","378996","0.0-55.0-0.0","1244.1000000238419","","","","49","0,0,0","0","countryside","6","probe-40","0.4131878918276719","0.2521956570659409","0.1345495135476189","0","","","","","","","",""
"","html-keyboard-response","86","379999","0.0-55.0-1.0","null","<p></p>","null","","","","","","","","","","","","","","","","","","",""
"","do_trial","87","385030","0.0-56.0-0.0","490.7000000476837","","","","50","1,0,0","0","countryside","7","probe-172","0.34345655079905596","0.3027594689397304","0.2597904065897714","0","","","","","","","",""
"","html-keyboard-response","88","386033","0.0-56.0-1.0","null","<p></p>","null","","","","","","","","","","","","","","","","","","",""
"","do_trial","89","391136","0.0-57.0-0.0","565.6000000238419","","","","51","1,0,0","0","countryside","8","probe-97","0.47328317154188154","0.2416854254867412","0.19523333687478883","0","","","","","","","",""
"","html-keyboard-response","90","392140","0.0-57.0-1.0","null","<p></p>","null","","","","","","","","","","","","","","","","","","",""
"","do_trial","91","397196","0.0-58.0-0.0","516","","","","51","1,1,1","0","countryside","9","probe-11","0.574519329597851","0.3620627422094455","0.29269482051156637","1","","","","","","","",""
"","html-keyboard-response","92","398200","0.0-58.0-1.0","null","<p></p>","null","","","","","","","","","","","","","","","","","","",""
"","do_trial","93","403074","0.0-59.0-0.0","334.39999997615814","","","","51","0,0,0","0","countryside","10","probe-38","0.5835913613316671","0.35061408981990366","0.15694596781940293","0","","","","","","","",""
"","html-keyboard-response","94","404075","0.0-59.0-1.0","null","<p></p>","null","","","","","","","","","","","","","","","","","","",""
"","do_trial","95","409137","0.0-60.0-0.0","525.2000000476837","","","","51","0,0,0","0","countryside","11","probe-42","0.4946283838890146","0.21311003321020366","0.14083284137196198","0","","","","","","","",""
"","html-keyboard-response","96","410140","0.0-60.0-1.0","null","<p></p>","null","","","","","","","","","","","","","","","","","","",""
"","do_trial","97","415282","0.0-61.0-0.0","601.6000000238419","","","","51","0,1,0","0","countryside","12","probe-201","0.6355619962071388","0.3061675938905547","0.0969563404797954","0","","","","","","","",""
"","html-keyboard-response","98","416288","0.0-61.0-1.0","null","<p></p>","null","","","","","","","","","","","","","","","","","","",""
"","do_trial","99","421205","0.0-62.0-0.0","379.5","","","","50","0,1,0","0","countryside","13","probe-162","0.6365917041446146","0.34517115776207496","0.08673105036483357","1","","","","","","","",""
"","html-keyboard-response","100","422208","0.0-62.0-1.0","null","<p></p>","null","","","","","","","","","","","","","","","","","","",""
"","do_trial","101","427171","0.0-63.0-0.0","421.3000000715256","","","","50","1,0,1","0","countryside","14","probe-208","0.5724454163450724","0.24933403205682486","0.11353197946846132","0","","","","","","","",""
"","html-keyboard-response","102","428176","0.0-63.0-1.0","null","<p></p>","null","","","","","","","","","","","","","","","","","","",""
"","do_trial","103","433499","0.0-64.0-0.0","783.5","","","","50","1,1,0","0","countryside","15","probe-32","0.4906017587537067","0.17352678638653912","0.15502693297881112","1","","","","","","","",""
"","html-keyboard-response","104","434504","0.0-64.0-1.0","null","<p></p>","null","","","","","","","","","","","","","","","","","","",""
"","do_trial","105","439658","0.0-65.0-0.0","615.6000000238419","","","","50","0,0,0","0","countryside","16","probe-49","0.5916856221570991","0.10527725713561764","0.06738325204510114","0","","","","","","","",""
"","html-keyboard-response","106","440662","0.0-65.0-1.0","null","<p></p>","null","","","","","","","","","","","","","","","","","","",""
"","do_trial","107","445753","0.0-66.0-0.0","554.5999999046326","","","","50","1,0,1","0","countryside","17","probe-36","0.7285375408830433","0.22192862490607662","0.07107042785124819","0","","","","","","","",""
"","html-keyboard-response","108","446757","0.0-66.0-1.0","null","<p></p>","null","","","","","","","","","","","","","","","","","","",""
"","do_trial","109","451668","0.0-67.0-0.0","370","","","","49","0,1,1","0","countryside","18","probe-119","0.6037238263571504","0.3232741246397353","0.0851662532158908","0","","","","","","","",""
"","html-keyboard-response","110","452672","0.0-67.0-1.0","null","<p></p>","null","","","","","","","","","","","","","","","","","","",""
"","do_trial","111","457636","0.0-68.0-0.0","423.6999999284744","","","","50","1,0,0","0","countryside","19","probe-130","0.5694264224155087","0.29499014097058074","0.06376546754526746","0","","","","","","","",""
"","html-keyboard-response","112","458639","0.0-68.0-1.0","null","<p></p>","null","","","","","","","","","","","","","","","","","","",""
"","do_trial","113","463615","0.0-69.0-0.0","436.2000000476837","","","","49","0,0,0","0","countryside","20","probe-71","0.47099055977802085","0.2318016886736156","0.06859583753602337","0","","","","","","","",""
"","html-keyboard-response","114","464618","0.0-69.0-1.0","null","<p></p>","null","","","","","","","","","","","","","","","","","","",""
"","do_trial","115","469542","0.0-70.0-0.0","383.89999997615814","","","","51","0,0,0","0","countryside","21","probe-156","0.5904871192048716","0.3449057884994868","0.2140831107400528","0","","","","","","","",""
"","html-keyboard-response","116","470545","0.0-70.0-1.0","null","<p></p>","null","","","","","","","","","","","","","","","","","","",""
"","do_trial","117","476333","0.0-71.0-0.0","1250.3999999761581","","","","50","0,0,1","0","countryside","22","probe-12","0.5957998906397556","0.21607534657028335","0.23243867736459042","0","","","","","","","",""
"","html-keyboard-response","118","477337","0.0-71.0-1.0","null","<p></p>","null","","","","","","","","","","","","","","","","","","",""
"","do_trial","119","482322","0.0-72.0-0.0","443.5","","","","49","0,0,0","0","countryside","23","probe-58","0.5712103642119332","0.2583181383855886","0.10707729669421079","0","","","","","","","",""
"","html-keyboard-response","120","483328","0.0-72.0-1.0","null","<p></p>","null","","","","","","","","","","","","","","","","","","",""
"","do_trial","121","488378","0.0-73.0-0.0","508.3000000715256","","","","49","0,1,0","0","countryside","24","probe-18","0.6365789381007325","0.25619565173742154","0.11891443394508987","0","","","","","","","",""
"","html-keyboard-response","122","489382","0.0-73.0-1.0","null","<p></p>","null","","","","","","","","","","","","","","","","","","",""
"","do_trial","123","494328","0.0-74.0-0.0","405","","","","49","0,1,0","0","countryside","25","probe-193","0.661838593393404","0.31053752124669476","0.08740220502153627","0","","","","","","","",""
"","html-keyboard-response","124","495332","0.0-74.0-1.0","null","<p></p>","null","","","","","","","","","","","","","","","","","","",""
"","do_trial","125","500208","0.0-75.0-0.0","339.7999999523163","","","","50","1,0,0","0","countryside","26","probe-215","0.5704321847673003","0.2317537477172829","0.08023608189816767","0","","","","","","","",""
"","html-keyboard-response","126","501212","0.0-75.0-1.0","null","<p></p>","null","","","","","","","","","","","","","","","","","","",""
"","do_trial","127","506129","0.0-76.0-0.0","375.2000000476837","","","","50","1,0,0","0","countryside","27","probe-147","0.6701096365876567","0.3442300995644672","0.108706308261239","0","","","","","","","",""
"","html-keyboard-response","128","507133","0.0-76.0-1.0","null","<p></p>","null","","","","","","","","","","","","","","","","","","",""
"","do_trial","129","512224","0.0-77.0-0.0","552.3999999761581","","","","50","0,1,0","0","countryside","28","probe-224","0.6438342690412749","0.3469420384590635","0.09703269824659043","1","","","","","","","",""
"","html-keyboard-response","130","513229","0.0-77.0-1.0","null","<p></p>","null","","","","","","","","","","","","","","","","","","",""
"","do_trial","131","518447","0.0-78.0-0.0","679.8999999761581","","","","50","0,0,1","0","countryside","29","probe-194","0.5828083993689104","0.28523294095623763","0.15077488598041602","0","","","","","","","",""
"","html-keyboard-response","132","519451","0.0-78.0-1.0","null","<p></p>","null","","","","","","","","","","","","","","","","","","",""
"","do_bye","133","520957","0.0-79.0-0.0","null","","","","null","","","","","","","","","","","","","","","","",""
"","do_travel","134","526963","0.0-80.0-0.0","null","","","","null","","","","","","","","","","","","","","","","",""
"","do_welcome","135","528472","0.0-80.0-1.0","null","","","","null","","","","","","","","","","","","","","","","",""
"","do_trial","136","534266","0.0-81.0-0.0","1252.5999999046326","","","","51","1,1,0","1","city","30","probe-200","1","0.2938782506933438","0.11726421004533423","0","","","","","","","",""
"","html-keyboard-response","137","535270","0.0-81.0-1.0","null","<p></p>","null","","","","","","","","","","","","","","","","","","",""
"","do_trial","138","540116","0.0-82.0-0.0","310.09999990463257","","","","51","1,0,0","1","city","31","probe-07","1","0.28553515678799496","0.08412520049696173","0","","","","","","","",""
"","html-keyboard-response","139","541121","0.0-82.0-1.0","null","<p></p>","null","","","","","","","","","","","","","","","","","","",""
"","do_trial","140","546017","0.0-83.0-0.0","354.60000002384186","","","","49","1,0,0","1","city","32","probe-148","1","0.248225054924269","0.10603635748159582","1","","","","","","","",""
"","html-keyboard-response","141","547019","0.0-83.0-1.0","null","<p></p>","null","","","","","","","","","","","","","","","","","","",""
"","do_trial","142","552051","0.0-84.0-0.0","491.2999999523163","","","","49","1,1,0","1","city","33","probe-225","0.807349726040196","0.23889232101783062","0.2237656077137263","1","","","","","","","",""
"","html-keyboard-response","143","553056","0.0-84.0-1.0","null","<p></p>","null","","","","","","","","","","","","","","","","","","",""
"","do_trial","144","558187","0.0-85.0-0.0","589.3000000715256","","","","49","1,0,0","1","city","34","probe-150","0.7230733496309308","0.31387654747462196","0.32516707204548895","1","","","","","","","",""
"","html-keyboard-response","145","559191","0.0-85.0-1.0","null","<p></p>","null","","","","","","","","","","","","","","","","","","",""
"","do_trial","146","564240","0.0-86.0-0.0","507.7999999523163","","","","49","0,0,0","1","city","35","probe-95","0.5193627104738857","0.29328423829302097","0.26571811571375203","0","","","","","","","",""
"","html-keyboard-response","147","565245","0.0-86.0-1.0","null","<p></p>","null","","","","","","","","","","","","","","","","","","",""
"","do_trial","148","570128","0.0-87.0-0.0","343.5","","","","49","0,0,0","1","city","36","probe-190","0.569474874511581","0.3064956597242526","0.16972198185023574","0","","","","","","","",""
"","html-keyboard-response","149","571131","0.0-87.0-1.0","null","<p></p>","null","","","","","","","","","","","","","","","","","","",""
"","do_trial","150","576171","0.0-88.0-0.0","499.89999997615814","","","","49","0,0,0","1","city","37","probe-169","0.4344340527493864","0.33805492146350524","0.06911084874923445","0","","","","","","","",""
"","html-keyboard-response","151","577174","0.0-88.0-1.0","null","<p></p>","null","","","","","","","","","","","","","","","","","","",""
"","do_trial","152","582434","0.0-89.0-0.0","719.8000000715256","","","","49","1,0,0","1","city","38","probe-226","0.45179500095236824","0.35991454144753593","0.12318672973748601","1","","","","","","","",""
"","html-keyboard-response","153","583438","0.0-89.0-1.0","null","<p></p>","null","","","","","","","","","","","","","","","","","","",""
"","do_trial","154","588332","0.0-90.0-0.0","357.2999999523163","","","","49","0,1,0","1","city","39","probe-112","0.5429513082565518","0.47705924307614367","0.05549428216321487","0","","","","","","","",""
"","html-keyboard-response","155","589335","0.0-90.0-1.0","null","<p></p>","null","","","","","","","","","","","","","","","","","","",""
"","do_trial","156","594160","0.0-91.0-0.0","284.6999999284744","","","","49","0,1,0","1","city","40","probe-92","0.6282918829364489","0.5309196745598198","0.13863732655084518","0","","","","","","","",""
"","html-keyboard-response","157","595164","0.0-91.0-1.0","null","<p></p>","null","","","","","","","","","","","","","","","","","","",""
"","do_trial","158","600179","0.0-92.0-0.0","478.60000002384186","","","","49","1,1,0","1","city","41","probe-142","0.5562217888522204","0.4159487838889417","0.09639175041279284","1","","","","","","","",""
"","html-keyboard-response","159","601183","0.0-92.0-1.0","null","<p></p>","null","","","","","","","","","","","","","","","","","","",""
"","do_trial","160","606112","0.0-93.0-0.0","389","","","","49","1,1,0","1","city","42","probe-64","0.5889884708744344","0.24320078745438692","0.2676298618597837","1","","","","","","","",""
"","html-keyboard-response","161","607116","0.0-93.0-1.0","null","<p></p>","null","","","","","","","","","","","","","","","","","","",""
"","do_trial","162","612068","0.0-94.0-0.0","412.2000000476837","","","","49","0,0,0","1","city","43","probe-43","0.5187899266131243","0.15268034729470206","0.3566172101375262","0","","","","","","","",""
"","html-keyboard-response","163","613072","0.0-94.0-1.0","null","<p></p>","null","","","","","","","","","","","","","","","","","","",""
"","do_trial","164","617890","0.0-95.0-0.0","278.40000009536743","","","","49","0,0,1","1","city","44","probe-21","0.48327315480247635","0.22842033637772927","0.5400073109857548","0","","","","","","","",""
"","html-keyboard-response","165","618894","0.0-95.0-1.0","null","<p></p>","null","","","","","","","","","","","","","","","","","","",""
"","do_trial","166","623869","0.0-96.0-0.0","434.2000000476837","","","","49","1,0,1","1","city","45","probe-84","0.374208697312973","0.16159159656910146","0.567335560806723","1","","","","","","","",""
"","html-keyboard-response","167","624872","0.0-96.0-1.0","null","<p></p>","null","","","","","","","","","","","","","","","","","","",""
"","do_trial","168","630539","0.0-97.0-0.0","1128.5","","","","49","0,0,0","1","city","46","probe-188","0.40787497333317907","0.10989286630526092","0.6751161725852382","0","","","","","","","",""
"","html-keyboard-response","169","631542","0.0-97.0-1.0","null","<p></p>","null","","","","","","","","","","","","","","","","","","",""
"","do_trial","170","636460","0.0-98.0-0.0","379.5","","","","49","0,0,0","1","city","47","probe-63","0.30370833732407304","0.15571508284007082","0.6510526418816294","0","","","","","","","",""
"","html-keyboard-response","171","637463","0.0-98.0-1.0","null","<p></p>","null","","","","","","","","","","","","","","","","","","",""
"","do_trial","172","642398","0.0-99.0-0.0","395.7000000476837","","","","49","0,1,0","1","city","48","probe-168","0.15517834623696766","0.13222775516055615","0.6969579595758754","0","","","","","","","",""
"","html-keyboard-response","173","643402","0.0-99.0-1.0","null","<p></p>","null","","","","","","","","","","","","","","","","","","",""
"","do_trial","174","648447","0.0-100.0-0.0","506.2000000476837","","","","49","0,1,1","1","city","49","probe-230","0.12119619093354939","0.13625791588031028","0.6273476939332288","0","","","","","","","",""
"","html-keyboard-response","175","649451","0.0-100.0-1.0","null","<p></p>","null","","","","","","","","","","","","","","","","","","",""
"","do_trial","176","654304","0.0-101.0-0.0","312","","","","50","0,0,1","1","city","50","probe-02","0.19784124297633868","0.09534705601639379","0.6060574793506993","0","","","","","","","",""
"","html-keyboard-response","177","655307","0.0-101.0-1.0","null","<p></p>","null","","","","","","","","","","","","","","","","","","",""
"","do_trial","178","660201","0.0-102.0-0.0","353.8000000715256","","","","50","0,1,1","1","city","51","probe-116","0.1644746129313615","0.1415703007809921","0.6873530134123059","1","","","","","","","",""
"","html-keyboard-response","179","661206","0.0-102.0-1.0","null","<p></p>","null","","","","","","","","","","","","","","","","","","",""
"","do_trial","180","666401","0.0-103.0-0.0","654.3999999761581","","","","50","0,0,1","1","city","52","probe-27","0.24536600638641054","0.08063372931480654","0.4110221929409093","0","","","","","","","",""
"","html-keyboard-response","181","667405","0.0-103.0-1.0","null","<p></p>","null","","","","","","","","","","","","","","","","","","",""
"","do_trial","182","672402","0.0-104.0-0.0","455.1999999284744","","","","50","0,0,0","1","city","53","probe-170","0.18299599594889784","0.09782153913554295","0.5788236426269375","0","","","","","","","",""
"","html-keyboard-response","183","673407","0.0-104.0-1.0","null","<p></p>","null","","","","","","","","","","","","","","","","","","",""
"","do_trial","184","679537","0.0-105.0-0.0","1590.1999999284744","","","","51","1,1,0","1","city","54","probe-94","0.27087602151995366","0.17990511415828736","0.5947572658554953","0","","","","","","","",""
"","html-keyboard-response","185","680541","0.0-105.0-1.0","null","<p></p>","null","","","","","","","","","","","","","","","","","","",""
"","do_trial","186","685946","0.0-106.0-0.0","865.6000000238419","","","","51","1,1,1","1","city","55","probe-138","0.21817634208547457","0.24401567211282602","0.5977813465144767","1","","","","","","","",""
"","html-keyboard-response","187","686949","0.0-106.0-1.0","null","<p></p>","null","","","","","","","","","","","","","","","","","","",""
"","do_trial","188","692043","0.0-107.0-0.0","554.5","","","","49","0,0,0","1","city","56","probe-206","0.21350916448735532","0.15119282227881997","0.6571132074613755","0","","","","","","","",""
"","html-keyboard-response","189","693045","0.0-107.0-1.0","null","<p></p>","null","","","","","","","","","","","","","","","","","","",""
"","do_trial","190","698345","0.0-108.0-0.0","762.5","","","","49","0,0,1","1","city","57","probe-187","0.2964763195759995","0.09795095210834888","0.6568914551960492","0","","","","","","","",""
"","html-keyboard-response","191","699349","0.0-108.0-1.0","null","<p></p>","null","","","","","","","","","","","","","","","","","","",""
"","do_trial","192","704388","0.0-109.0-0.0","499.2999999523163","","","","51","0,0,0","1","city","58","probe-31","0.29668090787516777","0.3239064340772964","0.6386523954548684","0","","","","","","","",""
"","html-keyboard-response","193","705392","0.0-109.0-1.0","null","<p></p>","null","","","","","","","","","","","","","","","","","","",""
"","do_trial","194","710552","0.0-110.0-0.0","623.8999999761581","","","","50","0,0,1","1","city","59","probe-131","0.28211701737722594","0.3148135330866621","0.7176180972081032","0","","","","","","","",""
"","html-keyboard-response","195","711557","0.0-110.0-1.0","null","<p></p>","null","","","","","","","","","","","","","","","","","","",""
"","do_trial","196","716526","0.0-111.0-0.0","427.5","","","","49","0,1,1","1","city","60","probe-34","0.30815958676313737","0.26249589533761986","0.7483344065060713","0","","","","","","","",""
"","html-keyboard-response","197","717530","0.0-111.0-1.0","null","<p></p>","null","","","","","","","","","","","","","","","","","","",""
"","do_trial","198","722325","0.0-112.0-0.0","254.70000004768372","","","","49","0,1,1","1","city","61","probe-101","0.27033329271377876","0.1907973920870581","0.8247961382763043","0","","","","","","","",""
"","html-keyboard-response","199","723328","0.0-112.0-1.0","null","<p></p>","null","","","","","","","","","","","","","","","","","","",""
"","do_trial","200","728658","0.0-113.0-0.0","791.3000000715256","","","","49","0,0,1","1","city","62","probe-107","0.1849233742336149","0.3472297841418519","0.7673726450960863","0","","","","","","","",""
"","html-keyboard-response","201","729662","0.0-113.0-1.0","null","<p></p>","null","","","","","","","","","","","","","","","","","","",""
"","do_trial","202","736674","0.0-114.0-0.0","2476.100000023842","","","","49","0,0,0","1","city","63","probe-48","0.15286801575798833","0.3120498253639818","0.6591475872915646","0","","","","","","","",""
"","html-keyboard-response","203","737678","0.0-114.0-1.0","null","<p></p>","null","","","","","","","","","","","","","","","","","","",""
"","do_trial","204","743379","0.0-115.0-0.0","1162.5","","","","50","0,0,1","1","city","64","probe-183","0.20683250693068914","0.3638132279976777","0.6769421793290762","0","","","","","","","",""
"","html-keyboard-response","205","744383","0.0-115.0-1.0","null","<p></p>","null","","","","","","","","","","","","","","","","","","",""
"","do_trial","206","751506","0.0-116.0-0.0","2580.899999976158","","","","51","0,1,0","1","city","65","probe-96","0.20725181405671197","0.3103988705788102","0.5530303603847123","0","","","","","","","",""
"","html-keyboard-response","207","752510","0.0-116.0-1.0","null","<p></p>","null","","","","","","","","","","","","","","","","","","",""
"","do_trial","208","757578","0.0-117.0-0.0","530.3000000715256","","","","50","0,0,1","1","city","66","probe-173","0.3032373563762792","0.298164849103261","0.4562197354733025","0","","","","","","","",""
"","html-keyboard-response","209","758581","0.0-117.0-1.0","null","<p></p>","null","","","","","","","","","","","","","","","","","","",""
"","do_trial","210","763528","0.0-118.0-0.0","409.60000002384186","","","","49","0,0,1","1","city","67","probe-41","0.18187260606981212","0.13484781756329128","0.6183803851739146","0","","","","","","","",""
"","html-keyboard-response","211","764533","0.0-118.0-1.0","null","<p></p>","null","","","","","","","","","","","","","","","","","","",""
"","do_trial","212","769425","0.0-119.0-0.0","354.60000002384186","","","","49","1,0,0","1","city","68","probe-16","0.24399326910892502","0.19343181770979143","0.580925692003278","1","","","","","","","",""
"","html-keyboard-response","213","770430","0.0-119.0-1.0","null","<p></p>","null","","","","","","","","","","","","","","","","","","",""
"","do_trial","214","775375","0.0-120.0-0.0","405.10000002384186","","","","49","1,0,0","1","city","69","probe-166","0.28560580741307623","0.05081774652231509","0.5357188198248457","1","","","","","","","",""
"","html-keyboard-response","215","776379","0.0-120.0-1.0","null","<p></p>","null","","","","","","","","","","","","","","","","","","",""
"","do_bye","216","777884","0.0-121.0-0.0","null","","","","null","","","","","","","","","","","","","","","","",""
"","do_travel","217","783891","0.0-122.0-0.0","null","","","","null","","","","","","","","","","","","","","","","",""
"","do_welcome","218","785400","0.0-122.0-1.0","null","","","","null","","","","","","","","","","","","","","","","",""
"","do_trial","219","791443","0.0-123.0-0.0","null","","","","null","0,0,1","2","forest","70","probe-127","0.3750779434406982","0.11447455048938135","1","","","","","","","","",""
"","html-keyboard-response","220","792447","0.0-123.0-1.0","null","<p></p>","null","","","","","","","","","","","","","","","","","","",""
"","do_trial","221","797347","0.0-124.0-0.0","358.7999999523163","","","","50","1,0,1","2","forest","71","probe-83","0.38265342107812017","0.12253808646220915","1","0","","","","","","","",""
"","html-keyboard-response","222","798350","0.0-124.0-1.0","null","<p></p>","null","","","","","","","","","","","","","","","","","","",""
"","do_trial","223","803459","0.0-125.0-0.0","569","","","","51","1,0,1","2","forest","72","probe-146","0.3467282073187509","0.17866053633197979","0.8669843809185466","1","","","","","","","",""
"","html-keyboard-response","224","804463","0.0-125.0-1.0","null","<p></p>","null","","","","","","","","","","","","","","","","","","",""
"","do_trial","225","809583","0.0-126.0-0.0","577.1000000238419","","","","51","0,0,1","2","forest","73","probe-05","0.28768517654837994","0.09450761414851437","0.7672812974418161","1","","","","","","","",""
"","html-keyboard-response","226","810589","0.0-126.0-1.0","null","<p></p>","null","","","","","","","","","","","","","","","","","","",""
"","do_trial","227","815552","0.0-127.0-0.0","424","","","","51","1,1,1","2","forest","74","probe-09","0.3257647491450384","0.08312814222871323","0.5202028816739387","1","","","","","","","",""
"","html-keyboard-response","228","816555","0.0-127.0-1.0","null","<p></p>","null","","","","","","","","","","","","","","","","","","",""
"","do_trial","229","821733","0.0-128.0-0.0","636.8999999761581","","","","51","0,0,0","2","forest","75","probe-191","0.2715400072178759","0.06622444904601534","0.52096511848913","0","","","","","","","",""
"","html-keyboard-response","230","822736","0.0-128.0-1.0","null","<p></p>","null","","","","","","","","","","","","","","","","","","",""
"","do_trial","231","827727","0.0-129.0-0.0","450.60000002384186","","","","51","1,0,0","2","forest","76","probe-60","0.11167550349381813","0.06321443752958142","0.6504900755848374","0","","","","","","","",""
"","html-keyboard-response","232","828731","0.0-129.0-1.0","null","<p></p>","null","","","","","","","","","","","","","","","","","","",""
"","do_trial","233","833755","0.0-130.0-0.0","482.89999997615814","","","","51","1,0,0","2","forest","77","probe-13","0.25958974421651493","0.1258654412267592","0.517216289227619","0","","","","","","","",""
"","html-keyboard-response","234","834759","0.0-130.0-1.0","null","<p></p>","null","","","","","","","","","","","","","","","","","","",""
"","do_trial","235","839809","0.0-131.0-0.0","510.60000002384186","","","","51","1,0,1","2","forest","78","probe-184","0.335992653240092","0.15829577205332765","0.6220290768545319","1","","","","","","","",""
"","html-keyboard-response","236","840813","0.0-131.0-1.0","null","<p></p>","null","","","","","","","","","","","","","","","","","","",""
"","do_trial","237","845875","0.0-132.0-0.0","523.2000000476837","","","","51","0,0,1","2","forest","79","probe-113","0.4475633947122902","0.13528393359976118","0.661500717302041","1","","","","","","","",""
"","html-keyboard-response","238","846878","0.0-132.0-1.0","null","<p></p>","null","","","","","","","","","","","","","","","","","","",""
"","do_trial","239","851736","0.0-133.0-0.0","317.60000002384186","","","","51","1,0,1","2","forest","80","probe-54","0.5915797331440169","0.1795778617414334","0.6358772109364491","1","","","","","","","",""
"","html-keyboard-response","240","852738","0.0-133.0-1.0","null","<p></p>","null","","","","","","","","","","","","","","","","","","",""
"","do_trial","241","857723","0.0-134.0-0.0","442.1999999284744","","","","51","1,1,0","2","forest","81","probe-52","0.690651095132524","0.17478419369634604","0.5814978696036159","0","","","","","","","",""
"","html-keyboard-response","242","858726","0.0-134.0-1.0","null","<p></p>","null","","","","","","","","","","","","","","","","","","",""
"","do_trial","243","863853","0.0-135.0-0.0","585.2999999523163","","","","51","0,0,0","2","forest","82","probe-62","0.5005313138088335","0.2734237345504404","0.33580050288672103","0","","","","","","","",""
"","html-keyboard-response","244","864857","0.0-135.0-1.0","null","<p></p>","null","","","","","","","","","","","","","","","","","","",""
"","do_trial","245","869663","0.0-136.0-0.0","266.7999999523163","","","","51","1,0,0","2","forest","83","probe-123","0.3035058212895114","0.35285933628564936","0.292883014908859","0","","","","","","","",""
"","html-keyboard-response","246","870667","0.0-136.0-1.0","null","<p></p>","null","","","","","","","","","","","","","","","","","","",""
"","do_trial","247","875828","0.0-137.0-0.0","619","","","","51","1,0,0","2","forest","84","probe-185","0.3685352374337433","0.3129787893930535","0.27693104794123385","0","","","","","","","",""
"","html-keyboard-response","248","876832","0.0-137.0-1.0","null","<p></p>","null","","","","","","","","","","","","","","","","","","",""
"","do_trial","249","881871","0.0-138.0-0.0","501.8000000715256","","","","51","0,0,0","2","forest","85","probe-139","0.24015165138406136","0.32251205838224084","0.14592626069892864","0","","","","","","","",""
"","html-keyboard-response","250","882875","0.0-138.0-1.0","null","<p></p>","null","","","","","","","","","","","","","","","","","","",""
"","do_trial","251","887838","0.0-139.0-0.0","424.2000000476837","","","","49","1,0,0","2","forest","86","probe-203","0.22829347812944814","0.35084044920829044","0.3034059548395725","1","","","","","","","",""
"","html-keyboard-response","252","888842","0.0-139.0-1.0","null","<p></p>","null","","","","","","","","","","","","","","","","","","",""
"","do_trial","253","894299","0.0-140.0-0.0","914.8000000715256","","","","49","0,0,0","2","forest","87","probe-219","0.23381315757559237","0.4845426681479033","0.26474783460070717","0","","","","","","","",""
"","html-keyboard-response","254","895303","0.0-140.0-1.0","null","<p></p>","null","","","","","","","","","","","","","","","","","","",""
"","do_trial","255","901734","0.0-141.0-0.0","1890.5999999046326","","","","50","1,1,0","2","forest","88","probe-68","0.25157968824729","0.46311721040105264","0.12698624453513277","1","","","","","","","",""
"","html-keyboard-response","256","902739","0.0-141.0-1.0","null","<p></p>","null","","","","","","","","","","","","","","","","","","",""
"","do_trial","257","907888","0.0-142.0-0.0","609.5","","","","49","0,1,0","2","forest","89","probe-196","0.3139284637782313","0.5337070764806578","0.17949918665843803","0","","","","","","","",""
"","html-keyboard-response","258","908892","0.0-142.0-1.0","null","<p></p>","null","","","","","","","","","","","","","","","","","","",""
"","do_trial","259","914465","0.0-143.0-0.0","1036.1000000238419","","","","50","0,1,0","2","forest","90","probe-67","0.2654575895832623","0.514164870776861","0.18944438635314764","1","","","","","","","",""
"","html-keyboard-response","260","915469","0.0-143.0-1.0","null","<p></p>","null","","","","","","","","","","","","","","","","","","",""
"","do_trial","261","920612","0.0-144.0-0.0","602.2000000476837","","","","51","0,1,1","2","forest","91","probe-177","0.15828941860800907","0.41279610066384015","0.26175629912066695","1","","","","","","","",""
"","html-keyboard-response","262","921616","0.0-144.0-1.0","null","<p></p>","null","","","","","","","","","","","","","","","","","","",""
"","do_trial","263","926748","0.0-145.0-0.0","594.3999999761581","","","","49","0,0,0","2","forest","92","probe-23","0.0584067211617505","0.4880250426205514","0.23894871067390974","0","","","","","","","",""
"","html-keyboard-response","264","927752","0.0-145.0-1.0","null","<p></p>","null","","","","","","","","","","","","","","","","","","",""
"","do_trial","265","933412","0.0-146.0-0.0","1123","","","","50","0,1,1","2","forest","93","probe-211","0.10488365202348748","0.481616199317362","0.1419011046239182","1","","","","","","","",""
"","html-keyboard-response","266","934416","0.0-146.0-1.0","null","<p></p>","null","","","","","","","","","","","","","","","","","","",""
"","do_trial","267","940128","0.0-147.0-0.0","1171","","","","51","0,0,0","2","forest","94","probe-47","0.17456709370401058","0.6460214891379849","0.2970080756092532","0","","","","","","","",""
"","html-keyboard-response","268","941132","0.0-147.0-1.0","null","<p></p>","null","","","","","","","","","","","","","","","","","","",""
"","do_trial","269","946444","0.0-148.0-0.0","771.2000000476837","","","","49","0,0,0","2","forest","95","probe-30","0.10521949586216366","0.5520092700225103","0.3227163775671615","0","","","","","","","",""
"","html-keyboard-response","270","947448","0.0-148.0-1.0","null","<p></p>","null","","","","","","","","","","","","","","","","","","",""
"","do_trial","271","952631","0.0-149.0-0.0","641.3000000715256","","","","50","1,1,1","2","forest","96","probe-102","0.11691127808654017","0.5922400381141364","0.3164350511751146","1","","","","","","","",""
"","html-keyboard-response","272","953636","0.0-149.0-1.0","null","<p></p>","null","","","","","","","","","","","","","","","","","","",""
"","do_trial","273","959005","0.0-150.0-0.0","829.7999999523163","","","","50","1,1,0","2","forest","97","probe-152","0.05294353776214675","0.6902492264030907","0.29948659563172336","1","","","","","","","",""
"","html-keyboard-response","274","960009","0.0-150.0-1.0","null","<p></p>","null","","","","","","","","","","","","","","","","","","",""
"","do_trial","275","965205","0.0-151.0-0.0","658.2999999523163","","","","51","0,1,1","2","forest","98","probe-86","0.06381080695355766","0.6492114511745806","0.2947478930290369","1","","","","","","","",""
"","html-keyboard-response","276","966209","0.0-151.0-1.0","null","<p></p>","null","","","","","","","","","","","","","","","","","","",""
"","do_trial","277","971527","0.0-152.0-0.0","776.7000000476837","","","","50","0,1,1","2","forest","99","probe-46","0.1469497433460252","0.5405908137800797","0.35229850640346355","1","","","","","","","",""
"","html-keyboard-response","278","972530","0.0-152.0-1.0","null","<p></p>","null","","","","","","","","","","","","","","","","","","",""
"","do_trial","279","977529","0.0-153.0-0.0","459.7999999523163","","","","51","0,0,0","2","forest","100","probe-104","0.08798143727808988","0.553166237519872","0.24519001068678145","0","","","","","","","",""
"","html-keyboard-response","280","978532","0.0-153.0-1.0","null","<p></p>","null","","","","","","","","","","","","","","","","","","",""
"","do_trial","281","983485","0.0-154.0-0.0","412.7000000476837","","","","50","0,0,0","2","forest","101","probe-106","0.1290625733262396","0.5590623984833502","0.20424367963849496","0","","","","","","","",""
"","html-keyboard-response","282","984490","0.0-154.0-1.0","null","<p></p>","null","","","","","","","","","","","","","","","","","","",""
"","do_trial","283","989487","0.0-155.0-0.0","458.2000000476837","","","","51","0,0,0","2","forest","102","probe-93","0.09369372714337626","0.6476479616468717","0.2222546286257103","0","","","","","","","",""
"","html-keyboard-response","284","990490","0.0-155.0-1.0","null","<p></p>","null","","","","","","","","","","","","","","","","","","",""
"","do_trial","285","995326","0.0-156.0-0.0","301.2000000476837","","","","49","0,1,0","2","forest","103","probe-223","0.17068148631789548","0.5646690555655395","0.4249788722639559","0","","","","","","","",""
"","html-keyboard-response","286","996330","0.0-156.0-1.0","null","<p></p>","null","","","","","","","","","","","","","","","","","","",""
"","do_trial","287","1001444","0.0-157.0-0.0","572.7999999523163","","","","50","0,1,0","2","forest","104","probe-167","0.19739826418022877","0.58356703126279","0.20074539547102885","1","","","","","","","",""
"","html-keyboard-response","288","1002449","0.0-157.0-1.0","null","<p></p>","null","","","","","","","","","","","","","","","","","","",""
"","do_trial","289","1007394","0.0-158.0-0.0","405.8000000715256","","","","50","0,0,1","2","forest","105","probe-79","0.19654228099932622","0.4792661125308103","0.2967917160078137","0","","","","","","","",""
"","html-keyboard-response","290","1008399","0.0-158.0-1.0","null","<p></p>","null","","","","","","","","","","","","","","","","","","",""
"","do_trial","291","1013240","0.0-159.0-0.0","300.89999997615814","","","","51","0,0,0","2","forest","106","probe-110","0.11162647984637981","0.5325999339892578","0.283525069156944","0","","","","","","","",""
"","html-keyboard-response","292","1014244","0.0-159.0-1.0","null","<p></p>","null","","","","","","","","","","","","","","","","","","",""
"","do_trial","293","1019278","0.0-160.0-0.0","496.5","","","","49","0,0,0","2","forest","107","probe-153","0.0525985341301805","0.5738854375501667","0.3650562227919986","0","","","","","","","",""
"","html-keyboard-response","294","1020281","0.0-160.0-1.0","null","<p></p>","null","","","","","","","","","","","","","","","","","","",""
"","do_trial","295","1025156","0.0-161.0-0.0","332.3000000715256","","","","50","0,1,0","2","forest","108","probe-145","0.11728215355813607","0.6046907418423169","0.2505517262342834","1","","","","","","","",""
"","html-keyboard-response","296","1026162","0.0-161.0-1.0","null","<p></p>","null","","","","","","","","","","","","","","","","","","",""
"","do_trial","297","1031189","0.0-162.0-0.0","486.09999990463257","","","","50","0,0,0","2","forest","109","probe-65","0.17554132291959484","0.5502181840858209","0.27765763713025693","0","","","","","","","",""
"","html-keyboard-response","298","1032192","0.0-162.0-1.0","null","<p></p>","null","","","","","","","","","","","","","","","","","","",""
"","do_bye","299","1033697","0.0-163.0-0.0","null","","","","null","","","","","","","","","","","","","","","","",""
"","do_travel","300","1039702","0.0-164.0-0.0","null","","","","null","","","","","","","","","","","","","","","","",""
"","do_welcome","301","1041208","0.0-164.0-1.0","null","","","","null","","","","","","","","","","","","","","","","",""
"","do_trial","302","1046623","0.0-165.0-0.0","878.5999999046326","","","","49","0,1,1","3","mountain","110","probe-198","0.24786962743490715","1","0.36186690313613235","0","","","","","","","",""
"","html-keyboard-response","303","1047628","0.0-165.0-1.0","null","<p></p>","null","","","","","","","","","","","","","","","","","","",""
"","do_trial","304","1052591","0.0-166.0-0.0","422.39999997615814","","","","50","0,1,1","3","mountain","111","probe-37","0.1248720991204241","1","0.20059266009297777","1","","","","","","","",""
"","html-keyboard-response","305","1053595","0.0-166.0-1.0","null","<p></p>","null","","","","","","","","","","","","","","","","","","",""
"","do_trial","306","1058431","0.0-167.0-0.0","294.3000000715256","","","","50","0,1,1","3","mountain","112","probe-75","0.07979583916433314","0.7828309005437072","0.2077031353890351","1","","","","","","","",""
"","html-keyboard-response","307","1059434","0.0-167.0-1.0","null","<p></p>","null","","","","","","","","","","","","","","","","","","",""
"","do_trial","308","1064336","0.0-168.0-0.0","363.7000000476837","","","","50","0,0,0","3","mountain","113","probe-89","0.13964769247643283","0.7561800308668691","0.263527977640245","0","","","","","","","",""
"","html-keyboard-response","309","1065338","0.0-168.0-1.0","null","<p></p>","null","","","","","","","","","","","","","","","","","","",""
"","do_trial","310","1070306","0.0-169.0-0.0","427.1999999284744","","","","50","1,1,0","3","mountain","114","probe-24","0.08266740647667621","0.8978530080518912","0.3268816078231579","1","","","","","","","",""
"","html-keyboard-response","311","1071312","0.0-169.0-1.0","null","<p></p>","null","","","","","","","","","","","","","","","","","","",""
"","do_trial","312","1076577","0.0-170.0-0.0","724.8999999761581","","","","50","1,1,0","3","mountain","115","probe-59","0.14157975596750855","0.7029065550518953","0.4092428038789171","1","","","","","","","",""
"","html-keyboard-response","313","1077582","0.0-170.0-1.0","null","<p></p>","null","","","","","","","","","","","","","","","","","","",""
"","do_trial","314","1082812","0.0-171.0-0.0","691.9000000953674","","","","50","0,1,0","3","mountain","116","probe-91","0.17755963893927595","0.6044596768470804","0.2866179510937033","1","","","","","","","",""
"","html-keyboard-response","315","1083815","0.0-171.0-1.0","null","<p></p>","null","","","","","","","","","","","","","","","","","","",""
"","do_trial","316","1088875","0.0-172.0-0.0","519.1999999284744","","","","50","0,1,0","3","mountain","117","probe-182","0.1399325952537995","0.6020790401633993","0.2557948765574901","1","","","","","","","",""
"","html-keyboard-response","317","1089876","0.0-172.0-1.0","null","<p></p>","null","","","","","","","","","","","","","","","","","","",""
"","do_trial","318","1094972","0.0-173.0-0.0","558.2000000476837","","","","50","0,0,0","3","mountain","118","probe-01","0.16666933389430025","0.552653030975132","0.2318039732853608","0","","","","","","","",""
"","html-keyboard-response","319","1095976","0.0-173.0-1.0","null","<p></p>","null","","","","","","","","","","","","","","","","","","",""
"","do_trial","320","1101062","0.0-174.0-0.0","544.8000000715256","","","","50","0,1,0","3","mountain","119","probe-120","0.16454834638823407","0.49164857962815667","0.19338498550565092","1","","","","","","","",""
"","html-keyboard-response","321","1102065","0.0-174.0-1.0","null","<p></p>","null","","","","","","","","","","","","","","","","","","",""
"","do_trial","322","1107142","0.0-175.0-0.0","537.3000000715256","","","","50","0,0,0","3","mountain","120","probe-90","0.324556630843225","0.6327735562336604","0.22312611052995368","0","","","","","","","",""
"","html-keyboard-response","323","1108143","0.0-175.0-1.0","null","<p></p>","null","","","","","","","","","","","","","","","","","","",""
"","do_trial","324","1113007","0.0-176.0-0.0","322.39999997615814","","","","50","1,0,0","3","mountain","121","probe-179","0.3508373402846782","0.42395508628418044","0.09238445722312803","0","","","","","","","",""
"","html-keyboard-response","325","1114012","0.0-176.0-1.0","null","<p></p>","null","","","","","","","","","","","","","","","","","","",""
"","do_trial","326","1118865","0.0-177.0-0.0","314.6999999284744","","","","50","1,1,1","3","mountain","122","probe-165","0.5639890152722952","0.19398090823103553","0.17594203723815294","1","","","","","","","",""
"","html-keyboard-response","327","1119869","0.0-177.0-1.0","null","<p></p>","null","","","","","","","","","","","","","","","","","","",""
"","do_trial","328","1125163","0.0-178.0-0.0","756.1000000238419","","","","50","1,0,0","3","mountain","123","probe-06","0.5148805145847982","0.12701459661942874","0.16046271074505827","0","","","","","","","",""
"","html-keyboard-response","329","1126167","0.0-178.0-1.0","null","<p></p>","null","","","","","","","","","","","","","","","","","","",""
"","do_trial","330","1131171","0.0-179.0-0.0","466.5","","","","50","1,0,0","3","mountain","124","probe-45","0.6645064529070632","0.1259068362604942","0.07091824611278687","0","","","","","","","",""
"","html-keyboard-response","331","1132175","0.0-179.0-1.0","null","<p></p>","null","","","","","","","","","","","","","","","","","","",""
"","do_trial","332","1137063","0.0-180.0-0.0","350","","","","50","0,0,0","3","mountain","125","probe-35","0.6689723588113675","0.09016549306077425","0.25741287251688816","0","","","","","","","",""
"","html-keyboard-response","333","1138067","0.0-180.0-1.0","null","<p></p>","null","","","","","","","","","","","","","","","","","","",""
"","do_trial","334","1142961","0.0-181.0-0.0","354.40000009536743","","","","50","1,0,0","3","mountain","126","probe-164","0.6570522586595681","0.08200905755468166","0.38527345803905255","0","","","","","","","",""
"","html-keyboard-response","335","1143965","0.0-181.0-1.0","null","<p></p>","null","","","","","","","","","","","","","","","","","","",""
"","do_trial","336","1148882","0.0-182.0-0.0","379.8000000715256","","","","51","1,0,1","3","mountain","127","probe-55","0.7749454166750076","0.1729394749456039","0.34505268282706136","1","","","","","","","",""
"","html-keyboard-response","337","1149886","0.0-182.0-1.0","null","<p></p>","null","","","","","","","","","","","","","","","","","","",""
"","do_trial","338","1154849","0.0-183.0-0.0","425.7000000476837","","","","51","1,0,0","3","mountain","128","probe-220","0.7377191781189185","0.1967637165356392","0.059054829946761166","0","","","","","","","",""
"","html-keyboard-response","339","1155853","0.0-183.0-1.0","null","<p></p>","null","","","","","","","","","","","","","","","","","","",""
"","do_trial","340","1160735","0.0-184.0-0.0","341.59999990463257","","","","49","0,0,0","3","mountain","129","probe-229","0.7343786244448411","0.07716730186857738","0.2572183071618174","0","","","","","","","",""
"","html-keyboard-response","341","1161740","0.0-184.0-1.0","null","<p></p>","null","","","","","","","","","","","","","","","","","","",""
"","do_trial","342","1166552","0.0-185.0-0.0","274.8000000715256","","","","50","1,0,0","3","mountain","130","probe-44","0.7483115612599548","0.12128791771554438","0.16408321685394378","0","","","","","","","",""
"","html-keyboard-response","343","1167556","0.0-185.0-1.0","null","<p></p>","null","","","","","","","","","","","","","","","","","","",""
"","do_trial","344","1172589","0.0-186.0-0.0","492.6999999284744","","","","50","1,0,0","3","mountain","131","probe-176","0.7898048936810861","0.073799801695333","0.10699449358377429","0","","","","","","","",""
"","html-keyboard-response","345","1173592","0.0-186.0-1.0","null","<p></p>","null","","","","","","","","","","","","","","","","","","",""
"","do_trial","346","1178423","0.0-187.0-0.0","288.7999999523163","","","","51","0,0,0","3","mountain","132","probe-66","0.6317801522548581","0.07365357086151361","0.07977786926138844","0","","","","","","","",""
"","html-keyboard-response","347","1179427","0.0-187.0-1.0","null","<p></p>","null","","","","","","","","","","","","","","","","","","",""
"","do_trial","348","1184931","0.0-188.0-0.0","966.3999999761581","","","","50","0,1,0","3","mountain","133","probe-129","0.592335948631159","0.12839084256474934","0.1391429012392999","1","","","","","","","",""
"","html-keyboard-response","349","1185934","0.0-188.0-1.0","null","<p></p>","null","","","","","","","","","","","","","","","","","","",""
"","do_trial","350","1190868","0.0-189.0-0.0","394","","","","50","1,0,0","3","mountain","134","probe-03","0.44690453363216287","0.10827750277178717","0.24500867952147384","0","","","","","","","",""
"","html-keyboard-response","351","1191872","0.0-189.0-1.0","null","<p></p>","null","","","","","","","","","","","","","","","","","","",""
"","do_trial","352","1196749","0.0-190.0-0.0","334.5","","","","50","0,0,0","3","mountain","135","probe-128","0.4950863866962157","0.17257283141009602","0.3450406315095168","0","","","","","","","",""
"","html-keyboard-response","353","1197752","0.0-190.0-1.0","null","<p></p>","null","","","","","","","","","","","","","","","","","","",""
"","do_trial","354","1202695","0.0-191.0-0.0","401.5","","","","51","1,0,1","3","mountain","136","probe-180","0.4990187044118304","0.08300248640285689","0.3090557527997131","1","","","","","","","",""
"","html-keyboard-response","355","1203697","0.0-191.0-1.0","null","<p></p>","null","","","","","","","","","","","","","","","","","","",""
"","do_trial","356","1209090","0.0-192.0-0.0","854.3000000715256","","","","51","0,0,0","3","mountain","137","probe-88","0.49780956545950467","0.17931087555993996","0.2837083974854447","0","","","","","","","",""
"","html-keyboard-response","357","1210093","0.0-192.0-1.0","null","<p></p>","null","","","","","","","","","","","","","","","","","","",""
"","do_trial","358","1215159","0.0-193.0-0.0","525.2000000476837","","","","50","1,0,0","3","mountain","138","probe-212","0.5958144347940197","0.2727162732415311","0.16067540612282968","0","","","","","","","",""
"","html-keyboard-response","359","1216162","0.0-193.0-1.0","null","<p></p>","null","","","","","","","","","","","","","","","","","","",""
"","do_trial","360","1221599","0.0-194.0-0.0","897.5999999046326","","","","51","0,0,1","3","mountain","139","probe-14","0.6093160355657489","0.3438138678967732","0.18692826714550317","1","","","","","","","",""
"","html-keyboard-response","361","1222603","0.0-194.0-1.0","null","<p></p>","null","","","","","","","","","","","","","","","","","","",""
"","do_trial","362","1227596","0.0-195.0-0.0","455.10000002384186","","","","51","1,1,1","3","mountain","140","probe-103","0.645035903531591","0.2523416467529272","0.375134229704074","1","","","","","","","",""
"","html-keyboard-response","363","1228599","0.0-195.0-1.0","null","<p></p>","null","","","","","","","","","","","","","","","","","","",""
"","do_trial","364","1233609","0.0-196.0-0.0","470.8000000715256","","","","51","1,0,0","3","mountain","141","probe-29","0.6773626083011423","0.16129912575791353","0.31983218698580684","0","","","","","","","",""
"","html-keyboard-response","365","1234613","0.0-196.0-1.0","null","<p></p>","null","","","","","","","","","","","","","","","","","","",""
"","do_trial","366","1239899","0.0-197.0-0.0","744.8999999761581","","","","50","1,0,1","3","mountain","142","probe-227","0.6734126130690927","0.1489795769357599","0.3913884013703672","0","","","","","","","",""
"","html-keyboard-response","367","1240900","0.0-197.0-1.0","null","<p></p>","null","","","","","","","","","","","","","","","","","","",""
"","do_trial","368","1246345","0.0-198.0-0.0","904.6000000238419","","","","51","0,1,0","3","mountain","143","probe-109","0.5795388537974053","0.2227496078501933","0.34378043457814833","0","","","","","","","",""
"","html-keyboard-response","369","1247351","0.0-198.0-1.0","null","<p></p>","null","","","","","","","","","","","","","","","","","","",""
"","do_trial","370","1252243","0.0-199.0-0.0","350","","","","49","0,0,0","3","mountain","144","probe-51","0.6000400456247048","0.08665671394677261","0.22752145281287287","0","","","","","","","",""
"","html-keyboard-response","371","1253248","0.0-199.0-1.0","null","<p></p>","null","","","","","","","","","","","","","","","","","","",""
"","do_trial","372","1258082","0.0-200.0-0.0","293.5","","","","50","1,0,1","3","mountain","145","probe-228","0.5562197547350034","0.20764167768838718","0.2322820501923433","0","","","","","","","",""
"","html-keyboard-response","373","1259086","0.0-200.0-1.0","null","<p></p>","null","","","","","","","","","","","","","","","","","","",""
"","do_trial","374","1263916","0.0-201.0-0.0","287","","","","50","1,0,0","3","mountain","146","probe-154","0.5199638784961068","0.1475729590097173","0.3786348529859751","0","","","","","","","",""
"","html-keyboard-response","375","1264920","0.0-201.0-1.0","null","<p></p>","null","","","","","","","","","","","","","","","","","","",""
"","do_trial","376","1270265","0.0-202.0-0.0","803.8999999761581","","","","50","1,0,1","3","mountain","147","probe-160","0.5529279873739712","0.126205931893135","0.3652727058600799","0","","","","","","","",""
"","html-keyboard-response","377","1271268","0.0-202.0-1.0","null","<p></p>","null","","","","","","","","","","","","","","","","","","",""
"","do_trial","378","1276437","0.0-203.0-0.0","631.2000000476837","","","","50","1,0,1","3","mountain","148","probe-10","0.5283445607765858","0.08050376142345812","0.2907782981524557","0","","","","","","","",""
"","html-keyboard-response","379","1277441","0.0-203.0-1.0","null","<p></p>","null","","","","","","","","","","","","","","","","","","",""
"","do_trial","380","1282642","0.0-204.0-0.0","660.1000000238419","","","","50","0,0,0","3","mountain","149","probe-216","0.6035742865181566","0.0847224290175702","0.23270250793211975","0","","","","","","","",""
"","html-keyboard-response","381","1283647","0.0-204.0-1.0","null","<p></p>","null","","","","","","","","","","","","","","","","","","",""
"","do_bye","382","1285156","0.0-205.0-0.0","null","","","","null","","","","","","","","","","","","","","","","",""
"","do_travel","383","1291158","0.0-206.0-0.0","null","","","","null","","","","","","","","","","","","","","","","",""
"","do_welcome","384","1292668","0.0-206.0-1.0","null","","","","null","","","","","","","","","","","","","","","","",""
"","do_trial","385","1298032","0.0-207.0-0.0","823.5","","","","49","1,0,0","4","coast","150","probe-56","1","0.11432166290775911","0.22013072162010514","1","","","","","","","",""
"","html-keyboard-response","386","1299035","0.0-207.0-1.0","null","<p></p>","null","","","","","","","","","","","","","","","","","","",""
"","do_trial","387","1304266","0.0-208.0-0.0","691.7000000476837","","","","49","1,0,1","4","coast","151","probe-151","1","0.17343518867866814","0.2590657582110645","1","","","","","","","",""
"","html-keyboard-response","388","1305270","0.0-208.0-1.0","null","<p></p>","null","","","","","","","","","","","","","","","","","","",""
"","do_trial","389","1310355","0.0-209.0-0.0","545.5","","","","49","1,1,0","4","coast","152","probe-133","0.7758439910836041","0.0900615911917021","0.38163895322646185","1","","","","","","","",""
"","html-keyboard-response","390","1311359","0.0-209.0-1.0","null","<p></p>","null","","","","","","","","","","","","","","","","","","",""
"","do_trial","391","1316450","0.0-210.0-0.0","548.8999999761581","","","","49","1,0,0","4","coast","153","probe-17","0.687357108650977","0.15012348183641805","0.27806212623019694","1","","","","","","","",""
"","html-keyboard-response","392","1317454","0.0-210.0-1.0","null","<p></p>","null","","","","","","","","","","","","","","","","","","",""
"","do_trial","393","1322487","0.0-211.0-0.0","493.5","","","","49","1,0,0","4","coast","154","probe-33","0.7461299390975887","0.09403121204291097","0.21486329645925634","1","","","","","","","",""
"","html-keyboard-response","394","1323491","0.0-211.0-1.0","null","<p></p>","null","","","","","","","","","","","","","","","","","","",""
"","do_trial","395","1328681","0.0-212.0-0.0","647.9000000953674","","","","49","1,1,0","4","coast","155","probe-74","0.799927385830578","0.06680341155532546","0.2722141755165041","1","","","","","","","",""
"","html-keyboard-response","396","1329685","0.0-212.0-1.0","null","<p></p>","null","","","","","","","","","","","","","","","","","","",""
"","do_trial","397","1334892","0.0-213.0-0.0","669.2999999523163","","","","49","1,0,0","4","coast","156","probe-39","0.7341119324785774","0.08177166054339843","0.2568626257487696","1","","","","","","","",""
"","html-keyboard-response","398","1335896","0.0-213.0-1.0","null","<p></p>","null","","","","","","","","","","","","","","","","","","",""
"","do_trial","399","1340889","0.0-214.0-0.0","453.5","","","","49","1,1,1","4","coast","157","probe-197","0.6513638050920173","0.15479200590069597","0.2871941897457179","1","","","","","","","",""
"","html-keyboard-response","400","1341892","0.0-214.0-1.0","null","<p></p>","null","","","","","","","","","","","","","","","","","","",""
"","do_trial","401","1347053","0.0-215.0-0.0","622.8999999761581","","","","49","1,1,1","4","coast","158","probe-135","0.7642543279728838","0.27544553166278746","0.27276334299554233","1","","","","","","","",""
"","html-keyboard-response","402","1348057","0.0-215.0-1.0","null","<p></p>","null","","","","","","","","","","","","","","","","","","",""
"","do_trial","403","1353439","0.0-216.0-0.0","842.2999999523163","","","","49","1,0,0","4","coast","159","probe-213","0.5910936019465443","0.11994854410021574","0.21049834245110738","1","","","","","","","",""
"","html-keyboard-response","404","1354442","0.0-216.0-1.0","null","<p></p>","null","","","","","","","","","","","","","","","","","","",""
"","do_trial","405","1359446","0.0-217.0-0.0","462.2000000476837","","","","49","1,0,1","4","coast","160","probe-210","0.5153836933019926","0.27527644929264145","0.17556407754529624","1","","","","","","","",""
"","html-keyboard-response","406","1360451","0.0-217.0-1.0","null","<p></p>","null","","","","","","","","","","","","","","","","","","",""
"","do_trial","407","1365460","0.0-218.0-0.0","471.2000000476837","","","","49","0,0,0","4","coast","161","probe-199","0.5454615633855607","0.27037146265784295","0.07445927090543605","0","","","","","","","",""
"","html-keyboard-response","408","1366466","0.0-218.0-1.0","null","<p></p>","null","","","","","","","","","","","","","","","","","","",""
"","do_trial","409","1371393","0.0-219.0-0.0","389.10000002384186","","","","49","0,1,0","4","coast","162","probe-192","0.48056094632332946","0.5485732983989755","0.2619622903771532","0","","","","","","","",""
"","html-keyboard-response","410","1372397","0.0-219.0-1.0","null","<p></p>","null","","","","","","","","","","","","","","","","","","",""
"","do_trial","411","1377574","0.0-220.0-0.0","641","","","","49","1,0,0","4","coast","163","probe-214","0.2215041723274581","0.681465765226403","0.2208350856362064","1","","","","","","","",""
"","html-keyboard-response","412","1378579","0.0-220.0-1.0","null","<p></p>","null","","","","","","","","","","","","","","","","","","",""
"","do_trial","413","1383648","0.0-221.0-0.0","528.3999999761581","","","","49","0,0,0","4","coast","164","probe-218","0.2555436978094741","0.7003961949081687","0.16021435813075852","0","","","","","","","",""
"","html-keyboard-response","414","1384652","0.0-221.0-1.0","null","<p></p>","null","","","","","","","","","","","","","","","","","","",""
"","do_trial","415","1389474","0.0-222.0-0.0","279.8000000715256","","","","49","0,1,0","4","coast","165","probe-174","0.2085010530665841","0.7276007496056297","0.10071340610389444","0","","","","","","","",""
"","html-keyboard-response","416","1390480","0.0-222.0-1.0","null","<p></p>","null","","","","","","","","","","","","","","","","","","",""
"","do_trial","417","1395500","0.0-223.0-0.0","483.6999999284744","","","","51","0,1,1","4","coast","166","probe-205","0.2641367743701265","0.5502052343525567","0.21692051967578746","1","","","","","","","",""
"","html-keyboard-response","418","1396505","0.0-223.0-1.0","null","<p></p>","null","","","","","","","","","","","","","","","","","","",""
"","do_trial","419","1401688","0.0-224.0-0.0","643.8000000715256","","","","50","1,1,0","4","coast","167","probe-25","0.32772685564789955","0.4828255440630803","0.21479775080817137","1","","","","","","","",""
"","html-keyboard-response","420","1402692","0.0-224.0-1.0","null","<p></p>","null","","","","","","","","","","","","","","","","","","",""
"","do_trial","421","1407923","0.0-225.0-0.0","687","","","","49","0,1,0","4","coast","168","probe-98","0.16771514378228944","0.5522302035994694","0.18634250291656096","0","","","","","","","",""
"","html-keyboard-response","422","1408926","0.0-225.0-1.0","null","<p></p>","null","","","","","","","","","","","","","","","","","","",""
"","do_trial","423","1414139","0.0-226.0-0.0","670.8999999761581","","","","50","0,0,0","4","coast","169","probe-78","0.27828719332698226","0.5959254694597519","0.20825126528491275","0","","","","","","","",""
"","html-keyboard-response","424","1415144","0.0-226.0-1.0","null","<p></p>","null","","","","","","","","","","","","","","","","","","",""
"","do_trial","425","1420119","0.0-227.0-0.0","437.1999999284744","","","","51","0,1,0","4","coast","170","probe-149","0.22574878139912646","0.5724122189833047","0.2517161693335457","0","","","","","","","",""
"","html-keyboard-response","426","1421123","0.0-227.0-1.0","null","<p></p>","null","","","","","","","","","","","","","","","","","","",""
"","do_trial","427","1426109","0.0-228.0-0.0","448.5","","","","49","1,0,0","4","coast","171","probe-221","0.17987950735976088","0.5187761617829854","0.21552605367802394","1","","","","","","","",""
"","html-keyboard-response","428","1427113","0.0-228.0-1.0","null","<p></p>","null","","","","","","","","","","","","","","","","","","",""
"","do_trial","429","1432384","0.0-229.0-0.0","733.2000000476837","","","","49","0,0,0","4","coast","172","probe-108","0.07175137084799324","0.4372607983416168","0.2537104818230058","0","","","","","","","",""
"","html-keyboard-response","430","1433389","0.0-229.0-1.0","null","<p></p>","null","","","","","","","","","","","","","","","","","","",""
"","do_trial","431","1438246","0.0-230.0-0.0","320.5","","","","49","0,1,0","4","coast","173","probe-140","0.21662884539653468","0.49405848134206964","0.22995577880299056","0","","","","","","","",""
"","html-keyboard-response","432","1439251","0.0-230.0-1.0","null","<p></p>","null","","","","","","","","","","","","","","","","","","",""
"","do_trial","433","1444099","0.0-231.0-0.0","309.60000002384186","","","","51","0,0,0","4","coast","174","probe-161","0.07598966113138746","0.5210990967416822","0.060122083165123075","0","","","","","","","",""
"","html-keyboard-response","434","1445102","0.0-231.0-1.0","null","<p></p>","null","","","","","","","","","","","","","","","","","","",""
"","do_trial","435","1450147","0.0-232.0-0.0","507.10000002384186","","","","50","0,1,0","4","coast","175","probe-80","0.1592002147887828","0.6052789172253242","0.1652966932522539","1","","","","","","","",""
"","html-keyboard-response","436","1451153","0.0-232.0-1.0","null","<p></p>","null","","","","","","","","","","","","","","","","","","",""
"","do_trial","437","1456732","0.0-233.0-0.0","1040.3999999761581","","","","50","0,1,1","4","coast","176","probe-137","0.07644382107475464","0.6988367562967734","0.2677060099815226","1","","","","","","","",""
"","html-keyboard-response","438","1457734","0.0-233.0-1.0","null","<p></p>","null","","","","","","","","","","","","","","","","","","",""
"","do_trial","439","1463089","0.0-234.0-0.0","815.7999999523163","","","","51","0,1,0","4","coast","177","probe-181","0.05124096170587267","0.5716253387527781","0.23985076705114705","0","","","","","","","",""
"","html-keyboard-response","440","1464091","0.0-234.0-1.0","null","<p></p>","null","","","","","","","","","","","","","","","","","","",""
"","do_trial","441","1469158","0.0-235.0-0.0","530","","","","50","0,0,0","4","coast","178","probe-20","0.11239777416525433","0.6522235601287198","0.294906060962795","0","","","","","","","",""
"","html-keyboard-response","442","1470162","0.0-235.0-1.0","null","<p></p>","null","","","","","","","","","","","","","","","","","","",""
"","do_trial","443","1475241","0.0-236.0-0.0","541","","","","49","0,1,0","4","coast","179","probe-115","0.19718856192594872","0.6839169996137491","0.25485293396562286","0","","","","","","","",""
"","html-keyboard-response","444","1476245","0.0-236.0-1.0","null","<p></p>","null","","","","","","","","","","","","","","","","","","",""
"","do_trial","445","1481545","0.0-237.0-0.0","761.5999999046326","","","","51","0,1,0","4","coast","180","probe-70","0.17735181468901468","0.6938191063087489","0.22509518520870075","0","","","","","","","",""
"","html-keyboard-response","446","1482550","0.0-237.0-1.0","null","<p></p>","null","","","","","","","","","","","","","","","","","","",""
"","do_trial","447","1487548","0.0-238.0-0.0","459.5","","","","50","1,1,0","4","coast","181","probe-85","0.07228137065863713","0.7758058568207875","0.20391267912868466","1","","","","","","","",""
"","html-keyboard-response","448","1488551","0.0-238.0-1.0","null","<p></p>","null","","","","","","","","","","","","","","","","","","",""
"","do_trial","449","1493602","0.0-239.0-0.0","511.10000002384186","","","","50","0,1,0","4","coast","182","probe-76","0.08276220438810394","0.6325591510919683","0.18276530431279575","1","","","","","","","",""
"","html-keyboard-response","450","1494606","0.0-239.0-1.0","null","<p></p>","null","","","","","","","","","","","","","","","","","","",""
"","do_trial","451","1500045","0.0-240.0-0.0","901.6000000238419","","","","50","0,1,0","4","coast","183","probe-136","0.05334006637688343","0.6131796215378462","0.17142362483773718","1","","","","","","","",""
"","html-keyboard-response","452","1501049","0.0-240.0-1.0","null","<p></p>","null","","","","","","","","","","","","","","","","","","",""
"","do_trial","453","1506530","0.0-241.0-0.0","942.2999999523163","","","","50","1,1,0","4","coast","184","probe-143","0.05884969119556896","0.6681181926368772","0.20244314388140247","1","","","","","","","",""
"","html-keyboard-response","454","1507534","0.0-241.0-1.0","null","<p></p>","null","","","","","","","","","","","","","","","","","","",""
"","do_trial","455","1512497","0.0-242.0-0.0","421.2999999523163","","","","50","0,0,0","4","coast","185","probe-159","0.05166121853425256","0.553849477779577","0.07725194301415715","0","","","","","","","",""
"","html-keyboard-response","456","1513501","0.0-242.0-1.0","null","<p></p>","null","","","","","","","","","","","","","","","","","","",""
"","do_trial","457","1518807","0.0-243.0-0.0","768.7000000476837","","","","49","0,0,0","4","coast","186","probe-163","0.10367709084017347","0.6058619354274737","0.08986627685729345","0","","","","","","","",""
"","html-keyboard-response","458","1519811","0.0-243.0-1.0","null","<p></p>","null","","","","","","","","","","","","","","","","","","",""
"","do_trial","459","1524637","0.0-244.0-0.0","287.39999997615814","","","","49","0,1,0","4","coast","187","probe-72","0.08360062716868917","0.6525097387835254","0.13044458603694797","0","","","","","","","",""
"","html-keyboard-response","460","1525639","0.0-244.0-1.0","null","<p></p>","null","","","","","","","","","","","","","","","","","","",""
"","do_trial","461","1530660","0.0-245.0-0.0","483","","","","50","0,1,0","4","coast","188","probe-82","0.07828095896692108","0.6627694020584458","0.13555806915808152","1","","","","","","","",""
"","html-keyboard-response","462","1531664","0.0-245.0-1.0","null","<p></p>","null","","","","","","","","","","","","","","","","","","",""
"","do_trial","463","1536605","0.0-246.0-0.0","400.8000000715256","","","","50","0,0,0","4","coast","189","probe-157","0.17838212268482154","0.5975439434985409","0.1693134692599294","0","","","","","","","",""
"","html-keyboard-response","464","1537608","0.0-246.0-1.0","null","<p></p>","null","","","","","","","","","","","","","","","","","","",""
"","do_bye","465","1539112","0.0-247.0-0.0","null","","","","null","","","","","","","","","","","","","","","","",""
"","do_travel","466","1545114","0.0-248.0-0.0","null","","","","null","","","","","","","","","","","","","","","","",""
"","do_welcome","467","1546624","0.0-248.0-1.0","null","","","","null","","","","","","","","","","","","","","","","",""
"","do_trial","468","1551999","0.0-249.0-0.0","837.2999999523163","","","","51","0,1,0","5","highway","190","probe-124","0.09837573094823412","1","0.34581097387910675","0","","","","","","","",""
"","html-keyboard-response","469","1553003","0.0-249.0-1.0","null","<p></p>","null","","","","","","","","","","","","","","","","","","",""
"","do_trial","470","1558018","0.0-250.0-0.0","477.60000002384186","","","","51","0,1,0","5","highway","191","probe-186","0.12607353054849807","1","0.18653199388688144","0","","","","","","","",""
"","html-keyboard-response","471","1559023","0.0-250.0-1.0","null","<p></p>","null","","","","","","","","","","","","","","","","","","",""
"","do_trial","472","1563905","0.0-251.0-0.0","339.39999997615814","","","","50","0,1,0","5","highway","192","probe-209","0.13534528293679843","0.9014246003984657","0.062381206959850034","1","","","","","","","",""
"","html-keyboard-response","473","1564910","0.0-251.0-1.0","null","<p></p>","null","","","","","","","","","","","","","","","","","","",""
"","do_trial","474","1569663","0.0-252.0-0.0","211.10000002384186","","","","50","0,0,0","5","highway","193","probe-87","0.11008778386444565","0.7944007029377962","0.09862129976030069","0","","","","","","","",""
"","html-keyboard-response","475","1570667","0.0-252.0-1.0","null","<p></p>","null","","","","","","","","","","","","","","","","","","",""
"","do_trial","476","1575491","0.0-253.0-0.0","285.90000009536743","","","","50","0,1,0","5","highway","194","probe-117","0.1899844290356032","0.6955907606857118","0.3004341931075542","1","","","","","","","",""
"","html-keyboard-response","477","1576496","0.0-253.0-1.0","null","<p></p>","null","","","","","","","","","","","","","","","","","","",""
"","do_trial","478","1581360","0.0-254.0-0.0","325.7999999523163","","","","50","0,1,0","5","highway","195","probe-19","0.2978587457459141","0.6636277751637261","0.3196452484132333","1","","","","","","","",""
"","html-keyboard-response","479","1582364","0.0-254.0-1.0","null","<p></p>","null","","","","","","","","","","","","","","","","","","",""
"","do_trial","480","1587335","0.0-255.0-0.0","429.60000002384186","","","","50","0,0,0","5","highway","196","probe-158","0.2981301066518868","0.6552230324808948","0.31686960139371645","0","","","","","","","",""
"","html-keyboard-response","481","1588337","0.0-255.0-1.0","null","<p></p>","null","","","","","","","","","","","","","","","","","","",""
"","do_trial","482","1593213","0.0-256.0-0.0","337.8000000715256","","","","50","0,1,1","5","highway","197","probe-132","0.2742934311839068","0.5045119364687708","0.33846079360551484","1","","","","","","","",""
"","html-keyboard-response","483","1594218","0.0-256.0-1.0","null","<p></p>","null","","","","","","","","","","","","","","","","","","",""
"","do_trial","484","1599111","0.0-257.0-0.0","351","","","","50","0,1,0","5","highway","198","probe-08","0.14033093299840602","0.5655681306801469","0.19646658743526557","1","","","","","","","",""
"","html-keyboard-response","485","1600115","0.0-257.0-1.0","null","<p></p>","null","","","","","","","","","","","","","","","","","","",""
"","do_trial","486","1604972","0.0-258.0-0.0","316.59999990463257","","","","50","0,1,0","5","highway","199","probe-144","0.11974016251455856","0.31767029667073327","0.11845448471155028","1","","","","","","","",""
"","html-keyboard-response","487","1605978","0.0-258.0-1.0","null","<p></p>","null","","","","","","","","","","","","","","","","","","",""
"","do_trial","488","1611246","0.0-259.0-0.0","728.1000000238419","","","","50","0,0,0","5","highway","200","probe-26","0.18492198915500666","0.2297316406876049","0.2825961687437859","0","","","","","","","",""
"","html-keyboard-response","489","1612250","0.0-259.0-1.0","null","<p></p>","null","","","","","","","","","","","","","","","","","","",""
"","do_trial","490","1617866","0.0-260.0-0.0","1079.5","","","","50","0,0,1","5","highway","201","probe-81","0.16843590339381856","0.4062861483396506","0.44536398057771875","0","","","","","","","",""
"","html-keyboard-response","491","1618870","0.0-260.0-1.0","null","<p></p>","null","","","","","","","","","","","","","","","","","","",""
"","do_trial","492","1624629","0.0-261.0-0.0","1220.2999999523163","","","","50","0,0,1","5","highway","202","probe-28","0.18200776707459856","0.3407179977206898","0.6293692072327562","0","","","","","","","",""
"","html-keyboard-response","493","1625633","0.0-261.0-1.0","null","<p></p>","null","","","","","","","","","","","","","","","","","","",""
"","do_trial","494","1630469","0.0-262.0-0.0","297","","","","49","0,0,1","5","highway","203","probe-57","0.27520175735556446","0.31097516279020565","0.4738615376060673","0","","","","","","","",""
"","html-keyboard-response","495","1631474","0.0-262.0-1.0","null","<p></p>","null","","","","","","","","","","","","","","","","","","",""
"","do_trial","496","1636384","0.0-263.0-0.0","370","","","","51","0,1,0","5","highway","204","probe-134","0.08688035371821631","0.3555320780873878","0.5064470705504038","0","","","","","","","",""
"","html-keyboard-response","497","1637388","0.0-263.0-1.0","null","<p></p>","null","","","","","","","","","","","","","","","","","","",""
"","do_trial","498","1642699","0.0-264.0-0.0","771.6000000238419","","","","50","1,0,0","5","highway","205","probe-141","0.05484087244558412","0.3212788207017111","0.5246057661351688","0","","","","","","","",""
"","html-keyboard-response","499","1643704","0.0-264.0-1.0","null","<p></p>","null","","","","","","","","","","","","","","","","","","",""
"","do_trial","500","1649033","0.0-265.0-0.0","789.8999999761581","","","","49","0,0,1","5","highway","206","probe-222","0.14334327119140208","0.3077318383098536","0.522521755337373","0","","","","","","","",""
"","html-keyboard-response","501","1650036","0.0-265.0-1.0","null","<p></p>","null","","","","","","","","","","","","","","","","","","",""
"","do_trial","502","1654948","0.0-266.0-0.0","372.60000002384186","","","","50","1,1,0","5","highway","207","probe-125","0.2354246857236811","0.34909898603517464","0.5894435848113146","1","","","","","","","",""
"","html-keyboard-response","503","1655951","0.0-266.0-1.0","null","<p></p>","null","","","","","","","","","","","","","","","","","","",""
"","do_trial","504","1660892","0.0-267.0-0.0","402.2999999523163","","","","50","0,0,1","5","highway","208","probe-61","0.2109612584479763","0.34147170103238217","0.602164927607412","0","","","","","","","",""
"","html-keyboard-response","505","1661895","0.0-267.0-1.0","null","<p></p>","null","","","","","","","","","","","","","","","","","","",""
"","do_trial","506","1666798","0.0-268.0-0.0","362.5","","","","50","0,1,1","5","highway","209","probe-171","0.12004697129210687","0.3018820543148916","0.5987402274154953","1","","","","","","","",""
"","html-keyboard-response","507","1667800","0.0-268.0-1.0","null","<p></p>","null","","","","","","","","","","","","","","","","","","",""
"","do_trial","508","1672867","0.0-269.0-0.0","529.6000000238419","","","","50","0,0,0","5","highway","210","probe-04","0.08682734320587214","0.3581015166477047","0.61315566558583","0","","","","","","","",""
"","html-keyboard-response","509","1673871","0.0-269.0-1.0","null","<p></p>","null","","","","","","","","","","","","","","","","","","",""
"","do_trial","510","1679075","0.0-270.0-0.0","665.1999999284744","","","","50","0,1,0","5","highway","211","probe-118","0.15996919415195146","0.30846867356682817","0.5679409244876226","1","","","","","","","",""
"","html-keyboard-response","511","1680078","0.0-270.0-1.0","null","<p></p>","null","","","","","","","","","","","","","","","","","","",""
"","do_trial","512","1685320","0.0-271.0-0.0","704.6000000238419","","","","50","0,0,1","5","highway","212","probe-195","0.15939685453312583","0.2943982106852464","0.631566547046514","0","","","","","","","",""
"","html-keyboard-response","513","1686323","0.0-271.0-1.0","null","<p></p>","null","","","","","","","","","","","","","","","","","","",""
"","do_trial","514","1691780","0.0-272.0-0.0","917.7999999523163","","","","50","0,0,1","5","highway","213","probe-53","0.19167558885995895","0.2959320587446614","0.5499242662897915","0","","","","","","","",""
"","html-keyboard-response","515","1692783","0.0-272.0-1.0","null","<p></p>","null","","","","","","","","","","","","","","","","","","",""
"","do_trial","516","1698693","0.0-273.0-0.0","1371.4000000953674","","","","51","1,0,1","5","highway","214","probe-73","0.18080900045551573","0.3658363048373168","0.5568631035570176","1","","","","","","","",""
"","html-keyboard-response","517","1699696","0.0-273.0-1.0","null","<p></p>","null","","","","","","","","","","","","","","","","","","",""
"","do_trial","518","1705537","0.0-274.0-0.0","1298.5","","","","51","0,0,0","5","highway","215","probe-207","0.2752199106274004","0.3552853454794365","0.710401373493084","0","","","","","","","",""
"","html-keyboard-response","519","1706541","0.0-274.0-1.0","null","<p></p>","null","","","","","","","","","","","","","","","","","","",""
"","do_trial","520","1711591","0.0-275.0-0.0","512","","","","50","0,1,1","5","highway","216","probe-126","0.16425912627713452","0.344138339345071","0.7730506566114272","1","","","","","","","",""
"","html-keyboard-response","521","1712595","0.0-275.0-1.0","null","<p></p>","null","","","","","","","","","","","","","","","","","","",""
"","do_trial","522","1717808","0.0-276.0-0.0","676.8000000715256","","","","50","0,0,1","5","highway","217","probe-114","0.11628944325816801","0.2471236990729831","0.6916718207096457","0","","","","","","","",""
"","html-keyboard-response","523","1718813","0.0-276.0-1.0","null","<p></p>","null","","","","","","","","","","","","","","","","","","",""
"","do_trial","524","1724246","0.0-277.0-0.0","892","","","","50","0,0,1","5","highway","218","probe-155","0.10191307659405681","0.11619394320545624","0.7106927787463697","0","","","","","","","",""
"","html-keyboard-response","525","1725250","0.0-277.0-1.0","null","<p></p>","null","","","","","","","","","","","","","","","","","","",""
"","do_trial","526","1730170","0.0-278.0-0.0","379.60000002384186","","","","49","0,0,1","5","highway","219","probe-100","0.08136800804846958","0.13413803284286416","0.7323983865926138","0","","","","","","","",""
"","html-keyboard-response","527","1731174","0.0-278.0-1.0","null","<p></p>","null","","","","","","","","","","","","","","","","","","",""
"","do_trial","528","1736175","0.0-279.0-0.0","462.7000000476837","","","","51","0,0,1","5","highway","220","probe-77","0.22219474975711392","0.17331617242112005","0.6435649160159634","1","","","","","","","",""
"","html-keyboard-response","529","1737179","0.0-279.0-1.0","null","<p></p>","null","","","","","","","","","","","","","","","","","","",""
"","do_trial","530","1742775","0.0-280.0-0.0","1053.6999999284744","","","","51","0,0,0","5","highway","221","probe-122","0.07961858187172177","0.08359078874850362","0.5482663728302599","0","","","","","","","",""
"","html-keyboard-response","531","1743779","0.0-280.0-1.0","null","<p></p>","null","","","","","","","","","","","","","","","","","","",""
