"success","trial_type","trial_index","time_elapsed","internal_node_id","interactions","blur_events","focus_events","fullscreenenter_events","fullscreenexit_events","rt","stimulus","key_press","subject_id","participant_id","age","gender","prompt","response","choice_outcomes","context_n","context_img_id","trial_n","probe_img_id","pR_red","pR_white","pR_black","outcome","contextArray_ind","validImageProbes","invalidImageProbes","pRew_Red","pRew_White","pRew_Black","availableForMemProbe","choice_blocks"
"true","fullscreen","0","6972","0.0-0.0","""event"",""trial"",""time""
""fullscreenenter"",""0"",""5999""
","
","
","""event"",""trial"",""time""
""fullscreenenter"",""0"",""5999""
","
","","","","","","","","","","","","","","","","","","","","","","","","","",""
"","pavlovia","1","6977","0.0-1.0","""event"",""trial"",""time""
""fullscreenenter"",""0"",""5999""
","
","
","""event"",""trial"",""time""
""fullscreenenter"",""0"",""5999""
","
","","","","","","","","","","","","","","","","","","","","","","","","","",""
"","instruc1","2","52372","0.0-2.0","""event"",""trial"",""time""
""fullscreenenter"",""0"",""5999""
","
","
","""event"",""trial"",""time""
""fullscreenenter"",""0"",""5999""
","
","null","run_exp/static/audio/clip_1_welcome.m4a","null","270","2","14","Male","<div class='center'><p>Welcome! This is the first part of the study. It will last ~30 minutes. In part 1 and part 2 of the study, you are the head captain of a pirate ship traveling around the world to different islands. You will play a few different games throughout these two parts. Here is an overview of them:</p><br><p>Part 1 (today)</p><p>1. Instructions, practice game, and quiz</p><p>2. Pick a pirate game on 6 different islands</p><br><p>Part 2 (tomorrow)</p><p>3. Pick a pirate game and memory game</p><p>4. Where did you see this ship? </p></div>","","","","","","","","","","","","","","","","","",""
"","html-keyboard-response","3","53793","0.0-3.0","""event"",""trial"",""time""
""fullscreenenter"",""0"",""5999""
","
","
","""event"",""trial"",""time""
""fullscreenenter"",""0"",""5999""
","
","1419.199999999255","<div class='center'><p>Welcome! This is the first part of the study. It will last ~30 minutes. In part 1 and part 2 of the study, you are the head captain of a pirate ship traveling around the world to different islands. You will play a few different games throughout these two parts. Here is an overview of them:</p><br><p>Part 1 (today)</p><p>1. Instructions, practice game, and quiz</p><p>2. Pick a pirate game on 6 different islands</p><br><p>Part 2 (tomorrow)</p><p>3. Pick a pirate game and memory game</p><p>4. Where did you see this ship? </p><p><b>[Press the space bar to continue]</b></p></div>","32","","","","","","","","","","","","","","","","","","","","","","",""
"","instruc2","4","59281","0.0-4.0","""event"",""trial"",""time""
""fullscreenenter"",""0"",""5999""
","
","
","""event"",""trial"",""time""
""fullscreenenter"",""0"",""5999""
","
","null","run_exp/static/audio/clip_2_different_places.m4a","null","","","","","<div class='center'><p>Today, you’ll visit these 6 islands on your journey. You'll be able to see these islands from your ship.</p><p><img src='run_exp/static/images/contexts/all_contexts.png' height='500'></p></div>","","","","","","","","","","","","","","","","","",""
"","html-keyboard-response","5","62023","0.0-5.0","""event"",""trial"",""time""
""fullscreenenter"",""0"",""5999""
","
","
","""event"",""trial"",""time""
""fullscreenenter"",""0"",""5999""
","
","2740.2999999998137","<div class='center'><p>Today, you’ll visit these 6 islands on your journey. You'll be able to see these islands from your ship.</p><p><img src='run_exp/static/images/contexts/all_contexts.png' height='500'></p><p><b>[Press the space bar to continue]</b></p></div>","32","","","","","","","","","","","","","","","","","","","","","","",""
"","instruc3","6","71871","0.0-6.0","""event"",""trial"",""time""
""fullscreenenter"",""0"",""5999""
","
","
","""event"",""trial"",""time""
""fullscreenenter"",""0"",""5999""
","
","null","run_exp/static/audio/clip_3_goal_of_game_1.m4a","null","","","","","<div class='center'><p> The pirates on your ship will rob other ships as they leave the island.</p> These ships have just sold their goods to the islanders, so they will be filled with lots and lots of gold.</p><p><img src='run_exp/static/images/tutorial/ship_center.png' height='400'></p></div>","","","","","","","","","","","","","","","","","",""
"","html-keyboard-response","7","72703","0.0-7.0","""event"",""trial"",""time""
""fullscreenenter"",""0"",""5999""
","
","
","""event"",""trial"",""time""
""fullscreenenter"",""0"",""5999""
","
","830.6000000005588","<div class='center'><p> The pirates on your ship will rob other ships as they leave the island.</p> These ships have just sold their goods to the islanders, so they will be filled with lots and lots of gold.</p><p><img src='run_exp/static/images/tutorial/ship_center.png' height='400'></p><p><b>[Press the space bar to continue]</b></p></div>","32","","","","","","","","","","","","","","","","","","","","","","",""
"","instruc4","8","100880","0.0-8.0","""event"",""trial"",""time""
""fullscreenenter"",""0"",""5999""
","
","
","""event"",""trial"",""time""
""fullscreenenter"",""0"",""5999""
","
","null","run_exp/static/audio/clip_4_goal_of_game_2.m4a","null","","","","","<div class='center'><p>As the head captain, you do not have to rob any ships yourself. Another pirate will be doing the robbing for you. First, you will choose a pirate to rob the next ship.</p><p><img src='run_exp/static/images/tutorial/pirates_all_crop.png' height='200'></p><p>Then, you'll see if the pirate successfully robbed the ship of their gold. If they were successful, then you'll get a stack of gold coins like this:</p><p><img src='run_exp/static/images/tutorial/reward.png' height='150'></p><p> If they were <b>not</b> successful, then you'll get no gold coins, and you'll see a big red x like this: </p><p><img src='run_exp/static/images/tutorial/reward_no.png' height='150'></p><p> How much bonus money you make is based on how many gold coins you collect.</p><div>","","","","","","","","","","","","","","","","","",""
"","html-keyboard-response","9","102358","0.0-9.0","""event"",""trial"",""time""
""fullscreenenter"",""0"",""5999""
","
","
","""event"",""trial"",""time""
""fullscreenenter"",""0"",""5999""
","
","1476.4000000003725","<div class='center'><p>As the head captain, you do not have to rob any ships yourself. Another pirate will be doing the robbing for you. First, you will choose a pirate to rob the next ship.</p><p><img src='run_exp/static/images/tutorial/pirates_all_crop.png' height='200'></p><p>Then, you'll see if the pirate successfully robbed the ship of their gold. If they were successful, then you'll get a stack of gold coins like this:</p><p><img src='run_exp/static/images/tutorial/reward.png' height='150'></p><p> If they were <b>not</b> successful, then you'll get no gold coins, and you'll see a big red x like this: </p><p><img src='run_exp/static/images/tutorial/reward_no.png' height='150'></p><p> How much bonus money you make is based on how many gold coins you collect.</p<p><b>[Press the space bar to continue]</b></p></div>","32","","","","","","","","","","","","","","","","","","","","","","",""
"","instruc5","10","124863","0.0-10.0","""event"",""trial"",""time""
""fullscreenenter"",""0"",""5999""
","
","
","""event"",""trial"",""time""
""fullscreenenter"",""0"",""5999""
","
","22503.700000000186","run_exp/static/audio/clip_5_probabilistic.m4a","49","","","","","<div class='center'><p>Even the most skilled pirate can not rob EVERY ship.</p><p> Some ships will have very strong protections against pirate attacks.</p><p> Blue beard, here, is very, very good at robbing ships, but he won't be successful every time he tries to rob one.</p><p> You can press the <b>‘1’</b> key on the keyboard to choose him.</p><p> Try choosing him 10 times to see how often he succeeds at robbing a ship. </p><p><img src='run_exp/static/images/tutorial/blue.png' height='500'></p></div>","","","","","","","","","","","","","","","","","",""
"","html-keyboard-response","11","126364","0.0-11.0","""event"",""trial"",""time""
""fullscreenenter"",""0"",""5999""
","
","
","""event"",""trial"",""time""
""fullscreenenter"",""0"",""5999""
","
","null","<div class='center'><p><img src='run_exp/static/images/tutorial/blue_win.png' height='500'></p></div>","null","","","","","","","","","","","","","","","","","","","","","","",""
"","html-keyboard-response","12","128662","0.0-12.0","""event"",""trial"",""time""
""fullscreenenter"",""0"",""5999""
","
","
","""event"",""trial"",""time""
""fullscreenenter"",""0"",""5999""
","
","2297.2999999998137","<div class='center'><img src='run_exp/static/images/tutorial/blue.png' height='500'></p></div>","49","","","","","","","","","","","","","","","","","","","","","","",""
"","html-keyboard-response","13","130168","0.0-13.0","""event"",""trial"",""time""
""fullscreenenter"",""0"",""5999""
","
","
","""event"",""trial"",""time""
""fullscreenenter"",""0"",""5999""
","
","null","<div class='center'><p><img src='run_exp/static/images/tutorial/blue_win.png' height='500'></p></div>","null","","","","","","","","","","","","","","","","","","","","","","",""
"","html-keyboard-response","14","130758","0.0-14.0","""event"",""trial"",""time""
""fullscreenenter"",""0"",""5999""
","
","
","""event"",""trial"",""time""
""fullscreenenter"",""0"",""5999""
","
","589.0999999996275","<div class='center'><img src='run_exp/static/images/tutorial/blue.png' height='500'></p></div>","49","","","","","","","","","","","","","","","","","","","","","","",""
"","html-keyboard-response","15","132262","0.0-15.0","""event"",""trial"",""time""
""fullscreenenter"",""0"",""5999""
","
","
","""event"",""trial"",""time""
""fullscreenenter"",""0"",""5999""
","
","null","<div class='center'><p><img src='run_exp/static/images/tutorial/blue_win.png' height='500'></p></div>","null","","","","","","","","","","","","","","","","","","","","","","",""
"","html-keyboard-response","16","132614","0.0-16.0","""event"",""trial"",""time""
""fullscreenenter"",""0"",""5999""
","
","
","""event"",""trial"",""time""
""fullscreenenter"",""0"",""5999""
","
","351.09999999962747","<div class='center'><img src='run_exp/static/images/tutorial/blue.png' height='500'></p></div>","49","","","","","","","","","","","","","","","","","","","","","","",""
"","html-keyboard-response","17","134120","0.0-17.0","""event"",""trial"",""time""
""fullscreenenter"",""0"",""5999""
","
","
","""event"",""trial"",""time""
""fullscreenenter"",""0"",""5999""
","
","null","<div class='center'><p><img src='run_exp/static/images/tutorial/blue_no_win.png' height='500'></p></div>","null","","","","","","","","","","","","","","","","","","","","","","",""
"","html-keyboard-response","18","134430","0.0-18.0","""event"",""trial"",""time""
""fullscreenenter"",""0"",""5999""
","
","
","""event"",""trial"",""time""
""fullscreenenter"",""0"",""5999""
","
","309.09999999962747","<div class='center'><img src='run_exp/static/images/tutorial/blue.png' height='500'></p></div>","49","","","","","","","","","","","","","","","","","","","","","","",""
"","html-keyboard-response","19","135935","0.0-19.0","""event"",""trial"",""time""
""fullscreenenter"",""0"",""5999""
","
","
","""event"",""trial"",""time""
""fullscreenenter"",""0"",""5999""
","
","null","<div class='center'><p><img src='run_exp/static/images/tutorial/blue_win.png' height='500'></p></div>","null","","","","","","","","","","","","","","","","","","","","","","",""
"","html-keyboard-response","20","136230","0.0-20.0","""event"",""trial"",""time""
""fullscreenenter"",""0"",""5999""
","
","
","""event"",""trial"",""time""
""fullscreenenter"",""0"",""5999""
","
","294.09999999962747","<div class='center'><img src='run_exp/static/images/tutorial/blue.png' height='500'></p></div>","49","","","","","","","","","","","","","","","","","","","","","","",""
"","html-keyboard-response","21","137737","0.0-21.0","""event"",""trial"",""time""
""fullscreenenter"",""0"",""5999""
","
","
","""event"",""trial"",""time""
""fullscreenenter"",""0"",""5999""
","
","null","<div class='center'><p><img src='run_exp/static/images/tutorial/blue_win.png' height='500'></p></div>","null","","","","","","","","","","","","","","","","","","","","","","",""
"","html-keyboard-response","22","138070","0.0-22.0","""event"",""trial"",""time""
""fullscreenenter"",""0"",""5999""
","
","
","""event"",""trial"",""time""
""fullscreenenter"",""0"",""5999""
","
","332.70000000018626","<div class='center'><img src='run_exp/static/images/tutorial/blue.png' height='500'></p></div>","49","","","","","","","","","","","","","","","","","","","","","","",""
"","html-keyboard-response","23","139576","0.0-23.0","""event"",""trial"",""time""
""fullscreenenter"",""0"",""5999""
","
","
","""event"",""trial"",""time""
""fullscreenenter"",""0"",""5999""
","
","null","<div class='center'><p><img src='run_exp/static/images/tutorial/blue_win.png' height='500'></p></div>","null","","","","","","","","","","","","","","","","","","","","","","",""
"","html-keyboard-response","24","139918","0.0-24.0","""event"",""trial"",""time""
""fullscreenenter"",""0"",""5999""
","
","
","""event"",""trial"",""time""
""fullscreenenter"",""0"",""5999""
","
","340.80000000074506","<div class='center'><img src='run_exp/static/images/tutorial/blue.png' height='500'></p></div>","49","","","","","","","","","","","","","","","","","","","","","","",""
"","html-keyboard-response","25","141422","0.0-25.0","""event"",""trial"",""time""
""fullscreenenter"",""0"",""5999""
","
","
","""event"",""trial"",""time""
""fullscreenenter"",""0"",""5999""
","
","null","<div class='center'><p><img src='run_exp/static/images/tutorial/blue_no_win.png' height='500'></p></div>","null","","","","","","","","","","","","","","","","","","","","","","",""
"","html-keyboard-response","26","141734","0.0-26.0","""event"",""trial"",""time""
""fullscreenenter"",""0"",""5999""
","
","
","""event"",""trial"",""time""
""fullscreenenter"",""0"",""5999""
","
","310.90000000037253","<div class='center'><img src='run_exp/static/images/tutorial/blue.png' height='500'></p></div>","49","","","","","","","","","","","","","","","","","","","","","","",""
"","html-keyboard-response","27","143235","0.0-27.0","""event"",""trial"",""time""
""fullscreenenter"",""0"",""5999""
","
","
","""event"",""trial"",""time""
""fullscreenenter"",""0"",""5999""
","
","null","<div class='center'><p><img src='run_exp/static/images/tutorial/blue_win.png' height='500'></p></div>","null","","","","","","","","","","","","","","","","","","","","","","",""
"","html-keyboard-response","28","143550","0.0-28.0","""event"",""trial"",""time""
""fullscreenenter"",""0"",""5999""
","
","
","""event"",""trial"",""time""
""fullscreenenter"",""0"",""5999""
","
","314.40000000037253","<div class='center'><img src='run_exp/static/images/tutorial/blue.png' height='500'></p></div>","49","","","","","","","","","","","","","","","","","","","","","","",""
"","html-keyboard-response","29","145056","0.0-29.0","""event"",""trial"",""time""
""fullscreenenter"",""0"",""5999""
","
","
","""event"",""trial"",""time""
""fullscreenenter"",""0"",""5999""
","
","null","<div class='center'><p><img src='run_exp/static/images/tutorial/blue_win.png' height='500'></p></div>","null","","","","","","","","","","","","","","","","","","","","","","",""
"","instruc6","30","151050","0.0-30.0","""event"",""trial"",""time""
""fullscreenenter"",""0"",""5999""
","
","
","""event"",""trial"",""time""
""fullscreenenter"",""0"",""5999""
","
","null","run_exp/static/audio/clip_6_blue_beard_outcome.m4a","null","","","","","<div class='center'><p> See, he succeeded in robbing the ships most of the time but not every time. </p></div>","","","","","","","","","","","","","","","","","",""
"","html-keyboard-response","31","152222","0.0-31.0","""event"",""trial"",""time""
""fullscreenenter"",""0"",""5999""
","
","
","""event"",""trial"",""time""
""fullscreenenter"",""0"",""5999""
","
","1171.0999999996275","<div class='center'><p> See, he succeeded in robbing the ships most of the time but not every time. </p><p><b>[Press the space bar to continue]</b></p></div>","32","","","","","","","","","","","","","","","","","","","","","","",""
"","audio-keyboard-response","32","169750","0.0-32.0","""event"",""trial"",""time""
""fullscreenenter"",""0"",""5999""
","
","
","""event"",""trial"",""time""
""fullscreenenter"",""0"",""5999""
","
","17527.299999999814","run_exp/static/audio/clip_7_pick_pirate.m4a","51","","","","","","","","","","","","","","","","","","","","","","",""
"","audio-keyboard-response","33","175606","0.0-33.0-0.0","""event"",""trial"",""time""
""fullscreenenter"",""0"",""5999""
","
","
","""event"",""trial"",""time""
""fullscreenenter"",""0"",""5999""
","
","5853.699999999255","run_exp/static/audio/clip_8_chosen_pirate_win.m4a","32","","","","","","","","","","","","","","","","","","","","","","",""
"","audio-keyboard-response","34","178958","0.0-33.0-1.0","""event"",""trial"",""time""
""fullscreenenter"",""0"",""5999""
","
","
","""event"",""trial"",""time""
""fullscreenenter"",""0"",""5999""
","
","3350.600000000559","run_exp/static/audio/clip_9_pick_a_pirate_again.m4a","51","","","","","","","","","","","","","","","","","","","","","","",""
"","audio-keyboard-response","35","184702","0.0-34.0-0.0","""event"",""trial"",""time""
""fullscreenenter"",""0"",""5999""
","
","
","""event"",""trial"",""time""
""fullscreenenter"",""0"",""5999""
","
","5742.800000000745","run_exp/static/audio/clip_10_chosen_pirate_loss.m4a","32","","","","","","","","","","","","","","","","","","","","","","",""
"","instruc9","36","190370","0.0-35.0-0.0","""event"",""trial"",""time""
""fullscreenenter"",""0"",""5999""
","
","
","""event"",""trial"",""time""
""fullscreenenter"",""0"",""5999""
","
","null","run_exp/static/audio/clip_11_time_out.m4a","null","","","","","<div class='center'><p>If you don’t make your choice fast enough, you’ll have to wait a few seconds before you can make another one. </p><p><img src='run_exp/static/images/miscellaneous/hurry_up.png' height='500'></p></div>","","","","","","","","","","","","","","","","","",""
"","html-keyboard-response","37","191622","0.0-35.0-1.0","""event"",""trial"",""time""
""fullscreenenter"",""0"",""5999""
","
","
","""event"",""trial"",""time""
""fullscreenenter"",""0"",""5999""
","
","1251.0999999996275","<div class='center'><p>If you don’t make your choice fast enough, you’ll have to wait a few seconds before you can make another one. </p><p><img src='run_exp/static/images/miscellaneous/hurry_up.png' height='500'></p><p><b>[Press the space bar to continue]</b></p></div>","32","","","","","","","","","","","","","","","","","","","","","","",""
"","instruc10","38","230880","0.0-35.0-2.0","""event"",""trial"",""time""
""fullscreenenter"",""0"",""5999""
","
","
","""event"",""trial"",""time""
""fullscreenenter"",""0"",""5999""
","
","null","run_exp/static/audio/clip_12_probe.m4a","null","","","","","<div class='center'><p>Once you've chosen a pirate, you’ll be shown the ship they are robbing. You will never rob the same ship twice. Ships can be told apart from one another by the image on them. These are the goods that they sell. See, this ship has a travel mug on it. </p><p> You’ll have to remember which island you saw each ship on. You will win more gold coins and hence more bonus money if you remember correctly! To help you remember, you can imagine a story. For example, here, you could imagine a mug full of water in the desert. Or, as another example, if on the forest island, your pirate robbed a ship with an apple on it, you could imagine an apple falling from a tree in the forest. </p><p><img src='run_exp/static/images/tutorial/example_probe.png' height='500'></p></div>","","","","","","","","","","","","","","","","","",""
"","html-keyboard-response","39","232926","0.0-35.0-3.0","""event"",""trial"",""time""
""fullscreenenter"",""0"",""5999""
","
","
","""event"",""trial"",""time""
""fullscreenenter"",""0"",""5999""
","
","2044.7999999998137","<div class='center'><p>Once you've chosen a pirate, you’ll be shown the ship they are robbing. You will never rob the same ship twice. Ships can be told apart from one another by the image on them. These are the goods that they sell. See, this ship has a travel mug on it. </p><p> You’ll have to remember which island you saw each ship on. You will win more gold coins and hence more bonus money if you remember correctly! To help you remember, you can imagine a story. For example, here, you could imagine a mug full of water in the desert. Or, as another example, if on the forest island, your pirate robbed a ship with an apple on it, you could imagine an apple falling from a tree in the forest. </p><p><img src='run_exp/static/images/tutorial/example_probe.png' height='500'></p><p><b>[Press the space bar to continue]</b></p></div>","32","","","","","","","","","","","","","","","","","","","","","","",""
"","instruc11","40","249500","0.0-35.0-4.0","""event"",""trial"",""time""
""fullscreenenter"",""0"",""5999""
","
","
","""event"",""trial"",""time""
""fullscreenenter"",""0"",""5999""
","
","null","run_exp/static/audio/clip_13_changepoint.m4a","null","","","","","<div class='center'><p>How successful a pirate is at robbing ships will depend on the island you’re on.</p><p> A pirate may have visited this island many times before and gained a lot of practice robbing ships there.</p><p>So, they’re more likely to be successful than a pirate who has never visited the island before.</p></div>","","","","","","","","","","","","","","","","","",""
"","html-keyboard-response","41","250621","0.0-35.0-5.0","""event"",""trial"",""time""
""fullscreenenter"",""0"",""5999""
","
","
","""event"",""trial"",""time""
""fullscreenenter"",""0"",""5999""
","
","1120.5","<div class='center'><p>How successful a pirate is at robbing ships will depend on the island you’re on.</p><p> A pirate may have visited this island many times before and gained a lot of practice robbing ships there.</p><p>So, they’re more likely to be successful than a pirate who has never visited the island before.</p><p><b>[Press the space bar to continue]</b></p></div>","32","","","","","","","","","","","","","","","","","","","","","","",""
"","instruc12","42","291889","0.0-35.0-6.0","""event"",""trial"",""time""
""fullscreenenter"",""0"",""5999""
","
","
","""event"",""trial"",""time""
""fullscreenenter"",""0"",""5999""
","
","null","run_exp/static/audio/clip_14_drift.m4a","null","","","","","<div class='center'><p>How successful a pirate is at robbing ships can also change over the time spent on the island. </p><p> Ships may hear from islanders about the pirates coming and will improve their protections against the attack. This may make it harder to rob them.</p><p> Ships may also become lazy and weaken the strength of their protections. This may make it easier to rob them.</p><br><p>Things are always changing on the high seas! So, try your best to pay attention!</p><p><img src='run_exp/static/images/tutorial/contingency.png' height='500'></p></div>","","","","","","","","","","","","","","","","","",""
"","html-keyboard-response","43","307164","0.0-35.0-7.0","""event"",""trial"",""time""
""fullscreenenter"",""0"",""5999""
","
","
","""event"",""trial"",""time""
""fullscreenenter"",""0"",""5999""
","
","15273.900000000373","<div class='center'><p>How successful a pirate is at robbing ships can also change over the time spent on the island. </p><p> Ships may hear from islanders about the pirates coming and will improve their protections against the attack. This may make it harder to rob them.</p><p> Ships may also become lazy and weaken the strength of their protections. This may make it easier to rob them.</p><br><p>Things are always changing on the high seas! So, try your best to pay attention!</p><p><img src='run_exp/static/images/tutorial/contingency.png' height='500'></p><p><b>[Press the space bar to continue]</b></p></div>","32","","","","","","","","","","","","","","","","","","","","","","",""
"","instruc13","44","342778","0.0-35.0-8.0","""event"",""trial"",""time""
""fullscreenenter"",""0"",""5999""
","
","
","""event"",""trial"",""time""
""fullscreenenter"",""0"",""5999""
","
","null","run_exp/static/audio/clip_15_summary.m4a","null","","","","","<div class='center'><p>Let's go over the instructions quickly again. You have two important things to do: </p><b><p> 1. Pick the pirate who is the best at robbing ships on the current island. </p></b><b><p> 2. Remember on which island a ship was robbed.</p> </b><p>The amount of bonus money you can win depends on both.</p><p><br><p>Let’s try a practice game. The game will start by showing you the pirates. First, pick a pirate using the <b> 1, 2, 3 </b> keys on your keyboard. When you are shown a ship, try to remember which island you’re on by making up a story.</p><p>This is just a practice game, so you’re not playing for money. </p><p> Good luck! This game will be very difficult but try your best!</p></div>","","","","","","","","","","","","","","","","","",""
"","html-keyboard-response","45","344685","0.0-35.0-9.0","""event"",""trial"",""time""
""fullscreenenter"",""0"",""5999""
","
","
","""event"",""trial"",""time""
""fullscreenenter"",""0"",""5999""
","
","1905.699999999255","<div class='center'><p>Let's go over the instructions quickly again. You have two important things to do: </p><b><p> 1. Pick the pirate who is the best at robbing ships on the current island. </p></b><b><p> 2. Remember on which island a ship was robbed.</p> </b><p>The amount of bonus money you can win depends on both.</p><p><br><p>Let’s try a practice game. The game will start by showing you the pirates. First, pick a pirate using the <b> 1, 2, 3 </b> keys on your keyboard. When you are shown a ship, try to remember which island you’re on by making up a story.</p><p>This is just a practice game, so you’re not playing for money. </p><p> Good luck! This game will be very difficult but try your best!</p><p><b>[Press the space bar to continue]</b></p></div>","32","","","","","","","","","","","","","","","","","","","","","","",""
"","do_welcome","46","348693","0.0-35.0-10.0","""event"",""trial"",""time""
""fullscreenenter"",""0"",""5999""
","
","
","""event"",""trial"",""time""
""fullscreenenter"",""0"",""5999""
","
","null","","","","","","","","null","","","","","","","","","","","","","","","","",""
"","do_trial","47","355115","0.0-35.0-11.0","""event"",""trial"",""time""
""fullscreenenter"",""0"",""5999""
","
","
","""event"",""trial"",""time""
""fullscreenenter"",""0"",""5999""
","
","1915.2000000001863","","","","","","","","50","1,0,0","","","","","","","","","","","","","","","",""
"","html-keyboard-response","48","356122","0.0-36.0-0.0","""event"",""trial"",""time""
""fullscreenenter"",""0"",""5999""
","
","
","""event"",""trial"",""time""
""fullscreenenter"",""0"",""5999""
","
","null","<p></p>","null","","","","","","","","","","","","","","","","","","","","","","",""
"","do_trial","49","362278","0.0-36.0-1.0","""event"",""trial"",""time""
""fullscreenenter"",""0"",""5999""
","
","
","""event"",""trial"",""time""
""fullscreenenter"",""0"",""5999""
","
","1645.2000000001863","","","","","","","","51","1,1,0","","","","","","","","","","","","","","","",""
"","html-keyboard-response","50","363284","0.0-37.0-0.0","""event"",""trial"",""time""
""fullscreenenter"",""0"",""5999""
","
","
","""event"",""trial"",""time""
""fullscreenenter"",""0"",""5999""
","
","null","<p></p>","null","","","","","","","","","","","","","","","","","","","","","","",""
"","do_trial","51","368214","0.0-37.0-1.0","""event"",""trial"",""time""
""fullscreenenter"",""0"",""5999""
","
","
","""event"",""trial"",""time""
""fullscreenenter"",""0"",""5999""
","
","418.90000000037253","","","","","","","","49","1,0,1","","","","","","","","","","","","","","","",""
"","html-keyboard-response","52","369218","0.0-38.0-0.0","""event"",""trial"",""time""
""fullscreenenter"",""0"",""5999""
","
","
","""event"",""trial"",""time""
""fullscreenenter"",""0"",""5999""
","
","null","<p></p>","null","","","","","","","","","","","","","","","","","","","","","","",""
"","do_trial","53","375235","0.0-38.0-1.0","""event"",""trial"",""time""
""fullscreenenter"",""0"",""5999""
","
","
","""event"",""trial"",""time""
""fullscreenenter"",""0"",""5999""
","
","null","","","","","","","","null","0,1,0","","","","","","","","","","","","","","","",""
"","html-keyboard-response","54","376239","0.0-39.0-0.0","""event"",""trial"",""time""
""fullscreenenter"",""0"",""5999""
","
","
","""event"",""trial"",""time""
""fullscreenenter"",""0"",""5999""
","
","null","<p></p>","null","","","","","","","","","","","","","","","","","","","","","","",""
"","do_trial","55","381294","0.0-39.0-1.0","""event"",""trial"",""time""
""fullscreenenter"",""0"",""5999""
","
","
","""event"",""trial"",""time""
""fullscreenenter"",""0"",""5999""
","
","543.4000000003725","","","","","","","","49","0,1,0","","","","","","","","","","","","","","","",""
"","html-keyboard-response","56","382298","0.0-40.0-0.0","""event"",""trial"",""time""
""fullscreenenter"",""0"",""5999""
","
","
","""event"",""trial"",""time""
""fullscreenenter"",""0"",""5999""
","
","null","<p></p>","null","","","","","","","","","","","","","","","","","","","","","","",""
"","do_trial","57","387321","0.0-40.0-1.0","""event"",""trial"",""time""
""fullscreenenter"",""0"",""5999""
","
","
","""event"",""trial"",""time""
""fullscreenenter"",""0"",""5999""
","
","516.6000000005588","","","","","","","","49","1,0,0","","","","","","","","","","","","","","","",""
"","do_bye","58","388830","0.0-41.0-0.0","""event"",""trial"",""time""
""fullscreenenter"",""0"",""5999""
","
","
","""event"",""trial"",""time""
""fullscreenenter"",""0"",""5999""
","
","null","","","","","","","","null","","","","","","","","","","","","","","","","",""
"","do_travel","59","397838","0.0-41.0-1.0","""event"",""trial"",""time""
""fullscreenenter"",""0"",""5999""
","
","
","""event"",""trial"",""time""
""fullscreenenter"",""0"",""5999""
","
","null","","","","","","","","null","","","","","","","","","","","","","","","","",""
"","do_welcome","60","401846","0.0-41.0-2.0","""event"",""trial"",""time""
""fullscreenenter"",""0"",""5999""
","
","
","""event"",""trial"",""time""
""fullscreenenter"",""0"",""5999""
","
","null","","","","","","","","null","","","","","","","","","","","","","","","","",""
"","do_trial","61","407318","0.0-41.0-3.0","""event"",""trial"",""time""
""fullscreenenter"",""0"",""5999""
","
","
","""event"",""trial"",""time""
""fullscreenenter"",""0"",""5999""
","
","960.9000000003725","","","","","","","","51","1,0,0","","","","","","","","","","","","","","","",""
"","html-keyboard-response","62","408322","0.0-42.0-0.0","""event"",""trial"",""time""
""fullscreenenter"",""0"",""5999""
","
","
","""event"",""trial"",""time""
""fullscreenenter"",""0"",""5999""
","
","null","<p></p>","null","","","","","","","","","","","","","","","","","","","","","","",""
"","do_trial","63","413213","0.0-42.0-1.0","""event"",""trial"",""time""
""fullscreenenter"",""0"",""5999""
","
","
","""event"",""trial"",""time""
""fullscreenenter"",""0"",""5999""
","
","379.79999999981374","","","","","","","","50","1,0,1","","","","","","","","","","","","","","","",""
"","html-keyboard-response","64","414217","0.0-43.0-0.0","""event"",""trial"",""time""
""fullscreenenter"",""0"",""5999""
","
","
","""event"",""trial"",""time""
""fullscreenenter"",""0"",""5999""
","
","null","<p></p>","null","","","","","","","","","","","","","","","","","","","","","","",""
"","do_trial","65","419246","0.0-43.0-1.0","""event"",""trial"",""time""
""fullscreenenter"",""0"",""5999""
","
","
","""event"",""trial"",""time""
""fullscreenenter"",""0"",""5999""
","
","517.5","","","","","","","","49","1,1,0","","","","","","","","","","","","","","","",""
"","html-keyboard-response","66","420250","0.0-44.0-0.0","""event"",""trial"",""time""
""fullscreenenter"",""0"",""5999""
","
","
","""event"",""trial"",""time""
""fullscreenenter"",""0"",""5999""
","
","null","<p></p>","null","","","","","","","","","","","","","","","","","","","","","","",""
"","do_trial","67","425221","0.0-44.0-1.0","""event"",""trial"",""time""
""fullscreenenter"",""0"",""5999""
","
","
","""event"",""trial"",""time""
""fullscreenenter"",""0"",""5999""
","
","460.40000000037253","","","","","","","","49","0,0,1","","","","","","","","","","","","","","","",""
"","html-keyboard-response","68","426225","0.0-45.0-0.0","""event"",""trial"",""time""
""fullscreenenter"",""0"",""5999""
","
","
","""event"",""trial"",""time""
""fullscreenenter"",""0"",""5999""
","
","null","<p></p>","null","","","","","","","","","","","","","","","","","","","","","","",""
"","do_trial","69","431062","0.0-45.0-1.0","""event"",""trial"",""time""
""fullscreenenter"",""0"",""5999""
","
","
","""event"",""trial"",""time""
""fullscreenenter"",""0"",""5999""
","
","324.80000000074506","","","","","","","","49","1,0,1","","","","","","","","","","","","","","","",""
"","html-keyboard-response","70","433964","0.0-46.0-0.0","""event"",""trial"",""time""
""fullscreenenter"",""0"",""5999""
","
","
","""event"",""trial"",""time""
""fullscreenenter"",""0"",""5999""
","
","2900.5999999996275","<div class='center'><p><img src='run_exp/static/images/tutorial/prac_best_pirate.png'  height='500'></p></div>","49","","","","","","","","","","","","","","","","","","","","","","",""
"","html-keyboard-response","71","436732","0.0-47.0-0.0","""event"",""trial"",""time""
""fullscreenenter"",""0"",""5999""
","
","
","""event"",""trial"",""time""
""fullscreenenter"",""0"",""5999""
","
","2767","<div class='center'><p>That's correct! Red beard was the best.</p><p><b>[Press the space bar to continue]</b></p></div>","32","","","","","","","","","","","","","","","","","","","","","","",""
"","html-keyboard-response","72","441900","0.0-47.0-1.0","""event"",""trial"",""time""
""fullscreenenter"",""0"",""5999""
","
","
","""event"",""trial"",""time""
""fullscreenenter"",""0"",""5999""
","
","5167.0999999996275","<div class='center'><p><img src='run_exp/static/images/tutorial/prac_source.png'  height='500'></p></div>","50","","","","","","","","","","","","","","","","","","","","","","",""
"","html-keyboard-response","73","443444","0.0-48.0-0.0","""event"",""trial"",""time""
""fullscreenenter"",""0"",""5999""
","
","
","""event"",""trial"",""time""
""fullscreenenter"",""0"",""5999""
","
","1543.0999999996275","<div class='center'><p>That's correct! You saw this ship on the cavern island.</p><p><b>[Press the space bar to continue]</b></p></div>","32","","","","","","","","","","","","","","","","","","","","","","",""
"","quiz_beginning","74","455263","0.0-48.0-1.0","""event"",""trial"",""time""
""fullscreenenter"",""0"",""5999""
","
","
","""event"",""trial"",""time""
""fullscreenenter"",""0"",""5999""
","
","null","run_exp/static/audio/clip_16_quiz_intro.m4a","null","","","","","<div class='center'><p>Good job on the practice game! Now, you will be asked some true or false questions to make sure you really understand the rules of the game.</p><p> Press <b>'1'</b> on the keyboard for true and press <b>'2'</b> for false.</p></div>","","","","","","","","","","","","","","","","","",""
"","audio-keyboard-response","75","460484","0.0-48.0-2.0","""event"",""trial"",""time""
""fullscreenenter"",""0"",""5999""
","
","
","""event"",""trial"",""time""
""fullscreenenter"",""0"",""5999""
","
","5219.799999999814","run_exp/static/audio/clip_17_q1.m4a","49","","","","","","","","","","","","","","","","","","","","","","",""
"","correct","76","463053","0.0-49.0-0.0","""event"",""trial"",""time""
""fullscreenenter"",""0"",""5999""
","
","
","""event"",""trial"",""time""
""fullscreenenter"",""0"",""5999""
","
","null","run_exp/static/audio/clip_18_correct.m4a","null","","","","","<div class='center'><p>That's correct!</p></div>","","","","","","","","","","","","","","","","","",""
"","html-keyboard-response","77","464467","0.0-49.0-1.0","""event"",""trial"",""time""
""fullscreenenter"",""0"",""5999""
","
","
","""event"",""trial"",""time""
""fullscreenenter"",""0"",""5999""
","
","1413.800000000745","<div class='center'><p>That's correct!</p><p><b>[Press the space bar to continue]</b></p></div>","32","","","","","","","","","","","","","","","","","","","","","","",""
"","audio-keyboard-response","78","472684","0.0-49.0-2.0","""event"",""trial"",""time""
""fullscreenenter"",""0"",""5999""
","
","
","""event"",""trial"",""time""
""fullscreenenter"",""0"",""5999""
","
","8215.400000000373","run_exp/static/audio/clip_20_q2.m4a","50","","","","","","","","","","","","","","","","","","","","","","",""
"","correct","79","475253","0.0-50.0-0.0","""event"",""trial"",""time""
""fullscreenenter"",""0"",""5999""
","
","
","""event"",""trial"",""time""
""fullscreenenter"",""0"",""5999""
","
","null","run_exp/static/audio/clip_18_correct.m4a","null","","","","","<div class='center'><p>That's correct!</p></div>","","","","","","","","","","","","","","","","","",""
"","html-keyboard-response","80","476499","0.0-50.0-1.0","""event"",""trial"",""time""
""fullscreenenter"",""0"",""5999""
","
","
","""event"",""trial"",""time""
""fullscreenenter"",""0"",""5999""
","
","1245.3999999994412","<div class='center'><p>That's correct!</p><p><b>[Press the space bar to continue]</b></p></div>","32","","","","","","","","","","","","","","","","","","","","","","",""
"","audio-keyboard-response","81","483420","0.0-50.0-2.0","""event"",""trial"",""time""
""fullscreenenter"",""0"",""5999""
","
","
","""event"",""trial"",""time""
""fullscreenenter"",""0"",""5999""
","
","6920.0999999996275","run_exp/static/audio/clip_22_q3.m4a","50","","","","","","","","","","","","","","","","","","","","","","",""
"","correct","82","485983","0.0-51.0-0.0","""event"",""trial"",""time""
""fullscreenenter"",""0"",""5999""
","
","
","""event"",""trial"",""time""
""fullscreenenter"",""0"",""5999""
","
","null","run_exp/static/audio/clip_18_correct.m4a","null","","","","","<div class='center'><p>That's correct!</p></div>","","","","","","","","","","","","","","","","","",""
"","html-keyboard-response","83","486771","0.0-51.0-1.0","""event"",""trial"",""time""
""fullscreenenter"",""0"",""5999""
","
","
","""event"",""trial"",""time""
""fullscreenenter"",""0"",""5999""
","
","787.2999999998137","<div class='center'><p>That's correct!</p><p><b>[Press the space bar to continue]</b></p></div>","32","","","","","","","","","","","","","","","","","","","","","","",""
"","audio-keyboard-response","84","491467","0.0-51.0-2.0","""event"",""trial"",""time""
""fullscreenenter"",""0"",""5999""
","
","
","""event"",""trial"",""time""
""fullscreenenter"",""0"",""5999""
","
","4695.4000000003725","run_exp/static/audio/clip_24_q4.m4a","49","","","","","","","","","","","","","","","","","","","","","","",""
"","correct","85","494073","0.0-52.0-0.0","""event"",""trial"",""time""
""fullscreenenter"",""0"",""5999""
","
","
","""event"",""trial"",""time""
""fullscreenenter"",""0"",""5999""
","
","null","run_exp/static/audio/clip_18_correct.m4a","null","","","","","<div class='center'><p>That's correct!</p></div>","","","","","","","","","","","","","","","","","",""
"","html-keyboard-response","86","494796","0.0-52.0-1.0","""event"",""trial"",""time""
""fullscreenenter"",""0"",""5999""
","
","
","""event"",""trial"",""time""
""fullscreenenter"",""0"",""5999""
","
","721.6000000005588","<div class='center'><p>That's correct!</p><p><b>[Press the space bar to continue]</b></p></div>","32","","","","","","","","","","","","","","","","","","","","","","",""
"","q_all_corr","87","503463","0.0-53.0-0.0","""event"",""trial"",""time""
""fullscreenenter"",""0"",""5999""
","
","
","""event"",""trial"",""time""
""fullscreenenter"",""0"",""5999""
","
","null","run_exp/static/audio/clip_27_quiz_all_correct.m4a","null","","","","","<div class='center'><p>Good job! You’re now ready to move on to the real game! Remember this game will be difficult but don't get discouraged and try your best!</p></div>","","","","","","","","","","","","","","","","","",""
"","html-keyboard-response","88","504564","0.0-53.0-1.0","""event"",""trial"",""time""
""fullscreenenter"",""0"",""5999""
","
","
","""event"",""trial"",""time""
""fullscreenenter"",""0"",""5999""
","
","1099.5999999996275","<div class='center'><p>Good job! You’re now ready to move on to the real game! Remember this game will be difficult but don't get discouraged and try your best!</p><p><b>[Press the space bar to continue]</b></p></div>","32","","","","","","","","","","","","","","","","","","","","","","",""
"","do_welcome","89","508570","0.0-54.0-0.0","""event"",""trial"",""time""
""fullscreenenter"",""0"",""5999""
","
","
","""event"",""trial"",""time""
""fullscreenenter"",""0"",""5999""
","
","null","","","","","","","","null","","","","","","","","","","","","","","","","",""
"","do_trial","90","514085","0.0-55.0-0.0","""event"",""trial"",""time""
""fullscreenenter"",""0"",""5999""
","
","
","""event"",""trial"",""time""
""fullscreenenter"",""0"",""5999""
","
","971.9000000003725","","","","","","","","50","0,0,0","0","coast","0","probe-07","0.6","0.3","0.1","0","","","","","","","",""
"","html-keyboard-response","91","515090","0.0-55.0-1.0","""event"",""trial"",""time""
""fullscreenenter"",""0"",""5999""
","
","
","""event"",""trial"",""time""
""fullscreenenter"",""0"",""5999""
","
","null","<p></p>","null","","","","","","","","","","","","","","","","","","","","","","",""
"","do_trial","92","520010","0.0-56.0-0.0","""event"",""trial"",""time""
""fullscreenenter"",""0"",""5999""
","
","
","""event"",""trial"",""time""
""fullscreenenter"",""0"",""5999""
","
","379.5","","","","","","","","49","0,0,0","0","coast","1","probe-18","0.629090961277916","0.2547412779859111","0.08376504818450402","0","","","","","","","",""
"","html-keyboard-response","93","521012","0.0-56.0-1.0","""event"",""trial"",""time""
""fullscreenenter"",""0"",""5999""
","
","
","""event"",""trial"",""time""
""fullscreenenter"",""0"",""5999""
","
","null","<p></p>","null","","","","","","","","","","","","","","","","","","","","","","",""
"","do_trial","94","525901","0.0-57.0-0.0","""event"",""trial"",""time""
""fullscreenenter"",""0"",""5999""
","
","
","""event"",""trial"",""time""
""fullscreenenter"",""0"",""5999""
","
","347.1000000005588","","","","","","","","51","0,0,0","0","coast","2","probe-82","0.5786064768286677","0.3879273458281416","0.15429581062465275","0","","","","","","","",""
"","html-keyboard-response","95","526905","0.0-57.0-1.0","""event"",""trial"",""time""
""fullscreenenter"",""0"",""5999""
","
","
","""event"",""trial"",""time""
""fullscreenenter"",""0"",""5999""
","
","null","<p></p>","null","","","","","","","","","","","","","","","","","","","","","","",""
"","do_trial","96","531737","0.0-58.0-0.0","""event"",""trial"",""time""
""fullscreenenter"",""0"",""5999""
","
","
","""event"",""trial"",""time""
""fullscreenenter"",""0"",""5999""
","
","293.79999999981374","","","","","","","","50","0,1,0","0","coast","3","probe-142","0.6553348684418973","0.29299486231010685","0.2966030879165086","1","","","","","","","",""
"","html-keyboard-response","97","532741","0.0-58.0-1.0","""event"",""trial"",""time""
""fullscreenenter"",""0"",""5999""
","
","
","""event"",""trial"",""time""
""fullscreenenter"",""0"",""5999""
","
","null","<p></p>","null","","","","","","","","","","","","","","","","","","","","","","",""
"","do_trial","98","537786","0.0-59.0-0.0","""event"",""trial"",""time""
""fullscreenenter"",""0"",""5999""
""blur"",""99"",""537835""
","""event"",""trial"",""time""
""blur"",""99"",""537835""
","
","""event"",""trial"",""time""
""fullscreenenter"",""0"",""5999""
","
","505.59999999962747","","","","","","","","50","1,0,0","0","coast","4","probe-193","0.6534842827234781","0.3118767683897453","0.31846932798404715","0","","","","","","","",""
"","html-keyboard-response","99","539565","0.0-59.0-1.0","""event"",""trial"",""time""
""fullscreenenter"",""0"",""5999""
""blur"",""99"",""537835""
""focus"",""100"",""546320""
","""event"",""trial"",""time""
""blur"",""99"",""537835""
","""event"",""trial"",""time""
""focus"",""100"",""546320""
","""event"",""trial"",""time""
""fullscreenenter"",""0"",""5999""
","
","null","<p></p>","null","","","","","","","","","","","","","","","","","","","","","","",""
"","do_trial","100","546458","0.0-60.0-0.0","""event"",""trial"",""time""
""fullscreenenter"",""0"",""5999""
""blur"",""99"",""537835""
""focus"",""100"",""546320""
","""event"",""trial"",""time""
""blur"",""99"",""537835""
","""event"",""trial"",""time""
""focus"",""100"",""546320""
","""event"",""trial"",""time""
""fullscreenenter"",""0"",""5999""
","
","null","","","","","","","","null","1,0,0","0","coast","5","probe-70","0.659632108614799","0.2607070237122484","0.2397504808038917","","","","","","","","",""
"","html-keyboard-response","101","547463","0.0-60.0-1.0","""event"",""trial"",""time""
""fullscreenenter"",""0"",""5999""
""blur"",""99"",""537835""
""focus"",""100"",""546320""
","""event"",""trial"",""time""
""blur"",""99"",""537835""
","""event"",""trial"",""time""
""focus"",""100"",""546320""
","""event"",""trial"",""time""
""fullscreenenter"",""0"",""5999""
","
","null","<p></p>","null","","","","","","","","","","","","","","","","","","","","","","",""
"","do_trial","102","552852","0.0-61.0-0.0","""event"",""trial"",""time""
""fullscreenenter"",""0"",""5999""
""blur"",""99"",""537835""
""focus"",""100"",""546320""
","""event"",""trial"",""time""
""blur"",""99"",""537835""
","""event"",""trial"",""time""
""focus"",""100"",""546320""
","""event"",""trial"",""time""
""fullscreenenter"",""0"",""5999""
","
","847.1000000005588","","","","","","","","50","1,0,0","0","coast","6","probe-40","0.5779874964157566","0.39187763856587043","0.19295234991913146","0","","","","","","","",""
"","html-keyboard-response","103","553855","0.0-61.0-1.0","""event"",""trial"",""time""
""fullscreenenter"",""0"",""5999""
""blur"",""99"",""537835""
""focus"",""100"",""546320""
","""event"",""trial"",""time""
""blur"",""99"",""537835""
","""event"",""trial"",""time""
""focus"",""100"",""546320""
","""event"",""trial"",""time""
""fullscreenenter"",""0"",""5999""
","
","null","<p></p>","null","","","","","","","","","","","","","","","","","","","","","","",""
"","do_trial","104","558743","0.0-62.0-0.0","""event"",""trial"",""time""
""fullscreenenter"",""0"",""5999""
""blur"",""99"",""537835""
""focus"",""100"",""546320""
","""event"",""trial"",""time""
""blur"",""99"",""537835""
","""event"",""trial"",""time""
""focus"",""100"",""546320""
","""event"",""trial"",""time""
""fullscreenenter"",""0"",""5999""
","
","351.09999999962747","","","","","","","","49","1,1,0","0","coast","7","probe-72","0.7304198684978002","0.4288583732072558","0.22049737070464992","1","","","","","","","",""
"","html-keyboard-response","105","559749","0.0-62.0-1.0","""event"",""trial"",""time""
""fullscreenenter"",""0"",""5999""
""blur"",""99"",""537835""
""focus"",""100"",""546320""
""blur"",""106"",""560826""
","""event"",""trial"",""time""
""blur"",""99"",""537835""
""blur"",""106"",""560826""
","""event"",""trial"",""time""
""focus"",""100"",""546320""
","""event"",""trial"",""time""
""fullscreenenter"",""0"",""5999""
","
","null","<p></p>","null","","","","","","","","","","","","","","","","","","","","","","",""
"","do_trial","106","565458","0.0-63.0-0.0","""event"",""trial"",""time""
""fullscreenenter"",""0"",""5999""
""blur"",""99"",""537835""
""focus"",""100"",""546320""
""blur"",""106"",""560826""
","""event"",""trial"",""time""
""blur"",""99"",""537835""
""blur"",""106"",""560826""
","""event"",""trial"",""time""
""focus"",""100"",""546320""
","""event"",""trial"",""time""
""fullscreenenter"",""0"",""5999""
","
","386.09999999962747","","","","","","","","49","1,0,0","0","coast","8","probe-131","0.8117924505180161","0.45421626058309295","0.09999516070300957","1","","","","","","","",""
"","html-keyboard-response","107","567341","0.0-63.0-1.0","""event"",""trial"",""time""
""fullscreenenter"",""0"",""5999""
""blur"",""99"",""537835""
""focus"",""100"",""546320""
""blur"",""106"",""560826""
""focus"",""108"",""567388""
","""event"",""trial"",""time""
""blur"",""99"",""537835""
""blur"",""106"",""560826""
","""event"",""trial"",""time""
""focus"",""100"",""546320""
""focus"",""108"",""567388""
","""event"",""trial"",""time""
""fullscreenenter"",""0"",""5999""
","
","null","<p></p>","null","","","","","","","","","","","","","","","","","","","","","","",""
"","do_trial","108","573338","0.0-64.0-0.0","""event"",""trial"",""time""
""fullscreenenter"",""0"",""5999""
""blur"",""99"",""537835""
""focus"",""100"",""546320""
""blur"",""106"",""560826""
""focus"",""108"",""567388""
","""event"",""trial"",""time""
""blur"",""99"",""537835""
""blur"",""106"",""560826""
","""event"",""trial"",""time""
""focus"",""100"",""546320""
""focus"",""108"",""567388""
","""event"",""trial"",""time""
""fullscreenenter"",""0"",""5999""
","
","1447.3999999994412","","","","","","","","49","0,0,0","0","coast","9","probe-201","0.7226722104520122","0.2917322253184812","0.07691772594147898","0","","","","","","","",""
"","html-keyboard-response","109","574343","0.0-64.0-1.0","""event"",""trial"",""time""
""fullscreenenter"",""0"",""5999""
""blur"",""99"",""537835""
""focus"",""100"",""546320""
""blur"",""106"",""560826""
""focus"",""108"",""567388""
","""event"",""trial"",""time""
""blur"",""99"",""537835""
""blur"",""106"",""560826""
","""event"",""trial"",""time""
""focus"",""100"",""546320""
""focus"",""108"",""567388""
","""event"",""trial"",""time""
""fullscreenenter"",""0"",""5999""
","
","null","<p></p>","null","","","","","","","","","","","","","","","","","","","","","","",""
"","do_trial","110","579637","0.0-65.0-0.0","""event"",""trial"",""time""
""fullscreenenter"",""0"",""5999""
""blur"",""99"",""537835""
""focus"",""100"",""546320""
""blur"",""106"",""560826""
""focus"",""108"",""567388""
","""event"",""trial"",""time""
""blur"",""99"",""537835""
""blur"",""106"",""560826""
","""event"",""trial"",""time""
""focus"",""100"",""546320""
""focus"",""108"",""567388""
","""event"",""trial"",""time""
""fullscreenenter"",""0"",""5999""
","
","752","","","","","","","","51","1,0,0","0","coast","10","probe-24","0.7249154379068345","0.11836292134173966","0.07515862565703377","0","","","","","","","",""
"","html-keyboard-response","111","580640","0.0-65.0-1.0","""event"",""trial"",""time""
""fullscreenenter"",""0"",""5999""
""blur"",""99"",""537835""
""focus"",""100"",""546320""
""blur"",""106"",""560826""
""focus"",""108"",""567388""
","""event"",""trial"",""time""
""blur"",""99"",""537835""
""blur"",""106"",""560826""
","""event"",""trial"",""time""
""focus"",""100"",""546320""
""focus"",""108"",""567388""
","""event"",""trial"",""time""
""fullscreenenter"",""0"",""5999""
","
","null","<p></p>","null","","","","","","","","","","","","","","","","","","","","","","",""
"","do_trial","112","585724","0.0-66.0-0.0","""event"",""trial"",""time""
""fullscreenenter"",""0"",""5999""
""blur"",""99"",""537835""
""focus"",""100"",""546320""
""blur"",""106"",""560826""
""focus"",""108"",""567388""
","""event"",""trial"",""time""
""blur"",""99"",""537835""
""blur"",""106"",""560826""
","""event"",""trial"",""time""
""focus"",""100"",""546320""
""focus"",""108"",""567388""
","""event"",""trial"",""time""
""fullscreenenter"",""0"",""5999""
","
","542","","","","","","","","51","1,0,0","0","coast","11","probe-227","0.7170425259519221","0.12204808985786177","0.06469689247328228","0","","","","","","","",""
"","html-keyboard-response","113","586728","0.0-66.0-1.0","""event"",""trial"",""time""
""fullscreenenter"",""0"",""5999""
""blur"",""99"",""537835""
""focus"",""100"",""546320""
""blur"",""106"",""560826""
""focus"",""108"",""567388""
","""event"",""trial"",""time""
""blur"",""99"",""537835""
""blur"",""106"",""560826""
","""event"",""trial"",""time""
""focus"",""100"",""546320""
""focus"",""108"",""567388""
","""event"",""trial"",""time""
""fullscreenenter"",""0"",""5999""
","
","null","<p></p>","null","","","","","","","","","","","","","","","","","","","","","","",""
"","do_trial","114","591866","0.0-67.0-0.0","""event"",""trial"",""time""
""fullscreenenter"",""0"",""5999""
""blur"",""99"",""537835""
""focus"",""100"",""546320""
""blur"",""106"",""560826""
""focus"",""108"",""567388""
","""event"",""trial"",""time""
""blur"",""99"",""537835""
""blur"",""106"",""560826""
","""event"",""trial"",""time""
""focus"",""100"",""546320""
""focus"",""108"",""567388""
","""event"",""trial"",""time""
""fullscreenenter"",""0"",""5999""
","
","598","","","","","","","","49","0,0,0","0","coast","12","probe-147","0.5679572860915729","0.11758737098764517","0.2396833609476653","0","","","","","","","",""
"","html-keyboard-response","115","592870","0.0-67.0-1.0","""event"",""trial"",""time""
""fullscreenenter"",""0"",""5999""
""blur"",""99"",""537835""
""focus"",""100"",""546320""
""blur"",""106"",""560826""
""focus"",""108"",""567388""
","""event"",""trial"",""time""
""blur"",""99"",""537835""
""blur"",""106"",""560826""
","""event"",""trial"",""time""
""focus"",""100"",""546320""
""focus"",""108"",""567388""
","""event"",""trial"",""time""
""fullscreenenter"",""0"",""5999""
","
","null","<p></p>","null","","","","","","","","","","","","","","","","","","","","","","",""
"","do_trial","116","597688","0.0-68.0-0.0","""event"",""trial"",""time""
""fullscreenenter"",""0"",""5999""
""blur"",""99"",""537835""
""focus"",""100"",""546320""
""blur"",""106"",""560826""
""focus"",""108"",""567388""
","""event"",""trial"",""time""
""blur"",""99"",""537835""
""blur"",""106"",""560826""
","""event"",""trial"",""time""
""focus"",""100"",""546320""
""focus"",""108"",""567388""
","""event"",""trial"",""time""
""fullscreenenter"",""0"",""5999""
","
","279.6000000005588","","","","","","","","50","0,1,0","0","coast","13","probe-133","0.6249607571455058","0.19793107405389393","0.14163442006903168","1","","","","","","","",""
"","html-keyboard-response","117","598694","0.0-68.0-1.0","""event"",""trial"",""time""
""fullscreenenter"",""0"",""5999""
""blur"",""99"",""537835""
""focus"",""100"",""546320""
""blur"",""106"",""560826""
""focus"",""108"",""567388""
","""event"",""trial"",""time""
""blur"",""99"",""537835""
""blur"",""106"",""560826""
","""event"",""trial"",""time""
""focus"",""100"",""546320""
""focus"",""108"",""567388""
","""event"",""trial"",""time""
""fullscreenenter"",""0"",""5999""
","
","null","<p></p>","null","","","","","","","","","","","","","","","","","","","","","","",""
"","do_trial","118","603780","0.0-69.0-0.0","""event"",""trial"",""time""
""fullscreenenter"",""0"",""5999""
""blur"",""99"",""537835""
""focus"",""100"",""546320""
""blur"",""106"",""560826""
""focus"",""108"",""567388""
","""event"",""trial"",""time""
""blur"",""99"",""537835""
""blur"",""106"",""560826""
","""event"",""trial"",""time""
""focus"",""100"",""546320""
""focus"",""108"",""567388""
","""event"",""trial"",""time""
""fullscreenenter"",""0"",""5999""
","
","544.1000000005588","","","","","","","","50","1,0,0","0","coast","14","probe-214","0.5955878225547802","0.15757229650358145","0.2111356643718435","0","","","","","","","",""
"","html-keyboard-response","119","604786","0.0-69.0-1.0","""event"",""trial"",""time""
""fullscreenenter"",""0"",""5999""
""blur"",""99"",""537835""
""focus"",""100"",""546320""
""blur"",""106"",""560826""
""focus"",""108"",""567388""
","""event"",""trial"",""time""
""blur"",""99"",""537835""
""blur"",""106"",""560826""
","""event"",""trial"",""time""
""focus"",""100"",""546320""
""focus"",""108"",""567388""
","""event"",""trial"",""time""
""fullscreenenter"",""0"",""5999""
","
","null","<p></p>","null","","","","","","","","","","","","","","","","","","","","","","",""
"","do_trial","120","609648","0.0-70.0-0.0","""event"",""trial"",""time""
""fullscreenenter"",""0"",""5999""
""blur"",""99"",""537835""
""focus"",""100"",""546320""
""blur"",""106"",""560826""
""focus"",""108"",""567388""
","""event"",""trial"",""time""
""blur"",""99"",""537835""
""blur"",""106"",""560826""
","""event"",""trial"",""time""
""focus"",""100"",""546320""
""focus"",""108"",""567388""
","""event"",""trial"",""time""
""fullscreenenter"",""0"",""5999""
","
","324.8999999994412","","","","","","","","49","1,1,0","0","coast","15","probe-123","0.6392687600042897","0.29195603120801145","0.17575282893242872","1","","","","","","","",""
"","html-keyboard-response","121","610652","0.0-70.0-1.0","""event"",""trial"",""time""
""fullscreenenter"",""0"",""5999""
""blur"",""99"",""537835""
""focus"",""100"",""546320""
""blur"",""106"",""560826""
""focus"",""108"",""567388""
","""event"",""trial"",""time""
""blur"",""99"",""537835""
""blur"",""106"",""560826""
","""event"",""trial"",""time""
""focus"",""100"",""546320""
""focus"",""108"",""567388""
","""event"",""trial"",""time""
""fullscreenenter"",""0"",""5999""
","
","null","<p></p>","null","","","","","","","","","","","","","","","","","","","","","","",""
"","do_trial","122","615724","0.0-71.0-0.0","""event"",""trial"",""time""
""fullscreenenter"",""0"",""5999""
""blur"",""99"",""537835""
""focus"",""100"",""546320""
""blur"",""106"",""560826""
""focus"",""108"",""567388""
","""event"",""trial"",""time""
""blur"",""99"",""537835""
""blur"",""106"",""560826""
","""event"",""trial"",""time""
""focus"",""100"",""546320""
""focus"",""108"",""567388""
","""event"",""trial"",""time""
""fullscreenenter"",""0"",""5999""
","
","530.3000000007451","","","","","","","","50","0,0,1","0","coast","16","probe-170","0.45475928386576714","0.27988074533880863","0.1248283530192591","0","","","","","","","",""
"","html-keyboard-response","123","616729","0.0-71.0-1.0","""event"",""trial"",""time""
""fullscreenenter"",""0"",""5999""
""blur"",""99"",""537835""
""focus"",""100"",""546320""
""blur"",""106"",""560826""
""focus"",""108"",""567388""
","""event"",""trial"",""time""
""blur"",""99"",""537835""
""blur"",""106"",""560826""
","""event"",""trial"",""time""
""focus"",""100"",""546320""
""focus"",""108"",""567388""
","""event"",""trial"",""time""
""fullscreenenter"",""0"",""5999""
","
","null","<p></p>","null","","","","","","","","","","","","","","","","","","","","","","",""
"","do_trial","124","621724","0.0-72.0-0.0","""event"",""trial"",""time""
""fullscreenenter"",""0"",""5999""
""blur"",""99"",""537835""
""focus"",""100"",""546320""
""blur"",""106"",""560826""
""focus"",""108"",""567388""
","""event"",""trial"",""time""
""blur"",""99"",""537835""
""blur"",""106"",""560826""
","""event"",""trial"",""time""
""focus"",""100"",""546320""
""focus"",""108"",""567388""
","""event"",""trial"",""time""
""fullscreenenter"",""0"",""5999""
","
","453.40000000037253","","","","","","","","49","1,0,1","0","coast","17","probe-224","0.582210024045112","0.1687043048101675","0.17503486586762346","1","","","","","","","",""
"","html-keyboard-response","125","622728","0.0-72.0-1.0","""event"",""trial"",""time""
""fullscreenenter"",""0"",""5999""
""blur"",""99"",""537835""
""focus"",""100"",""546320""
""blur"",""106"",""560826""
""focus"",""108"",""567388""
","""event"",""trial"",""time""
""blur"",""99"",""537835""
""blur"",""106"",""560826""
","""event"",""trial"",""time""
""focus"",""100"",""546320""
""focus"",""108"",""567388""
","""event"",""trial"",""time""
""fullscreenenter"",""0"",""5999""
","
","null","<p></p>","null","","","","","","","","","","","","","","","","","","","","","","",""
"","do_trial","126","627645","0.0-73.0-0.0","""event"",""trial"",""time""
""fullscreenenter"",""0"",""5999""
""blur"",""99"",""537835""
""focus"",""100"",""546320""
""blur"",""106"",""560826""
""focus"",""108"",""567388""
","""event"",""trial"",""time""
""blur"",""99"",""537835""
""blur"",""106"",""560826""
","""event"",""trial"",""time""
""focus"",""100"",""546320""
""focus"",""108"",""567388""
","""event"",""trial"",""time""
""fullscreenenter"",""0"",""5999""
","
","373.8999999994412","","","","","","","","49","0,1,0","0","coast","18","probe-59","0.7579059667360997","0.13271473965759578","0.06387522484791196","0","","","","","","","",""
"","html-keyboard-response","127","628649","0.0-73.0-1.0","""event"",""trial"",""time""
""fullscreenenter"",""0"",""5999""
""blur"",""99"",""537835""
""focus"",""100"",""546320""
""blur"",""106"",""560826""
""focus"",""108"",""567388""
","""event"",""trial"",""time""
""blur"",""99"",""537835""
""blur"",""106"",""560826""
","""event"",""trial"",""time""
""focus"",""100"",""546320""
""focus"",""108"",""567388""
","""event"",""trial"",""time""
""fullscreenenter"",""0"",""5999""
","
","null","<p></p>","null","","","","","","","","","","","","","","","","","","","","","","",""
"","do_trial","128","633545","0.0-74.0-0.0","""event"",""trial"",""time""
""fullscreenenter"",""0"",""5999""
""blur"",""99"",""537835""
""focus"",""100"",""546320""
""blur"",""106"",""560826""
""focus"",""108"",""567388""
","""event"",""trial"",""time""
""blur"",""99"",""537835""
""blur"",""106"",""560826""
","""event"",""trial"",""time""
""focus"",""100"",""546320""
""focus"",""108"",""567388""
","""event"",""trial"",""time""
""fullscreenenter"",""0"",""5999""
","
","357.29999999981374","","","","","","","","50","1,0,0","0","coast","19","probe-48","0.7018747305188278","0.18695429046877965","0.15564255863985724","0","","","","","","","",""
"","html-keyboard-response","129","634549","0.0-74.0-1.0","""event"",""trial"",""time""
""fullscreenenter"",""0"",""5999""
""blur"",""99"",""537835""
""focus"",""100"",""546320""
""blur"",""106"",""560826""
""focus"",""108"",""567388""
","""event"",""trial"",""time""
""blur"",""99"",""537835""
""blur"",""106"",""560826""
","""event"",""trial"",""time""
""focus"",""100"",""546320""
""focus"",""108"",""567388""
","""event"",""trial"",""time""
""fullscreenenter"",""0"",""5999""
","
","null","<p></p>","null","","","","","","","","","","","","","","","","","","","","","","",""
"","do_trial","130","639444","0.0-75.0-0.0","""event"",""trial"",""time""
""fullscreenenter"",""0"",""5999""
""blur"",""99"",""537835""
""focus"",""100"",""546320""
""blur"",""106"",""560826""
""focus"",""108"",""567388""
","""event"",""trial"",""time""
""blur"",""99"",""537835""
""blur"",""106"",""560826""
","""event"",""trial"",""time""
""focus"",""100"",""546320""
""focus"",""108"",""567388""
","""event"",""trial"",""time""
""fullscreenenter"",""0"",""5999""
","
","353.30000000074506","","","","","","","","49","1,1,0","0","coast","20","probe-173","0.6848333189943563","0.16940831555132402","0.08303465834025975","1","","","","","","","",""
"","html-keyboard-response","131","640448","0.0-75.0-1.0","""event"",""trial"",""time""
""fullscreenenter"",""0"",""5999""
""blur"",""99"",""537835""
""focus"",""100"",""546320""
""blur"",""106"",""560826""
""focus"",""108"",""567388""
","""event"",""trial"",""time""
""blur"",""99"",""537835""
""blur"",""106"",""560826""
","""event"",""trial"",""time""
""focus"",""100"",""546320""
""focus"",""108"",""567388""
","""event"",""trial"",""time""
""fullscreenenter"",""0"",""5999""
","
","null","<p></p>","null","","","","","","","","","","","","","","","","","","","","","","",""
"","do_trial","132","645516","0.0-76.0-0.0","""event"",""trial"",""time""
""fullscreenenter"",""0"",""5999""
""blur"",""99"",""537835""
""focus"",""100"",""546320""
""blur"",""106"",""560826""
""focus"",""108"",""567388""
","""event"",""trial"",""time""
""blur"",""99"",""537835""
""blur"",""106"",""560826""
","""event"",""trial"",""time""
""focus"",""100"",""546320""
""focus"",""108"",""567388""
","""event"",""trial"",""time""
""fullscreenenter"",""0"",""5999""
","
","525.2999999998137","","","","","","","","49","1,0,0","0","coast","21","probe-28","0.5810594184711311","0.2218658319586998","0.1850956326669443","1","","","","","","","",""
"","html-keyboard-response","133","646520","0.0-76.0-1.0","""event"",""trial"",""time""
""fullscreenenter"",""0"",""5999""
""blur"",""99"",""537835""
""focus"",""100"",""546320""
""blur"",""106"",""560826""
""focus"",""108"",""567388""
","""event"",""trial"",""time""
""blur"",""99"",""537835""
""blur"",""106"",""560826""
","""event"",""trial"",""time""
""focus"",""100"",""546320""
""focus"",""108"",""567388""
","""event"",""trial"",""time""
""fullscreenenter"",""0"",""5999""
","
","null","<p></p>","null","","","","","","","","","","","","","","","","","","","","","","",""
"","do_trial","134","652068","0.0-77.0-0.0","""event"",""trial"",""time""
""fullscreenenter"",""0"",""5999""
""blur"",""99"",""537835""
""focus"",""100"",""546320""
""blur"",""106"",""560826""
""focus"",""108"",""567388""
","""event"",""trial"",""time""
""blur"",""99"",""537835""
""blur"",""106"",""560826""
","""event"",""trial"",""time""
""focus"",""100"",""546320""
""focus"",""108"",""567388""
","""event"",""trial"",""time""
""fullscreenenter"",""0"",""5999""
","
","1006.2000000001863","","","","","","","","49","0,1,0","0","coast","22","probe-167","0.6775089697124993","0.13169932672040152","0.14150453966676296","0","","","","","","","",""
"","html-keyboard-response","135","653072","0.0-77.0-1.0","""event"",""trial"",""time""
""fullscreenenter"",""0"",""5999""
""blur"",""99"",""537835""
""focus"",""100"",""546320""
""blur"",""106"",""560826""
""focus"",""108"",""567388""
","""event"",""trial"",""time""
""blur"",""99"",""537835""
""blur"",""106"",""560826""
","""event"",""trial"",""time""
""focus"",""100"",""546320""
""focus"",""108"",""567388""
","""event"",""trial"",""time""
""fullscreenenter"",""0"",""5999""
","
","null","<p></p>","null","","","","","","","","","","","","","","","","","","","","","","",""
"","do_trial","136","657944","0.0-78.0-0.0","""event"",""trial"",""time""
""fullscreenenter"",""0"",""5999""
""blur"",""99"",""537835""
""focus"",""100"",""546320""
""blur"",""106"",""560826""
""focus"",""108"",""567388""
","""event"",""trial"",""time""
""blur"",""99"",""537835""
""blur"",""106"",""560826""
","""event"",""trial"",""time""
""focus"",""100"",""546320""
""focus"",""108"",""567388""
","""event"",""trial"",""time""
""fullscreenenter"",""0"",""5999""
","
","333.79999999981374","","","","","","","","49","0,1,0","0","coast","23","probe-194","0.5077423120443154","0.21436606095642374","0.1201628836415382","0","","","","","","","",""
"","html-keyboard-response","137","658948","0.0-78.0-1.0","""event"",""trial"",""time""
""fullscreenenter"",""0"",""5999""
""blur"",""99"",""537835""
""focus"",""100"",""546320""
""blur"",""106"",""560826""
""focus"",""108"",""567388""
","""event"",""trial"",""time""
""blur"",""99"",""537835""
""blur"",""106"",""560826""
","""event"",""trial"",""time""
""focus"",""100"",""546320""
""focus"",""108"",""567388""
","""event"",""trial"",""time""
""fullscreenenter"",""0"",""5999""
","
","null","<p></p>","null","","","","","","","","","","","","","","","","","","","","","","",""
"","do_trial","138","664578","0.0-79.0-0.0","""event"",""trial"",""time""
""fullscreenenter"",""0"",""5999""
""blur"",""99"",""537835""
""focus"",""100"",""546320""
""blur"",""106"",""560826""
""focus"",""108"",""567388""
","""event"",""trial"",""time""
""blur"",""99"",""537835""
""blur"",""106"",""560826""
","""event"",""trial"",""time""
""focus"",""100"",""546320""
""focus"",""108"",""567388""
","""event"",""trial"",""time""
""fullscreenenter"",""0"",""5999""
","
","1089.800000000745","","","","","","","","49","1,0,0","0","coast","24","probe-180","0.5567829053051191","0.09927136260414042","0.14350459420540002","1","","","","","","","",""
"","html-keyboard-response","139","665581","0.0-79.0-1.0","""event"",""trial"",""time""
""fullscreenenter"",""0"",""5999""
""blur"",""99"",""537835""
""focus"",""100"",""546320""
""blur"",""106"",""560826""
""focus"",""108"",""567388""
","""event"",""trial"",""time""
""blur"",""99"",""537835""
""blur"",""106"",""560826""
","""event"",""trial"",""time""
""focus"",""100"",""546320""
""focus"",""108"",""567388""
","""event"",""trial"",""time""
""fullscreenenter"",""0"",""5999""
","
","null","<p></p>","null","","","","","","","","","","","","","","","","","","","","","","",""
"","do_trial","140","670492","0.0-80.0-0.0","""event"",""trial"",""time""
""fullscreenenter"",""0"",""5999""
""blur"",""99"",""537835""
""focus"",""100"",""546320""
""blur"",""106"",""560826""
""focus"",""108"",""567388""
","""event"",""trial"",""time""
""blur"",""99"",""537835""
""blur"",""106"",""560826""
","""event"",""trial"",""time""
""focus"",""100"",""546320""
""focus"",""108"",""567388""
","""event"",""trial"",""time""
""fullscreenenter"",""0"",""5999""
","
","368.5","","","","","","","","49","0,0,0","0","coast","25","probe-144","0.4944939162497024","0.18861728441888076","0.08748200336913108","0","","","","","","","",""
"","html-keyboard-response","141","671496","0.0-80.0-1.0","""event"",""trial"",""time""
""fullscreenenter"",""0"",""5999""
""blur"",""99"",""537835""
""focus"",""100"",""546320""
""blur"",""106"",""560826""
""focus"",""108"",""567388""
","""event"",""trial"",""time""
""blur"",""99"",""537835""
""blur"",""106"",""560826""
","""event"",""trial"",""time""
""focus"",""100"",""546320""
""focus"",""108"",""567388""
","""event"",""trial"",""time""
""fullscreenenter"",""0"",""5999""
","
","null","<p></p>","null","","","","","","","","","","","","","","","","","","","","","","",""
"","do_trial","142","676396","0.0-81.0-0.0","""event"",""trial"",""time""
""fullscreenenter"",""0"",""5999""
""blur"",""99"",""537835""
""focus"",""100"",""546320""
""blur"",""106"",""560826""
""focus"",""108"",""567388""
","""event"",""trial"",""time""
""blur"",""99"",""537835""
""blur"",""106"",""560826""
","""event"",""trial"",""time""
""focus"",""100"",""546320""
""focus"",""108"",""567388""
","""event"",""trial"",""time""
""fullscreenenter"",""0"",""5999""
","
","357.59999999962747","","","","","","","","49","0,0,0","0","coast","26","probe-08","0.48891233802544803","0.10301049874579703","0.10047219122825844","0","","","","","","","",""
"","html-keyboard-response","143","677400","0.0-81.0-1.0","""event"",""trial"",""time""
""fullscreenenter"",""0"",""5999""
""blur"",""99"",""537835""
""focus"",""100"",""546320""
""blur"",""106"",""560826""
""focus"",""108"",""567388""
","""event"",""trial"",""time""
""blur"",""99"",""537835""
""blur"",""106"",""560826""
","""event"",""trial"",""time""
""focus"",""100"",""546320""
""focus"",""108"",""567388""
","""event"",""trial"",""time""
""fullscreenenter"",""0"",""5999""
","
","null","<p></p>","null","","","","","","","","","","","","","","","","","","","","","","",""
"","do_trial","144","682580","0.0-82.0-0.0","""event"",""trial"",""time""
""fullscreenenter"",""0"",""5999""
""blur"",""99"",""537835""
""focus"",""100"",""546320""
""blur"",""106"",""560826""
""focus"",""108"",""567388""
","""event"",""trial"",""time""
""blur"",""99"",""537835""
""blur"",""106"",""560826""
","""event"",""trial"",""time""
""focus"",""100"",""546320""
""focus"",""108"",""567388""
","""event"",""trial"",""time""
""fullscreenenter"",""0"",""5999""
","
","637.6000000005588","","","","","","","","49","0,0,0","0","coast","27","probe-168","0.5835348612203081","0.18530635092363235","0.19803366692441507","0","","","","","","","",""
"","html-keyboard-response","145","683584","0.0-82.0-1.0","""event"",""trial"",""time""
""fullscreenenter"",""0"",""5999""
""blur"",""99"",""537835""
""focus"",""100"",""546320""
""blur"",""106"",""560826""
""focus"",""108"",""567388""
","""event"",""trial"",""time""
""blur"",""99"",""537835""
""blur"",""106"",""560826""
","""event"",""trial"",""time""
""focus"",""100"",""546320""
""focus"",""108"",""567388""
","""event"",""trial"",""time""
""fullscreenenter"",""0"",""5999""
","
","null","<p></p>","null","","","","","","","","","","","","","","","","","","","","","","",""
"","do_trial","146","688651","0.0-83.0-0.0","""event"",""trial"",""time""
""fullscreenenter"",""0"",""5999""
""blur"",""99"",""537835""
""focus"",""100"",""546320""
""blur"",""106"",""560826""
""focus"",""108"",""567388""
","""event"",""trial"",""time""
""blur"",""99"",""537835""
""blur"",""106"",""560826""
","""event"",""trial"",""time""
""focus"",""100"",""546320""
""focus"",""108"",""567388""
","""event"",""trial"",""time""
""fullscreenenter"",""0"",""5999""
","
","525.7000000001863","","","","","","","","49","0,0,0","0","coast","28","probe-183","0.5927880882249381","0.2282827402835397","0.05451726060377604","0","","","","","","","",""
"","html-keyboard-response","147","689653","0.0-83.0-1.0","""event"",""trial"",""time""
""fullscreenenter"",""0"",""5999""
""blur"",""99"",""537835""
""focus"",""100"",""546320""
""blur"",""106"",""560826""
""focus"",""108"",""567388""
","""event"",""trial"",""time""
""blur"",""99"",""537835""
""blur"",""106"",""560826""
","""event"",""trial"",""time""
""focus"",""100"",""546320""
""focus"",""108"",""567388""
","""event"",""trial"",""time""
""fullscreenenter"",""0"",""5999""
","
","null","<p></p>","null","","","","","","","","","","","","","","","","","","","","","","",""
"","do_trial","148","694508","0.0-84.0-0.0","""event"",""trial"",""time""
""fullscreenenter"",""0"",""5999""
""blur"",""99"",""537835""
""focus"",""100"",""546320""
""blur"",""106"",""560826""
""focus"",""108"",""567388""
","""event"",""trial"",""time""
""blur"",""99"",""537835""
""blur"",""106"",""560826""
","""event"",""trial"",""time""
""focus"",""100"",""546320""
""focus"",""108"",""567388""
","""event"",""trial"",""time""
""fullscreenenter"",""0"",""5999""
","
","313","","","","","","","","49","0,0,0","0","coast","29","probe-19","0.617086437062058","0.27437966891256854","0.09902827306935079","0","","","","","","","",""
"","html-keyboard-response","149","695512","0.0-84.0-1.0","""event"",""trial"",""time""
""fullscreenenter"",""0"",""5999""
""blur"",""99"",""537835""
""focus"",""100"",""546320""
""blur"",""106"",""560826""
""focus"",""108"",""567388""
","""event"",""trial"",""time""
""blur"",""99"",""537835""
""blur"",""106"",""560826""
","""event"",""trial"",""time""
""focus"",""100"",""546320""
""focus"",""108"",""567388""
","""event"",""trial"",""time""
""fullscreenenter"",""0"",""5999""
","
","null","<p></p>","null","","","","","","","","","","","","","","","","","","","","","","",""
"","do_bye","150","697018","0.0-85.0-0.0","""event"",""trial"",""time""
""fullscreenenter"",""0"",""5999""
""blur"",""99"",""537835""
""focus"",""100"",""546320""
""blur"",""106"",""560826""
""focus"",""108"",""567388""
","""event"",""trial"",""time""
""blur"",""99"",""537835""
""blur"",""106"",""560826""
","""event"",""trial"",""time""
""focus"",""100"",""546320""
""focus"",""108"",""567388""
","""event"",""trial"",""time""
""fullscreenenter"",""0"",""5999""
","
","null","","","","","","","","null","","","","","","","","","","","","","","","","",""
"","break","151","714178","0.0-85.0-1.0","""event"",""trial"",""time""
""fullscreenenter"",""0"",""5999""
""blur"",""99"",""537835""
""focus"",""100"",""546320""
""blur"",""106"",""560826""
""focus"",""108"",""567388""
","""event"",""trial"",""time""
""blur"",""99"",""537835""
""blur"",""106"",""560826""
","""event"",""trial"",""time""
""focus"",""100"",""546320""
""focus"",""108"",""567388""
","""event"",""trial"",""time""
""fullscreenenter"",""0"",""5999""
","
","17158.700000000186","<div class='center'><p>Time to take a quick break! You have 2 minutes to rest, but you can move on sooner if you'd like.</p><p> Press the <b>space bar</b> to continue.</p></div>","32","","","","","","","","","","","","","","","","","","","","","","",""
"","do_travel","152","723185","0.0-86.0-0.0","""event"",""trial"",""time""
""fullscreenenter"",""0"",""5999""
""blur"",""99"",""537835""
""focus"",""100"",""546320""
""blur"",""106"",""560826""
""focus"",""108"",""567388""
","""event"",""trial"",""time""
""blur"",""99"",""537835""
""blur"",""106"",""560826""
","""event"",""trial"",""time""
""focus"",""100"",""546320""
""focus"",""108"",""567388""
","""event"",""trial"",""time""
""fullscreenenter"",""0"",""5999""
","
","null","","","","","","","","null","","","","","","","","","","","","","","","","",""
"","do_welcome","153","727192","0.0-86.0-1.0","""event"",""trial"",""time""
""fullscreenenter"",""0"",""5999""
""blur"",""99"",""537835""
""focus"",""100"",""546320""
""blur"",""106"",""560826""
""focus"",""108"",""567388""
","""event"",""trial"",""time""
""blur"",""99"",""537835""
""blur"",""106"",""560826""
","""event"",""trial"",""time""
""focus"",""100"",""546320""
""focus"",""108"",""567388""
","""event"",""trial"",""time""
""fullscreenenter"",""0"",""5999""
","
","null","","","","","","","","null","","","","","","","","","","","","","","","","",""
"","do_trial","154","733151","0.0-87.0-0.0","""event"",""trial"",""time""
""fullscreenenter"",""0"",""5999""
""blur"",""99"",""537835""
""focus"",""100"",""546320""
""blur"",""106"",""560826""
""focus"",""108"",""567388""
","""event"",""trial"",""time""
""blur"",""99"",""537835""
""blur"",""106"",""560826""
","""event"",""trial"",""time""
""focus"",""100"",""546320""
""focus"",""108"",""567388""
","""event"",""trial"",""time""
""fullscreenenter"",""0"",""5999""
","
","1420.2999999998137","","","","","","","","50","1,0,0","1","city","30","probe-187","1","0.40115663732042917","0.17300210787668419","0","","","","","","","",""
"","html-keyboard-response","155","734156","0.0-87.0-1.0","""event"",""trial"",""time""
""fullscreenenter"",""0"",""5999""
""blur"",""99"",""537835""
""focus"",""100"",""546320""
""blur"",""106"",""560826""
""focus"",""108"",""567388""
","""event"",""trial"",""time""
""blur"",""99"",""537835""
""blur"",""106"",""560826""
","""event"",""trial"",""time""
""focus"",""100"",""546320""
""focus"",""108"",""567388""
","""event"",""trial"",""time""
""fullscreenenter"",""0"",""5999""
","
","null","<p></p>","null","","","","","","","","","","","","","","","","","","","","","","",""
"","do_trial","156","739259","0.0-88.0-0.0","""event"",""trial"",""time""
""fullscreenenter"",""0"",""5999""
""blur"",""99"",""537835""
""focus"",""100"",""546320""
""blur"",""106"",""560826""
""focus"",""108"",""567388""
","""event"",""trial"",""time""
""blur"",""99"",""537835""
""blur"",""106"",""560826""
","""event"",""trial"",""time""
""focus"",""100"",""546320""
""focus"",""108"",""567388""
","""event"",""trial"",""time""
""fullscreenenter"",""0"",""5999""
","
","560.3999999994412","","","","","","","","51","1,0,0","1","city","31","probe-53","1","0.42698384326145944","0.08504274478090203","0","","","","","","","",""
"","html-keyboard-response","157","740263","0.0-88.0-1.0","""event"",""trial"",""time""
""fullscreenenter"",""0"",""5999""
""blur"",""99"",""537835""
""focus"",""100"",""546320""
""blur"",""106"",""560826""
""focus"",""108"",""567388""
","""event"",""trial"",""time""
""blur"",""99"",""537835""
""blur"",""106"",""560826""
","""event"",""trial"",""time""
""focus"",""100"",""546320""
""focus"",""108"",""567388""
","""event"",""trial"",""time""
""fullscreenenter"",""0"",""5999""
","
","null","<p></p>","null","","","","","","","","","","","","","","","","","","","","","","",""
"","do_trial","158","745123","0.0-89.0-0.0","""event"",""trial"",""time""
""fullscreenenter"",""0"",""5999""
""blur"",""99"",""537835""
""focus"",""100"",""546320""
""blur"",""106"",""560826""
""focus"",""108"",""567388""
","""event"",""trial"",""time""
""blur"",""99"",""537835""
""blur"",""106"",""560826""
","""event"",""trial"",""time""
""focus"",""100"",""546320""
""focus"",""108"",""567388""
","""event"",""trial"",""time""
""fullscreenenter"",""0"",""5999""
","
","317.70000000018626","","","","","","","","49","1,0,0","1","city","32","probe-13","1","0.4687089585952672","0.1185532120556129","1","","","","","","","",""
"","html-keyboard-response","159","746128","0.0-89.0-1.0","""event"",""trial"",""time""
""fullscreenenter"",""0"",""5999""
""blur"",""99"",""537835""
""focus"",""100"",""546320""
""blur"",""106"",""560826""
""focus"",""108"",""567388""
","""event"",""trial"",""time""
""blur"",""99"",""537835""
""blur"",""106"",""560826""
","""event"",""trial"",""time""
""focus"",""100"",""546320""
""focus"",""108"",""567388""
","""event"",""trial"",""time""
""fullscreenenter"",""0"",""5999""
","
","null","<p></p>","null","","","","","","","","","","","","","","","","","","","","","","",""
"","do_trial","160","751360","0.0-90.0-0.0","""event"",""trial"",""time""
""fullscreenenter"",""0"",""5999""
""blur"",""99"",""537835""
""focus"",""100"",""546320""
""blur"",""106"",""560826""
""focus"",""108"",""567388""
","""event"",""trial"",""time""
""blur"",""99"",""537835""
""blur"",""106"",""560826""
","""event"",""trial"",""time""
""focus"",""100"",""546320""
""focus"",""108"",""567388""
","""event"",""trial"",""time""
""fullscreenenter"",""0"",""5999""
","
","692","","","","","","","","49","1,1,1","1","city","33","probe-155","0.8720393771539311","0.41399714969963414","0.22627772367947463","1","","","","","","","",""
"","html-keyboard-response","161","752365","0.0-90.0-1.0","""event"",""trial"",""time""
""fullscreenenter"",""0"",""5999""
""blur"",""99"",""537835""
""focus"",""100"",""546320""
""blur"",""106"",""560826""
""focus"",""108"",""567388""
","""event"",""trial"",""time""
""blur"",""99"",""537835""
""blur"",""106"",""560826""
","""event"",""trial"",""time""
""focus"",""100"",""546320""
""focus"",""108"",""567388""
","""event"",""trial"",""time""
""fullscreenenter"",""0"",""5999""
","
","null","<p></p>","null","","","","","","","","","","","","","","","","","","","","","","",""
"","do_trial","162","757625","0.0-91.0-0.0","""event"",""trial"",""time""
""fullscreenenter"",""0"",""5999""
""blur"",""99"",""537835""
""focus"",""100"",""546320""
""blur"",""106"",""560826""
""focus"",""108"",""567388""
","""event"",""trial"",""time""
""blur"",""99"",""537835""
""blur"",""106"",""560826""
","""event"",""trial"",""time""
""focus"",""100"",""546320""
""focus"",""108"",""567388""
","""event"",""trial"",""time""
""fullscreenenter"",""0"",""5999""
","
","721.0999999996275","","","","","","","","49","1,1,0","1","city","34","probe-208","0.7763769431878014","0.28655144190485893","0.11428389012835803","1","","","","","","","",""
"","html-keyboard-response","163","758629","0.0-91.0-1.0","""event"",""trial"",""time""
""fullscreenenter"",""0"",""5999""
""blur"",""99"",""537835""
""focus"",""100"",""546320""
""blur"",""106"",""560826""
""focus"",""108"",""567388""
","""event"",""trial"",""time""
""blur"",""99"",""537835""
""blur"",""106"",""560826""
","""event"",""trial"",""time""
""focus"",""100"",""546320""
""focus"",""108"",""567388""
","""event"",""trial"",""time""
""fullscreenenter"",""0"",""5999""
","
","null","<p></p>","null","","","","","","","","","","","","","","","","","","","","","","",""
"","do_trial","164","764676","0.0-92.0-0.0","""event"",""trial"",""time""
""fullscreenenter"",""0"",""5999""
""blur"",""99"",""537835""
""focus"",""100"",""546320""
""blur"",""106"",""560826""
""focus"",""108"",""567388""
","""event"",""trial"",""time""
""blur"",""99"",""537835""
""blur"",""106"",""560826""
","""event"",""trial"",""time""
""focus"",""100"",""546320""
""focus"",""108"",""567388""
","""event"",""trial"",""time""
""fullscreenenter"",""0"",""5999""
","
","null","","","","","","","","null","0,0,0","1","city","35","probe-120","0.7264388585018374","0.3032383100433704","0.08881839956464103","","","","","","","","",""
"","html-keyboard-response","165","765680","0.0-92.0-1.0","""event"",""trial"",""time""
""fullscreenenter"",""0"",""5999""
""blur"",""99"",""537835""
""focus"",""100"",""546320""
""blur"",""106"",""560826""
""focus"",""108"",""567388""
","""event"",""trial"",""time""
""blur"",""99"",""537835""
""blur"",""106"",""560826""
","""event"",""trial"",""time""
""focus"",""100"",""546320""
""focus"",""108"",""567388""
","""event"",""trial"",""time""
""fullscreenenter"",""0"",""5999""
","
","null","<p></p>","null","","","","","","","","","","","","","","","","","","","","","","",""
"","do_trial","166","770683","0.0-93.0-0.0","""event"",""trial"",""time""
""fullscreenenter"",""0"",""5999""
""blur"",""99"",""537835""
""focus"",""100"",""546320""
""blur"",""106"",""560826""
""focus"",""108"",""567388""
","""event"",""trial"",""time""
""blur"",""99"",""537835""
""blur"",""106"",""560826""
","""event"",""trial"",""time""
""focus"",""100"",""546320""
""focus"",""108"",""567388""
","""event"",""trial"",""time""
""fullscreenenter"",""0"",""5999""
","
","461","","","","","","","","49","1,0,0","1","city","36","probe-226","0.643415436234341","0.3925344922275982","0.08348574462402535","1","","","","","","","",""
"","html-keyboard-response","167","771687","0.0-93.0-1.0","""event"",""trial"",""time""
""fullscreenenter"",""0"",""5999""
""blur"",""99"",""537835""
""focus"",""100"",""546320""
""blur"",""106"",""560826""
""focus"",""108"",""567388""
","""event"",""trial"",""time""
""blur"",""99"",""537835""
""blur"",""106"",""560826""
","""event"",""trial"",""time""
""focus"",""100"",""546320""
""focus"",""108"",""567388""
","""event"",""trial"",""time""
""fullscreenenter"",""0"",""5999""
","
","null","<p></p>","null","","","","","","","","","","","","","","","","","","","","","","",""
"","do_trial","168","776643","0.0-94.0-0.0","""event"",""trial"",""time""
""fullscreenenter"",""0"",""5999""
""blur"",""99"",""537835""
""focus"",""100"",""546320""
""blur"",""106"",""560826""
""focus"",""108"",""567388""
","""event"",""trial"",""time""
""blur"",""99"",""537835""
""blur"",""106"",""560826""
","""event"",""trial"",""time""
""focus"",""100"",""546320""
""focus"",""108"",""567388""
","""event"",""trial"",""time""
""fullscreenenter"",""0"",""5999""
","
","414.29999999981374","","","","","","","","50","0,1,0","1","city","37","probe-01","0.6486258428235943","0.25335549336058355","0.17595380404924144","1","","","","","","","",""
"","html-keyboard-response","169","777645","0.0-94.0-1.0","""event"",""trial"",""time""
""fullscreenenter"",""0"",""5999""
""blur"",""99"",""537835""
""focus"",""100"",""546320""
""blur"",""106"",""560826""
""focus"",""108"",""567388""
","""event"",""trial"",""time""
""blur"",""99"",""537835""
""blur"",""106"",""560826""
","""event"",""trial"",""time""
""focus"",""100"",""546320""
""focus"",""108"",""567388""
","""event"",""trial"",""time""
""fullscreenenter"",""0"",""5999""
","
","null","<p></p>","null","","","","","","","","","","","","","","","","","","","","","","",""
"","do_trial","170","782866","0.0-95.0-0.0","""event"",""trial"",""time""
""fullscreenenter"",""0"",""5999""
""blur"",""99"",""537835""
""focus"",""100"",""546320""
""blur"",""106"",""560826""
""focus"",""108"",""567388""
","""event"",""trial"",""time""
""blur"",""99"",""537835""
""blur"",""106"",""560826""
","""event"",""trial"",""time""
""focus"",""100"",""546320""
""focus"",""108"",""567388""
","""event"",""trial"",""time""
""fullscreenenter"",""0"",""5999""
","
","680.9000000003725","","","","","","","","49","1,0,0","1","city","38","probe-150","0.6137838298989174","0.19427126365412878","0.16166248223765411","1","","","","","","","",""
"","html-keyboard-response","171","783869","0.0-95.0-1.0","""event"",""trial"",""time""
""fullscreenenter"",""0"",""5999""
""blur"",""99"",""537835""
""focus"",""100"",""546320""
""blur"",""106"",""560826""
""focus"",""108"",""567388""
","""event"",""trial"",""time""
""blur"",""99"",""537835""
""blur"",""106"",""560826""
","""event"",""trial"",""time""
""focus"",""100"",""546320""
""focus"",""108"",""567388""
","""event"",""trial"",""time""
""fullscreenenter"",""0"",""5999""
","
","null","<p></p>","null","","","","","","","","","","","","","","","","","","","","","","",""
"","do_trial","172","788952","0.0-96.0-0.0","""event"",""trial"",""time""
""fullscreenenter"",""0"",""5999""
""blur"",""99"",""537835""
""focus"",""100"",""546320""
""blur"",""106"",""560826""
""focus"",""108"",""567388""
","""event"",""trial"",""time""
""blur"",""99"",""537835""
""blur"",""106"",""560826""
","""event"",""trial"",""time""
""focus"",""100"",""546320""
""focus"",""108"",""567388""
","""event"",""trial"",""time""
""fullscreenenter"",""0"",""5999""
","
","592.7999999998137","","","","","","","","49","1,0,1","1","city","39","probe-119","0.45039438610681537","0.29248709687142826","0.15807994635484673","1","","","","","","","",""
"","html-keyboard-response","173","789956","0.0-96.0-1.0","""event"",""trial"",""time""
""fullscreenenter"",""0"",""5999""
""blur"",""99"",""537835""
""focus"",""100"",""546320""
""blur"",""106"",""560826""
""focus"",""108"",""567388""
","""event"",""trial"",""time""
""blur"",""99"",""537835""
""blur"",""106"",""560826""
","""event"",""trial"",""time""
""focus"",""100"",""546320""
""focus"",""108"",""567388""
","""event"",""trial"",""time""
""fullscreenenter"",""0"",""5999""
","
","null","<p></p>","null","","","","","","","","","","","","","","","","","","","","","","",""
"","do_trial","174","795000","0.0-97.0-0.0","""event"",""trial"",""time""
""fullscreenenter"",""0"",""5999""
""blur"",""99"",""537835""
""focus"",""100"",""546320""
""blur"",""106"",""560826""
""focus"",""108"",""567388""
","""event"",""trial"",""time""
""blur"",""99"",""537835""
""blur"",""106"",""560826""
","""event"",""trial"",""time""
""focus"",""100"",""546320""
""focus"",""108"",""567388""
","""event"",""trial"",""time""
""fullscreenenter"",""0"",""5999""
","
","502.09999999962747","","","","","","","","49","0,1,0","1","city","40","probe-212","0.42511104816807427","0.3959668242606961","0.1371218322669975","0","","","","","","","",""
"","html-keyboard-response","175","796003","0.0-97.0-1.0","""event"",""trial"",""time""
""fullscreenenter"",""0"",""5999""
""blur"",""99"",""537835""
""focus"",""100"",""546320""
""blur"",""106"",""560826""
""focus"",""108"",""567388""
","""event"",""trial"",""time""
""blur"",""99"",""537835""
""blur"",""106"",""560826""
","""event"",""trial"",""time""
""focus"",""100"",""546320""
""focus"",""108"",""567388""
","""event"",""trial"",""time""
""fullscreenenter"",""0"",""5999""
","
","null","<p></p>","null","","","","","","","","","","","","","","","","","","","","","","",""
"","do_trial","176","801110","0.0-98.0-0.0","""event"",""trial"",""time""
""fullscreenenter"",""0"",""5999""
""blur"",""99"",""537835""
""focus"",""100"",""546320""
""blur"",""106"",""560826""
""focus"",""108"",""567388""
","""event"",""trial"",""time""
""blur"",""99"",""537835""
""blur"",""106"",""560826""
","""event"",""trial"",""time""
""focus"",""100"",""546320""
""focus"",""108"",""567388""
","""event"",""trial"",""time""
""fullscreenenter"",""0"",""5999""
","
","566.2000000001863","","","","","","","","49","1,0,0","1","city","41","probe-190","0.5352767376582293","0.5173344722380527","0.18900943606453063","1","","","","","","","",""
"","html-keyboard-response","177","802114","0.0-98.0-1.0","""event"",""trial"",""time""
""fullscreenenter"",""0"",""5999""
""blur"",""99"",""537835""
""focus"",""100"",""546320""
""blur"",""106"",""560826""
""focus"",""108"",""567388""
","""event"",""trial"",""time""
""blur"",""99"",""537835""
""blur"",""106"",""560826""
","""event"",""trial"",""time""
""focus"",""100"",""546320""
""focus"",""108"",""567388""
","""event"",""trial"",""time""
""fullscreenenter"",""0"",""5999""
","
","null","<p></p>","null","","","","","","","","","","","","","","","","","","","","","","",""
"","do_trial","178","807319","0.0-99.0-0.0","""event"",""trial"",""time""
""fullscreenenter"",""0"",""5999""
""blur"",""99"",""537835""
""focus"",""100"",""546320""
""blur"",""106"",""560826""
""focus"",""108"",""567388""
","""event"",""trial"",""time""
""blur"",""99"",""537835""
""blur"",""106"",""560826""
","""event"",""trial"",""time""
""focus"",""100"",""546320""
""focus"",""108"",""567388""
","""event"",""trial"",""time""
""fullscreenenter"",""0"",""5999""
","
","663.0999999996275","","","","","","","","49","0,0,0","1","city","42","probe-98","0.48689284282226775","0.569331943947184","0.09267502024824877","0","","","","","","","",""
"","html-keyboard-response","179","808323","0.0-99.0-1.0","""event"",""trial"",""time""
""fullscreenenter"",""0"",""5999""
""blur"",""99"",""537835""
""focus"",""100"",""546320""
""blur"",""106"",""560826""
""focus"",""108"",""567388""
","""event"",""trial"",""time""
""blur"",""99"",""537835""
""blur"",""106"",""560826""
","""event"",""trial"",""time""
""focus"",""100"",""546320""
""focus"",""108"",""567388""
","""event"",""trial"",""time""
""fullscreenenter"",""0"",""5999""
","
","null","<p></p>","null","","","","","","","","","","","","","","","","","","","","","","",""
"","do_trial","180","813254","0.0-100.0-0.0","""event"",""trial"",""time""
""fullscreenenter"",""0"",""5999""
""blur"",""99"",""537835""
""focus"",""100"",""546320""
""blur"",""106"",""560826""
""focus"",""108"",""567388""
","""event"",""trial"",""time""
""blur"",""99"",""537835""
""blur"",""106"",""560826""
","""event"",""trial"",""time""
""focus"",""100"",""546320""
""focus"",""108"",""567388""
","""event"",""trial"",""time""
""fullscreenenter"",""0"",""5999""
","
","389.70000000018626","","","","","","","","49","0,0,0","1","city","43","probe-134","0.403299107482072","0.6360260892502593","0.05218286341355327","0","","","","","","","",""
"","html-keyboard-response","181","814258","0.0-100.0-1.0","""event"",""trial"",""time""
""fullscreenenter"",""0"",""5999""
""blur"",""99"",""537835""
""focus"",""100"",""546320""
""blur"",""106"",""560826""
""focus"",""108"",""567388""
","""event"",""trial"",""time""
""blur"",""99"",""537835""
""blur"",""106"",""560826""
","""event"",""trial"",""time""
""focus"",""100"",""546320""
""focus"",""108"",""567388""
","""event"",""trial"",""time""
""fullscreenenter"",""0"",""5999""
","
","null","<p></p>","null","","","","","","","","","","","","","","","","","","","","","","",""
"","do_trial","182","819363","0.0-101.0-0.0","""event"",""trial"",""time""
""fullscreenenter"",""0"",""5999""
""blur"",""99"",""537835""
""focus"",""100"",""546320""
""blur"",""106"",""560826""
""focus"",""108"",""567388""
","""event"",""trial"",""time""
""blur"",""99"",""537835""
""blur"",""106"",""560826""
","""event"",""trial"",""time""
""focus"",""100"",""546320""
""focus"",""108"",""567388""
","""event"",""trial"",""time""
""fullscreenenter"",""0"",""5999""
","
","565","","","","","","","","49","0,1,0","1","city","44","probe-47","0.24652712412111696","0.7710216171203571","0.1269691984592522","0","","","","","","","",""
"","html-keyboard-response","183","820367","0.0-101.0-1.0","""event"",""trial"",""time""
""fullscreenenter"",""0"",""5999""
""blur"",""99"",""537835""
""focus"",""100"",""546320""
""blur"",""106"",""560826""
""focus"",""108"",""567388""
","""event"",""trial"",""time""
""blur"",""99"",""537835""
""blur"",""106"",""560826""
","""event"",""trial"",""time""
""focus"",""100"",""546320""
""focus"",""108"",""567388""
","""event"",""trial"",""time""
""fullscreenenter"",""0"",""5999""
","
","null","<p></p>","null","","","","","","","","","","","","","","","","","","","","","","",""
"","do_trial","184","825438","0.0-102.0-0.0","""event"",""trial"",""time""
""fullscreenenter"",""0"",""5999""
""blur"",""99"",""537835""
""focus"",""100"",""546320""
""blur"",""106"",""560826""
""focus"",""108"",""567388""
","""event"",""trial"",""time""
""blur"",""99"",""537835""
""blur"",""106"",""560826""
","""event"",""trial"",""time""
""focus"",""100"",""546320""
""focus"",""108"",""567388""
","""event"",""trial"",""time""
""fullscreenenter"",""0"",""5999""
","
","528","","","","","","","","49","0,1,0","1","city","45","probe-54","0.31493646743499887","0.8408804534611831","0.09836808800513165","0","","","","","","","",""
"","html-keyboard-response","185","826440","0.0-102.0-1.0","""event"",""trial"",""time""
""fullscreenenter"",""0"",""5999""
""blur"",""99"",""537835""
""focus"",""100"",""546320""
""blur"",""106"",""560826""
""focus"",""108"",""567388""
","""event"",""trial"",""time""
""blur"",""99"",""537835""
""blur"",""106"",""560826""
","""event"",""trial"",""time""
""focus"",""100"",""546320""
""focus"",""108"",""567388""
","""event"",""trial"",""time""
""fullscreenenter"",""0"",""5999""
","
","null","<p></p>","null","","","","","","","","","","","","","","","","","","","","","","",""
"","do_trial","186","831357","0.0-103.0-0.0","""event"",""trial"",""time""
""fullscreenenter"",""0"",""5999""
""blur"",""99"",""537835""
""focus"",""100"",""546320""
""blur"",""106"",""560826""
""focus"",""108"",""567388""
","""event"",""trial"",""time""
""blur"",""99"",""537835""
""blur"",""106"",""560826""
","""event"",""trial"",""time""
""focus"",""100"",""546320""
""focus"",""108"",""567388""
","""event"",""trial"",""time""
""fullscreenenter"",""0"",""5999""
","
","375.5","","","","","","","","49","0,1,0","1","city","46","probe-89","0.27616849024163087","0.7717877565670576","0.05058295603814642","0","","","","","","","",""
"","html-keyboard-response","187","832361","0.0-103.0-1.0","""event"",""trial"",""time""
""fullscreenenter"",""0"",""5999""
""blur"",""99"",""537835""
""focus"",""100"",""546320""
""blur"",""106"",""560826""
""focus"",""108"",""567388""
","""event"",""trial"",""time""
""blur"",""99"",""537835""
""blur"",""106"",""560826""
","""event"",""trial"",""time""
""focus"",""100"",""546320""
""focus"",""108"",""567388""
","""event"",""trial"",""time""
""fullscreenenter"",""0"",""5999""
","
","null","<p></p>","null","","","","","","","","","","","","","","","","","","","","","","",""
