"success","trial_type","trial_index","time_elapsed","internal_node_id","rt","stimulus","key_press","subject_id","participant_id","age","gender","prompt","response","choice_outcomes","context_n","context_img_id","trial_n","probe_img_id","pR_red","pR_white","pR_black","outcome","contextArray_ind","validImageProbes","invalidImageProbes","pRew_Red","pRew_White","pRew_Black","availableForMemProbe","choice_blocks"
"true","fullscreen","0","3830","0.0-0.0","","","","","","","","","","","","","","","","","","","","","","","","","",""
"","pavlovia","1","3833","0.0-1.0","","","","","","","","","","","","","","","","","","","","","","","","","",""
"","instruc1","2","55151","0.0-2.0","null","run_exp/static/audio/clip_1_welcome.m4a","null","113","227","12","Male","<div class='center'><p>Welcome! This is the first part of the experiment. It will last ~30 minutes. In this experiment, you are the head captain of a pirate ship traveling around the world to different islands. You will play a few different games during this experiment. Here is an overview of these games:</p><br><p>Part 1 (today)</p><p>1. Instructions, practice game, and quiz</p><p>2. Pick a pirate game on 6 different islands</p><br><p>Part 2 (1 day later)</p><p>3. Pick a pirate game and memory game</p><p>4. Where did I see this ship? game</p><p>5. Which pirate was the best? game</p><br><p>Part 3 (1 week later)</p><p>6. Memory game</p></div>","","","","","","","","","","","","","","","","","",""
"","html-keyboard-response","3","59899","0.0-3.0","4747.0999999996275","<div class='center'><p>Welcome! This is the first part of the experiment. It will last ~30 minutes. In this experiment, you are the head captain of a pirate ship traveling around the world to different islands. You will play a few different games during this experiment. Here is an overview of these games:</p><br><p>Part 1 (today)</p><p>1. Instructions, practice game, and quiz</p><p>2. Pick a pirate game on 6 different islands</p><br><p>Part 2 (1 day later)</p><p>3. Pick a pirate game and memory game</p><p>4. Where did I see this ship? game</p><p>5. Which pirate was the best? game</p><br><p>Part 3 (1 week later)</p><p>6. Memory game</p><p><b>[Press the space bar to continue]</b></p></div>","32","","","","","","","","","","","","","","","","","","","","","","",""
"","instruc2","4","67910","0.0-4.0","null","run_exp/static/audio/clip_2_different_places.m4a","null","","","","","<div class='center'><p>Today, you’ll visit these 6 islands on your journey. You'll be able to see these islands from your ship.</p><p><img src='run_exp/static/images/contexts/all_contexts.png' height='500'></p></div>","","","","","","","","","","","","","","","","","",""
"","html-keyboard-response","5","69012","0.0-5.0","1100.800000000745","<div class='center'><p>Today, you’ll visit these 6 islands on your journey. You'll be able to see these islands from your ship.</p><p><img src='run_exp/static/images/contexts/all_contexts.png' height='500'></p><p><b>[Press the space bar to continue]</b></p></div>","32","","","","","","","","","","","","","","","","","","","","","","",""
"","instruc3","6","81590","0.0-6.0","null","run_exp/static/audio/clip_3_goal_of_game_1.m4a","null","","","","","<div class='center'><p> The pirates on your ship will rob other ships as they leave the island</p> These ships have just sold their things to people on the island, so they will be filled with lots and lots of gold.</p><p><img src='run_exp/static/images/tutorial/ship_center.png' height='400'></p></div>","","","","","","","","","","","","","","","","","",""
"","html-keyboard-response","7","82610","0.0-7.0","1018.7999999998137","<div class='center'><p> The pirates on your ship will rob other ships as they leave the island</p> These ships have just sold their things to people on the island, so they will be filled with lots and lots of gold.</p><p><img src='run_exp/static/images/tutorial/ship_center.png' height='400'></p><p><b>[Press the space bar to continue]</b></p></div>","32","","","","","","","","","","","","","","","","","","","","","","",""
"","instruc4","8","115831","0.0-8.0","null","run_exp/static/audio/clip_4_goal_of_game_2.m4a","null","","","","","<div class='center'><p>As the head captain, you do not have to rob any ships yourself.</p><p>Another pirate will be doing the robbing for you. </p><p>First, you will  choose a pirate to rob the next ship.</p><p><img src='run_exp/static/images/tutorial/pirates_all_crop.png' height='200'></p><p>Then, you'll see if the pirate successfully robbed the ship of their gold. If they were successful, then you'll  get a stack of gold coins like this:</p><p><img src='run_exp/static/images/tutorial/reward.png' height='150'></p><p> If they were <b>not</b> successful, then you'll get no gold coins, and you'll see a big red x like this: </p><p><img src='run_exp/static/images/tutorial/reward_no.png' height='150'></p><p> How much bonus money you make is based on how many gold coins you collect.</p><div>","","","","","","","","","","","","","","","","","",""
"","html-keyboard-response","9","118620","0.0-9.0","2787.2999999998137","<div class='center'><p>As the head captain, you do not have to rob any ships yourself.</p><p>Another pirate will be doing the robbing for you. </p><p>First, you will  choose a pirate to rob the next ship.</p><p><img src='run_exp/static/images/tutorial/pirates_all_crop.png' height='200'></p><p>Then, you'll see if the pirate successfully robbed the ship of their gold. If they were successful, then you'll  get a stack of gold coins like this:</p><p><img src='run_exp/static/images/tutorial/reward.png' height='150'></p><p> If they were <b>not</b> successful, then you'll get no gold coins, and you'll see a big red x like this: </p><p><img src='run_exp/static/images/tutorial/reward_no.png' height='150'></p><p> How much bonus money you make is based on how many gold coins you collect.</p<p><b>[Press the space bar to continue]</b></p></div>","32","","","","","","","","","","","","","","","","","","","","","","",""
"","instruc5","10","144104","0.0-10.0","25483.5","run_exp/static/audio/clip_5_probabilistic.m4a","49","","","","","<div class='center'><p>Even the most skilled pirate can not rob EVERY ship.</p><p> Some ships will have very strong protections against pirate attacks.</p><p> Blue beard, here, is very, very good at robbing ships, but he won't be successful every time he tries to rob one.</p><p> You can press the <b>‘1’</b> key on the keyboard to choose him.</p><p> Try choosing him 10 times to see how often he succeeds at robbing a ship. </p><p><img src='run_exp/static/images/tutorial/blue.png' height='500'></p></div>","","","","","","","","","","","","","","","","","",""
"","html-keyboard-response","11","145618","0.0-11.0","null","<div class='center'><p><img src='run_exp/static/images/tutorial/blue_win.png' height='500'></p></div>","null","","","","","","","","","","","","","","","","","","","","","","",""
"","html-keyboard-response","12","146577","0.0-12.0","958","<div class='center'><img src='run_exp/static/images/tutorial/blue.png' height='500'></p></div>","49","","","","","","","","","","","","","","","","","","","","","","",""
"","html-keyboard-response","13","148081","0.0-13.0","null","<div class='center'><p><img src='run_exp/static/images/tutorial/blue_win.png' height='500'></p></div>","null","","","","","","","","","","","","","","","","","","","","","","",""
"","html-keyboard-response","14","148207","0.0-14.0","125.30000000074506","<div class='center'><img src='run_exp/static/images/tutorial/blue.png' height='500'></p></div>","49","","","","","","","","","","","","","","","","","","","","","","",""
"","html-keyboard-response","15","149715","0.0-15.0","null","<div class='center'><p><img src='run_exp/static/images/tutorial/blue_win.png' height='500'></p></div>","null","","","","","","","","","","","","","","","","","","","","","","",""
"","html-keyboard-response","16","149895","0.0-16.0","179.3999999994412","<div class='center'><img src='run_exp/static/images/tutorial/blue.png' height='500'></p></div>","49","","","","","","","","","","","","","","","","","","","","","","",""
"","html-keyboard-response","17","151400","0.0-17.0","null","<div class='center'><p><img src='run_exp/static/images/tutorial/blue_no_win.png' height='500'></p></div>","null","","","","","","","","","","","","","","","","","","","","","","",""
"","html-keyboard-response","18","151489","0.0-18.0","88.20000000018626","<div class='center'><img src='run_exp/static/images/tutorial/blue.png' height='500'></p></div>","49","","","","","","","","","","","","","","","","","","","","","","",""
"","html-keyboard-response","19","153001","0.0-19.0","null","<div class='center'><p><img src='run_exp/static/images/tutorial/blue_win.png' height='500'></p></div>","null","","","","","","","","","","","","","","","","","","","","","","",""
"","html-keyboard-response","20","154634","0.0-20.0","1633","<div class='center'><img src='run_exp/static/images/tutorial/blue.png' height='500'></p></div>","49","","","","","","","","","","","","","","","","","","","","","","",""
"","html-keyboard-response","21","156148","0.0-21.0","null","<div class='center'><p><img src='run_exp/static/images/tutorial/blue_win.png' height='500'></p></div>","null","","","","","","","","","","","","","","","","","","","","","","",""
"","html-keyboard-response","22","156193","0.0-22.0","43.69999999925494","<div class='center'><img src='run_exp/static/images/tutorial/blue.png' height='500'></p></div>","49","","","","","","","","","","","","","","","","","","","","","","",""
"","html-keyboard-response","23","157702","0.0-23.0","null","<div class='center'><p><img src='run_exp/static/images/tutorial/blue_win.png' height='500'></p></div>","null","","","","","","","","","","","","","","","","","","","","","","",""
"","html-keyboard-response","24","157770","0.0-24.0","67.5","<div class='center'><img src='run_exp/static/images/tutorial/blue.png' height='500'></p></div>","49","","","","","","","","","","","","","","","","","","","","","","",""
"","html-keyboard-response","25","159274","0.0-25.0","null","<div class='center'><p><img src='run_exp/static/images/tutorial/blue_no_win.png' height='500'></p></div>","null","","","","","","","","","","","","","","","","","","","","","","",""
"","html-keyboard-response","26","159318","0.0-26.0","42.40000000037253","<div class='center'><img src='run_exp/static/images/tutorial/blue.png' height='500'></p></div>","49","","","","","","","","","","","","","","","","","","","","","","",""
"","html-keyboard-response","27","160830","0.0-27.0","null","<div class='center'><p><img src='run_exp/static/images/tutorial/blue_win.png' height='500'></p></div>","null","","","","","","","","","","","","","","","","","","","","","","",""
"","html-keyboard-response","28","160880","0.0-28.0","49.200000000186265","<div class='center'><img src='run_exp/static/images/tutorial/blue.png' height='500'></p></div>","49","","","","","","","","","","","","","","","","","","","","","","",""
"","html-keyboard-response","29","162384","0.0-29.0","null","<div class='center'><p><img src='run_exp/static/images/tutorial/blue_win.png' height='500'></p></div>","null","","","","","","","","","","","","","","","","","","","","","","",""
"","instruc6","30","169053","0.0-30.0","null","run_exp/static/audio/clip_6_blue_beard_outcome.m4a","null","","","","","<div class='center'><p> See, he succeeded in robbing the ships most of the time but not every time. </p></div>","","","","","","","","","","","","","","","","","",""
"","html-keyboard-response","31","170096","0.0-31.0","1042.8999999994412","<div class='center'><p> See, he succeeded in robbing the ships most of the time but not every time. </p><p><b>[Press the space bar to continue]</b></p></div>","32","","","","","","","","","","","","","","","","","","","","","","",""
"","audio-keyboard-response","32","180641","0.0-32.0","10544.5","run_exp/static/audio/clip_7_pick_pirate.m4a","51","","","","","","","","","","","","","","","","","","","","","","",""
"","audio-keyboard-response","33","184535","0.0-33.0-0.0","3892.100000000559","run_exp/static/audio/clip_8_chosen_pirate_win.m4a","32","","","","","","","","","","","","","","","","","","","","","","",""
"","audio-keyboard-response","34","185678","0.0-33.0-1.0","1142.2999999998137","run_exp/static/audio/clip_9_pick_a_pirate_again.m4a","51","","","","","","","","","","","","","","","","","","","","","","",""
"","audio-keyboard-response","35","187121","0.0-34.0-0.0","1440.7999999998137","run_exp/static/audio/clip_10_chosen_pirate_loss.m4a","32","","","","","","","","","","","","","","","","","","","","","","",""
"","instruc9","36","194292","0.0-35.0-0.0","null","run_exp/static/audio/clip_11_time_out.m4a","null","","","","","<div class='center'><p>If you don’t make your choice fast enough, you’ll have to wait a few seconds before you can make another one. </p><p><img src='run_exp/static/images/miscellaneous/hurry_up.png' height='500'></p></div>","","","","","","","","","","","","","","","","","",""
"","html-keyboard-response","37","194662","0.0-35.0-1.0","368.3999999994412","<div class='center'><p>If you don’t make your choice fast enough, you’ll have to wait a few seconds before you can make another one. </p><p><img src='run_exp/static/images/miscellaneous/hurry_up.png' height='500'></p><p><b>[Press the space bar to continue]</b></p></div>","32","","","","","","","","","","","","","","","","","","","","","","",""
"","instruc10","38","243293","0.0-35.0-2.0","null","run_exp/static/audio/clip_12_probe.m4a","null","","","","","<div class='center'><p>Once you've choose a pirate, you’ll be shown the ship they are robbing.</p><p>You will never rob the same ship twice. After all, ships that have already been robbed won’t have gold on them. </p><p>Ships can be told apart from one another by the image on them. See, this one has a travel mug on it. </p><p> You’ll have to remember which island you saw each ship on.You will win more bonus money if you remember correctly! To help you remember, you can imagine a story. For example, here, you could imagine a mug full of water in the desert. Or, as another example, if on the forest island, your pirate robbed a ship with an apple on it, you could imagine an apple falling from a tree in the forest. </p><p><img src='run_exp/static/images/tutorial/example_probe.png' height='500'></p></div>","","","","","","","","","","","","","","","","","",""
"","html-keyboard-response","39","244475","0.0-35.0-3.0","1181.1000000005588","<div class='center'><p>Once you've choose a pirate, you’ll be shown the ship they are robbing.</p><p>You will never rob the same ship twice. After all, ships that have already been robbed won’t have gold on them. </p><p>Ships can be told apart from one another by the image on them. See, this one has a travel mug on it. </p><p> You’ll have to remember which island you saw each ship on.You will win more bonus money if you remember correctly! To help you remember, you can imagine a story. For example, here, you could imagine a mug full of water in the desert. Or, as another example, if on the forest island, your pirate robbed a ship with an apple on it, you could imagine an apple falling from a tree in the forest. </p><p><img src='run_exp/static/images/tutorial/example_probe.png' height='500'></p><p><b>[Press the space bar to continue]</b></p></div>","32","","","","","","","","","","","","","","","","","","","","","","",""
"","instruc11","40","265373","0.0-35.0-4.0","null","run_exp/static/audio/clip_13_changepoint.m4a","null","","","","","<div class='center'><p>How successful a pirate is at robbing ships will depend on the island you’re on.</p><p> A pirate may have visited this island many times before and gained a lot of practice robbing ships there.</p><p>So, they’re more likely to be successful than a pirate who has never visited the island before.</p></div>","","","","","","","","","","","","","","","","","",""
"","html-keyboard-response","41","268174","0.0-35.0-5.0","2800.7000000001863","<div class='center'><p>How successful a pirate is at robbing ships will depend on the island you’re on.</p><p> A pirate may have visited this island many times before and gained a lot of practice robbing ships there.</p><p>So, they’re more likely to be successful than a pirate who has never visited the island before.</p><p><b>[Press the space bar to continue]</b></p></div>","32","","","","","","","","","","","","","","","","","","","","","","",""
"","instruc12","42","296192","0.0-35.0-6.0","null","run_exp/static/audio/clip_14_drift.m4a","null","","","","","<div class='center'><p>How successful a pirate is at robbing ships can also change over the time spent on the island. </p><p> Ships may hear from islanders about the pirates coming and will improve their protections against the attack. This may make it harder to rob them.</p><p> Ships may also become lazy and weaken the strength of their protections. This may make it easier to rob them.</p><br><p>Things are always changing on the high seas! So, try your best to pay attention!</p><p><img src='run_exp/static/images/tutorial/contingency.png' height='500'></p></div>","","","","","","","","","","","","","","","","","",""
"","html-keyboard-response","43","298200","0.0-35.0-7.0","2006.699999999255","<div class='center'><p>How successful a pirate is at robbing ships can also change over the time spent on the island. </p><p> Ships may hear from islanders about the pirates coming and will improve their protections against the attack. This may make it harder to rob them.</p><p> Ships may also become lazy and weaken the strength of their protections. This may make it easier to rob them.</p><br><p>Things are always changing on the high seas! So, try your best to pay attention!</p><p><img src='run_exp/static/images/tutorial/contingency.png' height='500'></p><p><b>[Press the space bar to continue]</b></p></div>","32","","","","","","","","","","","","","","","","","","","","","","",""
"","instruc13","44","343413","0.0-35.0-8.0","null","run_exp/static/audio/clip_15_summary.m4a","null","","","","","<div class='center'><p>Let's go over the instructions quickly again. You have two important things to do: </p><b><p> 1. Pick the pirate who is the best at robbing ships on the current island. This way you'll collect more gold coins!</p></b><b><p> 2. Remember on which island a ship was robbed.</p> </b><p>The amount of bonus money you can win depends on both.</p><p><br><p>Let’s try a practice game. The game will start by showing you the pirates. First, pick a pirate using the <b> 1, 2, 3 </b> keys on your keyboard. When you are shown a ship, try to remember which island you’re on by making up a story.</p><p>This is just a practice game, so you’re not playing for money. </p><p> Good luck! This game will be very difficult but try your best!</p></div>","","","","","","","","","","","","","","","","","",""
"","html-keyboard-response","45","343762","0.0-35.0-9.0","348.40000000037253","<div class='center'><p>Let's go over the instructions quickly again. You have two important things to do: </p><b><p> 1. Pick the pirate who is the best at robbing ships on the current island. This way you'll collect more gold coins!</p></b><b><p> 2. Remember on which island a ship was robbed.</p> </b><p>The amount of bonus money you can win depends on both.</p><p><br><p>Let’s try a practice game. The game will start by showing you the pirates. First, pick a pirate using the <b> 1, 2, 3 </b> keys on your keyboard. When you are shown a ship, try to remember which island you’re on by making up a story.</p><p>This is just a practice game, so you’re not playing for money. </p><p> Good luck! This game will be very difficult but try your best!</p><p><b>[Press the space bar to continue]</b></p></div>","32","","","","","","","","","","","","","","","","","","","","","","",""
"","do_welcome","46","347779","0.0-35.0-10.0","null","","","","","","","","null","","","","","","","","","","","","","","","","",""
"","do_trial","47","354114","0.0-35.0-11.0","1823.7000000001863","","","","","","","","49","1,0,0","","","","","","","","","","","","","","","",""
"","html-keyboard-response","48","355121","0.0-36.0-0.0","null","<p></p>","null","","","","","","","","","","","","","","","","","","","","","","",""
"","do_trial","49","361035","0.0-36.0-1.0","1406","","","","","","","","50","1,1,0","","","","","","","","","","","","","","","",""
"","html-keyboard-response","50","362044","0.0-37.0-0.0","null","<p></p>","null","","","","","","","","","","","","","","","","","","","","","","",""
"","do_trial","51","368349","0.0-37.0-1.0","1786.5","","","","","","","","50","1,0,1","","","","","","","","","","","","","","","",""
"","html-keyboard-response","52","369365","0.0-38.0-0.0","null","<p></p>","null","","","","","","","","","","","","","","","","","","","","","","",""
"","do_trial","53","375632","0.0-38.0-1.0","1748.2999999998137","","","","","","","","49","0,1,0","","","","","","","","","","","","","","","",""
"","html-keyboard-response","54","376644","0.0-39.0-0.0","null","<p></p>","null","","","","","","","","","","","","","","","","","","","","","","",""
"","do_trial","55","381759","0.0-39.0-1.0","596.9000000003725","","","","","","","","51","1,0,0","","","","","","","","","","","","","","","",""
"","do_bye","56","383268","0.0-40.0-0.0","null","","","","","","","","null","","","","","","","","","","","","","","","","",""
"","do_travel","57","392285","0.0-40.0-1.0","null","","","","","","","","null","","","","","","","","","","","","","","","","",""
"","do_welcome","58","396296","0.0-40.0-2.0","null","","","","","","","","null","","","","","","","","","","","","","","","","",""
"","do_trial","59","401380","0.0-40.0-3.0","578.0999999996275","","","","","","","","51","1,0,0","","","","","","","","","","","","","","","",""
"","html-keyboard-response","60","402392","0.0-41.0-0.0","null","<p></p>","null","","","","","","","","","","","","","","","","","","","","","","",""
"","do_trial","61","407212","0.0-41.0-1.0","310.79999999981374","","","","","","","","50","1,0,1","","","","","","","","","","","","","","","",""
"","html-keyboard-response","62","408226","0.0-42.0-0.0","null","<p></p>","null","","","","","","","","","","","","","","","","","","","","","","",""
"","do_trial","63","413183","0.0-42.0-1.0","439.79999999981374","","","","","","","","49","1,1,0","","","","","","","","","","","","","","","",""
"","html-keyboard-response","64","414196","0.0-43.0-0.0","null","<p></p>","null","","","","","","","","","","","","","","","","","","","","","","",""
"","do_trial","65","418816","0.0-43.0-1.0","98.79999999981374","","","","","","","","49","0,0,1","","","","","","","","","","","","","","","",""
"","html-keyboard-response","66","419829","0.0-44.0-0.0","null","<p></p>","null","","","","","","","","","","","","","","","","","","","","","","",""
"","do_trial","67","424386","0.0-44.0-1.0","43.5","","","","","","","","49","1,0,1","","","","","","","","","","","","","","","",""
"","html-keyboard-response","68","427493","0.0-45.0-0.0","3106.0999999996275","<div class='center'><p><img src='run_exp/static/images/tutorial/prac_best_pirate.png'  height='500'></p></div>","49","","","","","","","","","","","","","","","","","","","","","","",""
"","html-keyboard-response","69","428734","0.0-46.0-0.0","1240","<div class='center'><p>That's correct! Red beard was the best.</p><p><b>[Press the space bar to continue]</b></p></div>","32","","","","","","","","","","","","","","","","","","","","","","",""
"","html-keyboard-response","70","430947","0.0-46.0-1.0","2212.5","<div class='center'><p><img src='run_exp/static/images/tutorial/prac_source.png'  height='500'></p></div>","50","","","","","","","","","","","","","","","","","","","","","","",""
"","html-keyboard-response","71","431768","0.0-47.0-0.0","820.2000000001863","<div class='center'><p>That's correct! You saw this ship on the cavern island.</p><p><b>[Press the space bar to continue]</b></p></div>","32","","","","","","","","","","","","","","","","","","","","","","",""
"","quiz_beginning","72","445489","0.0-47.0-1.0","null","run_exp/static/audio/clip_16_quiz_intro.m4a","null","","","","","<div class='center'><p>Good job on the practice game! Now, you will be asked some true or false questions to make sure you really understand the rules of the game.</p><p> Press <b>'1'</b> on the keyboard for true and press <b>'2'</b> for false.</p></div>","","","","","","","","","","","","","","","","","",""
"","audio-keyboard-response","73","454827","0.0-47.0-2.0","9336.799999999814","run_exp/static/audio/clip_17_q1.m4a","50","","","","","","","","","","","","","","","","","","","","","","",""
"","correct","74","457809","0.0-48.0-0.0","null","run_exp/static/audio/clip_18_correct.m4a","null","","","","","<div class='center'><p>That's correct!</p></div>","","","","","","","","","","","","","","","","","",""
"","html-keyboard-response","75","458363","0.0-48.0-1.0","552.9000000003725","<div class='center'><p>That's correct!</p><p><b>[Press the space bar to continue]</b></p></div>","32","","","","","","","","","","","","","","","","","","","","","","",""
"","audio-keyboard-response","76","462884","0.0-48.0-2.0","4520.700000000186","run_exp/static/audio/clip_20_q2.m4a","50","","","","","","","","","","","","","","","","","","","","","","",""
"","correct","77","465849","0.0-49.0-0.0","null","run_exp/static/audio/clip_18_correct.m4a","null","","","","","<div class='center'><p>That's correct!</p></div>","","","","","","","","","","","","","","","","","",""
"","html-keyboard-response","78","466620","0.0-49.0-1.0","769.9000000003725","<div class='center'><p>That's correct!</p><p><b>[Press the space bar to continue]</b></p></div>","32","","","","","","","","","","","","","","","","","","","","","","",""
"","audio-keyboard-response","79","469725","0.0-49.0-2.0","3104.9000000003725","run_exp/static/audio/clip_22_q3.m4a","50","","","","","","","","","","","","","","","","","","","","","","",""
"","correct","80","472690","0.0-50.0-0.0","null","run_exp/static/audio/clip_18_correct.m4a","null","","","","","<div class='center'><p>That's correct!</p></div>","","","","","","","","","","","","","","","","","",""
"","html-keyboard-response","81","473577","0.0-50.0-1.0","886.5","<div class='center'><p>That's correct!</p><p><b>[Press the space bar to continue]</b></p></div>","32","","","","","","","","","","","","","","","","","","","","","","",""
"","audio-keyboard-response","82","478320","0.0-50.0-2.0","4742.5","run_exp/static/audio/clip_24_q4.m4a","49","","","","","","","","","","","","","","","","","","","","","","",""
"","correct","83","481330","0.0-51.0-0.0","null","run_exp/static/audio/clip_18_correct.m4a","null","","","","","<div class='center'><p>That's correct!</p></div>","","","","","","","","","","","","","","","","","",""
"","html-keyboard-response","84","481814","0.0-51.0-1.0","482.79999999981374","<div class='center'><p>That's correct!</p><p><b>[Press the space bar to continue]</b></p></div>","32","","","","","","","","","","","","","","","","","","","","","","",""
"","q_all_corr","85","490749","0.0-52.0-0.0","null","run_exp/static/audio/clip_27_quiz_all_correct.m4a","null","","","","","<div class='center'><p>Good job! You’re now ready to move on to the real game! Remember this game will be difficult but don't get discouraged and try your best!</p></div>","","","","","","","","","","","","","","","","","",""
"","html-keyboard-response","86","491275","0.0-52.0-1.0","525","<div class='center'><p>Good job! You’re now ready to move on to the real game! Remember this game will be difficult but don't get discouraged and try your best!</p><p><b>[Press the space bar to continue]</b></p></div>","32","","","","","","","","","","","","","","","","","","","","","","",""
"","do_welcome","87","495291","0.0-53.0-0.0","null","","","","","","","","null","","","","","","","","","","","","","","","","",""
"","do_trial","88","501646","0.0-54.0-0.0","1813.7999999998137","","","","","","","","50","1,0,0","0","highway","0","probe-210","0.6","0.3","0.1","0","","","","","","","",""
"","html-keyboard-response","89","502656","0.0-54.0-1.0","null","<p></p>","null","","","","","","","","","","","","","","","","","","","","","","",""
"","do_trial","90","507592","0.0-55.0-0.0","396.20000000018626","","","","","","","","49","1,0,1","0","highway","1","probe-52","0.6696048681915971","0.2928670512274468","0.0676406284574844","1","","","","","","","",""
"","html-keyboard-response","91","508605","0.0-55.0-1.0","null","<p></p>","null","","","","","","","","","","","","","","","","","","","","","","",""
"","do_trial","92","514920","0.0-56.0-0.0","1751.2999999998137","","","","","","","","51","0,1,0","0","highway","2","probe-16","0.6456334565875504","0.22275419025525764","0.1369344847803075","0","","","","","","","",""
"","html-keyboard-response","93","515933","0.0-56.0-1.0","null","<p></p>","null","","","","","","","","","","","","","","","","","","","","","","",""
"","do_trial","94","520696","0.0-57.0-0.0","216.79999999981374","","","","","","","","49","1,0,1","0","highway","3","probe-24","0.7197933109266734","0.18025363039870215","0.10051631554965383","1","","","","","","","",""
"","html-keyboard-response","95","521704","0.0-57.0-1.0","null","<p></p>","null","","","","","","","","","","","","","","","","","","","","","","",""
"","do_trial","96","526641","0.0-58.0-0.0","382.90000000037253","","","","","","","","49","1,0,0","0","highway","4","probe-166","0.6264934917843281","0.11021816867208642","0.06041159480769128","1","","","","","","","",""
"","html-keyboard-response","97","527657","0.0-58.0-1.0","null","<p></p>","null","","","","","","","","","","","","","","","","","","","","","","",""
"","do_trial","98","532210","0.0-59.0-0.0","0","","","","","","","","49","1,0,0","0","highway","5","probe-95","0.7465191971662748","0.19265619826888572","0.0806485744360973","1","","","","","","","",""
"","html-keyboard-response","99","533220","0.0-59.0-1.0","null","<p></p>","null","","","","","","","","","","","","","","","","","","","","","","",""
"","do_trial","100","537797","0.0-60.0-0.0","25.700000000186265","","","","","","","","49","0,0,0","0","highway","6","probe-69","0.6888714993906655","0.3255755261772302","0.16211965043504958","0","","","","","","","",""
"","html-keyboard-response","101","538811","0.0-60.0-1.0","null","<p></p>","null","","","","","","","","","","","","","","","","","","","","","","",""
"","do_trial","102","543760","0.0-61.0-0.0","395.29999999981374","","","","","","","","49","1,1,0","0","highway","7","probe-58","0.8685048096959962","0.3828460011840093","0.20552118855764054","1","","","","","","","",""
"","html-keyboard-response","103","544770","0.0-61.0-1.0","null","<p></p>","null","","","","","","","","","","","","","","","","","","","","","","",""
"","do_trial","104","549672","0.0-62.0-0.0","356.90000000037253","","","","","","","","49","1,0,1","0","highway","8","probe-175","0.7719533131274373","0.38792358209810296","0.1588227262685977","1","","","","","","","",""
"","html-keyboard-response","105","550684","0.0-62.0-1.0","null","<p></p>","null","","","","","","","","","","","","","","","","","","","","","","",""
"","do_trial","106","555517","0.0-63.0-0.0","280.59999999962747","","","","","","","","49","1,0,0","0","highway","9","probe-178","0.6859866952335449","0.2777816385349568","0.25465982462380504","1","","","","","","","",""
"","html-keyboard-response","107","556530","0.0-63.0-1.0","null","<p></p>","null","","","","","","","","","","","","","","","","","","","","","","",""
"","do_trial","108","561108","0.0-64.0-0.0","31.800000000745058","","","","","","","","49","0,0,1","0","highway","10","probe-202","0.498381983354771","0.36016454130214454","0.14352694525637483","0","","","","","","","",""
"","html-keyboard-response","109","562124","0.0-64.0-1.0","null","<p></p>","null","","","","","","","","","","","","","","","","","","","","","","",""
"","do_trial","110","566838","0.0-65.0-0.0","155.59999999962747","","","","","","","","49","1,0,0","0","highway","11","probe-12","0.5116901637741019","0.32241501225467323","0.11260231800944488","1","","","","","","","",""
"","html-keyboard-response","111","567849","0.0-65.0-1.0","null","<p></p>","null","","","","","","","","","","","","","","","","","","","","","","",""
"","do_trial","112","572403","0.0-66.0-0.0","2.7999999998137355","","","","","","","","49","1,1,0","0","highway","12","probe-225","0.6079435737835458","0.5401423442733072","0.15625205611569606","1","","","","","","","",""
"","html-keyboard-response","113","573412","0.0-66.0-1.0","null","<p></p>","null","","","","","","","","","","","","","","","","","","","","","","",""
"","do_trial","114","578295","0.0-67.0-0.0","330.20000000018626","","","","","","","","49","0,0,1","0","highway","13","probe-22","0.562811203497427","0.3652624552694935","0.207368738110521","0","","","","","","","",""
"","html-keyboard-response","115","579308","0.0-67.0-1.0","null","<p></p>","null","","","","","","","","","","","","","","","","","","","","","","",""
"","do_trial","116","584232","0.0-68.0-0.0","371.59999999962747","","","","","","","","49","1,0,0","0","highway","14","probe-208","0.5578778509973684","0.2761893552263356","0.05681258350524795","1","","","","","","","",""
"","html-keyboard-response","117","585246","0.0-68.0-1.0","null","<p></p>","null","","","","","","","","","","","","","","","","","","","","","","",""
"","do_trial","118","590147","0.0-69.0-0.0","353.70000000018626","","","","","","","","49","0,0,0","0","highway","15","probe-127","0.5328962556752053","0.26063001943249825","0.08276450900949263","0","","","","","","","",""
"","html-keyboard-response","119","591156","0.0-69.0-1.0","null","<p></p>","null","","","","","","","","","","","","","","","","","","","","","","",""
"","do_trial","120","595874","0.0-70.0-0.0","172.20000000018626","","","","","","","","51","1,0,0","0","highway","16","probe-134","0.5838285522845373","0.25068310187789755","0.14325215964965649","0","","","","","","","",""
"","html-keyboard-response","121","596883","0.0-70.0-1.0","null","<p></p>","null","","","","","","","","","","","","","","","","","","","","","","",""
"","do_trial","122","601709","0.0-71.0-0.0","274","","","","","","","","50","1,0,0","0","highway","17","probe-228","0.5074785563959792","0.30837811446855234","0.18091424216486884","0","","","","","","","",""
"","html-keyboard-response","123","602718","0.0-71.0-1.0","null","<p></p>","null","","","","","","","","","","","","","","","","","","","","","","",""
"","do_trial","124","607263","0.0-72.0-0.0","0.09999999962747097","","","","","","","","49","1,0,1","0","highway","18","probe-68","0.5647812160341792","0.24326087141681413","0.1738325919718443","1","","","","","","","",""
"","html-keyboard-response","125","608276","0.0-72.0-1.0","null","<p></p>","null","","","","","","","","","","","","","","","","","","","","","","",""
"","do_trial","126","613137","0.0-73.0-0.0","312.69999999925494","","","","","","","","49","1,0,1","0","highway","19","probe-227","0.5498147806389917","0.22034795056818732","0.18784285167852338","1","","","","","","","",""
"","html-keyboard-response","127","614146","0.0-73.0-1.0","null","<p></p>","null","","","","","","","","","","","","","","","","","","","","","","",""
"","do_trial","128","618745","0.0-74.0-0.0","44.80000000074506","","","","","","","","49","0,1,0","0","highway","20","probe-130","0.657438828374916","0.3310524848824283","0.2024582979997493","0","","","","","","","",""
"","html-keyboard-response","129","619758","0.0-74.0-1.0","null","<p></p>","null","","","","","","","","","","","","","","","","","","","","","","",""
"","do_trial","130","624357","0.0-75.0-0.0","46.40000000037253","","","","","","","","49","0,1,0","0","highway","21","probe-25","0.7367123300764448","0.34860435932806366","0.08627623505937866","0","","","","","","","",""
"","html-keyboard-response","131","625371","0.0-75.0-1.0","null","<p></p>","null","","","","","","","","","","","","","","","","","","","","","","",""
"","do_trial","132","629967","0.0-76.0-0.0","51.60000000055879","","","","","","","","49","1,0,0","0","highway","22","probe-147","0.6701036243594165","0.46530806397491525","0.08636533747193356","1","","","","","","","",""
"","html-keyboard-response","133","630982","0.0-76.0-1.0","null","<p></p>","null","","","","","","","","","","","","","","","","","","","","","","",""
"","do_trial","134","636118","0.0-77.0-0.0","584","","","","","","","","49","0,0,0","0","highway","23","probe-91","0.6943287750101752","0.13767261346771037","0.0709949729376512","0","","","","","","","",""
"","html-keyboard-response","135","637131","0.0-77.0-1.0","null","<p></p>","null","","","","","","","","","","","","","","","","","","","","","","",""
"","do_trial","136","641682","0.0-78.0-0.0","4.5","","","","","","","","49","1,0,0","0","highway","24","probe-110","0.7948948721151772","0.3500367498017351","0.09758167389896855","1","","","","","","","",""
"","html-keyboard-response","137","642693","0.0-78.0-1.0","null","<p></p>","null","","","","","","","","","","","","","","","","","","","","","","",""
"","do_trial","138","647241","0.0-79.0-0.0","0.09999999962747097","","","","","","","","49","0,0,0","0","highway","25","probe-34","0.6619047503841428","0.4068654580795013","0.056806508234098614","0","","","","","","","",""
"","html-keyboard-response","139","648254","0.0-79.0-1.0","null","<p></p>","null","","","","","","","","","","","","","","","","","","","","","","",""
"","do_trial","140","653035","0.0-80.0-0.0","234.59999999962747","","","","","","","","50","0,0,0","0","highway","26","probe-117","0.5342359433018671","0.1705096962393527","0.056738524264470395","0","","","","","","","",""
"","html-keyboard-response","141","654047","0.0-80.0-1.0","null","<p></p>","null","","","","","","","","","","","","","","","","","","","","","","",""
"","do_trial","142","658667","0.0-81.0-0.0","69.1000000005588","","","","","","","","51","1,0,0","0","highway","27","probe-05","0.5502038378262752","0.3388303574521603","0.06466058462880536","0","","","","","","","",""
"","html-keyboard-response","143","659679","0.0-81.0-1.0","null","<p></p>","null","","","","","","","","","","","","","","","","","","","","","","",""
"","do_trial","144","664317","0.0-82.0-0.0","84.59999999962747","","","","","","","","49","1,0,0","0","highway","28","probe-155","0.5449889962386039","0.3596199163220712","0.13636816698870566","1","","","","","","","",""
"","html-keyboard-response","145","665331","0.0-82.0-1.0","null","<p></p>","null","","","","","","","","","","","","","","","","","","","","","","",""
"","do_trial","146","670179","0.0-83.0-0.0","301.1000000005588","","","","","","","","49","1,0,0","0","highway","29","probe-122","0.45522443469588636","0.3629901566960254","0.22510079937097216","1","","","","","","","",""
"","html-keyboard-response","147","671192","0.0-83.0-1.0","null","<p></p>","null","","","","","","","","","","","","","","","","","","","","","","",""
"","do_bye","148","672701","0.0-84.0-0.0","null","","","","","","","","null","","","","","","","","","","","","","","","","",""
"","break","149","683111","0.0-84.0-1.0","10408.5","<div class='center'><p>Time to take a quick break! You have 2 minutes to rest, but you can move on sooner if you'd like.</p><p> Press the <b>space bar</b> to continue.</p></div>","32","","","","","","","","","","","","","","","","","","","","","","",""
"","do_travel","150","692121","0.0-85.0-0.0","null","","","","","","","","null","","","","","","","","","","","","","","","","",""
"","do_welcome","151","696140","0.0-85.0-1.0","null","","","","","","","","null","","","","","","","","","","","","","","","","",""
"","do_trial","152","702794","0.0-86.0-0.0","2099.4000000003725","","","","","","","","50","1,1,0","1","mountain","30","probe-196","1","0.33124710403318064","0.18771328834458378","1","","","","","","","",""
"","html-keyboard-response","153","703808","0.0-86.0-1.0","null","<p></p>","null","","","","","","","","","","","","","","","","","","","","","","",""
"","do_trial","154","708864","0.0-87.0-0.0","503.70000000018626","","","","","","","","50","1,1,0","1","mountain","31","probe-189","1","0.34959946838338485","0.08322189339352988","1","","","","","","","",""
"","html-keyboard-response","155","709871","0.0-87.0-1.0","null","<p></p>","null","","","","","","","","","","","","","","","","","","","","","","",""
"","do_trial","156","714743","0.0-88.0-0.0","317.3999999994412","","","","","","","","49","1,0,0","1","mountain","32","probe-08","1","0.30865179925579156","0.07136860839242593","1","","","","","","","",""
"","html-keyboard-response","157","715755","0.0-88.0-1.0","null","<p></p>","null","","","","","","","","","","","","","","","","","","","","","","",""
"","do_trial","158","720301","0.0-89.0-0.0","0.09999999962747097","","","","","","","","51","1,0,0","1","mountain","33","probe-158","0.9285309846180269","0.3290578076722958","0.08922546607643442","0","","","","","","","",""
"","html-keyboard-response","159","721302","0.0-89.0-1.0","null","<p></p>","null","","","","","","","","","","","","","","","","","","","","","","",""
"","do_trial","160","725920","0.0-90.0-0.0","71.29999999981374","","","","","","","","50","1,0,0","1","mountain","34","probe-72","0.8475695864802463","0.2445349419832216","0.10347301457792484","0","","","","","","","",""
"","html-keyboard-response","161","726932","0.0-90.0-1.0","null","<p></p>","null","","","","","","","","","","","","","","","","","","","","","","",""
"","do_trial","162","731481","0.0-91.0-0.0","2.099999999627471","","","","","","","","49","1,0,0","1","mountain","35","probe-77","0.7481224830049148","0.3548866034918849","0.11733242627021877","1","","","","","","","",""
"","html-keyboard-response","163","732493","0.0-91.0-1.0","null","<p></p>","null","","","","","","","","","","","","","","","","","","","","","","",""
"","do_trial","164","737942","0.0-92.0-0.0","901.2999999998137","","","","","","","","49","1,0,0","1","mountain","36","probe-219","0.6331246564270456","0.3037494711533527","0.05987313731835376","1","","","","","","","",""
"","html-keyboard-response","165","738956","0.0-92.0-1.0","null","<p></p>","null","","","","","","","","","","","","","","","","","","","","","","",""
"","do_trial","166","743758","0.0-93.0-0.0","253.40000000037253","","","","","","","","49","0,1,0","1","mountain","37","probe-32","0.6596334512078922","0.30359901552648505","0.053892750944363965","0","","","","","","","",""
"","html-keyboard-response","167","744768","0.0-93.0-1.0","null","<p></p>","null","","","","","","","","","","","","","","","","","","","","","","",""
"","do_trial","168","749396","0.0-94.0-0.0","77.90000000037253","","","","","","","","50","1,0,1","1","mountain","38","probe-137","0.7274295179706948","0.2617103222959038","0.08497106319532187","0","","","","","","","",""
"","html-keyboard-response","169","750406","0.0-94.0-1.0","null","<p></p>","null","","","","","","","","","","","","","","","","","","","","","","",""
"","do_trial","170","755352","0.0-95.0-0.0","402.90000000037253","","","","","","","","50","0,0,0","1","mountain","39","probe-197","0.5421964220192311","0.154728593267694","0.12942207935966207","0","","","","","","","",""
"","html-keyboard-response","171","756364","0.0-95.0-1.0","null","<p></p>","null","","","","","","","","","","","","","","","","","","","","","","",""
"","do_trial","172","760970","0.0-96.0-0.0","59","","","","","","","","49","1,0,0","1","mountain","40","probe-146","0.6820770756245945","0.19965554424959944","0.05552066794671182","1","","","","","","","",""
"","html-keyboard-response","173","761982","0.0-96.0-1.0","null","<p></p>","null","","","","","","","","","","","","","","","","","","","","","","",""
"","do_trial","174","766828","0.0-97.0-0.0","301.70000000018626","","","","","","","","49","1,0,0","1","mountain","41","probe-19","0.5395090862917489","0.31024634770626813","0.0876023082339861","1","","","","","","","",""
"","html-keyboard-response","175","767841","0.0-97.0-1.0","null","<p></p>","null","","","","","","","","","","","","","","","","","","","","","","",""
"","do_trial","176","773313","0.0-98.0-0.0","928.9000000003725","","","","","","","","49","0,0,0","1","mountain","42","probe-182","0.46096937368087604","0.5063998725301209","0.06802639307756123","0","","","","","","","",""
"","html-keyboard-response","177","774322","0.0-98.0-1.0","null","<p></p>","null","","","","","","","","","","","","","","","","","","","","","","",""
"","do_trial","178","778950","0.0-99.0-0.0","77.40000000037253","","","","","","","","49","1,0,0","1","mountain","43","probe-65","0.47801913534159163","0.593595124348275","0.08636564045814567","1","","","","","","","",""
"","html-keyboard-response","179","779964","0.0-99.0-1.0","null","<p></p>","null","","","","","","","","","","","","","","","","","","","","","","",""
"","do_trial","180","784587","0.0-100.0-0.0","69.19999999925494","","","","","","","","49","1,1,0","1","mountain","44","probe-218","0.37750890080653926","0.6100750874831369","0.05139909558551029","1","","","","","","","",""
"","html-keyboard-response","181","785597","0.0-100.0-1.0","null","<p></p>","null","","","","","","","","","","","","","","","","","","","","","","",""
"","do_trial","182","790146","0.0-101.0-0.0","0.5","","","","","","","","49","1,1,0","1","mountain","45","probe-41","0.2772786942669364","0.4946926274516285","0.14015925758757694","1","","","","","","","",""
"","html-keyboard-response","183","791151","0.0-101.0-1.0","null","<p></p>","null","","","","","","","","","","","","","","","","","","","","","","",""
"","do_trial","184","795702","0.0-102.0-0.0","0.10000000055879354","","","","","","","","49","1,0,0","1","mountain","46","probe-119","0.3975410464253069","0.6228931765508046","0.11244611963215617","1","","","","","","","",""
"","html-keyboard-response","185","796714","0.0-102.0-1.0","null","<p></p>","null","","","","","","","","","","","","","","","","","","","","","","",""
"","do_trial","186","801431","0.0-103.0-0.0","173","","","","","","","","49","0,0,1","1","mountain","47","probe-100","0.42858626313508696","0.5533420513237969","0.07359939900109802","0","","","","","","","",""
"","html-keyboard-response","187","802441","0.0-103.0-1.0","null","<p></p>","null","","","","","","","","","","","","","","","","","","","","","","",""
"","do_trial","188","807056","0.0-104.0-0.0","62.200000000186265","","","","","","","","49","0,0,1","1","mountain","48","probe-150","0.3953997012413557","0.41980428859075775","0.15087971482363188","0","","","","","","","",""
"","html-keyboard-response","189","808067","0.0-104.0-1.0","null","<p></p>","null","","","","","","","","","","","","","","","","","","","","","","",""
"","do_trial","190","812621","0.0-105.0-0.0","10.599999999627471","","","","","","","","49","0,1,0","1","mountain","49","probe-92","0.3813053933058063","0.507012022313757","0.06820527446573095","0","","","","","","","",""
"","html-keyboard-response","191","813630","0.0-105.0-1.0","null","<p></p>","null","","","","","","","","","","","","","","","","","","","","","","",""
"","do_trial","192","818254","0.0-106.0-0.0","79.20000000018626","","","","","","","","49","0,0,0","1","mountain","50","probe-99","0.290973786795555","0.4652228438690778","0.11902545134091684","0","","","","","","","",""
"","html-keyboard-response","193","819267","0.0-106.0-1.0","null","<p></p>","null","","","","","","","","","","","","","","","","","","","","","","",""
"","do_trial","194","823810","0.0-107.0-0.0","0.10000000055879354","","","","","","","","51","0,0,0","1","mountain","51","probe-159","0.16867204613237136","0.5463525937675493","0.10588229303693796","0","","","","","","","",""
"","html-keyboard-response","195","824821","0.0-107.0-1.0","null","<p></p>","null","","","","","","","","","","","","","","","","","","","","","","",""
"","do_trial","196","829376","0.0-108.0-0.0","10.199999999254942","","","","","","","","50","0,1,1","1","mountain","52","probe-200","0.12233335161037129","0.469945863665298","0.10078886868887471","1","","","","","","","",""
"","html-keyboard-response","197","830378","0.0-108.0-1.0","null","<p></p>","null","","","","","","","","","","","","","","","","","","","","","","",""
"","do_trial","198","834946","0.0-109.0-0.0","20.09999999962747","","","","","","","","50","0,1,1","1","mountain","53","probe-107","0.22279776126087503","0.5428236202394858","0.14957812835091935","1","","","","","","","",""
"","html-keyboard-response","199","835961","0.0-109.0-1.0","null","<p></p>","null","","","","","","","","","","","","","","","","","","","","","","",""
"","do_trial","200","840630","0.0-110.0-0.0","125.09999999962747","","","","","","","","50","0,1,0","1","mountain","54","probe-43","0.2912148697777836","0.48406617008347175","0.09723806491276005","1","","","","","","","",""
"","html-keyboard-response","201","841643","0.0-110.0-1.0","null","<p></p>","null","","","","","","","","","","","","","","","","","","","","","","",""
"","do_trial","202","846673","0.0-111.0-0.0","471.59999999962747","","","","","","","","50","0,1,0","1","mountain","55","probe-116","0.2951721059892748","0.5271416203190565","0.0651047453066082","1","","","","","","","",""
"","html-keyboard-response","203","847686","0.0-111.0-1.0","null","<p></p>","null","","","","","","","","","","","","","","","","","","","","","","",""
"","do_trial","204","852311","0.0-112.0-0.0","80.79999999981374","","","","","","","","50","0,0,0","1","mountain","56","probe-209","0.40455937535525743","0.7662193090660873","0.13245456064301286","0","","","","","","","",""
"","html-keyboard-response","205","853324","0.0-112.0-1.0","null","<p></p>","null","","","","","","","","","","","","","","","","","","","","","","",""
"","do_trial","206","859311","0.0-113.0-0.0","1439.1000000005588","","","","","","","","50","0,0,0","1","mountain","57","probe-104","0.3464978505709948","0.5343987019885994","0.058187053287476254","0","","","","","","","",""
"","html-keyboard-response","207","860322","0.0-113.0-1.0","null","<p></p>","null","","","","","","","","","","","","","","","","","","","","","","",""
"","do_trial","208","865047","0.0-114.0-0.0","179.29999999981374","","","","","","","","50","0,0,0","1","mountain","58","probe-201","0.3185420100488397","0.7083031438557901","0.08538779461470154","0","","","","","","","",""
"","html-keyboard-response","209","866053","0.0-114.0-1.0","null","<p></p>","null","","","","","","","","","","","","","","","","","","","","","","",""
"","do_trial","210","870682","0.0-115.0-0.0","75.19999999925494","","","","","","","","50","0,1,0","1","mountain","59","probe-198","0.4040812624336739","0.6090762069947742","0.05182652161703091","1","","","","","","","",""
"","html-keyboard-response","211","871690","0.0-115.0-1.0","null","<p></p>","null","","","","","","","","","","","","","","","","","","","","","","",""
"","do_trial","212","876349","0.0-116.0-0.0","112","","","","","","","","50","0,1,0","1","mountain","60","probe-94","0.34753944712523555","0.6965808704218114","0.16896993277820144","1","","","","","","","",""
"","html-keyboard-response","213","877362","0.0-116.0-1.0","null","<p></p>","null","","","","","","","","","","","","","","","","","","","","","","",""
"","do_trial","214","882279","0.0-117.0-0.0","364.69999999925494","","","","","","","","50","1,0,0","1","mountain","61","probe-31","0.35939526158074087","0.6386363565639015","0.12790856692781158","0","","","","","","","",""
"","html-keyboard-response","215","883287","0.0-117.0-1.0","null","<p></p>","null","","","","","","","","","","","","","","","","","","","","","","",""
"","do_trial","216","888357","0.0-118.0-0.0","520","","","","","","","","50","1,0,0","1","mountain","62","probe-162","0.2878529777141029","0.657736731837242","0.07566045943467113","0","","","","","","","",""
"","html-keyboard-response","217","889368","0.0-118.0-1.0","null","<p></p>","null","","","","","","","","","","","","","","","","","","","","","","",""
"","do_trial","218","893953","0.0-119.0-0.0","31.300000000745058","","","","","","","","50","0,1,0","1","mountain","63","probe-70","0.22945487585355043","0.6811727990056085","0.13162078421159132","1","","","","","","","",""
"","html-keyboard-response","219","894964","0.0-119.0-1.0","null","<p></p>","null","","","","","","","","","","","","","","","","","","","","","","",""
"","do_trial","220","899520","0.0-120.0-0.0","0.20000000018626451","","","","","","","","49","1,1,0","1","mountain","64","probe-76","0.25270662158223056","0.7801173434709339","0.10792222182098436","1","","","","","","","",""
"","html-keyboard-response","221","900528","0.0-120.0-1.0","null","<p></p>","null","","","","","","","","","","","","","","","","","","","","","","",""
"","do_trial","222","905387","0.0-121.0-0.0","310.90000000037253","","","","","","","","49","0,1,0","1","mountain","65","probe-217","0.3360978894374959","0.6920629649288975","0.0749636988028666","0","","","","","","","",""
"","html-keyboard-response","223","906401","0.0-121.0-1.0","null","<p></p>","null","","","","","","","","","","","","","","","","","","","","","","",""
"","do_trial","224","911309","0.0-122.0-0.0","363.29999999981374","","","","","","","","49","0,0,0","1","mountain","66","probe-160","0.3984106410333325","0.5844323268326277","0.11184686016406847","0","","","","","","","",""
"","html-keyboard-response","225","912318","0.0-122.0-1.0","null","<p></p>","null","","","","","","","","","","","","","","","","","","","","","","",""
"","do_trial","226","916916","0.0-123.0-0.0","54.799999999813735","","","","","","","","49","0,1,0","1","mountain","67","probe-85","0.41638689634082754","0.6601557912353306","0.10418759489925329","0","","","","","","","",""
"","html-keyboard-response","227","917929","0.0-123.0-1.0","null","<p></p>","null","","","","","","","","","","","","","","","","","","","","","","",""
"","do_trial","228","922939","0.0-124.0-0.0","459.20000000018626","","","","","","","","50","0,0,0","1","mountain","68","probe-63","0.3465163077435931","0.6978650967977506","0.13395607154281444","0","","","","","","","",""
"","html-keyboard-response","229","923955","0.0-124.0-1.0","null","<p></p>","null","","","","","","","","","","","","","","","","","","","","","","",""
"","do_trial","230","928971","0.0-125.0-0.0","476.1000000005588","","","","","","","","50","0,1,1","1","mountain","69","probe-48","0.259828847968241","0.7033808058535536","0.19692419201156353","1","","","","","","","",""
"","html-keyboard-response","231","929980","0.0-125.0-1.0","null","<p></p>","null","","","","","","","","","","","","","","","","","","","","","","",""
"","do_bye","232","931488","0.0-126.0-0.0","null","","","","","","","","null","","","","","","","","","","","","","","","","",""
"","break","233","931550","0.0-126.0-1.0","61.40000000037253","<div class='center'><p>Time to take a quick break! You have 2 minutes to rest, but you can move on sooner if you'd like.</p><p> Press the <b>space bar</b> to continue.</p></div>","32","","","","","","","","","","","","","","","","","","","","","","",""
"","do_travel","234","940558","0.0-127.0-0.0","null","","","","","","","","null","","","","","","","","","","","","","","","","",""
"","do_welcome","235","944573","0.0-127.0-1.0","null","","","","","","","","null","","","","","","","","","","","","","","","","",""
"","do_trial","236","951361","0.0-128.0-0.0","2235.2000000001863","","","","","","","","51","0,1,0","2","countryside","70","probe-40","0.349629140342519","1","0.10080405361019462","0","","","","","","","",""
"","html-keyboard-response","237","952371","0.0-128.0-1.0","null","<p></p>","null","","","","","","","","","","","","","","","","","","","","","","",""
"","do_trial","238","957027","0.0-129.0-0.0","103.29999999981374","","","","","","","","51","0,1,0","2","countryside","71","probe-87","0.21704155783896412","1","0.11947933166840814","0","","","","","","","",""
"","html-keyboard-response","239","958041","0.0-129.0-1.0","null","<p></p>","null","","","","","","","","","","","","","","","","","","","","","","",""
"","do_trial","240","963362","0.0-130.0-0.0","770.0999999996275","","","","","","","","49","0,0,0","2","countryside","72","probe-98","0.31149762456264024","0.8613837219304052","0.0971671310080197","0","","","","","","","",""
"","html-keyboard-response","241","964375","0.0-130.0-1.0","null","<p></p>","null","","","","","","","","","","","","","","","","","","","","","","",""
"","do_trial","242","969259","0.0-131.0-0.0","337.3999999994412","","","","","","","","49","0,0,0","2","countryside","73","probe-169","0.34872235058944717","0.7462643438364241","0.09235241130862532","0","","","","","","","",""
"","html-keyboard-response","243","970274","0.0-131.0-1.0","null","<p></p>","null","","","","","","","","","","","","","","","","","","","","","","",""
"","do_trial","244","975146","0.0-132.0-0.0","320.40000000037253","","","","","","","","50","0,1,0","2","countryside","74","probe-101","0.36903889523062655","0.7558092581834547","0.09428799967366489","1","","","","","","","",""
"","html-keyboard-response","245","976158","0.0-132.0-1.0","null","<p></p>","null","","","","","","","","","","","","","","","","","","","","","","",""
"","do_trial","246","981039","0.0-133.0-0.0","334.09999999962747","","","","","","","","50","1,1,0","2","countryside","75","probe-23","0.5064774033150766","0.7902515425955292","0.3363269771456538","1","","","","","","","",""
"","html-keyboard-response","247","982053","0.0-133.0-1.0","null","<p></p>","null","","","","","","","","","","","","","","","","","","","","","","",""
"","do_trial","248","986656","0.0-134.0-0.0","62.200000000186265","","","","","","","","50","0,0,0","2","countryside","76","probe-222","0.5062654563217724","0.7675578743949528","0.1656589873507999","0","","","","","","","",""
"","html-keyboard-response","249","987667","0.0-134.0-1.0","null","<p></p>","null","","","","","","","","","","","","","","","","","","","","","","",""
"","do_trial","250","992560","0.0-135.0-0.0","348.5","","","","","","","","50","0,1,0","2","countryside","77","probe-123","0.34271955566499934","0.7655356773740941","0.07653576326690648","1","","","","","","","",""
"","html-keyboard-response","251","993574","0.0-135.0-1.0","null","<p></p>","null","","","","","","","","","","","","","","","","","","","","","","",""
"","do_trial","252","998679","0.0-136.0-0.0","563.2000000001863","","","","","","","","50","1,1,0","2","countryside","78","probe-49","0.2741779477149345","0.6491881421262774","0.10827504705100591","1","","","","","","","",""
"","html-keyboard-response","253","999688","0.0-136.0-1.0","null","<p></p>","null","","","","","","","","","","","","","","","","","","","","","","",""
"","do_trial","254","1006687","0.0-137.0-0.0","2456.9000000003725","","","","","","","","50","1,0,0","2","countryside","79","probe-10","0.36957029169327044","0.5783115249951652","0.11688078387670704","0","","","","","","","",""
"","html-keyboard-response","255","1007696","0.0-137.0-1.0","null","<p></p>","null","","","","","","","","","","","","","","","","","","","","","","",""
"","do_trial","256","1012484","0.0-138.0-0.0","241.40000000037253","","","","","","","","50","1,0,1","2","countryside","80","probe-224","0.35456049723531186","0.5113131753054454","0.28595781151194105","0","","","","","","","",""
"","html-keyboard-response","257","1013495","0.0-138.0-1.0","null","<p></p>","null","","","","","","","","","","","","","","","","","","","","","","",""
"","do_trial","258","1018221","0.0-139.0-0.0","185.29999999981374","","","","","","","","50","0,1,0","2","countryside","81","probe-124","0.3338122490940706","0.4599455829812687","0.4292529871751652","1","","","","","","","",""
"","html-keyboard-response","259","1019228","0.0-139.0-1.0","null","<p></p>","null","","","","","","","","","","","","","","","","","","","","","","",""
"","do_trial","260","1023836","0.0-140.0-0.0","54.200000000186265","","","","","","","","50","0,1,0","2","countryside","82","probe-20","0.3328381507765558","0.40151913471895845","0.34408002354287753","1","","","","","","","",""
"","html-keyboard-response","261","1024843","0.0-140.0-1.0","null","<p></p>","null","","","","","","","","","","","","","","","","","","","","","","",""
"","do_trial","262","1029659","0.0-141.0-0.0","264","","","","","","","","50","0,0,1","2","countryside","83","probe-121","0.33988574108441216","0.16591407531350516","0.5322411542116895","0","","","","","","","",""
"","html-keyboard-response","263","1030661","0.0-141.0-1.0","null","<p></p>","null","","","","","","","","","","","","","","","","","","","","","","",""
"","do_trial","264","1035251","0.0-142.0-0.0","49.90000000037253","","","","","","","","50","0,0,0","2","countryside","84","probe-156","0.34665167606360087","0.21031813778588349","0.5417413857292589","0","","","","","","","",""
"","html-keyboard-response","265","1036259","0.0-142.0-1.0","null","<p></p>","null","","","","","","","","","","","","","","","","","","","","","","",""
"","do_trial","266","1040809","0.0-143.0-0.0","7.400000000372529","","","","","","","","50","0,0,1","2","countryside","85","probe-142","0.36672347234900243","0.20161467038140646","0.5774717631836908","0","","","","","","","",""
"","html-keyboard-response","267","1041817","0.0-143.0-1.0","null","<p></p>","null","","","","","","","","","","","","","","","","","","","","","","",""
"","do_trial","268","1046372","0.0-144.0-0.0","0.09999999962747097","","","","","","","","51","0,1,1","2","countryside","86","probe-193","0.22890435508457485","0.12593025521742202","0.6872218943299235","1","","","","","","","",""
"","html-keyboard-response","269","1047387","0.0-144.0-1.0","null","<p></p>","null","","","","","","","","","","","","","","","","","","","","","","",""
"","do_trial","270","1052193","0.0-145.0-0.0","259.79999999981374","","","","","","","","51","0,0,1","2","countryside","87","probe-39","0.2699468816003462","0.24528389128181835","0.5529871038550036","1","","","","","","","",""
"","html-keyboard-response","271","1053204","0.0-145.0-1.0","null","<p></p>","null","","","","","","","","","","","","","","","","","","","","","","",""
"","do_trial","272","1057753","0.0-146.0-0.0","0.09999999962747097","","","","","","","","51","0,0,1","2","countryside","88","probe-45","0.29778711694382304","0.2137506333233498","0.4322136572458014","1","","","","","","","",""
"","html-keyboard-response","273","1058763","0.0-146.0-1.0","null","<p></p>","null","","","","","","","","","","","","","","","","","","","","","","",""
"","do_trial","274","1063556","0.0-147.0-0.0","249.70000000018626","","","","","","","","51","0,1,0","2","countryside","89","probe-55","0.35751807317802375","0.2552852024140474","0.45022229414698905","0","","","","","","","",""
"","html-keyboard-response","275","1064571","0.0-147.0-1.0","null","<p></p>","null","","","","","","","","","","","","","","","","","","","","","","",""
"","do_trial","276","1069120","0.0-148.0-0.0","0","","","","","","","","51","1,0,1","2","countryside","90","probe-82","0.33610544784616","0.16308658778512194","0.5627419669442655","1","","","","","","","",""
"","html-keyboard-response","277","1070121","0.0-148.0-1.0","null","<p></p>","null","","","","","","","","","","","","","","","","","","","","","","",""
"","do_trial","278","1074662","0.0-149.0-0.0","0.09999999962747097","","","","","","","","51","0,0,1","2","countryside","91","probe-131","0.2997563727165598","0.11332726524038261","0.6475538415452772","1","","","","","","","",""
"","html-keyboard-response","279","1075674","0.0-149.0-1.0","null","<p></p>","null","","","","","","","","","","","","","","","","","","","","","","",""
"","do_trial","280","1080622","0.0-150.0-0.0","409","","","","","","","","51","0,0,1","2","countryside","92","probe-75","0.2567082563532273","0.05194196412983932","0.7341782244132666","1","","","","","","","",""
"","html-keyboard-response","281","1081637","0.0-150.0-1.0","null","<p></p>","null","","","","","","","","","","","","","","","","","","","","","","",""
"","do_trial","282","1086964","0.0-151.0-0.0","783.8999999994412","","","","","","","","51","1,0,1","2","countryside","93","probe-118","0.3371010322081463","0.15755465959257559","0.7796095140714928","1","","","","","","","",""
"","html-keyboard-response","283","1087979","0.0-151.0-1.0","null","<p></p>","null","","","","","","","","","","","","","","","","","","","","","","",""
"","do_trial","284","1092712","0.0-152.0-0.0","180.09999999962747","","","","","","","","51","0,0,1","2","countryside","94","probe-204","0.2890163958579882","0.05475247486966046","0.774124103439375","1","","","","","","","",""
"","html-keyboard-response","285","1093724","0.0-152.0-1.0","null","<p></p>","null","","","","","","","","","","","","","","","","","","","","","","",""
"","do_trial","286","1099474","0.0-153.0-0.0","1207.300000000745","","","","","","","","51","0,1,1","2","countryside","95","probe-216","0.197833976499994","0.14056152125097185","0.8150002903853524","1","","","","","","","",""
"","html-keyboard-response","287","1100484","0.0-153.0-1.0","null","<p></p>","null","","","","","","","","","","","","","","","","","","","","","","",""
"","do_trial","288","1106038","0.0-154.0-0.0","1007","","","","","","","","51","0,0,1","2","countryside","96","probe-165","0.1370956716889455","0.19554798930938674","0.758298842871981","1","","","","","","","",""
"","html-keyboard-response","289","1107047","0.0-154.0-1.0","null","<p></p>","null","","","","","","","","","","","","","","","","","","","","","","",""
"","do_trial","290","1112322","0.0-155.0-0.0","726.0999999996275","","","","","","","","51","1,0,1","2","countryside","97","probe-111","0.3114644270591761","0.11446973445722713","0.6213764871814016","1","","","","","","","",""
"","html-keyboard-response","291","1113336","0.0-155.0-1.0","null","<p></p>","null","","","","","","","","","","","","","","","","","","","","","","",""
"","do_trial","292","1118326","0.0-156.0-0.0","426.20000000018626","","","","","","","","51","0,0,1","2","countryside","98","probe-135","0.42596242948852925","0.1669896006326847","0.6698187431375261","1","","","","","","","",""
"","html-keyboard-response","293","1119336","0.0-156.0-1.0","null","<p></p>","null","","","","","","","","","","","","","","","","","","","","","","",""
"","do_trial","294","1124598","0.0-157.0-0.0","706","","","","","","","","51","1,0,1","2","countryside","99","probe-129","0.3858427113845223","0.06971083730588151","0.5678374088554621","1","","","","","","","",""
"","html-keyboard-response","295","1125611","0.0-157.0-1.0","null","<p></p>","null","","","","","","","","","","","","","","","","","","","","","","",""
"","do_trial","296","1130156","0.0-158.0-0.0","0","","","","","","","","51","0,0,1","2","countryside","100","probe-01","0.3042408018108639","0.1263352232200221","0.655415223899839","1","","","","","","","",""
"","html-keyboard-response","297","1131168","0.0-158.0-1.0","null","<p></p>","null","","","","","","","","","","","","","","","","","","","","","","",""
"","do_trial","298","1136385","0.0-159.0-0.0","666.7999999998137","","","","","","","","51","0,0,1","2","countryside","101","probe-21","0.335416767632277","0.24912209775426833","0.9146461118443605","1","","","","","","","",""
"","html-keyboard-response","299","1137395","0.0-159.0-1.0","null","<p></p>","null","","","","","","","","","","","","","","","","","","","","","","",""
"","do_trial","300","1142260","0.0-160.0-0.0","324.6000000005588","","","","","","","","51","0,0,1","2","countryside","102","probe-51","0.24467489509362908","0.28882547427000005","0.692595244059238","1","","","","","","","",""
"","html-keyboard-response","301","1143275","0.0-160.0-1.0","null","<p></p>","null","","","","","","","","","","","","","","","","","","","","","","",""
"","do_trial","302","1149755","0.0-161.0-0.0","1928.1000000005588","","","","","","","","51","0,0,1","2","countryside","103","probe-163","0.3795821398892193","0.3620332788297866","0.7380783125289296","1","","","","","","","",""
"","html-keyboard-response","303","1150768","0.0-161.0-1.0","null","<p></p>","null","","","","","","","","","","","","","","","","","","","","","","",""
"","do_trial","304","1155324","0.0-162.0-0.0","7.7999999998137355","","","","","","","","51","0,0,0","2","countryside","104","probe-199","0.1543869567618625","0.37182879945624514","0.6086791543740169","0","","","","","","","",""
"","html-keyboard-response","305","1156332","0.0-162.0-1.0","null","<p></p>","null","","","","","","","","","","","","","","","","","","","","","","",""
"","do_trial","306","1160885","0.0-163.0-0.0","3.300000000745058","","","","","","","","51","1,0,0","2","countryside","105","probe-213","0.23201729075149413","0.17450133242070778","0.6384521784790284","0","","","","","","","",""
"","html-keyboard-response","307","1161895","0.0-163.0-1.0","null","<p></p>","null","","","","","","","","","","","","","","","","","","","","","","",""
"","do_trial","308","1166548","0.0-164.0-0.0","97.6000000005588","","","","","","","","51","0,0,1","2","countryside","106","probe-11","0.1470757592033912","0.12523428185087107","0.6966212656853722","1","","","","","","","",""
"","html-keyboard-response","309","1167559","0.0-164.0-1.0","null","<p></p>","null","","","","","","","","","","","","","","","","","","","","","","",""
"","do_trial","310","1172165","0.0-165.0-0.0","60","","","","","","","","50","0,0,1","2","countryside","107","probe-181","0.2523606287908358","0.07274642035480948","0.6407991181617603","0","","","","","","","",""
"","html-keyboard-response","311","1173173","0.0-165.0-1.0","null","<p></p>","null","","","","","","","","","","","","","","","","","","","","","","",""
"","do_trial","312","1178318","0.0-166.0-0.0","590.6999999992549","","","","","","","","50","0,0,1","2","countryside","108","probe-179","0.4029934003871438","0.1015100831717248","0.5833425689188929","0","","","","","","","",""
"","html-keyboard-response","313","1179331","0.0-166.0-1.0","null","<p></p>","null","","","","","","","","","","","","","","","","","","","","","","",""
"","do_trial","314","1183875","0.0-167.0-0.0","3.099999999627471","","","","","","","","51","0,0,1","2","countryside","109","probe-186","0.34548564256705794","0.06356048648156964","0.728014252281812","1","","","","","","","",""
"","html-keyboard-response","315","1184888","0.0-167.0-1.0","null","<p></p>","null","","","","","","","","","","","","","","","","","","","","","","",""
"","do_bye","316","1186401","0.0-168.0-0.0","null","","","","","","","","null","","","","","","","","","","","","","","","","",""
"","break","317","1208553","0.0-168.0-1.0","22151.89999999944","<div class='center'><p>Time to take a quick break! You have 2 minutes to rest, but you can move on sooner if you'd like.</p><p> Press the <b>space bar</b> to continue.</p></div>","32","","","","","","","","","","","","","","","","","","","","","","",""
"","do_travel","318","1217568","0.0-169.0-0.0","null","","","","","","","","null","","","","","","","","","","","","","","","","",""
"","do_welcome","319","1221582","0.0-169.0-1.0","null","","","","","","","","null","","","","","","","","","","","","","","","","",""
"","do_trial","320","1227627","0.0-170.0-0.0","null","","","","","","","","null","1,0,1","3","coast","110","probe-07","0.4262726232310511","0.1585556709185304","1","","","","","","","","",""
"","html-keyboard-response","321","1228629","0.0-170.0-1.0","null","<p></p>","null","","","","","","","","","","","","","","","","","","","","","","",""
"","do_trial","322","1234028","0.0-171.0-0.0","849.5","","","","","","","","51","0,0,1","3","coast","111","probe-47","0.304559892311677","0.11961960030939472","1","1","","","","","","","",""
"","html-keyboard-response","323","1235031","0.0-171.0-1.0","null","<p></p>","null","","","","","","","","","","","","","","","","","","","","","","",""
"","do_trial","324","1239608","0.0-172.0-0.0","24.40000000037253","","","","","","","","51","1,0,1","3","coast","112","probe-27","0.36365493502703744","0.11218946178954547","0.9318400301082445","1","","","","","","","",""
"","html-keyboard-response","325","1240622","0.0-172.0-1.0","null","<p></p>","null","","","","","","","","","","","","","","","","","","","","","","",""
"","do_trial","326","1245331","0.0-173.0-0.0","158.40000000037253","","","","","","","","51","0,0,1","3","coast","113","probe-207","0.3822807892273536","0.1496128641442695","0.8783056187807162","1","","","","","","","",""
"","html-keyboard-response","327","1246344","0.0-173.0-1.0","null","<p></p>","null","","","","","","","","","","","","","","","","","","","","","","",""
"","do_trial","328","1250909","0.0-174.0-0.0","13.399999999441206","","","","","","","","51","0,1,1","3","coast","114","probe-190","0.4654792634354199","0.17388940766537261","0.7986563410056654","1","","","","","","","",""
"","html-keyboard-response","329","1251917","0.0-174.0-1.0","null","<p></p>","null","","","","","","","","","","","","","","","","","","","","","","",""
"","do_trial","330","1256584","0.0-175.0-0.0","124.29999999981374","","","","","","","","51","0,0,0","3","coast","115","probe-57","0.3453684055551022","0.08054598448178268","0.6342295489027481","0","","","","","","","",""
"","html-keyboard-response","331","1257587","0.0-175.0-1.0","null","<p></p>","null","","","","","","","","","","","","","","","","","","","","","","",""
"","do_trial","332","1262380","0.0-176.0-0.0","241","","","","","","","","51","0,0,1","3","coast","116","probe-59","0.5097170028044888","0.17085140792260703","0.8365235980858955","1","","","","","","","",""
"","html-keyboard-response","333","1263393","0.0-176.0-1.0","null","<p></p>","null","","","","","","","","","","","","","","","","","","","","","","",""
"","do_trial","334","1268072","0.0-177.0-0.0","130.70000000018626","","","","","","","","51","0,0,1","3","coast","117","probe-80","0.3859219130559138","0.13846357626719158","0.8045154963336697","1","","","","","","","",""
"","html-keyboard-response","335","1269083","0.0-177.0-1.0","null","<p></p>","null","","","","","","","","","","","","","","","","","","","","","","",""
"","do_trial","336","1273940","0.0-178.0-0.0","311","","","","","","","","51","0,0,1","3","coast","118","probe-128","0.4189239345791974","0.055797197603050935","0.7096441355925578","1","","","","","","","",""
"","html-keyboard-response","337","1274952","0.0-178.0-1.0","null","<p></p>","null","","","","","","","","","","","","","","","","","","","","","","",""
"","do_trial","338","1279862","0.0-179.0-0.0","362.3999999994412","","","","","","","","51","1,0,0","3","coast","119","probe-29","0.29383895477409117","0.12161613766008608","0.6926068103894053","0","","","","","","","",""
"","html-keyboard-response","339","1280875","0.0-179.0-1.0","null","<p></p>","null","","","","","","","","","","","","","","","","","","","","","","",""
"","do_trial","340","1285536","0.0-180.0-0.0","116.59999999962747","","","","","","","","51","0,0,1","3","coast","120","probe-90","0.15327567383478058","0.0797207853211387","0.6665112323847929","1","","","","","","","",""
"","html-keyboard-response","341","1286548","0.0-180.0-1.0","null","<p></p>","null","","","","","","","","","","","","","","","","","","","","","","",""
"","do_trial","342","1291096","0.0-181.0-0.0","0.10000000055879354","","","","","","","","51","0,0,1","3","coast","121","probe-54","0.11914979660737224","0.07876808247874026","0.7059268136880336","1","","","","","","","",""
"","html-keyboard-response","343","1292108","0.0-181.0-1.0","null","<p></p>","null","","","","","","","","","","","","","","","","","","","","","","",""
"","do_trial","344","1296799","0.0-182.0-0.0","138.09999999962747","","","","","","","","51","0,1,1","3","coast","122","probe-84","0.10150956540005426","0.35987575305235603","0.476706125550231","1","","","","","","","",""
"","html-keyboard-response","345","1297812","0.0-182.0-1.0","null","<p></p>","null","","","","","","","","","","","","","","","","","","","","","","",""
"","do_trial","346","1302474","0.0-183.0-0.0","110.19999999925494","","","","","","","","51","0,0,0","3","coast","123","probe-17","0.1847468419486939","0.40256781955609056","0.36648550251846196","0","","","","","","","",""
"","html-keyboard-response","347","1303478","0.0-183.0-1.0","null","<p></p>","null","","","","","","","","","","","","","","","","","","","","","","",""
"","do_trial","348","1308161","0.0-184.0-0.0","138.70000000018626","","","","","","","","51","0,0,1","3","coast","124","probe-173","0.2841717980157105","0.3788448721811046","0.33156969822532334","1","","","","","","","",""
"","html-keyboard-response","349","1309170","0.0-184.0-1.0","null","<p></p>","null","","","","","","","","","","","","","","","","","","","","","","",""
"","do_trial","350","1313818","0.0-185.0-0.0","103.90000000037253","","","","","","","","51","0,0,0","3","coast","125","probe-37","0.34334126244462665","0.4609686982311677","0.24222097125537595","0","","","","","","","",""
"","html-keyboard-response","351","1314828","0.0-185.0-1.0","null","<p></p>","null","","","","","","","","","","","","","","","","","","","","","","",""
"","do_trial","352","1319377","0.0-186.0-0.0","0.20000000018626451","","","","","","","","51","1,0,0","3","coast","126","probe-185","0.19367648041726582","0.460403344184369","0.1047859484319941","0","","","","","","","",""
"","html-keyboard-response","353","1320387","0.0-186.0-1.0","null","<p></p>","null","","","","","","","","","","","","","","","","","","","","","","",""
"","do_trial","354","1324984","0.0-187.0-0.0","50.10000000055879","","","","","","","","51","0,1,0","3","coast","127","probe-223","0.17808706274316422","0.5499380479690443","0.0923996844789581","0","","","","","","","",""
"","html-keyboard-response","355","1325997","0.0-187.0-1.0","null","<p></p>","null","","","","","","","","","","","","","","","","","","","","","","",""
"","do_trial","356","1330543","0.0-188.0-0.0","0.09999999962747097","","","","","","","","49","0,1,0","3","coast","128","probe-126","0.19261146088385697","0.6013954866540411","0.05144383531343536","0","","","","","","","",""
"","html-keyboard-response","357","1331556","0.0-188.0-1.0","null","<p></p>","null","","","","","","","","","","","","","","","","","","","","","","",""
"","do_trial","358","1336222","0.0-189.0-0.0","109.29999999981374","","","","","","","","49","0,1,0","3","coast","129","probe-46","0.3254582340875442","0.5734275854872393","0.06491156293209396","0","","","","","","","",""
"","html-keyboard-response","359","1337235","0.0-189.0-1.0","null","<p></p>","null","","","","","","","","","","","","","","","","","","","","","","",""
"","do_trial","360","1341825","0.0-190.0-0.0","49.59999999962747","","","","","","","","50","0,1,0","3","coast","130","probe-172","0.2896630919298781","0.5275736395839259","0.09162093939994045","1","","","","","","","",""
"","html-keyboard-response","361","1342838","0.0-190.0-1.0","null","<p></p>","null","","","","","","","","","","","","","","","","","","","","","","",""
"","do_trial","362","1347553","0.0-191.0-0.0","173.1000000005588","","","","","","","","50","0,0,0","3","coast","131","probe-176","0.1528833055079501","0.37277224120725744","0.1328731136451447","0","","","","","","","",""
"","html-keyboard-response","363","1348565","0.0-191.0-1.0","null","<p></p>","null","","","","","","","","","","","","","","","","","","","","","","",""
"","do_trial","364","1353182","0.0-192.0-0.0","71.40000000037253","","","","","","","","50","0,0,0","3","coast","132","probe-141","0.25013159945883945","0.460813820434047","0.08936361829938483","0","","","","","","","",""
"","html-keyboard-response","365","1354187","0.0-192.0-1.0","null","<p></p>","null","","","","","","","","","","","","","","","","","","","","","","",""
"","do_trial","366","1358847","0.0-193.0-0.0","104.5","","","","","","","","51","0,1,0","3","coast","133","probe-30","0.27951951724416374","0.48530280522796954","0.09224989904892347","0","","","","","","","",""
"","html-keyboard-response","367","1359859","0.0-193.0-1.0","null","<p></p>","null","","","","","","","","","","","","","","","","","","","","","","",""
"","do_trial","368","1364529","0.0-194.0-0.0","129.09999999962747","","","","","","","","51","0,0,0","3","coast","134","probe-89","0.32396110444864934","0.6234165427965902","0.14352037976901671","0","","","","","","","",""
"","html-keyboard-response","369","1365542","0.0-194.0-1.0","null","<p></p>","null","","","","","","","","","","","","","","","","","","","","","","",""
"","do_trial","370","1370319","0.0-195.0-0.0","229.29999999981374","","","","","","","","51","0,1,0","3","coast","135","probe-04","0.4548020418852681","0.6074691076161726","0.13814366920554375","0","","","","","","","",""
"","html-keyboard-response","371","1371320","0.0-195.0-1.0","null","<p></p>","null","","","","","","","","","","","","","","","","","","","","","","",""
"","do_trial","372","1376009","0.0-196.0-0.0","135.20000000018626","","","","","","","","51","0,1,1","3","coast","136","probe-74","0.2937793174554868","0.6946794187329812","0.18932801654796805","1","","","","","","","",""
"","html-keyboard-response","373","1377011","0.0-196.0-1.0","null","<p></p>","null","","","","","","","","","","","","","","","","","","","","","","",""
"","do_trial","374","1381664","0.0-197.0-0.0","97.6000000005588","","","","","","","","51","0,1,1","3","coast","137","probe-188","0.3405419231217537","0.6832930560389899","0.22800760714100995","1","","","","","","","",""
"","html-keyboard-response","375","1382673","0.0-197.0-1.0","null","<p></p>","null","","","","","","","","","","","","","","","","","","","","","","",""
"","do_trial","376","1387686","0.0-198.0-0.0","462.40000000037253","","","","","","","","51","0,1,0","3","coast","138","probe-03","0.4867102119765057","0.6414652636742134","0.15678284545669716","0","","","","","","","",""
"","html-keyboard-response","377","1388697","0.0-198.0-1.0","null","<p></p>","null","","","","","","","","","","","","","","","","","","","","","","",""
"","do_trial","378","1393727","0.0-199.0-0.0","476.20000000018626","","","","","","","","51","0,0,1","3","coast","139","probe-171","0.44006398004165775","0.5440841923753726","0.19905887483938514","1","","","","","","","",""
"","html-keyboard-response","379","1394739","0.0-199.0-1.0","null","<p></p>","null","","","","","","","","","","","","","","","","","","","","","","",""
"","do_trial","380","1399417","0.0-200.0-0.0","123.29999999981374","","","","","","","","51","0,1,0","3","coast","140","probe-154","0.31642888091045585","0.38554895407821166","0.18625884962694733","0","","","","","","","",""
"","html-keyboard-response","381","1400433","0.0-200.0-1.0","null","<p></p>","null","","","","","","","","","","","","","","","","","","","","","","",""
"","do_trial","382","1405087","0.0-201.0-0.0","103.3999999994412","","","","","","","","51","0,1,0","3","coast","141","probe-09","0.2710092929200299","0.4410359384420746","0.20366132069214796","0","","","","","","","",""
"","html-keyboard-response","383","1406098","0.0-201.0-1.0","null","<p></p>","null","","","","","","","","","","","","","","","","","","","","","","",""
"","do_trial","384","1410715","0.0-202.0-0.0","62.700000000186265","","","","","","","","51","0,0,0","3","coast","142","probe-149","0.2525233560394314","0.4557579167657656","0.1844173401647249","0","","","","","","","",""
"","html-keyboard-response","385","1411725","0.0-202.0-1.0","null","<p></p>","null","","","","","","","","","","","","","","","","","","","","","","",""
"","do_trial","386","1416443","0.0-203.0-0.0","171.40000000037253","","","","","","","","51","1,1,0","3","coast","143","probe-170","0.33300398277256094","0.49630557422018834","0.19422437738752588","0","","","","","","","",""
"","html-keyboard-response","387","1417450","0.0-203.0-1.0","null","<p></p>","null","","","","","","","","","","","","","","","","","","","","","","",""
"","do_trial","388","1422276","0.0-204.0-0.0","271.59999999962747","","","","","","","","51","0,0,0","3","coast","144","probe-71","0.1953925829594976","0.5362810708650249","0.12521710985967494","0","","","","","","","",""
"","html-keyboard-response","389","1423287","0.0-204.0-1.0","null","<p></p>","null","","","","","","","","","","","","","","","","","","","","","","",""
"","do_trial","390","1428696","0.0-205.0-0.0","857.2999999998137","","","","","","","","51","0,0,1","3","coast","145","probe-106","0.05720649684973946","0.42590380723890514","0.12846461941195367","1","","","","","","","",""
"","html-keyboard-response","391","1429707","0.0-205.0-1.0","null","<p></p>","null","","","","","","","","","","","","","","","","","","","","","","",""
"","do_trial","392","1434566","0.0-206.0-0.0","307","","","","","","","","51","0,1,1","3","coast","146","probe-13","0.24900819887292067","0.469321867565513","0.23689990517626855","1","","","","","","","",""
"","html-keyboard-response","393","1435581","0.0-206.0-1.0","null","<p></p>","null","","","","","","","","","","","","","","","","","","","","","","",""
"","do_trial","394","1440332","0.0-207.0-0.0","204.20000000018626","","","","","","","","51","0,1,1","3","coast","147","probe-60","0.20050711498944815","0.49931842014490296","0.16034043952190444","1","","","","","","","",""
"","html-keyboard-response","395","1441345","0.0-207.0-1.0","null","<p></p>","null","","","","","","","","","","","","","","","","","","","","","","",""
"","do_trial","396","1446394","0.0-208.0-0.0","506.80000000074506","","","","","","","","51","0,0,1","3","coast","148","probe-97","0.15177279234762472","0.4938970239166303","0.20414772998626263","1","","","","","","","",""
"","html-keyboard-response","397","1447402","0.0-208.0-1.0","null","<p></p>","null","","","","","","","","","","","","","","","","","","","","","","",""
"","do_trial","398","1452087","0.0-209.0-0.0","133.30000000074506","","","","","","","","51","1,0,0","3","coast","149","probe-184","0.4087372447599779","0.5286806592686868","0.10862972413542349","0","","","","","","","",""
"","html-keyboard-response","399","1453089","0.0-209.0-1.0","null","<p></p>","null","","","","","","","","","","","","","","","","","","","","","","",""
"","do_bye","400","1454597","0.0-210.0-0.0","null","","","","","","","","null","","","","","","","","","","","","","","","","",""
"","break","401","1491659","0.0-210.0-1.0","37061.200000000186","<div class='center'><p>Time to take a quick break! You have 2 minutes to rest, but you can move on sooner if you'd like.</p><p> Press the <b>space bar</b> to continue.</p></div>","32","","","","","","","","","","","","","","","","","","","","","","",""
"","do_travel","402","1500672","0.0-211.0-0.0","null","","","","","","","","null","","","","","","","","","","","","","","","","",""
"","do_welcome","403","1504687","0.0-211.0-1.0","null","","","","","","","","null","","","","","","","","","","","","","","","","",""
"","do_trial","404","1511052","0.0-212.0-0.0","1815.3999999994412","","","","","","","","49","1,1,0","4","city","150","probe-81","0.35372734175836734","1","0.2220266435382873","1","","","","","","","",""
"","html-keyboard-response","405","1512061","0.0-212.0-1.0","null","<p></p>","null","","","","","","","","","","","","","","","","","","","","","","",""
"","do_trial","406","1516814","0.0-213.0-0.0","210.20000000018626","","","","","","","","49","0,1,1","4","city","151","probe-191","0.2179119416410386","1","0.18284347525472858","0","","","","","","","",""
"","html-keyboard-response","407","1517827","0.0-213.0-1.0","null","<p></p>","null","","","","","","","","","","","","","","","","","","","","","","",""
"","do_trial","408","1522403","0.0-214.0-0.0","30.5","","","","","","","","50","0,1,0","4","city","152","probe-113","0.18519185884391387","0.834395040728392","0.11785660251729967","1","","","","","","","",""
"","html-keyboard-response","409","1523412","0.0-214.0-1.0","null","<p></p>","null","","","","","","","","","","","","","","","","","","","","","","",""
"","do_trial","410","1528273","0.0-215.0-0.0","315.20000000018626","","","","","","","","50","0,1,0","4","city","153","probe-61","0.05262997433513803","0.7937636555942286","0.07007679695517452","1","","","","","","","",""
"","html-keyboard-response","411","1529289","0.0-215.0-1.0","null","<p></p>","null","","","","","","","","","","","","","","","","","","","","","","",""
"","do_trial","412","1534215","0.0-216.0-0.0","379.70000000018626","","","","","","","","51","0,0,0","4","city","154","probe-88","0.15751794104649766","0.7581572438376654","0.06927432060716804","0","","","","","","","",""
"","html-keyboard-response","413","1535224","0.0-216.0-1.0","null","<p></p>","null","","","","","","","","","","","","","","","","","","","","","","",""
"","do_trial","414","1539777","0.0-217.0-0.0","0","","","","","","","","51","1,0,0","4","city","155","probe-148","0.23618726365684922","0.7637556637170683","0.07029512911313449","0","","","","","","","",""
"","html-keyboard-response","415","1540787","0.0-217.0-1.0","null","<p></p>","null","","","","","","","","","","","","","","","","","","","","","","",""
"","do_trial","416","1545363","0.0-218.0-0.0","30.5","","","","","","","","50","0,1,0","4","city","156","probe-215","0.27036553808948094","0.608937669888097","0.1598974054627951","1","","","","","","","",""
"","html-keyboard-response","417","1546374","0.0-218.0-1.0","null","<p></p>","null","","","","","","","","","","","","","","","","","","","","","","",""
"","do_trial","418","1551192","0.0-219.0-0.0","271.30000000074506","","","","","","","","50","0,1,0","4","city","157","probe-36","0.33497393289057475","0.5229082212558738","0.10156907391793236","1","","","","","","","",""
"","html-keyboard-response","419","1552213","0.0-219.0-1.0","null","<p></p>","null","","","","","","","","","","","","","","","","","","","","","","",""
"","do_trial","420","1557062","0.0-220.0-0.0","288.59999999962747","","","","","","","","50","0,1,0","4","city","158","probe-151","0.3481376872335188","0.6562078910824009","0.19570177514829667","1","","","","","","","",""
"","html-keyboard-response","421","1558072","0.0-220.0-1.0","null","<p></p>","null","","","","","","","","","","","","","","","","","","","","","","",""
"","do_trial","422","1562665","0.0-221.0-0.0","49.59999999962747","","","","","","","","50","0,0,0","4","city","159","probe-105","0.3310116805997352","0.6349862905524518","0.10548139850232778","0","","","","","","","",""
"","html-keyboard-response","423","1563678","0.0-221.0-1.0","null","<p></p>","null","","","","","","","","","","","","","","","","","","","","","","",""
"","do_trial","424","1568264","0.0-222.0-0.0","40.59999999962747","","","","","","","","50","0,1,1","4","city","160","probe-50","0.3696303279305009","0.5419043008738625","0.19017663095698364","1","","","","","","","",""
"","html-keyboard-response","425","1569274","0.0-222.0-1.0","null","<p></p>","null","","","","","","","","","","","","","","","","","","","","","","",""
"","do_trial","426","1573930","0.0-223.0-0.0","98","","","","","","","","50","0,0,0","4","city","161","probe-167","0.49967202982250253","0.3830040581220952","0.23309582774350968","0","","","","","","","",""
"","html-keyboard-response","427","1574943","0.0-223.0-1.0","null","<p></p>","null","","","","","","","","","","","","","","","","","","","","","","",""
"","do_trial","428","1579791","0.0-224.0-0.0","298.79999999981374","","","","","","","","50","1,0,0","4","city","162","probe-230","0.544691184344577","0.1603750062618505","0.15382664138948085","0","","","","","","","",""
"","html-keyboard-response","429","1580802","0.0-224.0-1.0","null","<p></p>","null","","","","","","","","","","","","","","","","","","","","","","",""
"","do_trial","430","1585364","0.0-225.0-0.0","18.5","","","","","","","","50","1,1,0","4","city","163","probe-108","0.6572907455036828","0.1502606423226583","0.23236270701718545","1","","","","","","","",""
"","html-keyboard-response","431","1586365","0.0-225.0-1.0","null","<p></p>","null","","","","","","","","","","","","","","","","","","","","","","",""
"","do_trial","432","1590939","0.0-226.0-0.0","29.199999999254942","","","","","","","","49","1,0,0","4","city","164","probe-140","0.6668600936746591","0.1345075771745595","0.2368102884408922","1","","","","","","","",""
"","html-keyboard-response","433","1591950","0.0-226.0-1.0","null","<p></p>","null","","","","","","","","","","","","","","","","","","","","","","",""
"","do_trial","434","1596501","0.0-227.0-0.0","0.10000000055879354","","","","","","","","49","1,0,0","4","city","165","probe-93","0.6173018063122188","0.07017260162747141","0.24529727885157607","1","","","","","","","",""
"","html-keyboard-response","435","1597517","0.0-227.0-1.0","null","<p></p>","null","","","","","","","","","","","","","","","","","","","","","","",""
"","do_trial","436","1602219","0.0-228.0-0.0","149.29999999981374","","","","","","","","49","1,0,0","4","city","166","probe-109","0.7146727767369307","0.09060899865392791","0.16011148380452064","1","","","","","","","",""
"","html-keyboard-response","437","1603232","0.0-228.0-1.0","null","<p></p>","null","","","","","","","","","","","","","","","","","","","","","","",""
"","do_trial","438","1607790","0.0-229.0-0.0","0.10000000055879354","","","","","","","","49","1,0,1","4","city","167","probe-83","0.697632253789758","0.1559082870216916","0.15510092818458163","1","","","","","","","",""
"","html-keyboard-response","439","1608804","0.0-229.0-1.0","null","<p></p>","null","","","","","","","","","","","","","","","","","","","","","","",""
"","do_trial","440","1614169","0.0-230.0-0.0","811.9000000003725","","","","","","","","49","0,0,0","4","city","168","probe-102","0.65000263149557","0.08390449855197699","0.07536654153029958","0","","","","","","","",""
"","html-keyboard-response","441","1615182","0.0-230.0-1.0","null","<p></p>","null","","","","","","","","","","","","","","","","","","","","","","",""
"","do_trial","442","1619872","0.0-231.0-0.0","140.90000000037253","","","","","","","","50","1,0,0","4","city","169","probe-14","0.6161527615970284","0.16019120052886787","0.25648552510366207","0","","","","","","","",""
"","html-keyboard-response","443","1620886","0.0-231.0-1.0","null","<p></p>","null","","","","","","","","","","","","","","","","","","","","","","",""
"","do_trial","444","1625677","0.0-232.0-0.0","237.09999999962747","","","","","","","","50","1,0,0","4","city","170","probe-157","0.6197839885598718","0.175243253563076","0.3140545343337086","0","","","","","","","",""
"","html-keyboard-response","445","1626687","0.0-232.0-1.0","null","<p></p>","null","","","","","","","","","","","","","","","","","","","","","","",""
"","do_trial","446","1631253","0.0-233.0-0.0","15.400000000372529","","","","","","","","50","1,1,1","4","city","171","probe-138","0.7243155229603808","0.12447644498449525","0.21341659157098725","1","","","","","","","",""
"","html-keyboard-response","447","1632265","0.0-233.0-1.0","null","<p></p>","null","","","","","","","","","","","","","","","","","","","","","","",""
"","do_trial","448","1636986","0.0-234.0-0.0","181.20000000018626","","","","","","","","50","1,0,0","4","city","172","probe-114","0.5687016864777068","0.21172168435335142","0.10996354263334535","0","","","","","","","",""
"","html-keyboard-response","449","1637997","0.0-234.0-1.0","null","<p></p>","null","","","","","","","","","","","","","","","","","","","","","","",""
"","do_trial","450","1642683","0.0-235.0-0.0","136.5","","","","","","","","50","1,0,0","4","city","173","probe-38","0.6917810959324282","0.21803770727431185","0.16857642105461165","0","","","","","","","",""
"","html-keyboard-response","451","1643693","0.0-235.0-1.0","null","<p></p>","null","","","","","","","","","","","","","","","","","","","","","","",""
"","do_trial","452","1648576","0.0-236.0-0.0","337.29999999981374","","","","","","","","50","0,0,0","4","city","174","probe-226","0.6574205484248595","0.13508982131873912","0.2257287466175821","0","","","","","","","",""
"","html-keyboard-response","453","1649592","0.0-236.0-1.0","null","<p></p>","null","","","","","","","","","","","","","","","","","","","","","","",""
"","do_trial","454","1654152","0.0-237.0-0.0","14.100000000558794","","","","","","","","50","1,1,0","4","city","175","probe-86","0.5859789977762607","0.16739075439635961","0.18521543030273804","1","","","","","","","",""
"","html-keyboard-response","455","1655154","0.0-237.0-1.0","null","<p></p>","null","","","","","","","","","","","","","","","","","","","","","","",""
"","do_trial","456","1660229","0.0-238.0-0.0","531.2999999998137","","","","","","","","50","1,0,1","4","city","176","probe-78","0.5807441480280557","0.2523508919870672","0.26758227796748885","0","","","","","","","",""
"","html-keyboard-response","457","1661239","0.0-238.0-1.0","null","<p></p>","null","","","","","","","","","","","","","","","","","","","","","","",""
"","do_trial","458","1665778","0.0-239.0-0.0","0","","","","","","","","50","0,0,1","4","city","177","probe-214","0.5589944368456591","0.25222477058078085","0.26752345740692246","0","","","","","","","",""
"","html-keyboard-response","459","1666788","0.0-239.0-1.0","null","<p></p>","null","","","","","","","","","","","","","","","","","","","","","","",""
"","do_trial","460","1671341","0.0-240.0-0.0","0","","","","","","","","50","0,1,0","4","city","178","probe-144","0.6233614074206142","0.1904799255887844","0.2646951267799784","1","","","","","","","",""
"","html-keyboard-response","461","1672350","0.0-240.0-1.0","null","<p></p>","null","","","","","","","","","","","","","","","","","","","","","","",""
"","do_trial","462","1678111","0.0-241.0-0.0","1214.7999999998137","","","","","","","","50","0,0,0","4","city","179","probe-192","0.5499958050582483","0.290451181976769","0.2899529556091375","0","","","","","","","",""
"","html-keyboard-response","463","1679125","0.0-241.0-1.0","null","<p></p>","null","","","","","","","","","","","","","","","","","","","","","","",""
"","do_trial","464","1683667","0.0-242.0-0.0","1","","","","","","","","50","1,0,0","4","city","180","probe-139","0.6393379566478959","0.13708038667198244","0.14466248983950425","0","","","","","","","",""
"","html-keyboard-response","465","1684673","0.0-242.0-1.0","null","<p></p>","null","","","","","","","","","","","","","","","","","","","","","","",""
"","do_trial","466","1689540","0.0-243.0-0.0","313.29999999981374","","","","","","","","50","0,1,0","4","city","181","probe-195","0.5682325559345367","0.159765424095579","0.20412126791677498","1","","","","","","","",""
"","html-keyboard-response","467","1690554","0.0-243.0-1.0","null","<p></p>","null","","","","","","","","","","","","","","","","","","","","","","",""
"","do_trial","468","1695229","0.0-244.0-0.0","125.29999999981374","","","","","","","","50","0,0,0","4","city","182","probe-212","0.5928568083272908","0.11660160252038816","0.35542541987386783","0","","","","","","","",""
"","html-keyboard-response","469","1696233","0.0-244.0-1.0","null","<p></p>","null","","","","","","","","","","","","","","","","","","","","","","",""
"","do_trial","470","1701346","0.0-245.0-0.0","557.3999999994412","","","","","","","","50","0,0,1","4","city","183","probe-194","0.7043725984726581","0.06867006030537086","0.29281041618446263","0","","","","","","","",""
"","html-keyboard-response","471","1702357","0.0-245.0-1.0","null","<p></p>","null","","","","","","","","","","","","","","","","","","","","","","",""
"","do_trial","472","1706932","0.0-246.0-0.0","18.40000000037253","","","","","","","","50","0,0,0","4","city","184","probe-112","0.6662490097580493","0.10897428468063551","0.3584510928475064","0","","","","","","","",""
