"success","trial_type","trial_index","time_elapsed","internal_node_id","interactions","blur_events","focus_events","fullscreenenter_events","fullscreenexit_events","rt","stimulus","key_press","subject_id","participant_id","age","gender","prompt","response","choice_outcomes","context_n","context_img_id","trial_n","probe_img_id","pR_red","pR_white","pR_black","outcome","contextArray_ind","validImageProbes","invalidImageProbes","pRew_Red","pRew_White","pRew_Black","availableForMemProbe","choice_blocks"
"true","fullscreen","0","3045","0.0-0.0","""event"",""trial"",""time""
""fullscreenenter"",""0"",""2073""
","
","
","""event"",""trial"",""time""
""fullscreenenter"",""0"",""2073""
","
","","","","","","","","","","","","","","","","","","","","","","","","","",""
"","pavlovia","1","3050","0.0-1.0","""event"",""trial"",""time""
""fullscreenenter"",""0"",""2073""
","
","
","""event"",""trial"",""time""
""fullscreenenter"",""0"",""2073""
","
","","","","","","","","","","","","","","","","","","","","","","","","","",""
"","instruc1","2","48135","0.0-2.0","""event"",""trial"",""time""
""fullscreenenter"",""0"",""2073""
","
","
","""event"",""trial"",""time""
""fullscreenenter"",""0"",""2073""
","
","null","run_exp/static/audio/clip_1_welcome.m4a","null","108","601","9","Female","<div class='center'><p>Welcome! This is the first part of the study. It will last ~30 minutes. In part 1 and part 2 of the study, you are the head captain of a pirate ship traveling around the world to different islands. You will play a few different games throughout these two parts. Here is an overview of them:</p><br><p>Part 1 (today)</p><p>1. Instructions, practice game, and quiz</p><p>2. Pick a pirate game on 6 different islands</p><br><p>Part 2 (tomorrow)</p><p>3. Pick a pirate game and memory game</p><p>4. Where did you see this ship? </p></div>","","","","","","","","","","","","","","","","","",""
"","html-keyboard-response","3","49015","0.0-3.0","""event"",""trial"",""time""
""fullscreenenter"",""0"",""2073""
","
","
","""event"",""trial"",""time""
""fullscreenenter"",""0"",""2073""
","
","876.6999999992549","<div class='center'><p>Welcome! This is the first part of the study. It will last ~30 minutes. In part 1 and part 2 of the study, you are the head captain of a pirate ship traveling around the world to different islands. You will play a few different games throughout these two parts. Here is an overview of them:</p><br><p>Part 1 (today)</p><p>1. Instructions, practice game, and quiz</p><p>2. Pick a pirate game on 6 different islands</p><br><p>Part 2 (tomorrow)</p><p>3. Pick a pirate game and memory game</p><p>4. Where did you see this ship? </p><p><b>[Press the space bar to continue]</b></p></div>","32","","","","","","","","","","","","","","","","","","","","","","",""
"","instruc2","4","54316","0.0-4.0","""event"",""trial"",""time""
""fullscreenenter"",""0"",""2073""
","
","
","""event"",""trial"",""time""
""fullscreenenter"",""0"",""2073""
","
","null","run_exp/static/audio/clip_2_different_places.m4a","null","","","","","<div class='center'><p>Today, you’ll visit these 6 islands on your journey. You'll be able to see these islands from your ship.</p><p><img src='run_exp/static/images/contexts/all_contexts.png' height='500'></p></div>","","","","","","","","","","","","","","","","","",""
"","html-keyboard-response","5","55886","0.0-5.0","""event"",""trial"",""time""
""fullscreenenter"",""0"",""2073""
","
","
","""event"",""trial"",""time""
""fullscreenenter"",""0"",""2073""
","
","1567.5","<div class='center'><p>Today, you’ll visit these 6 islands on your journey. You'll be able to see these islands from your ship.</p><p><img src='run_exp/static/images/contexts/all_contexts.png' height='500'></p><p><b>[Press the space bar to continue]</b></p></div>","32","","","","","","","","","","","","","","","","","","","","","","",""
"","instruc3","6","65576","0.0-6.0","""event"",""trial"",""time""
""fullscreenenter"",""0"",""2073""
","
","
","""event"",""trial"",""time""
""fullscreenenter"",""0"",""2073""
","
","null","run_exp/static/audio/clip_3_goal_of_game_1.m4a","null","","","","","<div class='center'><p> The pirates on your ship will rob other ships as they leave the island.</p> These ships have just sold their goods to the islanders, so they will be filled with lots and lots of gold.</p><p><img src='run_exp/static/images/tutorial/ship_center.png' height='400'></p></div>","","","","","","","","","","","","","","","","","",""
"","html-keyboard-response","7","66436","0.0-7.0","""event"",""trial"",""time""
""fullscreenenter"",""0"",""2073""
","
","
","""event"",""trial"",""time""
""fullscreenenter"",""0"",""2073""
","
","857.4000000022352","<div class='center'><p> The pirates on your ship will rob other ships as they leave the island.</p> These ships have just sold their goods to the islanders, so they will be filled with lots and lots of gold.</p><p><img src='run_exp/static/images/tutorial/ship_center.png' height='400'></p><p><b>[Press the space bar to continue]</b></p></div>","32","","","","","","","","","","","","","","","","","","","","","","",""
"","instruc4","8","94416","0.0-8.0","""event"",""trial"",""time""
""fullscreenenter"",""0"",""2073""
","
","
","""event"",""trial"",""time""
""fullscreenenter"",""0"",""2073""
","
","null","run_exp/static/audio/clip_4_goal_of_game_2.m4a","null","","","","","<div class='center'><p>As the head captain, you do not have to rob any ships yourself. Another pirate will be doing the robbing for you. First, you will choose a pirate to rob the next ship.</p><p><img src='run_exp/static/images/tutorial/pirates_all_crop.png' height='200'></p><p>Then, you'll see if the pirate successfully robbed the ship of their gold. If they were successful, then you'll get a stack of gold coins like this:</p><p><img src='run_exp/static/images/tutorial/reward.png' height='150'></p><p> If they were <b>not</b> successful, then you'll get no gold coins, and you'll see a big red x like this: </p><p><img src='run_exp/static/images/tutorial/reward_no.png' height='150'></p><p> How much bonus money you make is based on how many gold coins you collect.</p><div>","","","","","","","","","","","","","","","","","",""
"","html-keyboard-response","9","96732","0.0-9.0","""event"",""trial"",""time""
""fullscreenenter"",""0"",""2073""
","
","
","""event"",""trial"",""time""
""fullscreenenter"",""0"",""2073""
","
","2312.699999999255","<div class='center'><p>As the head captain, you do not have to rob any ships yourself. Another pirate will be doing the robbing for you. First, you will choose a pirate to rob the next ship.</p><p><img src='run_exp/static/images/tutorial/pirates_all_crop.png' height='200'></p><p>Then, you'll see if the pirate successfully robbed the ship of their gold. If they were successful, then you'll get a stack of gold coins like this:</p><p><img src='run_exp/static/images/tutorial/reward.png' height='150'></p><p> If they were <b>not</b> successful, then you'll get no gold coins, and you'll see a big red x like this: </p><p><img src='run_exp/static/images/tutorial/reward_no.png' height='150'></p><p> How much bonus money you make is based on how many gold coins you collect.</p<p><b>[Press the space bar to continue]</b></p></div>","32","","","","","","","","","","","","","","","","","","","","","","",""
"","instruc5","10","124575","0.0-10.0","""event"",""trial"",""time""
""fullscreenenter"",""0"",""2073""
","
","
","""event"",""trial"",""time""
""fullscreenenter"",""0"",""2073""
","
","27837","run_exp/static/audio/clip_5_probabilistic.m4a","49","","","","","<div class='center'><p>Even the most skilled pirate can not rob EVERY ship.</p><p> Some ships will have very strong protections against pirate attacks.</p><p> Blue beard, here, is very, very good at robbing ships, but he won't be successful every time he tries to rob one.</p><p> You can press the <b>‘1’</b> key on the keyboard to choose him.</p><p> Try choosing him 10 times to see how often he succeeds at robbing a ship. </p><p><img src='run_exp/static/images/tutorial/blue.png' height='500'></p></div>","","","","","","","","","","","","","","","","","",""
"","html-keyboard-response","11","126086","0.0-11.0","""event"",""trial"",""time""
""fullscreenenter"",""0"",""2073""
","
","
","""event"",""trial"",""time""
""fullscreenenter"",""0"",""2073""
","
","null","<div class='center'><p><img src='run_exp/static/images/tutorial/blue_win.png' height='500'></p></div>","null","","","","","","","","","","","","","","","","","","","","","","",""
"","html-keyboard-response","12","127720","0.0-12.0","""event"",""trial"",""time""
""fullscreenenter"",""0"",""2073""
","
","
","""event"",""trial"",""time""
""fullscreenenter"",""0"",""2073""
","
","1632.4000000022352","<div class='center'><img src='run_exp/static/images/tutorial/blue.png' height='500'></p></div>","49","","","","","","","","","","","","","","","","","","","","","","",""
"","html-keyboard-response","13","129235","0.0-13.0","""event"",""trial"",""time""
""fullscreenenter"",""0"",""2073""
","
","
","""event"",""trial"",""time""
""fullscreenenter"",""0"",""2073""
","
","null","<div class='center'><p><img src='run_exp/static/images/tutorial/blue_win.png' height='500'></p></div>","null","","","","","","","","","","","","","","","","","","","","","","",""
"","html-keyboard-response","14","129592","0.0-14.0","""event"",""trial"",""time""
""fullscreenenter"",""0"",""2073""
","
","
","""event"",""trial"",""time""
""fullscreenenter"",""0"",""2073""
","
","355.69999999925494","<div class='center'><img src='run_exp/static/images/tutorial/blue.png' height='500'></p></div>","49","","","","","","","","","","","","","","","","","","","","","","",""
"","html-keyboard-response","15","131107","0.0-15.0","""event"",""trial"",""time""
""fullscreenenter"",""0"",""2073""
","
","
","""event"",""trial"",""time""
""fullscreenenter"",""0"",""2073""
","
","null","<div class='center'><p><img src='run_exp/static/images/tutorial/blue_win.png' height='500'></p></div>","null","","","","","","","","","","","","","","","","","","","","","","",""
"","html-keyboard-response","16","131401","0.0-16.0","""event"",""trial"",""time""
""fullscreenenter"",""0"",""2073""
","
","
","""event"",""trial"",""time""
""fullscreenenter"",""0"",""2073""
","
","293","<div class='center'><img src='run_exp/static/images/tutorial/blue.png' height='500'></p></div>","49","","","","","","","","","","","","","","","","","","","","","","",""
"","html-keyboard-response","17","132903","0.0-17.0","""event"",""trial"",""time""
""fullscreenenter"",""0"",""2073""
","
","
","""event"",""trial"",""time""
""fullscreenenter"",""0"",""2073""
","
","null","<div class='center'><p><img src='run_exp/static/images/tutorial/blue_no_win.png' height='500'></p></div>","null","","","","","","","","","","","","","","","","","","","","","","",""
"","html-keyboard-response","18","133229","0.0-18.0","""event"",""trial"",""time""
""fullscreenenter"",""0"",""2073""
","
","
","""event"",""trial"",""time""
""fullscreenenter"",""0"",""2073""
","
","325.19999999925494","<div class='center'><img src='run_exp/static/images/tutorial/blue.png' height='500'></p></div>","49","","","","","","","","","","","","","","","","","","","","","","",""
"","html-keyboard-response","19","134746","0.0-19.0","""event"",""trial"",""time""
""fullscreenenter"",""0"",""2073""
","
","
","""event"",""trial"",""time""
""fullscreenenter"",""0"",""2073""
","
","null","<div class='center'><p><img src='run_exp/static/images/tutorial/blue_win.png' height='500'></p></div>","null","","","","","","","","","","","","","","","","","","","","","","",""
"","html-keyboard-response","20","135090","0.0-20.0","""event"",""trial"",""time""
""fullscreenenter"",""0"",""2073""
","
","
","""event"",""trial"",""time""
""fullscreenenter"",""0"",""2073""
","
","343.20000000298023","<div class='center'><img src='run_exp/static/images/tutorial/blue.png' height='500'></p></div>","49","","","","","","","","","","","","","","","","","","","","","","",""
"","html-keyboard-response","21","136606","0.0-21.0","""event"",""trial"",""time""
""fullscreenenter"",""0"",""2073""
","
","
","""event"",""trial"",""time""
""fullscreenenter"",""0"",""2073""
","
","null","<div class='center'><p><img src='run_exp/static/images/tutorial/blue_win.png' height='500'></p></div>","null","","","","","","","","","","","","","","","","","","","","","","",""
"","html-keyboard-response","22","136886","0.0-22.0","""event"",""trial"",""time""
""fullscreenenter"",""0"",""2073""
","
","
","""event"",""trial"",""time""
""fullscreenenter"",""0"",""2073""
","
","278.30000000074506","<div class='center'><img src='run_exp/static/images/tutorial/blue.png' height='500'></p></div>","49","","","","","","","","","","","","","","","","","","","","","","",""
"","html-keyboard-response","23","138401","0.0-23.0","""event"",""trial"",""time""
""fullscreenenter"",""0"",""2073""
","
","
","""event"",""trial"",""time""
""fullscreenenter"",""0"",""2073""
","
","null","<div class='center'><p><img src='run_exp/static/images/tutorial/blue_win.png' height='500'></p></div>","null","","","","","","","","","","","","","","","","","","","","","","",""
"","html-keyboard-response","24","138689","0.0-24.0","""event"",""trial"",""time""
""fullscreenenter"",""0"",""2073""
","
","
","""event"",""trial"",""time""
""fullscreenenter"",""0"",""2073""
","
","286.19999999925494","<div class='center'><img src='run_exp/static/images/tutorial/blue.png' height='500'></p></div>","49","","","","","","","","","","","","","","","","","","","","","","",""
"","html-keyboard-response","25","140192","0.0-25.0","""event"",""trial"",""time""
""fullscreenenter"",""0"",""2073""
","
","
","""event"",""trial"",""time""
""fullscreenenter"",""0"",""2073""
","
","null","<div class='center'><p><img src='run_exp/static/images/tutorial/blue_no_win.png' height='500'></p></div>","null","","","","","","","","","","","","","","","","","","","","","","",""
"","html-keyboard-response","26","140473","0.0-26.0","""event"",""trial"",""time""
""fullscreenenter"",""0"",""2073""
","
","
","""event"",""trial"",""time""
""fullscreenenter"",""0"",""2073""
","
","279.3999999985099","<div class='center'><img src='run_exp/static/images/tutorial/blue.png' height='500'></p></div>","49","","","","","","","","","","","","","","","","","","","","","","",""
"","html-keyboard-response","27","141987","0.0-27.0","""event"",""trial"",""time""
""fullscreenenter"",""0"",""2073""
","
","
","""event"",""trial"",""time""
""fullscreenenter"",""0"",""2073""
","
","null","<div class='center'><p><img src='run_exp/static/images/tutorial/blue_win.png' height='500'></p></div>","null","","","","","","","","","","","","","","","","","","","","","","",""
"","html-keyboard-response","28","142354","0.0-28.0","""event"",""trial"",""time""
""fullscreenenter"",""0"",""2073""
","
","
","""event"",""trial"",""time""
""fullscreenenter"",""0"",""2073""
","
","366.1000000014901","<div class='center'><img src='run_exp/static/images/tutorial/blue.png' height='500'></p></div>","49","","","","","","","","","","","","","","","","","","","","","","",""
"","html-keyboard-response","29","143865","0.0-29.0","""event"",""trial"",""time""
""fullscreenenter"",""0"",""2073""
","
","
","""event"",""trial"",""time""
""fullscreenenter"",""0"",""2073""
","
","null","<div class='center'><p><img src='run_exp/static/images/tutorial/blue_win.png' height='500'></p></div>","null","","","","","","","","","","","","","","","","","","","","","","",""
"","instruc6","30","150015","0.0-30.0","""event"",""trial"",""time""
""fullscreenenter"",""0"",""2073""
","
","
","""event"",""trial"",""time""
""fullscreenenter"",""0"",""2073""
","
","null","run_exp/static/audio/clip_6_blue_beard_outcome.m4a","null","","","","","<div class='center'><p> See, he succeeded in robbing the ships most of the time but not every time. </p></div>","","","","","","","","","","","","","","","","","",""
"","html-keyboard-response","31","150852","0.0-31.0","""event"",""trial"",""time""
""fullscreenenter"",""0"",""2073""
","
","
","""event"",""trial"",""time""
""fullscreenenter"",""0"",""2073""
","
","834.8999999985099","<div class='center'><p> See, he succeeded in robbing the ships most of the time but not every time. </p><p><b>[Press the space bar to continue]</b></p></div>","32","","","","","","","","","","","","","","","","","","","","","","",""
"","audio-keyboard-response","32","187976","0.0-32.0","""event"",""trial"",""time""
""fullscreenenter"",""0"",""2073""
","
","
","""event"",""trial"",""time""
""fullscreenenter"",""0"",""2073""
","
","37122.39999999851","run_exp/static/audio/clip_7_pick_pirate.m4a","50","","","","","","","","","","","","","","","","","","","","","","",""
"","audio-keyboard-response","33","193409","0.0-33.0-0.0","""event"",""trial"",""time""
""fullscreenenter"",""0"",""2073""
""blur"",""34"",""194921""
""focus"",""34"",""196292""
","""event"",""trial"",""time""
""blur"",""34"",""194921""
","""event"",""trial"",""time""
""focus"",""34"",""196292""
","""event"",""trial"",""time""
""fullscreenenter"",""0"",""2073""
","
","5429.300000000745","run_exp/static/audio/clip_8_chosen_pirate_win.m4a","32","","","","","","","","","","","","","","","","","","","","","","",""
"","audio-keyboard-response","34","198138","0.0-33.0-1.0","""event"",""trial"",""time""
""fullscreenenter"",""0"",""2073""
""blur"",""34"",""194921""
""focus"",""34"",""196292""
","""event"",""trial"",""time""
""blur"",""34"",""194921""
","""event"",""trial"",""time""
""focus"",""34"",""196292""
","""event"",""trial"",""time""
""fullscreenenter"",""0"",""2073""
","
","4726.800000000745","run_exp/static/audio/clip_9_pick_a_pirate_again.m4a","51","","","","","","","","","","","","","","","","","","","","","","",""
"","audio-keyboard-response","35","200669","0.0-34.0-0.0","""event"",""trial"",""time""
""fullscreenenter"",""0"",""2073""
""blur"",""34"",""194921""
""focus"",""34"",""196292""
","""event"",""trial"",""time""
""blur"",""34"",""194921""
","""event"",""trial"",""time""
""focus"",""34"",""196292""
","""event"",""trial"",""time""
""fullscreenenter"",""0"",""2073""
","
","2527.699999999255","run_exp/static/audio/clip_10_chosen_pirate_loss.m4a","32","","","","","","","","","","","","","","","","","","","","","","",""
"","instruc9","36","206155","0.0-35.0-0.0","""event"",""trial"",""time""
""fullscreenenter"",""0"",""2073""
""blur"",""34"",""194921""
""focus"",""34"",""196292""
","""event"",""trial"",""time""
""blur"",""34"",""194921""
","""event"",""trial"",""time""
""focus"",""34"",""196292""
","""event"",""trial"",""time""
""fullscreenenter"",""0"",""2073""
","
","null","run_exp/static/audio/clip_11_time_out.m4a","null","","","","","<div class='center'><p>If you don’t make your choice fast enough, you’ll have to wait a few seconds before you can make another one. </p><p><img src='run_exp/static/images/miscellaneous/hurry_up.png' height='500'></p></div>","","","","","","","","","","","","","","","","","",""
"","html-keyboard-response","37","206729","0.0-35.0-1.0","""event"",""trial"",""time""
""fullscreenenter"",""0"",""2073""
""blur"",""34"",""194921""
""focus"",""34"",""196292""
","""event"",""trial"",""time""
""blur"",""34"",""194921""
","""event"",""trial"",""time""
""focus"",""34"",""196292""
","""event"",""trial"",""time""
""fullscreenenter"",""0"",""2073""
","
","572.1999999992549","<div class='center'><p>If you don’t make your choice fast enough, you’ll have to wait a few seconds before you can make another one. </p><p><img src='run_exp/static/images/miscellaneous/hurry_up.png' height='500'></p><p><b>[Press the space bar to continue]</b></p></div>","32","","","","","","","","","","","","","","","","","","","","","","",""
"","instruc10","38","245813","0.0-35.0-2.0","""event"",""trial"",""time""
""fullscreenenter"",""0"",""2073""
""blur"",""34"",""194921""
""focus"",""34"",""196292""
","""event"",""trial"",""time""
""blur"",""34"",""194921""
","""event"",""trial"",""time""
""focus"",""34"",""196292""
","""event"",""trial"",""time""
""fullscreenenter"",""0"",""2073""
","
","null","run_exp/static/audio/clip_12_probe.m4a","null","","","","","<div class='center'><p>Once you've chosen a pirate, you’ll be shown the ship they are robbing. You will never rob the same ship twice. Ships can be told apart from one another by the image on them. These are the goods that they sell. See, this ship has a travel mug on it. </p><p> You’ll have to remember which island you saw each ship on. You will win more gold coins and hence more bonus money if you remember correctly! To help you remember, you can imagine a story. For example, here, you could imagine a mug full of water in the desert. Or, as another example, if on the forest island, your pirate robbed a ship with an apple on it, you could imagine an apple falling from a tree in the forest. </p><p><img src='run_exp/static/images/tutorial/example_probe.png' height='500'></p></div>","","","","","","","","","","","","","","","","","",""
"","html-keyboard-response","39","246996","0.0-35.0-3.0","""event"",""trial"",""time""
""fullscreenenter"",""0"",""2073""
""blur"",""34"",""194921""
""focus"",""34"",""196292""
","""event"",""trial"",""time""
""blur"",""34"",""194921""
","""event"",""trial"",""time""
""focus"",""34"",""196292""
","""event"",""trial"",""time""
""fullscreenenter"",""0"",""2073""
","
","1180.6000000014901","<div class='center'><p>Once you've chosen a pirate, you’ll be shown the ship they are robbing. You will never rob the same ship twice. Ships can be told apart from one another by the image on them. These are the goods that they sell. See, this ship has a travel mug on it. </p><p> You’ll have to remember which island you saw each ship on. You will win more gold coins and hence more bonus money if you remember correctly! To help you remember, you can imagine a story. For example, here, you could imagine a mug full of water in the desert. Or, as another example, if on the forest island, your pirate robbed a ship with an apple on it, you could imagine an apple falling from a tree in the forest. </p><p><img src='run_exp/static/images/tutorial/example_probe.png' height='500'></p><p><b>[Press the space bar to continue]</b></p></div>","32","","","","","","","","","","","","","","","","","","","","","","",""
"","instruc11","40","263413","0.0-35.0-4.0","""event"",""trial"",""time""
""fullscreenenter"",""0"",""2073""
""blur"",""34"",""194921""
""focus"",""34"",""196292""
","""event"",""trial"",""time""
""blur"",""34"",""194921""
","""event"",""trial"",""time""
""focus"",""34"",""196292""
","""event"",""trial"",""time""
""fullscreenenter"",""0"",""2073""
","
","null","run_exp/static/audio/clip_13_changepoint.m4a","null","","","","","<div class='center'><p>How successful a pirate is at robbing ships will depend on the island you’re on.</p><p> A pirate may have visited this island many times before and gained a lot of practice robbing ships there.</p><p>So, they’re more likely to be successful than a pirate who has never visited the island before.</p></div>","","","","","","","","","","","","","","","","","",""
"","html-keyboard-response","41","263914","0.0-35.0-5.0","""event"",""trial"",""time""
""fullscreenenter"",""0"",""2073""
""blur"",""34"",""194921""
""focus"",""34"",""196292""
","""event"",""trial"",""time""
""blur"",""34"",""194921""
","""event"",""trial"",""time""
""focus"",""34"",""196292""
","""event"",""trial"",""time""
""fullscreenenter"",""0"",""2073""
","
","500.0999999977648","<div class='center'><p>How successful a pirate is at robbing ships will depend on the island you’re on.</p><p> A pirate may have visited this island many times before and gained a lot of practice robbing ships there.</p><p>So, they’re more likely to be successful than a pirate who has never visited the island before.</p><p><b>[Press the space bar to continue]</b></p></div>","32","","","","","","","","","","","","","","","","","","","","","","",""
"","instruc12","42","305013","0.0-35.0-6.0","""event"",""trial"",""time""
""fullscreenenter"",""0"",""2073""
""blur"",""34"",""194921""
""focus"",""34"",""196292""
","""event"",""trial"",""time""
""blur"",""34"",""194921""
","""event"",""trial"",""time""
""focus"",""34"",""196292""
","""event"",""trial"",""time""
""fullscreenenter"",""0"",""2073""
","
","null","run_exp/static/audio/clip_14_drift.m4a","null","","","","","<div class='center'><p>How successful a pirate is at robbing ships can also change over the time spent on the island. </p><p> Ships may hear from islanders about the pirates coming and will improve their protections against the attack. This may make it harder to rob them.</p><p> Ships may also become lazy and weaken the strength of their protections. This may make it easier to rob them.</p><br><p>Things are always changing on the high seas! So, try your best to pay attention!</p><p><img src='run_exp/static/images/tutorial/contingency.png' height='500'></p></div>","","","","","","","","","","","","","","","","","",""
"","html-keyboard-response","43","309691","0.0-35.0-7.0","""event"",""trial"",""time""
""fullscreenenter"",""0"",""2073""
""blur"",""34"",""194921""
""focus"",""34"",""196292""
","""event"",""trial"",""time""
""blur"",""34"",""194921""
","""event"",""trial"",""time""
""focus"",""34"",""196292""
","""event"",""trial"",""time""
""fullscreenenter"",""0"",""2073""
","
","4674.39999999851","<div class='center'><p>How successful a pirate is at robbing ships can also change over the time spent on the island. </p><p> Ships may hear from islanders about the pirates coming and will improve their protections against the attack. This may make it harder to rob them.</p><p> Ships may also become lazy and weaken the strength of their protections. This may make it easier to rob them.</p><br><p>Things are always changing on the high seas! So, try your best to pay attention!</p><p><img src='run_exp/static/images/tutorial/contingency.png' height='500'></p><p><b>[Press the space bar to continue]</b></p></div>","32","","","","","","","","","","","","","","","","","","","","","","",""
"","instruc13","44","344875","0.0-35.0-8.0","""event"",""trial"",""time""
""fullscreenenter"",""0"",""2073""
""blur"",""34"",""194921""
""focus"",""34"",""196292""
","""event"",""trial"",""time""
""blur"",""34"",""194921""
","""event"",""trial"",""time""
""focus"",""34"",""196292""
","""event"",""trial"",""time""
""fullscreenenter"",""0"",""2073""
","
","null","run_exp/static/audio/clip_15_summary.m4a","null","","","","","<div class='center'><p>Let's go over the instructions quickly again. You have two important things to do: </p><b><p> 1. Pick the pirate who is the best at robbing ships on the current island. </p></b><b><p> 2. Remember on which island a ship was robbed.</p> </b><p>The amount of bonus money you can win depends on both.</p><p><br><p>Let’s try a practice game. The game will start by showing you the pirates. First, pick a pirate using the <b> 1, 2, 3 </b> keys on your keyboard. When you are shown a ship, try to remember which island you’re on by making up a story.</p><p>This is just a practice game, so you’re not playing for money. </p><p> Good luck! This game will be very difficult but try your best!</p></div>","","","","","","","","","","","","","","","","","",""
"","html-keyboard-response","45","345257","0.0-35.0-9.0","""event"",""trial"",""time""
""fullscreenenter"",""0"",""2073""
""blur"",""34"",""194921""
""focus"",""34"",""196292""
","""event"",""trial"",""time""
""blur"",""34"",""194921""
","""event"",""trial"",""time""
""focus"",""34"",""196292""
","""event"",""trial"",""time""
""fullscreenenter"",""0"",""2073""
","
","379.5","<div class='center'><p>Let's go over the instructions quickly again. You have two important things to do: </p><b><p> 1. Pick the pirate who is the best at robbing ships on the current island. </p></b><b><p> 2. Remember on which island a ship was robbed.</p> </b><p>The amount of bonus money you can win depends on both.</p><p><br><p>Let’s try a practice game. The game will start by showing you the pirates. First, pick a pirate using the <b> 1, 2, 3 </b> keys on your keyboard. When you are shown a ship, try to remember which island you’re on by making up a story.</p><p>This is just a practice game, so you’re not playing for money. </p><p> Good luck! This game will be very difficult but try your best!</p><p><b>[Press the space bar to continue]</b></p></div>","32","","","","","","","","","","","","","","","","","","","","","","",""
"","do_welcome","46","349282","0.0-35.0-10.0","""event"",""trial"",""time""
""fullscreenenter"",""0"",""2073""
""blur"",""34"",""194921""
""focus"",""34"",""196292""
","""event"",""trial"",""time""
""blur"",""34"",""194921""
","""event"",""trial"",""time""
""focus"",""34"",""196292""
","""event"",""trial"",""time""
""fullscreenenter"",""0"",""2073""
","
","null","","","","","","","","null","","","","","","","","","","","","","","","","",""
"","do_trial","47","355322","0.0-35.0-11.0","""event"",""trial"",""time""
""fullscreenenter"",""0"",""2073""
""blur"",""34"",""194921""
""focus"",""34"",""196292""
","""event"",""trial"",""time""
""blur"",""34"",""194921""
","""event"",""trial"",""time""
""focus"",""34"",""196292""
","""event"",""trial"",""time""
""fullscreenenter"",""0"",""2073""
","
","null","","","","","","","","null","1,0,0","","","","","","","","","","","","","","","",""
"","html-keyboard-response","48","356342","0.0-36.0-0.0","""event"",""trial"",""time""
""fullscreenenter"",""0"",""2073""
""blur"",""34"",""194921""
""focus"",""34"",""196292""
","""event"",""trial"",""time""
""blur"",""34"",""194921""
","""event"",""trial"",""time""
""focus"",""34"",""196292""
","""event"",""trial"",""time""
""fullscreenenter"",""0"",""2073""
","
","null","<p></p>","null","","","","","","","","","","","","","","","","","","","","","","",""
"","do_trial","49","362388","0.0-36.0-1.0","""event"",""trial"",""time""
""fullscreenenter"",""0"",""2073""
""blur"",""34"",""194921""
""focus"",""34"",""196292""
","""event"",""trial"",""time""
""blur"",""34"",""194921""
","""event"",""trial"",""time""
""focus"",""34"",""196292""
","""event"",""trial"",""time""
""fullscreenenter"",""0"",""2073""
","
","1534.7000000029802","","","","","","","","50","1,0,0","","","","","","","","","","","","","","","",""
"","html-keyboard-response","50","363406","0.0-37.0-0.0","""event"",""trial"",""time""
""fullscreenenter"",""0"",""2073""
""blur"",""34"",""194921""
""focus"",""34"",""196292""
","""event"",""trial"",""time""
""blur"",""34"",""194921""
","""event"",""trial"",""time""
""focus"",""34"",""196292""
","""event"",""trial"",""time""
""fullscreenenter"",""0"",""2073""
","
","null","<p></p>","null","","","","","","","","","","","","","","","","","","","","","","",""
"","do_trial","51","368806","0.0-37.0-1.0","""event"",""trial"",""time""
""fullscreenenter"",""0"",""2073""
""blur"",""34"",""194921""
""focus"",""34"",""196292""
","""event"",""trial"",""time""
""blur"",""34"",""194921""
","""event"",""trial"",""time""
""focus"",""34"",""196292""
","""event"",""trial"",""time""
""fullscreenenter"",""0"",""2073""
","
","882.8999999985099","","","","","","","","49","1,1,0","","","","","","","","","","","","","","","",""
"","html-keyboard-response","52","369814","0.0-38.0-0.0","""event"",""trial"",""time""
""fullscreenenter"",""0"",""2073""
""blur"",""34"",""194921""
""focus"",""34"",""196292""
","""event"",""trial"",""time""
""blur"",""34"",""194921""
","""event"",""trial"",""time""
""focus"",""34"",""196292""
","""event"",""trial"",""time""
""fullscreenenter"",""0"",""2073""
","
","null","<p></p>","null","","","","","","","","","","","","","","","","","","","","","","",""
"","do_trial","53","375470","0.0-38.0-1.0","""event"",""trial"",""time""
""fullscreenenter"",""0"",""2073""
""blur"",""34"",""194921""
""focus"",""34"",""196292""
","""event"",""trial"",""time""
""blur"",""34"",""194921""
","""event"",""trial"",""time""
""focus"",""34"",""196292""
","""event"",""trial"",""time""
""fullscreenenter"",""0"",""2073""
","
","1141.3999999985099","","","","","","","","51","1,0,1","","","","","","","","","","","","","","","",""
"","html-keyboard-response","54","376487","0.0-39.0-0.0","""event"",""trial"",""time""
""fullscreenenter"",""0"",""2073""
""blur"",""34"",""194921""
""focus"",""34"",""196292""
","""event"",""trial"",""time""
""blur"",""34"",""194921""
","""event"",""trial"",""time""
""focus"",""34"",""196292""
","""event"",""trial"",""time""
""fullscreenenter"",""0"",""2073""
","
","null","<p></p>","null","","","","","","","","","","","","","","","","","","","","","","",""
"","do_trial","55","382028","0.0-39.0-1.0","""event"",""trial"",""time""
""fullscreenenter"",""0"",""2073""
""blur"",""34"",""194921""
""focus"",""34"",""196292""
","""event"",""trial"",""time""
""blur"",""34"",""194921""
","""event"",""trial"",""time""
""focus"",""34"",""196292""
","""event"",""trial"",""time""
""fullscreenenter"",""0"",""2073""
","
","1022","","","","","","","","50","0,1,0","","","","","","","","","","","","","","","",""
"","html-keyboard-response","56","383045","0.0-40.0-0.0","""event"",""trial"",""time""
""fullscreenenter"",""0"",""2073""
""blur"",""34"",""194921""
""focus"",""34"",""196292""
","""event"",""trial"",""time""
""blur"",""34"",""194921""
","""event"",""trial"",""time""
""focus"",""34"",""196292""
","""event"",""trial"",""time""
""fullscreenenter"",""0"",""2073""
","
","null","<p></p>","null","","","","","","","","","","","","","","","","","","","","","","",""
"","do_trial","57","388030","0.0-40.0-1.0","""event"",""trial"",""time""
""fullscreenenter"",""0"",""2073""
""blur"",""34"",""194921""
""focus"",""34"",""196292""
","""event"",""trial"",""time""
""blur"",""34"",""194921""
","""event"",""trial"",""time""
""focus"",""34"",""196292""
","""event"",""trial"",""time""
""fullscreenenter"",""0"",""2073""
","
","464.8999999985099","","","","","","","","49","1,0,0","","","","","","","","","","","","","","","",""
"","do_bye","58","389538","0.0-41.0-0.0","""event"",""trial"",""time""
""fullscreenenter"",""0"",""2073""
""blur"",""34"",""194921""
""focus"",""34"",""196292""
","""event"",""trial"",""time""
""blur"",""34"",""194921""
","""event"",""trial"",""time""
""focus"",""34"",""196292""
","""event"",""trial"",""time""
""fullscreenenter"",""0"",""2073""
","
","null","","","","","","","","null","","","","","","","","","","","","","","","","",""
"","do_travel","59","398554","0.0-41.0-1.0","""event"",""trial"",""time""
""fullscreenenter"",""0"",""2073""
""blur"",""34"",""194921""
""focus"",""34"",""196292""
","""event"",""trial"",""time""
""blur"",""34"",""194921""
","""event"",""trial"",""time""
""focus"",""34"",""196292""
","""event"",""trial"",""time""
""fullscreenenter"",""0"",""2073""
","
","null","","","","","","","","null","","","","","","","","","","","","","","","","",""
"","do_welcome","60","402564","0.0-41.0-2.0","""event"",""trial"",""time""
""fullscreenenter"",""0"",""2073""
""blur"",""34"",""194921""
""focus"",""34"",""196292""
","""event"",""trial"",""time""
""blur"",""34"",""194921""
","""event"",""trial"",""time""
""focus"",""34"",""196292""
","""event"",""trial"",""time""
""fullscreenenter"",""0"",""2073""
","
","null","","","","","","","","null","","","","","","","","","","","","","","","","",""
"","do_trial","61","408404","0.0-41.0-3.0","""event"",""trial"",""time""
""fullscreenenter"",""0"",""2073""
""blur"",""34"",""194921""
""focus"",""34"",""196292""
","""event"",""trial"",""time""
""blur"",""34"",""194921""
","""event"",""trial"",""time""
""focus"",""34"",""196292""
","""event"",""trial"",""time""
""fullscreenenter"",""0"",""2073""
","
","1314.699999999255","","","","","","","","50","1,0,0","","","","","","","","","","","","","","","",""
"","html-keyboard-response","62","409414","0.0-42.0-0.0","""event"",""trial"",""time""
""fullscreenenter"",""0"",""2073""
""blur"",""34"",""194921""
""focus"",""34"",""196292""
","""event"",""trial"",""time""
""blur"",""34"",""194921""
","""event"",""trial"",""time""
""focus"",""34"",""196292""
","""event"",""trial"",""time""
""fullscreenenter"",""0"",""2073""
","
","null","<p></p>","null","","","","","","","","","","","","","","","","","","","","","","",""
"","do_trial","63","414416","0.0-42.0-1.0","""event"",""trial"",""time""
""fullscreenenter"",""0"",""2073""
""blur"",""34"",""194921""
""focus"",""34"",""196292""
","""event"",""trial"",""time""
""blur"",""34"",""194921""
","""event"",""trial"",""time""
""focus"",""34"",""196292""
","""event"",""trial"",""time""
""fullscreenenter"",""0"",""2073""
","
","489.3999999985099","","","","","","","","51","1,0,1","","","","","","","","","","","","","","","",""
"","html-keyboard-response","64","415422","0.0-43.0-0.0","""event"",""trial"",""time""
""fullscreenenter"",""0"",""2073""
""blur"",""34"",""194921""
""focus"",""34"",""196292""
","""event"",""trial"",""time""
""blur"",""34"",""194921""
","""event"",""trial"",""time""
""focus"",""34"",""196292""
","""event"",""trial"",""time""
""fullscreenenter"",""0"",""2073""
","
","null","<p></p>","null","","","","","","","","","","","","","","","","","","","","","","",""
"","do_trial","65","421826","0.0-43.0-1.0","""event"",""trial"",""time""
""fullscreenenter"",""0"",""2073""
""blur"",""34"",""194921""
""focus"",""34"",""196292""
","""event"",""trial"",""time""
""blur"",""34"",""194921""
","""event"",""trial"",""time""
""focus"",""34"",""196292""
","""event"",""trial"",""time""
""fullscreenenter"",""0"",""2073""
","
","1885.800000000745","","","","","","","","51","1,1,0","","","","","","","","","","","","","","","",""
"","html-keyboard-response","66","422839","0.0-44.0-0.0","""event"",""trial"",""time""
""fullscreenenter"",""0"",""2073""
""blur"",""34"",""194921""
""focus"",""34"",""196292""
","""event"",""trial"",""time""
""blur"",""34"",""194921""
","""event"",""trial"",""time""
""focus"",""34"",""196292""
","""event"",""trial"",""time""
""fullscreenenter"",""0"",""2073""
","
","null","<p></p>","null","","","","","","","","","","","","","","","","","","","","","","",""
"","do_trial","67","427742","0.0-44.0-1.0","""event"",""trial"",""time""
""fullscreenenter"",""0"",""2073""
""blur"",""34"",""194921""
""focus"",""34"",""196292""
","""event"",""trial"",""time""
""blur"",""34"",""194921""
","""event"",""trial"",""time""
""focus"",""34"",""196292""
","""event"",""trial"",""time""
""fullscreenenter"",""0"",""2073""
","
","393.5","","","","","","","","49","0,0,1","","","","","","","","","","","","","","","",""
"","html-keyboard-response","68","428758","0.0-45.0-0.0","""event"",""trial"",""time""
""fullscreenenter"",""0"",""2073""
""blur"",""34"",""194921""
""focus"",""34"",""196292""
","""event"",""trial"",""time""
""blur"",""34"",""194921""
","""event"",""trial"",""time""
""focus"",""34"",""196292""
","""event"",""trial"",""time""
""fullscreenenter"",""0"",""2073""
","
","null","<p></p>","null","","","","","","","","","","","","","","","","","","","","","","",""
"","do_trial","69","433552","0.0-45.0-1.0","""event"",""trial"",""time""
""fullscreenenter"",""0"",""2073""
""blur"",""34"",""194921""
""focus"",""34"",""196292""
","""event"",""trial"",""time""
""blur"",""34"",""194921""
","""event"",""trial"",""time""
""focus"",""34"",""196292""
","""event"",""trial"",""time""
""fullscreenenter"",""0"",""2073""
","
","280.29999999701977","","","","","","","","50","1,0,1","","","","","","","","","","","","","","","",""
"","html-keyboard-response","70","438407","0.0-46.0-0.0","""event"",""trial"",""time""
""fullscreenenter"",""0"",""2073""
""blur"",""34"",""194921""
""focus"",""34"",""196292""
","""event"",""trial"",""time""
""blur"",""34"",""194921""
","""event"",""trial"",""time""
""focus"",""34"",""196292""
","""event"",""trial"",""time""
""fullscreenenter"",""0"",""2073""
","
","4853","<div class='center'><p><img src='run_exp/static/images/tutorial/prac_best_pirate.png'  height='500'></p></div>","51","","","","","","","","","","","","","","","","","","","","","","",""
"","html-keyboard-response","71","440313","0.0-47.0-0.0","""event"",""trial"",""time""
""fullscreenenter"",""0"",""2073""
""blur"",""34"",""194921""
""focus"",""34"",""196292""
","""event"",""trial"",""time""
""blur"",""34"",""194921""
","""event"",""trial"",""time""
""focus"",""34"",""196292""
","""event"",""trial"",""time""
""fullscreenenter"",""0"",""2073""
","
","1902.8999999985099","<div class='center'><p>That's incorrect! Red beard was the best.</p><p><b>[Press the space bar to continue]</b></p></div>","32","","","","","","","","","","","","","","","","","","","","","","",""
"","html-keyboard-response","72","444616","0.0-47.0-1.0","""event"",""trial"",""time""
""fullscreenenter"",""0"",""2073""
""blur"",""34"",""194921""
""focus"",""34"",""196292""
","""event"",""trial"",""time""
""blur"",""34"",""194921""
","""event"",""trial"",""time""
""focus"",""34"",""196292""
","""event"",""trial"",""time""
""fullscreenenter"",""0"",""2073""
","
","4302.39999999851","<div class='center'><p><img src='run_exp/static/images/tutorial/prac_source.png'  height='500'></p></div>","50","","","","","","","","","","","","","","","","","","","","","","",""
"","html-keyboard-response","73","445924","0.0-48.0-0.0","""event"",""trial"",""time""
""fullscreenenter"",""0"",""2073""
""blur"",""34"",""194921""
""focus"",""34"",""196292""
","""event"",""trial"",""time""
""blur"",""34"",""194921""
","""event"",""trial"",""time""
""focus"",""34"",""196292""
","""event"",""trial"",""time""
""fullscreenenter"",""0"",""2073""
","
","1306.1000000014901","<div class='center'><p>That's correct! You saw this ship on the cavern island.</p><p><b>[Press the space bar to continue]</b></p></div>","32","","","","","","","","","","","","","","","","","","","","","","",""
"","quiz_beginning","74","457817","0.0-48.0-1.0","""event"",""trial"",""time""
""fullscreenenter"",""0"",""2073""
""blur"",""34"",""194921""
""focus"",""34"",""196292""
","""event"",""trial"",""time""
""blur"",""34"",""194921""
","""event"",""trial"",""time""
""focus"",""34"",""196292""
","""event"",""trial"",""time""
""fullscreenenter"",""0"",""2073""
","
","null","run_exp/static/audio/clip_16_quiz_intro.m4a","null","","","","","<div class='center'><p>Good job on the practice game! Now, you will be asked some true or false questions to make sure you really understand the rules of the game.</p><p> Press <b>'1'</b> on the keyboard for true and press <b>'2'</b> for false.</p></div>","","","","","","","","","","","","","","","","","",""
"","audio-keyboard-response","75","464674","0.0-48.0-2.0","""event"",""trial"",""time""
""fullscreenenter"",""0"",""2073""
""blur"",""34"",""194921""
""focus"",""34"",""196292""
","""event"",""trial"",""time""
""blur"",""34"",""194921""
","""event"",""trial"",""time""
""focus"",""34"",""196292""
","""event"",""trial"",""time""
""fullscreenenter"",""0"",""2073""
","
","6854.300000000745","run_exp/static/audio/clip_17_q1.m4a","49","","","","","","","","","","","","","","","","","","","","","","",""
"","correct","76","467077","0.0-49.0-0.0","""event"",""trial"",""time""
""fullscreenenter"",""0"",""2073""
""blur"",""34"",""194921""
""focus"",""34"",""196292""
","""event"",""trial"",""time""
""blur"",""34"",""194921""
","""event"",""trial"",""time""
""focus"",""34"",""196292""
","""event"",""trial"",""time""
""fullscreenenter"",""0"",""2073""
","
","null","run_exp/static/audio/clip_18_correct.m4a","null","","","","","<div class='center'><p>That's correct!</p></div>","","","","","","","","","","","","","","","","","",""
"","html-keyboard-response","77","467953","0.0-49.0-1.0","""event"",""trial"",""time""
""fullscreenenter"",""0"",""2073""
""blur"",""34"",""194921""
""focus"",""34"",""196292""
","""event"",""trial"",""time""
""blur"",""34"",""194921""
","""event"",""trial"",""time""
""focus"",""34"",""196292""
","""event"",""trial"",""time""
""fullscreenenter"",""0"",""2073""
","
","874.5","<div class='center'><p>That's correct!</p><p><b>[Press the space bar to continue]</b></p></div>","32","","","","","","","","","","","","","","","","","","","","","","",""
"","audio-keyboard-response","78","475754","0.0-49.0-2.0","""event"",""trial"",""time""
""fullscreenenter"",""0"",""2073""
""blur"",""34"",""194921""
""focus"",""34"",""196292""
","""event"",""trial"",""time""
""blur"",""34"",""194921""
","""event"",""trial"",""time""
""focus"",""34"",""196292""
","""event"",""trial"",""time""
""fullscreenenter"",""0"",""2073""
","
","7799.699999999255","run_exp/static/audio/clip_20_q2.m4a","50","","","","","","","","","","","","","","","","","","","","","","",""
"","correct","79","478158","0.0-50.0-0.0","""event"",""trial"",""time""
""fullscreenenter"",""0"",""2073""
""blur"",""34"",""194921""
""focus"",""34"",""196292""
","""event"",""trial"",""time""
""blur"",""34"",""194921""
","""event"",""trial"",""time""
""focus"",""34"",""196292""
","""event"",""trial"",""time""
""fullscreenenter"",""0"",""2073""
","
","null","run_exp/static/audio/clip_18_correct.m4a","null","","","","","<div class='center'><p>That's correct!</p></div>","","","","","","","","","","","","","","","","","",""
"","html-keyboard-response","80","478372","0.0-50.0-1.0","""event"",""trial"",""time""
""fullscreenenter"",""0"",""2073""
""blur"",""34"",""194921""
""focus"",""34"",""196292""
","""event"",""trial"",""time""
""blur"",""34"",""194921""
","""event"",""trial"",""time""
""focus"",""34"",""196292""
","""event"",""trial"",""time""
""fullscreenenter"",""0"",""2073""
","
","212.70000000298023","<div class='center'><p>That's correct!</p><p><b>[Press the space bar to continue]</b></p></div>","32","","","","","","","","","","","","","","","","","","","","","","",""
"","audio-keyboard-response","81","482454","0.0-50.0-2.0","""event"",""trial"",""time""
""fullscreenenter"",""0"",""2073""
""blur"",""34"",""194921""
""focus"",""34"",""196292""
","""event"",""trial"",""time""
""blur"",""34"",""194921""
","""event"",""trial"",""time""
""focus"",""34"",""196292""
","""event"",""trial"",""time""
""fullscreenenter"",""0"",""2073""
","
","4079.60000000149","run_exp/static/audio/clip_22_q3.m4a","50","","","","","","","","","","","","","","","","","","","","","","",""
"","correct","82","484859","0.0-51.0-0.0","""event"",""trial"",""time""
""fullscreenenter"",""0"",""2073""
""blur"",""34"",""194921""
""focus"",""34"",""196292""
","""event"",""trial"",""time""
""blur"",""34"",""194921""
","""event"",""trial"",""time""
""focus"",""34"",""196292""
","""event"",""trial"",""time""
""fullscreenenter"",""0"",""2073""
","
","null","run_exp/static/audio/clip_18_correct.m4a","null","","","","","<div class='center'><p>That's correct!</p></div>","","","","","","","","","","","","","","","","","",""
"","html-keyboard-response","83","484920","0.0-51.0-1.0","""event"",""trial"",""time""
""fullscreenenter"",""0"",""2073""
""blur"",""34"",""194921""
""focus"",""34"",""196292""
","""event"",""trial"",""time""
""blur"",""34"",""194921""
","""event"",""trial"",""time""
""focus"",""34"",""196292""
","""event"",""trial"",""time""
""fullscreenenter"",""0"",""2073""
","
","59.5","<div class='center'><p>That's correct!</p><p><b>[Press the space bar to continue]</b></p></div>","32","","","","","","","","","","","","","","","","","","","","","","",""
"","audio-keyboard-response","84","487485","0.0-51.0-2.0","""event"",""trial"",""time""
""fullscreenenter"",""0"",""2073""
""blur"",""34"",""194921""
""focus"",""34"",""196292""
","""event"",""trial"",""time""
""blur"",""34"",""194921""
","""event"",""trial"",""time""
""focus"",""34"",""196292""
","""event"",""trial"",""time""
""fullscreenenter"",""0"",""2073""
","
","2563.300000000745","run_exp/static/audio/clip_24_q4.m4a","49","","","","","","","","","","","","","","","","","","","","","","",""
"","correct","85","489896","0.0-52.0-0.0","""event"",""trial"",""time""
""fullscreenenter"",""0"",""2073""
""blur"",""34"",""194921""
""focus"",""34"",""196292""
","""event"",""trial"",""time""
""blur"",""34"",""194921""
","""event"",""trial"",""time""
""focus"",""34"",""196292""
","""event"",""trial"",""time""
""fullscreenenter"",""0"",""2073""
","
","null","run_exp/static/audio/clip_18_correct.m4a","null","","","","","<div class='center'><p>That's correct!</p></div>","","","","","","","","","","","","","","","","","",""
"","html-keyboard-response","86","489983","0.0-52.0-1.0","""event"",""trial"",""time""
""fullscreenenter"",""0"",""2073""
""blur"",""34"",""194921""
""focus"",""34"",""196292""
","""event"",""trial"",""time""
""blur"",""34"",""194921""
","""event"",""trial"",""time""
""focus"",""34"",""196292""
","""event"",""trial"",""time""
""fullscreenenter"",""0"",""2073""
","
","85.30000000074506","<div class='center'><p>That's correct!</p><p><b>[Press the space bar to continue]</b></p></div>","32","","","","","","","","","","","","","","","","","","","","","","",""
"","q_all_corr","87","498476","0.0-53.0-0.0","""event"",""trial"",""time""
""fullscreenenter"",""0"",""2073""
""blur"",""34"",""194921""
""focus"",""34"",""196292""
","""event"",""trial"",""time""
""blur"",""34"",""194921""
","""event"",""trial"",""time""
""focus"",""34"",""196292""
","""event"",""trial"",""time""
""fullscreenenter"",""0"",""2073""
","
","null","run_exp/static/audio/clip_27_quiz_all_correct.m4a","null","","","","","<div class='center'><p>Good job! You’re now ready to move on to the real game! Remember this game will be difficult but don't get discouraged and try your best!</p></div>","","","","","","","","","","","","","","","","","",""
"","html-keyboard-response","88","499010","0.0-53.0-1.0","""event"",""trial"",""time""
""fullscreenenter"",""0"",""2073""
""blur"",""34"",""194921""
""focus"",""34"",""196292""
","""event"",""trial"",""time""
""blur"",""34"",""194921""
","""event"",""trial"",""time""
""focus"",""34"",""196292""
","""event"",""trial"",""time""
""fullscreenenter"",""0"",""2073""
","
","532.1999999992549","<div class='center'><p>Good job! You’re now ready to move on to the real game! Remember this game will be difficult but don't get discouraged and try your best!</p><p><b>[Press the space bar to continue]</b></p></div>","32","","","","","","","","","","","","","","","","","","","","","","",""
"","do_welcome","89","503034","0.0-54.0-0.0","""event"",""trial"",""time""
""fullscreenenter"",""0"",""2073""
""blur"",""34"",""194921""
""focus"",""34"",""196292""
","""event"",""trial"",""time""
""blur"",""34"",""194921""
","""event"",""trial"",""time""
""focus"",""34"",""196292""
","""event"",""trial"",""time""
""fullscreenenter"",""0"",""2073""
","
","null","","","","","","","","null","","","","","","","","","","","","","","","","",""
"","do_trial","90","508134","0.0-55.0-0.0","""event"",""trial"",""time""
""fullscreenenter"",""0"",""2073""
""blur"",""34"",""194921""
""focus"",""34"",""196292""
","""event"",""trial"",""time""
""blur"",""34"",""194921""
","""event"",""trial"",""time""
""focus"",""34"",""196292""
","""event"",""trial"",""time""
""fullscreenenter"",""0"",""2073""
","
","565.2999999970198","","","","","","","","50","1,1,0","0","city","0","probe-15","0.6","0.3","0.1","1","","","","","","","",""
"","html-keyboard-response","91","509141","0.0-55.0-1.0","""event"",""trial"",""time""
""fullscreenenter"",""0"",""2073""
""blur"",""34"",""194921""
""focus"",""34"",""196292""
","""event"",""trial"",""time""
""blur"",""34"",""194921""
","""event"",""trial"",""time""
""focus"",""34"",""196292""
","""event"",""trial"",""time""
""fullscreenenter"",""0"",""2073""
","
","null","<p></p>","null","","","","","","","","","","","","","","","","","","","","","","",""
"","do_trial","92","514286","0.0-56.0-0.0","""event"",""trial"",""time""
""fullscreenenter"",""0"",""2073""
""blur"",""34"",""194921""
""focus"",""34"",""196292""
","""event"",""trial"",""time""
""blur"",""34"",""194921""
","""event"",""trial"",""time""
""focus"",""34"",""196292""
","""event"",""trial"",""time""
""fullscreenenter"",""0"",""2073""
","
","600.3999999985099","","","","","","","","51","1,0,0","0","city","1","probe-167","0.7408678037813531","0.20516799374440706","0.10149594473133026","0","","","","","","","",""
"","html-keyboard-response","93","515300","0.0-56.0-1.0","""event"",""trial"",""time""
""fullscreenenter"",""0"",""2073""
""blur"",""34"",""194921""
""focus"",""34"",""196292""
","""event"",""trial"",""time""
""blur"",""34"",""194921""
","""event"",""trial"",""time""
""focus"",""34"",""196292""
","""event"",""trial"",""time""
""fullscreenenter"",""0"",""2073""
","
","null","<p></p>","null","","","","","","","","","","","","","","","","","","","","","","",""
"","do_trial","94","520236","0.0-57.0-0.0","""event"",""trial"",""time""
""fullscreenenter"",""0"",""2073""
""blur"",""34"",""194921""
""focus"",""34"",""196292""
","""event"",""trial"",""time""
""blur"",""34"",""194921""
","""event"",""trial"",""time""
""focus"",""34"",""196292""
","""event"",""trial"",""time""
""fullscreenenter"",""0"",""2073""
","
","399.3999999985099","","","","","","","","49","1,0,0","0","city","2","probe-187","0.7926747641197389","0.30137622159324273","0.08408550293835179","1","","","","","","","",""
"","html-keyboard-response","95","521238","0.0-57.0-1.0","""event"",""trial"",""time""
""fullscreenenter"",""0"",""2073""
""blur"",""34"",""194921""
""focus"",""34"",""196292""
","""event"",""trial"",""time""
""blur"",""34"",""194921""
","""event"",""trial"",""time""
""focus"",""34"",""196292""
","""event"",""trial"",""time""
""fullscreenenter"",""0"",""2073""
","
","null","<p></p>","null","","","","","","","","","","","","","","","","","","","","","","",""
"","do_trial","96","526079","0.0-58.0-0.0","""event"",""trial"",""time""
""fullscreenenter"",""0"",""2073""
""blur"",""34"",""194921""
""focus"",""34"",""196292""
","""event"",""trial"",""time""
""blur"",""34"",""194921""
","""event"",""trial"",""time""
""focus"",""34"",""196292""
","""event"",""trial"",""time""
""fullscreenenter"",""0"",""2073""
","
","306.6000000014901","","","","","","","","51","1,1,0","0","city","3","probe-193","0.8167242291961675","0.2434870018051201","0.17352683683487782","0","","","","","","","",""
"","html-keyboard-response","97","527095","0.0-58.0-1.0","""event"",""trial"",""time""
""fullscreenenter"",""0"",""2073""
""blur"",""34"",""194921""
""focus"",""34"",""196292""
","""event"",""trial"",""time""
""blur"",""34"",""194921""
","""event"",""trial"",""time""
""focus"",""34"",""196292""
","""event"",""trial"",""time""
""fullscreenenter"",""0"",""2073""
","
","null","<p></p>","null","","","","","","","","","","","","","","","","","","","","","","",""
"","do_trial","98","532099","0.0-59.0-0.0","""event"",""trial"",""time""
""fullscreenenter"",""0"",""2073""
""blur"",""34"",""194921""
""focus"",""34"",""196292""
","""event"",""trial"",""time""
""blur"",""34"",""194921""
","""event"",""trial"",""time""
""focus"",""34"",""196292""
","""event"",""trial"",""time""
""fullscreenenter"",""0"",""2073""
","
","470.8999999985099","","","","","","","","50","1,0,0","0","city","4","probe-146","0.811458517233052","0.32559693381726734","0.11628493602309395","0","","","","","","","",""
"","html-keyboard-response","99","533108","0.0-59.0-1.0","""event"",""trial"",""time""
""fullscreenenter"",""0"",""2073""
""blur"",""34"",""194921""
""focus"",""34"",""196292""
","""event"",""trial"",""time""
""blur"",""34"",""194921""
","""event"",""trial"",""time""
""focus"",""34"",""196292""
","""event"",""trial"",""time""
""fullscreenenter"",""0"",""2073""
","
","null","<p></p>","null","","","","","","","","","","","","","","","","","","","","","","",""
"","do_trial","100","538022","0.0-60.0-0.0","""event"",""trial"",""time""
""fullscreenenter"",""0"",""2073""
""blur"",""34"",""194921""
""focus"",""34"",""196292""
","""event"",""trial"",""time""
""blur"",""34"",""194921""
","""event"",""trial"",""time""
""focus"",""34"",""196292""
","""event"",""trial"",""time""
""fullscreenenter"",""0"",""2073""
","
","371.5999999977648","","","","","","","","49","0,0,0","0","city","5","probe-153","0.6407803000453502","0.32069451055402926","0.1257905257567551","0","","","","","","","",""
"","html-keyboard-response","101","539032","0.0-60.0-1.0","""event"",""trial"",""time""
""fullscreenenter"",""0"",""2073""
""blur"",""34"",""194921""
""focus"",""34"",""196292""
","""event"",""trial"",""time""
""blur"",""34"",""194921""
","""event"",""trial"",""time""
""focus"",""34"",""196292""
","""event"",""trial"",""time""
""fullscreenenter"",""0"",""2073""
","
","null","<p></p>","null","","","","","","","","","","","","","","","","","","","","","","",""
"","do_trial","102","543870","0.0-61.0-0.0","""event"",""trial"",""time""
""fullscreenenter"",""0"",""2073""
""blur"",""34"",""194921""
""focus"",""34"",""196292""
","""event"",""trial"",""time""
""blur"",""34"",""194921""
","""event"",""trial"",""time""
""focus"",""34"",""196292""
","""event"",""trial"",""time""
""fullscreenenter"",""0"",""2073""
","
","296","","","","","","","","50","1,0,0","0","city","6","probe-136","0.5721314727011362","0.23466033398981928","0.1996218429868978","0","","","","","","","",""
"","html-keyboard-response","103","544887","0.0-61.0-1.0","""event"",""trial"",""time""
""fullscreenenter"",""0"",""2073""
""blur"",""34"",""194921""
""focus"",""34"",""196292""
","""event"",""trial"",""time""
""blur"",""34"",""194921""
","""event"",""trial"",""time""
""focus"",""34"",""196292""
","""event"",""trial"",""time""
""fullscreenenter"",""0"",""2073""
","
","null","<p></p>","null","","","","","","","","","","","","","","","","","","","","","","",""
"","do_trial","104","549780","0.0-62.0-0.0","""event"",""trial"",""time""
""fullscreenenter"",""0"",""2073""
""blur"",""34"",""194921""
""focus"",""34"",""196292""
","""event"",""trial"",""time""
""blur"",""34"",""194921""
","""event"",""trial"",""time""
""focus"",""34"",""196292""
","""event"",""trial"",""time""
""fullscreenenter"",""0"",""2073""
","
","346.79999999701977","","","","","","","","51","1,0,1","0","city","7","probe-211","0.4993315614007177","0.3316168052990195","0.14877097171897238","1","","","","","","","",""
"","html-keyboard-response","105","550789","0.0-62.0-1.0","""event"",""trial"",""time""
""fullscreenenter"",""0"",""2073""
""blur"",""34"",""194921""
""focus"",""34"",""196292""
","""event"",""trial"",""time""
""blur"",""34"",""194921""
","""event"",""trial"",""time""
""focus"",""34"",""196292""
","""event"",""trial"",""time""
""fullscreenenter"",""0"",""2073""
","
","null","<p></p>","null","","","","","","","","","","","","","","","","","","","","","","",""
"","do_trial","106","555808","0.0-63.0-0.0","""event"",""trial"",""time""
""fullscreenenter"",""0"",""2073""
""blur"",""34"",""194921""
""focus"",""34"",""196292""
","""event"",""trial"",""time""
""blur"",""34"",""194921""
","""event"",""trial"",""time""
""focus"",""34"",""196292""
","""event"",""trial"",""time""
""fullscreenenter"",""0"",""2073""
","
","474.19999999925494","","","","","","","","49","0,1,0","0","city","8","probe-65","0.5591840866847015","0.3920335632904561","0.09122279495011068","0","","","","","","","",""
"","html-keyboard-response","107","556819","0.0-63.0-1.0","""event"",""trial"",""time""
""fullscreenenter"",""0"",""2073""
""blur"",""34"",""194921""
""focus"",""34"",""196292""
","""event"",""trial"",""time""
""blur"",""34"",""194921""
","""event"",""trial"",""time""
""focus"",""34"",""196292""
","""event"",""trial"",""time""
""fullscreenenter"",""0"",""2073""
","
","null","<p></p>","null","","","","","","","","","","","","","","","","","","","","","","",""
"","do_trial","108","561991","0.0-64.0-0.0","""event"",""trial"",""time""
""fullscreenenter"",""0"",""2073""
""blur"",""34"",""194921""
""focus"",""34"",""196292""
","""event"",""trial"",""time""
""blur"",""34"",""194921""
","""event"",""trial"",""time""
""focus"",""34"",""196292""
","""event"",""trial"",""time""
""fullscreenenter"",""0"",""2073""
","
","628.5","","","","","","","","51","0,0,0","0","city","9","probe-32","0.4715297406960496","0.40542705933256656","0.05632675781837068","0","","","","","","","",""
"","html-keyboard-response","109","563006","0.0-64.0-1.0","""event"",""trial"",""time""
""fullscreenenter"",""0"",""2073""
""blur"",""34"",""194921""
""focus"",""34"",""196292""
","""event"",""trial"",""time""
""blur"",""34"",""194921""
","""event"",""trial"",""time""
""focus"",""34"",""196292""
","""event"",""trial"",""time""
""fullscreenenter"",""0"",""2073""
","
","null","<p></p>","null","","","","","","","","","","","","","","","","","","","","","","",""
"","do_trial","110","567852","0.0-65.0-0.0","""event"",""trial"",""time""
""fullscreenenter"",""0"",""2073""
""blur"",""34"",""194921""
""focus"",""34"",""196292""
","""event"",""trial"",""time""
""blur"",""34"",""194921""
","""event"",""trial"",""time""
""focus"",""34"",""196292""
","""event"",""trial"",""time""
""fullscreenenter"",""0"",""2073""
","
","303.6000000014901","","","","","","","","50","1,0,1","0","city","10","probe-106","0.5903550351991986","0.28216364051802506","0.16117156687049658","0","","","","","","","",""
"","html-keyboard-response","111","568866","0.0-65.0-1.0","""event"",""trial"",""time""
""fullscreenenter"",""0"",""2073""
""blur"",""34"",""194921""
""focus"",""34"",""196292""
","""event"",""trial"",""time""
""blur"",""34"",""194921""
","""event"",""trial"",""time""
""focus"",""34"",""196292""
","""event"",""trial"",""time""
""fullscreenenter"",""0"",""2073""
","
","null","<p></p>","null","","","","","","","","","","","","","","","","","","","","","","",""
"","do_trial","112","574258","0.0-66.0-0.0","""event"",""trial"",""time""
""fullscreenenter"",""0"",""2073""
""blur"",""34"",""194921""
""focus"",""34"",""196292""
","""event"",""trial"",""time""
""blur"",""34"",""194921""
","""event"",""trial"",""time""
""focus"",""34"",""196292""
","""event"",""trial"",""time""
""fullscreenenter"",""0"",""2073""
","
","843.6999999992549","","","","","","","","49","1,0,0","0","city","11","probe-24","0.5680539622755637","0.18747170964447676","0.2505467564875288","1","","","","","","","",""
"","html-keyboard-response","113","575272","0.0-66.0-1.0","""event"",""trial"",""time""
""fullscreenenter"",""0"",""2073""
""blur"",""34"",""194921""
""focus"",""34"",""196292""
","""event"",""trial"",""time""
""blur"",""34"",""194921""
","""event"",""trial"",""time""
""focus"",""34"",""196292""
","""event"",""trial"",""time""
""fullscreenenter"",""0"",""2073""
","
","null","<p></p>","null","","","","","","","","","","","","","","","","","","","","","","",""
"","do_trial","114","580617","0.0-67.0-0.0","""event"",""trial"",""time""
""fullscreenenter"",""0"",""2073""
""blur"",""34"",""194921""
""focus"",""34"",""196292""
","""event"",""trial"",""time""
""blur"",""34"",""194921""
","""event"",""trial"",""time""
""focus"",""34"",""196292""
","""event"",""trial"",""time""
""fullscreenenter"",""0"",""2073""
","
","798.3999999985099","","","","","","","","49","0,0,0","0","city","12","probe-210","0.5160662985989479","0.3272490104459789","0.1379816822146284","0","","","","","","","",""
"","html-keyboard-response","115","581634","0.0-67.0-1.0","""event"",""trial"",""time""
""fullscreenenter"",""0"",""2073""
""blur"",""34"",""194921""
""focus"",""34"",""196292""
","""event"",""trial"",""time""
""blur"",""34"",""194921""
","""event"",""trial"",""time""
""focus"",""34"",""196292""
","""event"",""trial"",""time""
""fullscreenenter"",""0"",""2073""
","
","null","<p></p>","null","","","","","","","","","","","","","","","","","","","","","","",""
"","do_trial","116","586482","0.0-68.0-0.0","""event"",""trial"",""time""
""fullscreenenter"",""0"",""2073""
""blur"",""34"",""194921""
""focus"",""34"",""196292""
","""event"",""trial"",""time""
""blur"",""34"",""194921""
","""event"",""trial"",""time""
""focus"",""34"",""196292""
","""event"",""trial"",""time""
""fullscreenenter"",""0"",""2073""
","
","308.29999999701977","","","","","","","","50","1,0,0","0","city","13","probe-20","0.5899886690782156","0.398664385995937","0.09052982913375811","0","","","","","","","",""
"","html-keyboard-response","117","587490","0.0-68.0-1.0","""event"",""trial"",""time""
""fullscreenenter"",""0"",""2073""
""blur"",""34"",""194921""
""focus"",""34"",""196292""
","""event"",""trial"",""time""
""blur"",""34"",""194921""
","""event"",""trial"",""time""
""focus"",""34"",""196292""
","""event"",""trial"",""time""
""fullscreenenter"",""0"",""2073""
","
","null","<p></p>","null","","","","","","","","","","","","","","","","","","","","","","",""
"","do_trial","118","592551","0.0-69.0-0.0","""event"",""trial"",""time""
""fullscreenenter"",""0"",""2073""
""blur"",""34"",""194921""
""focus"",""34"",""196292""
","""event"",""trial"",""time""
""blur"",""34"",""194921""
","""event"",""trial"",""time""
""focus"",""34"",""196292""
","""event"",""trial"",""time""
""fullscreenenter"",""0"",""2073""
","
","515.3000000007451","","","","","","","","51","0,0,1","0","city","14","probe-102","0.577108777236644","0.35575207444243384","0.08065795653904761","1","","","","","","","",""
"","html-keyboard-response","119","593567","0.0-69.0-1.0","""event"",""trial"",""time""
""fullscreenenter"",""0"",""2073""
""blur"",""34"",""194921""
""focus"",""34"",""196292""
","""event"",""trial"",""time""
""blur"",""34"",""194921""
","""event"",""trial"",""time""
""focus"",""34"",""196292""
","""event"",""trial"",""time""
""fullscreenenter"",""0"",""2073""
","
","null","<p></p>","null","","","","","","","","","","","","","","","","","","","","","","",""
"","do_trial","120","598626","0.0-70.0-0.0","""event"",""trial"",""time""
""fullscreenenter"",""0"",""2073""
""blur"",""34"",""194921""
""focus"",""34"",""196292""
","""event"",""trial"",""time""
""blur"",""34"",""194921""
","""event"",""trial"",""time""
""focus"",""34"",""196292""
","""event"",""trial"",""time""
""fullscreenenter"",""0"",""2073""
","
","515.1000000014901","","","","","","","","49","1,0,0","0","city","15","probe-163","0.6763842539645194","0.43242387273602517","0.053295619179781845","1","","","","","","","",""
"","html-keyboard-response","121","599641","0.0-70.0-1.0","""event"",""trial"",""time""
""fullscreenenter"",""0"",""2073""
""blur"",""34"",""194921""
""focus"",""34"",""196292""
","""event"",""trial"",""time""
""blur"",""34"",""194921""
","""event"",""trial"",""time""
""focus"",""34"",""196292""
","""event"",""trial"",""time""
""fullscreenenter"",""0"",""2073""
","
","null","<p></p>","null","","","","","","","","","","","","","","","","","","","","","","",""
"","do_trial","122","604470","0.0-71.0-0.0","""event"",""trial"",""time""
""fullscreenenter"",""0"",""2073""
""blur"",""34"",""194921""
""focus"",""34"",""196292""
","""event"",""trial"",""time""
""blur"",""34"",""194921""
","""event"",""trial"",""time""
""focus"",""34"",""196292""
","""event"",""trial"",""time""
""fullscreenenter"",""0"",""2073""
","
","293.80000000074506","","","","","","","","50","1,0,0","0","city","16","probe-64","0.6596498507225295","0.5900409301490984","0.0968040723476021","0","","","","","","","",""
"","html-keyboard-response","123","605487","0.0-71.0-1.0","""event"",""trial"",""time""
""fullscreenenter"",""0"",""2073""
""blur"",""34"",""194921""
""focus"",""34"",""196292""
","""event"",""trial"",""time""
""blur"",""34"",""194921""
","""event"",""trial"",""time""
""focus"",""34"",""196292""
","""event"",""trial"",""time""
""fullscreenenter"",""0"",""2073""
","
","null","<p></p>","null","","","","","","","","","","","","","","","","","","","","","","",""
"","do_trial","124","610371","0.0-72.0-0.0","""event"",""trial"",""time""
""fullscreenenter"",""0"",""2073""
""blur"",""34"",""194921""
""focus"",""34"",""196292""
","""event"",""trial"",""time""
""blur"",""34"",""194921""
","""event"",""trial"",""time""
""focus"",""34"",""196292""
","""event"",""trial"",""time""
""fullscreenenter"",""0"",""2073""
","
","346.5","","","","","","","","51","1,1,0","0","city","17","probe-151","0.5819703434176379","0.5306553953822016","0.13605398607156258","0","","","","","","","",""
"","html-keyboard-response","125","611379","0.0-72.0-1.0","""event"",""trial"",""time""
""fullscreenenter"",""0"",""2073""
""blur"",""34"",""194921""
""focus"",""34"",""196292""
","""event"",""trial"",""time""
""blur"",""34"",""194921""
","""event"",""trial"",""time""
""focus"",""34"",""196292""
","""event"",""trial"",""time""
""fullscreenenter"",""0"",""2073""
","
","null","<p></p>","null","","","","","","","","","","","","","","","","","","","","","","",""
"","do_trial","126","616238","0.0-73.0-0.0","""event"",""trial"",""time""
""fullscreenenter"",""0"",""2073""
""blur"",""34"",""194921""
""focus"",""34"",""196292""
","""event"",""trial"",""time""
""blur"",""34"",""194921""
","""event"",""trial"",""time""
""focus"",""34"",""196292""
","""event"",""trial"",""time""
""fullscreenenter"",""0"",""2073""
","
","314.30000000074506","","","","","","","","49","0,0,0","0","city","18","probe-60","0.5682456198533232","0.5333721189426852","0.12080922597895974","0","","","","","","","",""
"","html-keyboard-response","127","617254","0.0-73.0-1.0","""event"",""trial"",""time""
""fullscreenenter"",""0"",""2073""
""blur"",""34"",""194921""
""focus"",""34"",""196292""
","""event"",""trial"",""time""
""blur"",""34"",""194921""
","""event"",""trial"",""time""
""focus"",""34"",""196292""
","""event"",""trial"",""time""
""fullscreenenter"",""0"",""2073""
","
","null","<p></p>","null","","","","","","","","","","","","","","","","","","","","","","",""
"","do_trial","128","622116","0.0-74.0-0.0","""event"",""trial"",""time""
""fullscreenenter"",""0"",""2073""
""blur"",""34"",""194921""
""focus"",""34"",""196292""
","""event"",""trial"",""time""
""blur"",""34"",""194921""
","""event"",""trial"",""time""
""focus"",""34"",""196292""
","""event"",""trial"",""time""
""fullscreenenter"",""0"",""2073""
","
","328.9000000022352","","","","","","","","51","1,1,0","0","city","19","probe-117","0.5216190215486942","0.28897128855463877","0.17662538554181276","0","","","","","","","",""
"","html-keyboard-response","129","623121","0.0-74.0-1.0","""event"",""trial"",""time""
""fullscreenenter"",""0"",""2073""
""blur"",""34"",""194921""
""focus"",""34"",""196292""
","""event"",""trial"",""time""
""blur"",""34"",""194921""
","""event"",""trial"",""time""
""focus"",""34"",""196292""
","""event"",""trial"",""time""
""fullscreenenter"",""0"",""2073""
","
","null","<p></p>","null","","","","","","","","","","","","","","","","","","","","","","",""
"","do_trial","130","628613","0.0-75.0-0.0","""event"",""trial"",""time""
""fullscreenenter"",""0"",""2073""
""blur"",""34"",""194921""
""focus"",""34"",""196292""
","""event"",""trial"",""time""
""blur"",""34"",""194921""
","""event"",""trial"",""time""
""focus"",""34"",""196292""
","""event"",""trial"",""time""
""fullscreenenter"",""0"",""2073""
","
","953.1000000014901","","","","","","","","51","1,1,0","0","city","20","probe-201","0.6439550819756596","0.34291435844275525","0.13782857809718013","0","","","","","","","",""
"","html-keyboard-response","131","629629","0.0-75.0-1.0","""event"",""trial"",""time""
""fullscreenenter"",""0"",""2073""
""blur"",""34"",""194921""
""focus"",""34"",""196292""
","""event"",""trial"",""time""
""blur"",""34"",""194921""
","""event"",""trial"",""time""
""focus"",""34"",""196292""
","""event"",""trial"",""time""
""fullscreenenter"",""0"",""2073""
","
","null","<p></p>","null","","","","","","","","","","","","","","","","","","","","","","",""
"","do_trial","132","634639","0.0-76.0-0.0","""event"",""trial"",""time""
""fullscreenenter"",""0"",""2073""
""blur"",""34"",""194921""
""focus"",""34"",""196292""
","""event"",""trial"",""time""
""blur"",""34"",""194921""
","""event"",""trial"",""time""
""focus"",""34"",""196292""
","""event"",""trial"",""time""
""fullscreenenter"",""0"",""2073""
","
","472.19999999925494","","","","","","","","50","0,1,1","0","city","21","probe-183","0.5677309888582812","0.20651439150000744","0.09657779557198673","1","","","","","","","",""
"","html-keyboard-response","133","635655","0.0-76.0-1.0","""event"",""trial"",""time""
""fullscreenenter"",""0"",""2073""
""blur"",""34"",""194921""
""focus"",""34"",""196292""
","""event"",""trial"",""time""
""blur"",""34"",""194921""
","""event"",""trial"",""time""
""focus"",""34"",""196292""
","""event"",""trial"",""time""
""fullscreenenter"",""0"",""2073""
","
","null","<p></p>","null","","","","","","","","","","","","","","","","","","","","","","",""
"","do_trial","134","641234","0.0-77.0-0.0","""event"",""trial"",""time""
""fullscreenenter"",""0"",""2073""
""blur"",""34"",""194921""
""focus"",""34"",""196292""
","""event"",""trial"",""time""
""blur"",""34"",""194921""
","""event"",""trial"",""time""
""focus"",""34"",""196292""
","""event"",""trial"",""time""
""fullscreenenter"",""0"",""2073""
","
","1044.699999999255","","","","","","","","50","0,0,1","0","city","22","probe-120","0.5256483633868384","0.2723109617851169","0.07380656147430177","0","","","","","","","",""
"","html-keyboard-response","135","642239","0.0-77.0-1.0","""event"",""trial"",""time""
""fullscreenenter"",""0"",""2073""
""blur"",""34"",""194921""
""focus"",""34"",""196292""
","""event"",""trial"",""time""
""blur"",""34"",""194921""
","""event"",""trial"",""time""
""focus"",""34"",""196292""
","""event"",""trial"",""time""
""fullscreenenter"",""0"",""2073""
","
","null","<p></p>","null","","","","","","","","","","","","","","","","","","","","","","",""
"","do_trial","136","647370","0.0-78.0-0.0","""event"",""trial"",""time""
""fullscreenenter"",""0"",""2073""
""blur"",""34"",""194921""
""focus"",""34"",""196292""
","""event"",""trial"",""time""
""blur"",""34"",""194921""
","""event"",""trial"",""time""
""focus"",""34"",""196292""
","""event"",""trial"",""time""
""fullscreenenter"",""0"",""2073""
","
","587.8000000007451","","","","","","","","49","1,0,0","0","city","23","probe-94","0.6281209901852247","0.43760368095521224","0.09460650481312881","1","","","","","","","",""
"","html-keyboard-response","137","648387","0.0-78.0-1.0","""event"",""trial"",""time""
""fullscreenenter"",""0"",""2073""
""blur"",""34"",""194921""
""focus"",""34"",""196292""
","""event"",""trial"",""time""
""blur"",""34"",""194921""
","""event"",""trial"",""time""
""focus"",""34"",""196292""
","""event"",""trial"",""time""
""fullscreenenter"",""0"",""2073""
","
","null","<p></p>","null","","","","","","","","","","","","","","","","","","","","","","",""
"","do_trial","138","653800","0.0-79.0-0.0","""event"",""trial"",""time""
""fullscreenenter"",""0"",""2073""
""blur"",""34"",""194921""
""focus"",""34"",""196292""
","""event"",""trial"",""time""
""blur"",""34"",""194921""
","""event"",""trial"",""time""
""focus"",""34"",""196292""
","""event"",""trial"",""time""
""fullscreenenter"",""0"",""2073""
","
","875.8999999985099","","","","","","","","51","0,0,0","0","city","24","probe-73","0.6166405787771819","0.36548096560276117","0.06271371042777606","0","","","","","","","",""
"","html-keyboard-response","139","654816","0.0-79.0-1.0","""event"",""trial"",""time""
""fullscreenenter"",""0"",""2073""
""blur"",""34"",""194921""
""focus"",""34"",""196292""
","""event"",""trial"",""time""
""blur"",""34"",""194921""
","""event"",""trial"",""time""
""focus"",""34"",""196292""
","""event"",""trial"",""time""
""fullscreenenter"",""0"",""2073""
","
","null","<p></p>","null","","","","","","","","","","","","","","","","","","","","","","",""
"","do_trial","140","659995","0.0-80.0-0.0","""event"",""trial"",""time""
""fullscreenenter"",""0"",""2073""
""blur"",""34"",""194921""
""focus"",""34"",""196292""
","""event"",""trial"",""time""
""blur"",""34"",""194921""
","""event"",""trial"",""time""
""focus"",""34"",""196292""
","""event"",""trial"",""time""
""fullscreenenter"",""0"",""2073""
","
","639.6000000014901","","","","","","","","50","0,1,0","0","city","25","probe-14","0.5391068112322194","0.5591494209827286","0.17635800245432384","1","","","","","","","",""
"","html-keyboard-response","141","661002","0.0-80.0-1.0","""event"",""trial"",""time""
""fullscreenenter"",""0"",""2073""
""blur"",""34"",""194921""
""focus"",""34"",""196292""
","""event"",""trial"",""time""
""blur"",""34"",""194921""
","""event"",""trial"",""time""
""focus"",""34"",""196292""
","""event"",""trial"",""time""
""fullscreenenter"",""0"",""2073""
","
","null","<p></p>","null","","","","","","","","","","","","","","","","","","","","","","",""
"","do_trial","142","665984","0.0-81.0-0.0","""event"",""trial"",""time""
""fullscreenenter"",""0"",""2073""
""blur"",""34"",""194921""
""focus"",""34"",""196292""
","""event"",""trial"",""time""
""blur"",""34"",""194921""
","""event"",""trial"",""time""
""focus"",""34"",""196292""
","""event"",""trial"",""time""
""fullscreenenter"",""0"",""2073""
","
","433.79999999701977","","","","","","","","49","0,1,1","0","city","26","probe-180","0.5396747691708944","0.414736578338453","0.304837945642613","0","","","","","","","",""
"","html-keyboard-response","143","666998","0.0-81.0-1.0","""event"",""trial"",""time""
""fullscreenenter"",""0"",""2073""
""blur"",""34"",""194921""
""focus"",""34"",""196292""
","""event"",""trial"",""time""
""blur"",""34"",""194921""
","""event"",""trial"",""time""
""focus"",""34"",""196292""
","""event"",""trial"",""time""
""fullscreenenter"",""0"",""2073""
","
","null","<p></p>","null","","","","","","","","","","","","","","","","","","","","","","",""
"","do_trial","144","673283","0.0-82.0-0.0","""event"",""trial"",""time""
""fullscreenenter"",""0"",""2073""
""blur"",""34"",""194921""
""focus"",""34"",""196292""
","""event"",""trial"",""time""
""blur"",""34"",""194921""
","""event"",""trial"",""time""
""focus"",""34"",""196292""
","""event"",""trial"",""time""
""fullscreenenter"",""0"",""2073""
","
","1742.300000000745","","","","","","","","50","0,0,0","0","city","27","probe-129","0.596261638094167","0.4505621596034156","0.17374823924786248","0","","","","","","","",""
"","html-keyboard-response","145","674296","0.0-82.0-1.0","""event"",""trial"",""time""
""fullscreenenter"",""0"",""2073""
""blur"",""34"",""194921""
""focus"",""34"",""196292""
","""event"",""trial"",""time""
""blur"",""34"",""194921""
","""event"",""trial"",""time""
""focus"",""34"",""196292""
","""event"",""trial"",""time""
""fullscreenenter"",""0"",""2073""
","
","null","<p></p>","null","","","","","","","","","","","","","","","","","","","","","","",""
"","do_trial","146","679398","0.0-83.0-0.0","""event"",""trial"",""time""
""fullscreenenter"",""0"",""2073""
""blur"",""34"",""194921""
""focus"",""34"",""196292""
","""event"",""trial"",""time""
""blur"",""34"",""194921""
","""event"",""trial"",""time""
""focus"",""34"",""196292""
","""event"",""trial"",""time""
""fullscreenenter"",""0"",""2073""
","
","567.3999999985099","","","","","","","","51","1,0,0","0","city","28","probe-01","0.753138213464867","0.49171026575250365","0.1623615784319383","0","","","","","","","",""
"","html-keyboard-response","147","680406","0.0-83.0-1.0","""event"",""trial"",""time""
""fullscreenenter"",""0"",""2073""
""blur"",""34"",""194921""
""focus"",""34"",""196292""
","""event"",""trial"",""time""
""blur"",""34"",""194921""
","""event"",""trial"",""time""
""focus"",""34"",""196292""
","""event"",""trial"",""time""
""fullscreenenter"",""0"",""2073""
","
","null","<p></p>","null","","","","","","","","","","","","","","","","","","","","","","",""
"","do_trial","148","685445","0.0-84.0-0.0","""event"",""trial"",""time""
""fullscreenenter"",""0"",""2073""
""blur"",""34"",""194921""
""focus"",""34"",""196292""
","""event"",""trial"",""time""
""blur"",""34"",""194921""
","""event"",""trial"",""time""
""focus"",""34"",""196292""
","""event"",""trial"",""time""
""fullscreenenter"",""0"",""2073""
","
","491.5","","","","","","","","49","1,0,0","0","city","29","probe-46","0.6606763773861107","0.5158240213952124","0.057433277727323574","1","","","","","","","",""
"","html-keyboard-response","149","686448","0.0-84.0-1.0","""event"",""trial"",""time""
""fullscreenenter"",""0"",""2073""
""blur"",""34"",""194921""
""focus"",""34"",""196292""
","""event"",""trial"",""time""
""blur"",""34"",""194921""
","""event"",""trial"",""time""
""focus"",""34"",""196292""
","""event"",""trial"",""time""
""fullscreenenter"",""0"",""2073""
","
","null","<p></p>","null","","","","","","","","","","","","","","","","","","","","","","",""
"","do_bye","150","687970","0.0-85.0-0.0","""event"",""trial"",""time""
""fullscreenenter"",""0"",""2073""
""blur"",""34"",""194921""
""focus"",""34"",""196292""
","""event"",""trial"",""time""
""blur"",""34"",""194921""
","""event"",""trial"",""time""
""focus"",""34"",""196292""
","""event"",""trial"",""time""
""fullscreenenter"",""0"",""2073""
","
","null","","","","","","","","null","","","","","","","","","","","","","","","","",""
"","break","151","692192","0.0-85.0-1.0","""event"",""trial"",""time""
""fullscreenenter"",""0"",""2073""
""blur"",""34"",""194921""
""focus"",""34"",""196292""
","""event"",""trial"",""time""
""blur"",""34"",""194921""
","""event"",""trial"",""time""
""focus"",""34"",""196292""
","""event"",""trial"",""time""
""fullscreenenter"",""0"",""2073""
","
","4220.10000000149","<div class='center'><p>Time to take a quick break! You have 2 minutes to rest, but you can move on sooner if you'd like.</p><p> Press the <b>space bar</b> to continue.</p></div>","32","","","","","","","","","","","","","","","","","","","","","","",""
"","do_travel","152","701216","0.0-86.0-0.0","""event"",""trial"",""time""
""fullscreenenter"",""0"",""2073""
""blur"",""34"",""194921""
""focus"",""34"",""196292""
","""event"",""trial"",""time""
""blur"",""34"",""194921""
","""event"",""trial"",""time""
""focus"",""34"",""196292""
","""event"",""trial"",""time""
""fullscreenenter"",""0"",""2073""
","
","null","","","","","","","","null","","","","","","","","","","","","","","","","",""
"","do_welcome","153","705227","0.0-86.0-1.0","""event"",""trial"",""time""
""fullscreenenter"",""0"",""2073""
""blur"",""34"",""194921""
""focus"",""34"",""196292""
","""event"",""trial"",""time""
""blur"",""34"",""194921""
","""event"",""trial"",""time""
""focus"",""34"",""196292""
","""event"",""trial"",""time""
""fullscreenenter"",""0"",""2073""
","
","null","","","","","","","","null","","","","","","","","","","","","","","","","",""
"","do_trial","154","711206","0.0-87.0-0.0","""event"",""trial"",""time""
""fullscreenenter"",""0"",""2073""
""blur"",""34"",""194921""
""focus"",""34"",""196292""
","""event"",""trial"",""time""
""blur"",""34"",""194921""
","""event"",""trial"",""time""
""focus"",""34"",""196292""
","""event"",""trial"",""time""
""fullscreenenter"",""0"",""2073""
","
","1443.4000000022352","","","","","","","","49","1,1,0","1","forest","30","probe-177","1","0.32014390667630976","0.08655432712010892","1","","","","","","","",""
"","html-keyboard-response","155","712226","0.0-87.0-1.0","""event"",""trial"",""time""
""fullscreenenter"",""0"",""2073""
""blur"",""34"",""194921""
""focus"",""34"",""196292""
","""event"",""trial"",""time""
""blur"",""34"",""194921""
","""event"",""trial"",""time""
""focus"",""34"",""196292""
","""event"",""trial"",""time""
""fullscreenenter"",""0"",""2073""
","
","null","<p></p>","null","","","","","","","","","","","","","","","","","","","","","","",""
"","do_trial","156","717184","0.0-88.0-0.0","""event"",""trial"",""time""
""fullscreenenter"",""0"",""2073""
""blur"",""34"",""194921""
""focus"",""34"",""196292""
","""event"",""trial"",""time""
""blur"",""34"",""194921""
","""event"",""trial"",""time""
""focus"",""34"",""196292""
","""event"",""trial"",""time""
""fullscreenenter"",""0"",""2073""
","
","412.1000000014901","","","","","","","","50","1,0,0","1","forest","31","probe-170","1","0.45933585139344013","0.06854967834005557","0","","","","","","","",""
"","html-keyboard-response","157","718187","0.0-88.0-1.0","""event"",""trial"",""time""
""fullscreenenter"",""0"",""2073""
""blur"",""34"",""194921""
""focus"",""34"",""196292""
","""event"",""trial"",""time""
""blur"",""34"",""194921""
","""event"",""trial"",""time""
""focus"",""34"",""196292""
","""event"",""trial"",""time""
""fullscreenenter"",""0"",""2073""
","
","null","<p></p>","null","","","","","","","","","","","","","","","","","","","","","","",""
"","do_trial","158","723044","0.0-89.0-0.0","""event"",""trial"",""time""
""fullscreenenter"",""0"",""2073""
""blur"",""34"",""194921""
""focus"",""34"",""196292""
","""event"",""trial"",""time""
""blur"",""34"",""194921""
","""event"",""trial"",""time""
""focus"",""34"",""196292""
","""event"",""trial"",""time""
""fullscreenenter"",""0"",""2073""
","
","312.19999999925494","","","","","","","","51","1,0,1","1","forest","32","probe-188","1","0.34773988727689464","0.2079183848519456","1","","","","","","","",""
"","html-keyboard-response","159","724051","0.0-89.0-1.0","""event"",""trial"",""time""
""fullscreenenter"",""0"",""2073""
""blur"",""34"",""194921""
""focus"",""34"",""196292""
","""event"",""trial"",""time""
""blur"",""34"",""194921""
","""event"",""trial"",""time""
""focus"",""34"",""196292""
","""event"",""trial"",""time""
""fullscreenenter"",""0"",""2073""
","
","null","<p></p>","null","","","","","","","","","","","","","","","","","","","","","","",""
"","do_trial","160","729072","0.0-90.0-0.0","""event"",""trial"",""time""
""fullscreenenter"",""0"",""2073""
""blur"",""34"",""194921""
""focus"",""34"",""196292""
","""event"",""trial"",""time""
""blur"",""34"",""194921""
","""event"",""trial"",""time""
""focus"",""34"",""196292""
","""event"",""trial"",""time""
""fullscreenenter"",""0"",""2073""
","
","476.5999999977648","","","","","","","","49","1,1,0","1","forest","33","probe-222","0.9062351622773853","0.4148704664369965","0.1751490820239038","1","","","","","","","",""
"","html-keyboard-response","161","730089","0.0-90.0-1.0","""event"",""trial"",""time""
""fullscreenenter"",""0"",""2073""
""blur"",""34"",""194921""
""focus"",""34"",""196292""
","""event"",""trial"",""time""
""blur"",""34"",""194921""
","""event"",""trial"",""time""
""focus"",""34"",""196292""
","""event"",""trial"",""time""
""fullscreenenter"",""0"",""2073""
","
","null","<p></p>","null","","","","","","","","","","","","","","","","","","","","","","",""
"","do_trial","162","735512","0.0-91.0-0.0","""event"",""trial"",""time""
""fullscreenenter"",""0"",""2073""
""blur"",""34"",""194921""
""focus"",""34"",""196292""
","""event"",""trial"",""time""
""blur"",""34"",""194921""
","""event"",""trial"",""time""
""focus"",""34"",""196292""
","""event"",""trial"",""time""
""fullscreenenter"",""0"",""2073""
","
","886.8000000007451","","","","","","","","50","1,1,1","1","forest","34","probe-125","0.9054801219380858","0.5310136881041538","0.10822356497885309","1","","","","","","","",""
"","html-keyboard-response","163","736522","0.0-91.0-1.0","""event"",""trial"",""time""
""fullscreenenter"",""0"",""2073""
""blur"",""34"",""194921""
""focus"",""34"",""196292""
","""event"",""trial"",""time""
""blur"",""34"",""194921""
","""event"",""trial"",""time""
""focus"",""34"",""196292""
","""event"",""trial"",""time""
""fullscreenenter"",""0"",""2073""
","
","null","<p></p>","null","","","","","","","","","","","","","","","","","","","","","","",""
"","do_trial","164","741391","0.0-92.0-0.0","""event"",""trial"",""time""
""fullscreenenter"",""0"",""2073""
""blur"",""34"",""194921""
""focus"",""34"",""196292""
","""event"",""trial"",""time""
""blur"",""34"",""194921""
","""event"",""trial"",""time""
""focus"",""34"",""196292""
","""event"",""trial"",""time""
""fullscreenenter"",""0"",""2073""
","
","321.79999999701977","","","","","","","","51","0,1,0","1","forest","35","probe-96","0.7258113823480952","0.4459137388365672","0.05483070779832153","0","","","","","","","",""
"","html-keyboard-response","165","742405","0.0-92.0-1.0","""event"",""trial"",""time""
""fullscreenenter"",""0"",""2073""
""blur"",""34"",""194921""
""focus"",""34"",""196292""
","""event"",""trial"",""time""
""blur"",""34"",""194921""
","""event"",""trial"",""time""
""focus"",""34"",""196292""
","""event"",""trial"",""time""
""fullscreenenter"",""0"",""2073""
","
","null","<p></p>","null","","","","","","","","","","","","","","","","","","","","","","",""
"","do_trial","166","747252","0.0-93.0-0.0","""event"",""trial"",""time""
""fullscreenenter"",""0"",""2073""
""blur"",""34"",""194921""
""focus"",""34"",""196292""
","""event"",""trial"",""time""
""blur"",""34"",""194921""
","""event"",""trial"",""time""
""focus"",""34"",""196292""
","""event"",""trial"",""time""
""fullscreenenter"",""0"",""2073""
","
","313.6000000014901","","","","","","","","49","1,0,0","1","forest","36","probe-223","0.5288562719447611","0.3747498344614229","0.0955764207199262","1","","","","","","","",""
"","html-keyboard-response","167","748256","0.0-93.0-1.0","""event"",""trial"",""time""
""fullscreenenter"",""0"",""2073""
""blur"",""34"",""194921""
""focus"",""34"",""196292""
","""event"",""trial"",""time""
""blur"",""34"",""194921""
","""event"",""trial"",""time""
""focus"",""34"",""196292""
","""event"",""trial"",""time""
""fullscreenenter"",""0"",""2073""
","
","null","<p></p>","null","","","","","","","","","","","","","","","","","","","","","","",""
"","do_trial","168","753198","0.0-94.0-0.0","""event"",""trial"",""time""
""fullscreenenter"",""0"",""2073""
""blur"",""34"",""194921""
""focus"",""34"",""196292""
","""event"",""trial"",""time""
""blur"",""34"",""194921""
","""event"",""trial"",""time""
""focus"",""34"",""196292""
","""event"",""trial"",""time""
""fullscreenenter"",""0"",""2073""
","
","401","","","","","","","","50","1,1,0","1","forest","37","probe-21","0.5725947375147593","0.33816077033839764","0.16186427837695333","1","","","","","","","",""
"","html-keyboard-response","169","754204","0.0-94.0-1.0","""event"",""trial"",""time""
""fullscreenenter"",""0"",""2073""
""blur"",""34"",""194921""
""focus"",""34"",""196292""
","""event"",""trial"",""time""
""blur"",""34"",""194921""
","""event"",""trial"",""time""
""focus"",""34"",""196292""
","""event"",""trial"",""time""
""fullscreenenter"",""0"",""2073""
","
","null","<p></p>","null","","","","","","","","","","","","","","","","","","","","","","",""
"","do_trial","170","759292","0.0-95.0-0.0","""event"",""trial"",""time""
""fullscreenenter"",""0"",""2073""
""blur"",""34"",""194921""
""focus"",""34"",""196292""
","""event"",""trial"",""time""
""blur"",""34"",""194921""
","""event"",""trial"",""time""
""focus"",""34"",""196292""
","""event"",""trial"",""time""
""fullscreenenter"",""0"",""2073""
","
","549","","","","","","","","49","1,0,0","1","forest","38","probe-137","0.6493628648468277","0.3656558418657083","0.09769927503441435","1","","","","","","","",""
"","html-keyboard-response","171","760302","0.0-95.0-1.0","""event"",""trial"",""time""
""fullscreenenter"",""0"",""2073""
""blur"",""34"",""194921""
""focus"",""34"",""196292""
","""event"",""trial"",""time""
""blur"",""34"",""194921""
","""event"",""trial"",""time""
""focus"",""34"",""196292""
","""event"",""trial"",""time""
""fullscreenenter"",""0"",""2073""
","
","null","<p></p>","null","","","","","","","","","","","","","","","","","","","","","","",""
"","do_trial","172","765303","0.0-96.0-0.0","""event"",""trial"",""time""
""fullscreenenter"",""0"",""2073""
""blur"",""34"",""194921""
""focus"",""34"",""196292""
","""event"",""trial"",""time""
""blur"",""34"",""194921""
","""event"",""trial"",""time""
""focus"",""34"",""196292""
","""event"",""trial"",""time""
""fullscreenenter"",""0"",""2073""
","
","463.6000000014901","","","","","","","","51","0,0,0","1","forest","39","probe-176","0.5714797482857746","0.31592051867076726","0.09178000832876375","0","","","","","","","",""
"","html-keyboard-response","173","766317","0.0-96.0-1.0","""event"",""trial"",""time""
""fullscreenenter"",""0"",""2073""
""blur"",""34"",""194921""
""focus"",""34"",""196292""
","""event"",""trial"",""time""
""blur"",""34"",""194921""
","""event"",""trial"",""time""
""focus"",""34"",""196292""
","""event"",""trial"",""time""
""fullscreenenter"",""0"",""2073""
","
","null","<p></p>","null","","","","","","","","","","","","","","","","","","","","","","",""
"","do_trial","174","771243","0.0-97.0-0.0","""event"",""trial"",""time""
""fullscreenenter"",""0"",""2073""
""blur"",""34"",""194921""
""focus"",""34"",""196292""
","""event"",""trial"",""time""
""blur"",""34"",""194921""
","""event"",""trial"",""time""
""focus"",""34"",""196292""
","""event"",""trial"",""time""
""fullscreenenter"",""0"",""2073""
","
","386.1000000014901","","","","","","","","50","1,0,0","1","forest","40","probe-226","0.4644225675755997","0.28215937210239994","0.14133157775232497","0","","","","","","","",""
"","html-keyboard-response","175","772257","0.0-97.0-1.0","""event"",""trial"",""time""
""fullscreenenter"",""0"",""2073""
""blur"",""34"",""194921""
""focus"",""34"",""196292""
","""event"",""trial"",""time""
""blur"",""34"",""194921""
","""event"",""trial"",""time""
""focus"",""34"",""196292""
","""event"",""trial"",""time""
""fullscreenenter"",""0"",""2073""
","
","null","<p></p>","null","","","","","","","","","","","","","","","","","","","","","","",""
"","do_trial","176","777093","0.0-98.0-0.0","""event"",""trial"",""time""
""fullscreenenter"",""0"",""2073""
""blur"",""34"",""194921""
""focus"",""34"",""196292""
","""event"",""trial"",""time""
""blur"",""34"",""194921""
","""event"",""trial"",""time""
""focus"",""34"",""196292""
","""event"",""trial"",""time""
""fullscreenenter"",""0"",""2073""
","
","294.1000000014901","","","","","","","","49","1,0,1","1","forest","41","probe-99","0.4682626365753936","0.2870466246870877","0.14034224054775452","1","","","","","","","",""
"","html-keyboard-response","177","778098","0.0-98.0-1.0","""event"",""trial"",""time""
""fullscreenenter"",""0"",""2073""
""blur"",""34"",""194921""
""focus"",""34"",""196292""
","""event"",""trial"",""time""
""blur"",""34"",""194921""
","""event"",""trial"",""time""
""focus"",""34"",""196292""
","""event"",""trial"",""time""
""fullscreenenter"",""0"",""2073""
","
","null","<p></p>","null","","","","","","","","","","","","","","","","","","","","","","",""
"","do_trial","178","783212","0.0-99.0-0.0","""event"",""trial"",""time""
""fullscreenenter"",""0"",""2073""
""blur"",""34"",""194921""
""focus"",""34"",""196292""
","""event"",""trial"",""time""
""blur"",""34"",""194921""
","""event"",""trial"",""time""
""focus"",""34"",""196292""
","""event"",""trial"",""time""
""fullscreenenter"",""0"",""2073""
","
","581.3000000007451","","","","","","","","51","0,0,0","1","forest","42","probe-121","0.3449231938870993","0.35142489520259385","0.33675566876360036","0","","","","","","","",""
"","html-keyboard-response","179","784222","0.0-99.0-1.0","""event"",""trial"",""time""
""fullscreenenter"",""0"",""2073""
""blur"",""34"",""194921""
""focus"",""34"",""196292""
","""event"",""trial"",""time""
""blur"",""34"",""194921""
","""event"",""trial"",""time""
""focus"",""34"",""196292""
","""event"",""trial"",""time""
""fullscreenenter"",""0"",""2073""
","
","null","<p></p>","null","","","","","","","","","","","","","","","","","","","","","","",""
"","do_trial","180","789300","0.0-100.0-0.0","""event"",""trial"",""time""
""fullscreenenter"",""0"",""2073""
""blur"",""34"",""194921""
""focus"",""34"",""196292""
","""event"",""trial"",""time""
""blur"",""34"",""194921""
","""event"",""trial"",""time""
""focus"",""34"",""196292""
","""event"",""trial"",""time""
""fullscreenenter"",""0"",""2073""
","
","535.1999999992549","","","","","","","","50","0,0,0","1","forest","43","probe-82","0.3015388310076024","0.13571277590506517","0.5256768443080938","0","","","","","","","",""
"","html-keyboard-response","181","790309","0.0-100.0-1.0","""event"",""trial"",""time""
""fullscreenenter"",""0"",""2073""
""blur"",""34"",""194921""
""focus"",""34"",""196292""
","""event"",""trial"",""time""
""blur"",""34"",""194921""
","""event"",""trial"",""time""
""focus"",""34"",""196292""
","""event"",""trial"",""time""
""fullscreenenter"",""0"",""2073""
","
","null","<p></p>","null","","","","","","","","","","","","","","","","","","","","","","",""
"","do_trial","182","795142","0.0-101.0-0.0","""event"",""trial"",""time""
""fullscreenenter"",""0"",""2073""
""blur"",""34"",""194921""
""focus"",""34"",""196292""
","""event"",""trial"",""time""
""blur"",""34"",""194921""
","""event"",""trial"",""time""
""focus"",""34"",""196292""
","""event"",""trial"",""time""
""fullscreenenter"",""0"",""2073""
","
","277","","","","","","","","49","1,0,1","1","forest","44","probe-230","0.2837486138431654","0.09580125729043759","0.6168499545879905","1","","","","","","","",""
"","html-keyboard-response","183","796158","0.0-101.0-1.0","""event"",""trial"",""time""
""fullscreenenter"",""0"",""2073""
""blur"",""34"",""194921""
""focus"",""34"",""196292""
","""event"",""trial"",""time""
""blur"",""34"",""194921""
","""event"",""trial"",""time""
""focus"",""34"",""196292""
","""event"",""trial"",""time""
""fullscreenenter"",""0"",""2073""
","
","null","<p></p>","null","","","","","","","","","","","","","","","","","","","","","","",""
"","do_trial","184","801152","0.0-102.0-0.0","""event"",""trial"",""time""
""fullscreenenter"",""0"",""2073""
""blur"",""34"",""194921""
""focus"",""34"",""196292""
","""event"",""trial"",""time""
""blur"",""34"",""194921""
","""event"",""trial"",""time""
""focus"",""34"",""196292""
","""event"",""trial"",""time""
""fullscreenenter"",""0"",""2073""
","
","453.9000000022352","","","","","","","","50","0,0,0","1","forest","45","probe-148","0.46105483007313275","0.07594738277403386","0.65019212313401","0","","","","","","","",""
"","html-keyboard-response","185","802163","0.0-102.0-1.0","""event"",""trial"",""time""
""fullscreenenter"",""0"",""2073""
""blur"",""34"",""194921""
""focus"",""34"",""196292""
","""event"",""trial"",""time""
""blur"",""34"",""194921""
","""event"",""trial"",""time""
