"success","trial_type","trial_index","time_elapsed","internal_node_id","interactions","blur_events","focus_events","fullscreenenter_events","fullscreenexit_events","rt","stimulus","key_press","subject_id","participant_id","age","gender","prompt","response","choice_outcomes","context_n","context_img_id","trial_n","probe_img_id","pR_red","pR_white","pR_black","outcome","contextArray_ind","validImageProbes","invalidImageProbes","pRew_Red","pRew_White","pRew_Black","availableForMemProbe","choice_blocks"
"true","fullscreen","0","2294","0.0-0.0","""event"",""trial"",""time""
""fullscreenenter"",""0"",""1304""
","
","
","""event"",""trial"",""time""
""fullscreenenter"",""0"",""1304""
","
","","","","","","","","","","","","","","","","","","","","","","","","","",""
"","pavlovia","1","2298","0.0-1.0","""event"",""trial"",""time""
""fullscreenenter"",""0"",""1304""
","
","
","""event"",""trial"",""time""
""fullscreenenter"",""0"",""1304""
","
","","","","","","","","","","","","","","","","","","","","","","","","","",""
"","instruc1","2","52591","0.0-2.0","""event"",""trial"",""time""
""fullscreenenter"",""0"",""1304""
","
","
","""event"",""trial"",""time""
""fullscreenenter"",""0"",""1304""
","
","null","run_exp/static/audio/clip_1_welcome.m4a","null","1466","1624","21","Male","<div class='center'><p>Welcome! This is the first part of the study. It will last ~30 minutes. In part 1 and part 2 of the study, you are the head captain of a pirate ship traveling around the world to different islands. You will play a few different games throughout these two parts. Here is an overview of them:</p><br><p>Part 1 (today)</p><p>1. Instructions, practice game, and quiz</p><p>2. Pick a pirate game on 6 different islands</p><br><p>Part 2 (tomorrow)</p><p>3. Pick a pirate game and memory game</p><p>4. Where did you see this ship? </p></div>","","","","","","","","","","","","","","","","","",""
"","html-keyboard-response","3","56182","0.0-3.0","""event"",""trial"",""time""
""fullscreenenter"",""0"",""1304""
","
","
","""event"",""trial"",""time""
""fullscreenenter"",""0"",""1304""
","
","3583.2000000178814","<div class='center'><p>Welcome! This is the first part of the study. It will last ~30 minutes. In part 1 and part 2 of the study, you are the head captain of a pirate ship traveling around the world to different islands. You will play a few different games throughout these two parts. Here is an overview of them:</p><br><p>Part 1 (today)</p><p>1. Instructions, practice game, and quiz</p><p>2. Pick a pirate game on 6 different islands</p><br><p>Part 2 (tomorrow)</p><p>3. Pick a pirate game and memory game</p><p>4. Where did you see this ship? </p><p><b>[Press the space bar to continue]</b></p></div>","32","","","","","","","","","","","","","","","","","","","","","","",""
"","instruc2","4","61688","0.0-4.0","""event"",""trial"",""time""
""fullscreenenter"",""0"",""1304""
","
","
","""event"",""trial"",""time""
""fullscreenenter"",""0"",""1304""
","
","null","run_exp/static/audio/clip_2_different_places.m4a","null","","","","","<div class='center'><p>Today, you’ll visit these 6 islands on your journey. You'll be able to see these islands from your ship.</p><p><img src='run_exp/static/images/contexts/all_contexts.png' height='500'></p></div>","","","","","","","","","","","","","","","","","",""
"","html-keyboard-response","5","62749","0.0-5.0","""event"",""trial"",""time""
""fullscreenenter"",""0"",""1304""
","
","
","""event"",""trial"",""time""
""fullscreenenter"",""0"",""1304""
","
","1055.4000000059605","<div class='center'><p>Today, you’ll visit these 6 islands on your journey. You'll be able to see these islands from your ship.</p><p><img src='run_exp/static/images/contexts/all_contexts.png' height='500'></p><p><b>[Press the space bar to continue]</b></p></div>","32","","","","","","","","","","","","","","","","","","","","","","",""
"","instruc3","6","72628","0.0-6.0","""event"",""trial"",""time""
""fullscreenenter"",""0"",""1304""
","
","
","""event"",""trial"",""time""
""fullscreenenter"",""0"",""1304""
","
","null","run_exp/static/audio/clip_3_goal_of_game_1.m4a","null","","","","","<div class='center'><p> The pirates on your ship will rob other ships as they leave the island.</p> These ships have just sold their goods to the islanders, so they will be filled with lots and lots of gold.</p><p><img src='run_exp/static/images/tutorial/ship_center.png' height='400'></p></div>","","","","","","","","","","","","","","","","","",""
"","html-keyboard-response","7","73745","0.0-7.0","""event"",""trial"",""time""
""fullscreenenter"",""0"",""1304""
","
","
","""event"",""trial"",""time""
""fullscreenenter"",""0"",""1304""
","
","1112.4000000059605","<div class='center'><p> The pirates on your ship will rob other ships as they leave the island.</p> These ships have just sold their goods to the islanders, so they will be filled with lots and lots of gold.</p><p><img src='run_exp/static/images/tutorial/ship_center.png' height='400'></p><p><b>[Press the space bar to continue]</b></p></div>","32","","","","","","","","","","","","","","","","","","","","","","",""
"","instruc4","8","101928","0.0-8.0","""event"",""trial"",""time""
""fullscreenenter"",""0"",""1304""
","
","
","""event"",""trial"",""time""
""fullscreenenter"",""0"",""1304""
","
","null","run_exp/static/audio/clip_4_goal_of_game_2.m4a","null","","","","","<div class='center'><p>As the head captain, you do not have to rob any ships yourself. Another pirate will be doing the robbing for you. First, you will choose a pirate to rob the next ship.</p><p><img src='run_exp/static/images/tutorial/pirates_all_crop.png' height='200'></p><p>Then, you'll see if the pirate successfully robbed the ship of their gold. If they were successful, then you'll get a stack of gold coins like this:</p><p><img src='run_exp/static/images/tutorial/reward.png' height='150'></p><p> If they were <b>not</b> successful, then you'll get no gold coins, and you'll see a big red x like this: </p><p><img src='run_exp/static/images/tutorial/reward_no.png' height='150'></p><p> How much bonus money you make is based on how many gold coins you collect.</p><div>","","","","","","","","","","","","","","","","","",""
"","html-keyboard-response","9","103275","0.0-9.0","""event"",""trial"",""time""
""fullscreenenter"",""0"",""1304""
","
","
","""event"",""trial"",""time""
""fullscreenenter"",""0"",""1304""
","
","1336.300000011921","<div class='center'><p>As the head captain, you do not have to rob any ships yourself. Another pirate will be doing the robbing for you. First, you will choose a pirate to rob the next ship.</p><p><img src='run_exp/static/images/tutorial/pirates_all_crop.png' height='200'></p><p>Then, you'll see if the pirate successfully robbed the ship of their gold. If they were successful, then you'll get a stack of gold coins like this:</p><p><img src='run_exp/static/images/tutorial/reward.png' height='150'></p><p> If they were <b>not</b> successful, then you'll get no gold coins, and you'll see a big red x like this: </p><p><img src='run_exp/static/images/tutorial/reward_no.png' height='150'></p><p> How much bonus money you make is based on how many gold coins you collect.</p<p><b>[Press the space bar to continue]</b></p></div>","32","","","","","","","","","","","","","","","","","","","","","","",""
"","instruc5","10","120642","0.0-10.0","""event"",""trial"",""time""
""fullscreenenter"",""0"",""1304""
","
","
","""event"",""trial"",""time""
""fullscreenenter"",""0"",""1304""
","
","17364.40000000596","run_exp/static/audio/clip_5_probabilistic.m4a","49","","","","","<div class='center'><p>Even the most skilled pirate can not rob EVERY ship.</p><p> Some ships will have very strong protections against pirate attacks.</p><p> Blue beard, here, is very, very good at robbing ships, but he won't be successful every time he tries to rob one.</p><p> You can press the <b>‘1’</b> key on the keyboard to choose him.</p><p> Try choosing him 10 times to see how often he succeeds at robbing a ship. </p><p><img src='run_exp/static/images/tutorial/blue.png' height='500'></p></div>","","","","","","","","","","","","","","","","","",""
"","html-keyboard-response","11","122149","0.0-11.0","""event"",""trial"",""time""
""fullscreenenter"",""0"",""1304""
","
","
","""event"",""trial"",""time""
""fullscreenenter"",""0"",""1304""
","
","null","<div class='center'><p><img src='run_exp/static/images/tutorial/blue_win.png' height='500'></p></div>","null","","","","","","","","","","","","","","","","","","","","","","",""
"","html-keyboard-response","12","122737","0.0-12.0","""event"",""trial"",""time""
""fullscreenenter"",""0"",""1304""
","
","
","""event"",""trial"",""time""
""fullscreenenter"",""0"",""1304""
","
","586.2999999821186","<div class='center'><img src='run_exp/static/images/tutorial/blue.png' height='500'></p></div>","49","","","","","","","","","","","","","","","","","","","","","","",""
"","html-keyboard-response","13","124240","0.0-13.0","""event"",""trial"",""time""
""fullscreenenter"",""0"",""1304""
","
","
","""event"",""trial"",""time""
""fullscreenenter"",""0"",""1304""
","
","null","<div class='center'><p><img src='run_exp/static/images/tutorial/blue_win.png' height='500'></p></div>","null","","","","","","","","","","","","","","","","","","","","","","",""
"","html-keyboard-response","14","124437","0.0-14.0","""event"",""trial"",""time""
""fullscreenenter"",""0"",""1304""
","
","
","""event"",""trial"",""time""
""fullscreenenter"",""0"",""1304""
","
","195.30000001192093","<div class='center'><img src='run_exp/static/images/tutorial/blue.png' height='500'></p></div>","49","","","","","","","","","","","","","","","","","","","","","","",""
"","html-keyboard-response","15","125947","0.0-15.0","""event"",""trial"",""time""
""fullscreenenter"",""0"",""1304""
","
","
","""event"",""trial"",""time""
""fullscreenenter"",""0"",""1304""
","
","null","<div class='center'><p><img src='run_exp/static/images/tutorial/blue_win.png' height='500'></p></div>","null","","","","","","","","","","","","","","","","","","","","","","",""
"","html-keyboard-response","16","126066","0.0-16.0","""event"",""trial"",""time""
""fullscreenenter"",""0"",""1304""
","
","
","""event"",""trial"",""time""
""fullscreenenter"",""0"",""1304""
","
","116.5","<div class='center'><img src='run_exp/static/images/tutorial/blue.png' height='500'></p></div>","49","","","","","","","","","","","","","","","","","","","","","","",""
"","html-keyboard-response","17","127587","0.0-17.0","""event"",""trial"",""time""
""fullscreenenter"",""0"",""1304""
","
","
","""event"",""trial"",""time""
""fullscreenenter"",""0"",""1304""
","
","null","<div class='center'><p><img src='run_exp/static/images/tutorial/blue_no_win.png' height='500'></p></div>","null","","","","","","","","","","","","","","","","","","","","","","",""
"","html-keyboard-response","18","127766","0.0-18.0","""event"",""trial"",""time""
""fullscreenenter"",""0"",""1304""
","
","
","""event"",""trial"",""time""
""fullscreenenter"",""0"",""1304""
","
","176.80000001192093","<div class='center'><img src='run_exp/static/images/tutorial/blue.png' height='500'></p></div>","49","","","","","","","","","","","","","","","","","","","","","","",""
"","html-keyboard-response","19","129277","0.0-19.0","""event"",""trial"",""time""
""fullscreenenter"",""0"",""1304""
","
","
","""event"",""trial"",""time""
""fullscreenenter"",""0"",""1304""
","
","null","<div class='center'><p><img src='run_exp/static/images/tutorial/blue_win.png' height='500'></p></div>","null","","","","","","","","","","","","","","","","","","","","","","",""
"","html-keyboard-response","20","129410","0.0-20.0","""event"",""trial"",""time""
""fullscreenenter"",""0"",""1304""
","
","
","""event"",""trial"",""time""
""fullscreenenter"",""0"",""1304""
","
","131.19999998807907","<div class='center'><img src='run_exp/static/images/tutorial/blue.png' height='500'></p></div>","49","","","","","","","","","","","","","","","","","","","","","","",""
"","html-keyboard-response","21","130926","0.0-21.0","""event"",""trial"",""time""
""fullscreenenter"",""0"",""1304""
","
","
","""event"",""trial"",""time""
""fullscreenenter"",""0"",""1304""
","
","null","<div class='center'><p><img src='run_exp/static/images/tutorial/blue_win.png' height='500'></p></div>","null","","","","","","","","","","","","","","","","","","","","","","",""
"","html-keyboard-response","22","131104","0.0-22.0","""event"",""trial"",""time""
""fullscreenenter"",""0"",""1304""
","
","
","""event"",""trial"",""time""
""fullscreenenter"",""0"",""1304""
","
","176.5","<div class='center'><img src='run_exp/static/images/tutorial/blue.png' height='500'></p></div>","49","","","","","","","","","","","","","","","","","","","","","","",""
"","html-keyboard-response","23","132614","0.0-23.0","""event"",""trial"",""time""
""fullscreenenter"",""0"",""1304""
","
","
","""event"",""trial"",""time""
""fullscreenenter"",""0"",""1304""
","
","null","<div class='center'><p><img src='run_exp/static/images/tutorial/blue_win.png' height='500'></p></div>","null","","","","","","","","","","","","","","","","","","","","","","",""
"","html-keyboard-response","24","132749","0.0-24.0","""event"",""trial"",""time""
""fullscreenenter"",""0"",""1304""
","
","
","""event"",""trial"",""time""
""fullscreenenter"",""0"",""1304""
","
","133.90000000596046","<div class='center'><img src='run_exp/static/images/tutorial/blue.png' height='500'></p></div>","49","","","","","","","","","","","","","","","","","","","","","","",""
"","html-keyboard-response","25","134256","0.0-25.0","""event"",""trial"",""time""
""fullscreenenter"",""0"",""1304""
","
","
","""event"",""trial"",""time""
""fullscreenenter"",""0"",""1304""
","
","null","<div class='center'><p><img src='run_exp/static/images/tutorial/blue_no_win.png' height='500'></p></div>","null","","","","","","","","","","","","","","","","","","","","","","",""
"","html-keyboard-response","26","134402","0.0-26.0","""event"",""trial"",""time""
""fullscreenenter"",""0"",""1304""
","
","
","""event"",""trial"",""time""
""fullscreenenter"",""0"",""1304""
","
","143.5","<div class='center'><img src='run_exp/static/images/tutorial/blue.png' height='500'></p></div>","49","","","","","","","","","","","","","","","","","","","","","","",""
"","html-keyboard-response","27","135912","0.0-27.0","""event"",""trial"",""time""
""fullscreenenter"",""0"",""1304""
","
","
","""event"",""trial"",""time""
""fullscreenenter"",""0"",""1304""
","
","null","<div class='center'><p><img src='run_exp/static/images/tutorial/blue_win.png' height='500'></p></div>","null","","","","","","","","","","","","","","","","","","","","","","",""
"","html-keyboard-response","28","136019","0.0-28.0","""event"",""trial"",""time""
""fullscreenenter"",""0"",""1304""
","
","
","""event"",""trial"",""time""
""fullscreenenter"",""0"",""1304""
","
","105.2999999821186","<div class='center'><img src='run_exp/static/images/tutorial/blue.png' height='500'></p></div>","49","","","","","","","","","","","","","","","","","","","","","","",""
"","html-keyboard-response","29","137522","0.0-29.0","""event"",""trial"",""time""
""fullscreenenter"",""0"",""1304""
","
","
","""event"",""trial"",""time""
""fullscreenenter"",""0"",""1304""
","
","null","<div class='center'><p><img src='run_exp/static/images/tutorial/blue_win.png' height='500'></p></div>","null","","","","","","","","","","","","","","","","","","","","","","",""
"","instruc6","30","143107","0.0-30.0","""event"",""trial"",""time""
""fullscreenenter"",""0"",""1304""
","
","
","""event"",""trial"",""time""
""fullscreenenter"",""0"",""1304""
","
","null","run_exp/static/audio/clip_6_blue_beard_outcome.m4a","null","","","","","<div class='center'><p> See, he succeeded in robbing the ships most of the time but not every time. </p></div>","","","","","","","","","","","","","","","","","",""
"","html-keyboard-response","31","144816","0.0-31.0","""event"",""trial"",""time""
""fullscreenenter"",""0"",""1304""
","
","
","""event"",""trial"",""time""
""fullscreenenter"",""0"",""1304""
","
","1706","<div class='center'><p> See, he succeeded in robbing the ships most of the time but not every time. </p><p><b>[Press the space bar to continue]</b></p></div>","32","","","","","","","","","","","","","","","","","","","","","","",""
"","audio-keyboard-response","32","152275","0.0-32.0","""event"",""trial"",""time""
""fullscreenenter"",""0"",""1304""
","
","
","""event"",""trial"",""time""
""fullscreenenter"",""0"",""1304""
","
","7456.199999988079","run_exp/static/audio/clip_7_pick_pirate.m4a","49","","","","","","","","","","","","","","","","","","","","","","",""
"","audio-keyboard-response","33","153902","0.0-33.0-0.0","""event"",""trial"",""time""
""fullscreenenter"",""0"",""1304""
","
","
","""event"",""trial"",""time""
""fullscreenenter"",""0"",""1304""
","
","1621.699999988079","run_exp/static/audio/clip_8_chosen_pirate_win.m4a","32","","","","","","","","","","","","","","","","","","","","","","",""
"","audio-keyboard-response","34","154327","0.0-33.0-1.0","""event"",""trial"",""time""
""fullscreenenter"",""0"",""1304""
","
","
","""event"",""trial"",""time""
""fullscreenenter"",""0"",""1304""
","
","422.19999998807907","run_exp/static/audio/clip_9_pick_a_pirate_again.m4a","50","","","","","","","","","","","","","","","","","","","","","","",""
"","audio-keyboard-response","35","155319","0.0-34.0-0.0","""event"",""trial"",""time""
""fullscreenenter"",""0"",""1304""
","
","
","""event"",""trial"",""time""
""fullscreenenter"",""0"",""1304""
","
","987.7000000178814","run_exp/static/audio/clip_10_chosen_pirate_loss.m4a","32","","","","","","","","","","","","","","","","","","","","","","",""
"","instruc9","36","160987","0.0-35.0-0.0","""event"",""trial"",""time""
""fullscreenenter"",""0"",""1304""
","
","
","""event"",""trial"",""time""
""fullscreenenter"",""0"",""1304""
","
","null","run_exp/static/audio/clip_11_time_out.m4a","null","","","","","<div class='center'><p>If you don’t make your choice fast enough, you’ll have to wait a few seconds before you can make another one. </p><p><img src='run_exp/static/images/miscellaneous/hurry_up.png' height='500'></p></div>","","","","","","","","","","","","","","","","","",""
"","html-keyboard-response","37","161730","0.0-35.0-1.0","""event"",""trial"",""time""
""fullscreenenter"",""0"",""1304""
","
","
","""event"",""trial"",""time""
""fullscreenenter"",""0"",""1304""
","
","735","<div class='center'><p>If you don’t make your choice fast enough, you’ll have to wait a few seconds before you can make another one. </p><p><img src='run_exp/static/images/miscellaneous/hurry_up.png' height='500'></p><p><b>[Press the space bar to continue]</b></p></div>","32","","","","","","","","","","","","","","","","","","","","","","",""
"","instruc10","38","201008","0.0-35.0-2.0","""event"",""trial"",""time""
""fullscreenenter"",""0"",""1304""
","
","
","""event"",""trial"",""time""
""fullscreenenter"",""0"",""1304""
","
","null","run_exp/static/audio/clip_12_probe.m4a","null","","","","","<div class='center'><p>Once you've chosen a pirate, you’ll be shown the ship they are robbing. You will never rob the same ship twice. Ships can be told apart from one another by the image on them. These are the goods that they sell. See, this ship has a travel mug on it. </p><p> You’ll have to remember which island you saw each ship on. You will win more gold coins and hence more bonus money if you remember correctly! To help you remember, you can imagine a story. For example, here, you could imagine a mug full of water in the desert. Or, as another example, if on the forest island, your pirate robbed a ship with an apple on it, you could imagine an apple falling from a tree in the forest. </p><p><img src='run_exp/static/images/tutorial/example_probe.png' height='500'></p></div>","","","","","","","","","","","","","","","","","",""
"","html-keyboard-response","39","201489","0.0-35.0-3.0","""event"",""trial"",""time""
""fullscreenenter"",""0"",""1304""
","
","
","""event"",""trial"",""time""
""fullscreenenter"",""0"",""1304""
","
","476.2999999821186","<div class='center'><p>Once you've chosen a pirate, you’ll be shown the ship they are robbing. You will never rob the same ship twice. Ships can be told apart from one another by the image on them. These are the goods that they sell. See, this ship has a travel mug on it. </p><p> You’ll have to remember which island you saw each ship on. You will win more gold coins and hence more bonus money if you remember correctly! To help you remember, you can imagine a story. For example, here, you could imagine a mug full of water in the desert. Or, as another example, if on the forest island, your pirate robbed a ship with an apple on it, you could imagine an apple falling from a tree in the forest. </p><p><img src='run_exp/static/images/tutorial/example_probe.png' height='500'></p><p><b>[Press the space bar to continue]</b></p></div>","32","","","","","","","","","","","","","","","","","","","","","","",""
"","instruc11","40","218088","0.0-35.0-4.0","""event"",""trial"",""time""
""fullscreenenter"",""0"",""1304""
","
","
","""event"",""trial"",""time""
""fullscreenenter"",""0"",""1304""
","
","null","run_exp/static/audio/clip_13_changepoint.m4a","null","","","","","<div class='center'><p>How successful a pirate is at robbing ships will depend on the island you’re on.</p><p> A pirate may have visited this island many times before and gained a lot of practice robbing ships there.</p><p>So, they’re more likely to be successful than a pirate who has never visited the island before.</p></div>","","","","","","","","","","","","","","","","","",""
"","html-keyboard-response","41","218661","0.0-35.0-5.0","""event"",""trial"",""time""
""fullscreenenter"",""0"",""1304""
","
","
","""event"",""trial"",""time""
""fullscreenenter"",""0"",""1304""
","
","571.3000000119209","<div class='center'><p>How successful a pirate is at robbing ships will depend on the island you’re on.</p><p> A pirate may have visited this island many times before and gained a lot of practice robbing ships there.</p><p>So, they’re more likely to be successful than a pirate who has never visited the island before.</p><p><b>[Press the space bar to continue]</b></p></div>","32","","","","","","","","","","","","","","","","","","","","","","",""
"","instruc12","42","259948","0.0-35.0-6.0","""event"",""trial"",""time""
""fullscreenenter"",""0"",""1304""
","
","
","""event"",""trial"",""time""
""fullscreenenter"",""0"",""1304""
","
","null","run_exp/static/audio/clip_14_drift.m4a","null","","","","","<div class='center'><p>How successful a pirate is at robbing ships can also change over the time spent on the island. </p><p> Ships may hear from islanders about the pirates coming and will improve their protections against the attack. This may make it harder to rob them.</p><p> Ships may also become lazy and weaken the strength of their protections. This may make it easier to rob them.</p><br><p>Things are always changing on the high seas! So, try your best to pay attention!</p><p><img src='run_exp/static/images/tutorial/contingency.png' height='500'></p></div>","","","","","","","","","","","","","","","","","",""
"","html-keyboard-response","43","262239","0.0-35.0-7.0","""event"",""trial"",""time""
""fullscreenenter"",""0"",""1304""
","
","
","""event"",""trial"",""time""
""fullscreenenter"",""0"",""1304""
","
","2288.199999988079","<div class='center'><p>How successful a pirate is at robbing ships can also change over the time spent on the island. </p><p> Ships may hear from islanders about the pirates coming and will improve their protections against the attack. This may make it harder to rob them.</p><p> Ships may also become lazy and weaken the strength of their protections. This may make it easier to rob them.</p><br><p>Things are always changing on the high seas! So, try your best to pay attention!</p><p><img src='run_exp/static/images/tutorial/contingency.png' height='500'></p><p><b>[Press the space bar to continue]</b></p></div>","32","","","","","","","","","","","","","","","","","","","","","","",""
"","instruc13","44","297608","0.0-35.0-8.0","""event"",""trial"",""time""
""fullscreenenter"",""0"",""1304""
","
","
","""event"",""trial"",""time""
""fullscreenenter"",""0"",""1304""
","
","null","run_exp/static/audio/clip_15_summary.m4a","null","","","","","<div class='center'><p>Let's go over the instructions quickly again. You have two important things to do: </p><b><p> 1. Pick the pirate who is the best at robbing ships on the current island. </p></b><b><p> 2. Remember on which island a ship was robbed.</p> </b><p>The amount of bonus money you can win depends on both.</p><p><br><p>Let’s try a practice game. The game will start by showing you the pirates. First, pick a pirate using the <b> 1, 2, 3 </b> keys on your keyboard. When you are shown a ship, try to remember which island you’re on by making up a story.</p><p>This is just a practice game, so you’re not playing for money. </p><p> Good luck! This game will be very difficult but try your best!</p></div>","","","","","","","","","","","","","","","","","",""
"","html-keyboard-response","45","298147","0.0-35.0-9.0","""event"",""trial"",""time""
""fullscreenenter"",""0"",""1304""
","
","
","""event"",""trial"",""time""
""fullscreenenter"",""0"",""1304""
","
","536.9000000059605","<div class='center'><p>Let's go over the instructions quickly again. You have two important things to do: </p><b><p> 1. Pick the pirate who is the best at robbing ships on the current island. </p></b><b><p> 2. Remember on which island a ship was robbed.</p> </b><p>The amount of bonus money you can win depends on both.</p><p><br><p>Let’s try a practice game. The game will start by showing you the pirates. First, pick a pirate using the <b> 1, 2, 3 </b> keys on your keyboard. When you are shown a ship, try to remember which island you’re on by making up a story.</p><p>This is just a practice game, so you’re not playing for money. </p><p> Good luck! This game will be very difficult but try your best!</p><p><b>[Press the space bar to continue]</b></p></div>","32","","","","","","","","","","","","","","","","","","","","","","",""
"","do_welcome","46","302179","0.0-35.0-10.0","""event"",""trial"",""time""
""fullscreenenter"",""0"",""1304""
","
","
","""event"",""trial"",""time""
""fullscreenenter"",""0"",""1304""
","
","null","","","","","","","","null","","","","","","","","","","","","","","","","",""
"","do_trial","47","307656","0.0-35.0-11.0","""event"",""trial"",""time""
""fullscreenenter"",""0"",""1304""
","
","
","""event"",""trial"",""time""
""fullscreenenter"",""0"",""1304""
","
","958.5999999940395","","","","","","","","49","1,0,0","","","","","","","","","","","","","","","",""
"","html-keyboard-response","48","308676","0.0-36.0-0.0","""event"",""trial"",""time""
""fullscreenenter"",""0"",""1304""
","
","
","""event"",""trial"",""time""
""fullscreenenter"",""0"",""1304""
","
","null","<p></p>","null","","","","","","","","","","","","","","","","","","","","","","",""
"","do_trial","49","315223","0.0-36.0-1.0","""event"",""trial"",""time""
""fullscreenenter"",""0"",""1304""
","
","
","""event"",""trial"",""time""
""fullscreenenter"",""0"",""1304""
","
","2018.5","","","","","","","","49","1,1,0","","","","","","","","","","","","","","","",""
"","html-keyboard-response","50","316237","0.0-37.0-0.0","""event"",""trial"",""time""
""fullscreenenter"",""0"",""1304""
","
","
","""event"",""trial"",""time""
""fullscreenenter"",""0"",""1304""
","
","null","<p></p>","null","","","","","","","","","","","","","","","","","","","","","","",""
"","do_trial","51","321720","0.0-37.0-1.0","""event"",""trial"",""time""
""fullscreenenter"",""0"",""1304""
","
","
","""event"",""trial"",""time""
""fullscreenenter"",""0"",""1304""
","
","954.7000000178814","","","","","","","","49","1,0,1","","","","","","","","","","","","","","","",""
"","html-keyboard-response","52","322733","0.0-38.0-0.0","""event"",""trial"",""time""
""fullscreenenter"",""0"",""1304""
","
","
","""event"",""trial"",""time""
""fullscreenenter"",""0"",""1304""
","
","null","<p></p>","null","","","","","","","","","","","","","","","","","","","","","","",""
"","do_trial","53","327878","0.0-38.0-1.0","""event"",""trial"",""time""
""fullscreenenter"",""0"",""1304""
","
","
","""event"",""trial"",""time""
""fullscreenenter"",""0"",""1304""
","
","624.6999999880791","","","","","","","","49","0,1,0","","","","","","","","","","","","","","","",""
"","html-keyboard-response","54","328888","0.0-39.0-0.0","""event"",""trial"",""time""
""fullscreenenter"",""0"",""1304""
","
","
","""event"",""trial"",""time""
""fullscreenenter"",""0"",""1304""
","
","null","<p></p>","null","","","","","","","","","","","","","","","","","","","","","","",""
"","do_trial","55","333866","0.0-39.0-1.0","""event"",""trial"",""time""
""fullscreenenter"",""0"",""1304""
","
","
","""event"",""trial"",""time""
""fullscreenenter"",""0"",""1304""
","
","453.59999999403954","","","","","","","","49","1,0,0","","","","","","","","","","","","","","","",""
"","do_bye","56","335383","0.0-40.0-0.0","""event"",""trial"",""time""
""fullscreenenter"",""0"",""1304""
","
","
","""event"",""trial"",""time""
""fullscreenenter"",""0"",""1304""
","
","null","","","","","","","","null","","","","","","","","","","","","","","","","",""
"","do_travel","57","344401","0.0-40.0-1.0","""event"",""trial"",""time""
""fullscreenenter"",""0"",""1304""
","
","
","""event"",""trial"",""time""
""fullscreenenter"",""0"",""1304""
","
","null","","","","","","","","null","","","","","","","","","","","","","","","","",""
"","do_welcome","58","348430","0.0-40.0-2.0","""event"",""trial"",""time""
""fullscreenenter"",""0"",""1304""
","
","
","""event"",""trial"",""time""
""fullscreenenter"",""0"",""1304""
","
","null","","","","","","","","null","","","","","","","","","","","","","","","","",""
"","do_trial","59","353902","0.0-40.0-3.0","""event"",""trial"",""time""
""fullscreenenter"",""0"",""1304""
","
","
","""event"",""trial"",""time""
""fullscreenenter"",""0"",""1304""
","
","951.5999999940395","","","","","","","","50","1,0,0","","","","","","","","","","","","","","","",""
"","html-keyboard-response","60","354906","0.0-41.0-0.0","""event"",""trial"",""time""
""fullscreenenter"",""0"",""1304""
","
","
","""event"",""trial"",""time""
""fullscreenenter"",""0"",""1304""
","
","null","<p></p>","null","","","","","","","","","","","","","","","","","","","","","","",""
"","do_trial","61","359983","0.0-41.0-1.0","""event"",""trial"",""time""
""fullscreenenter"",""0"",""1304""
","
","
","""event"",""trial"",""time""
""fullscreenenter"",""0"",""1304""
","
","545.2000000178814","","","","","","","","51","1,0,1","","","","","","","","","","","","","","","",""
"","html-keyboard-response","62","360999","0.0-42.0-0.0","""event"",""trial"",""time""
""fullscreenenter"",""0"",""1304""
","
","
","""event"",""trial"",""time""
""fullscreenenter"",""0"",""1304""
","
","null","<p></p>","null","","","","","","","","","","","","","","","","","","","","","","",""
"","do_trial","63","366421","0.0-42.0-1.0","""event"",""trial"",""time""
""fullscreenenter"",""0"",""1304""
","
","
","""event"",""trial"",""time""
""fullscreenenter"",""0"",""1304""
","
","905.9000000059605","","","","","","","","51","1,1,0","","","","","","","","","","","","","","","",""
"","html-keyboard-response","64","367431","0.0-43.0-0.0","""event"",""trial"",""time""
""fullscreenenter"",""0"",""1304""
","
","
","""event"",""trial"",""time""
""fullscreenenter"",""0"",""1304""
","
","null","<p></p>","null","","","","","","","","","","","","","","","","","","","","","","",""
"","do_trial","65","372353","0.0-43.0-1.0","""event"",""trial"",""time""
""fullscreenenter"",""0"",""1304""
","
","
","""event"",""trial"",""time""
""fullscreenenter"",""0"",""1304""
","
","407.30000001192093","","","","","","","","51","0,0,1","","","","","","","","","","","","","","","",""
"","html-keyboard-response","66","373364","0.0-44.0-0.0","""event"",""trial"",""time""
""fullscreenenter"",""0"",""1304""
","
","
","""event"",""trial"",""time""
""fullscreenenter"",""0"",""1304""
","
","null","<p></p>","null","","","","","","","","","","","","","","","","","","","","","","",""
"","do_trial","67","378108","0.0-44.0-1.0","""event"",""trial"",""time""
""fullscreenenter"",""0"",""1304""
","
","
","""event"",""trial"",""time""
""fullscreenenter"",""0"",""1304""
","
","228.7000000178814","","","","","","","","51","1,0,1","","","","","","","","","","","","","","","",""
"","html-keyboard-response","68","381804","0.0-45.0-0.0","""event"",""trial"",""time""
""fullscreenenter"",""0"",""1304""
","
","
","""event"",""trial"",""time""
""fullscreenenter"",""0"",""1304""
","
","3692.5","<div class='center'><p><img src='run_exp/static/images/tutorial/prac_best_pirate.png'  height='500'></p></div>","49","","","","","","","","","","","","","","","","","","","","","","",""
"","html-keyboard-response","69","383260","0.0-46.0-0.0","""event"",""trial"",""time""
""fullscreenenter"",""0"",""1304""
","
","
","""event"",""trial"",""time""
""fullscreenenter"",""0"",""1304""
","
","1458.5","<div class='center'><p>That's correct! Red beard was the best.</p><p><b>[Press the space bar to continue]</b></p></div>","32","","","","","","","","","","","","","","","","","","","","","","",""
"","html-keyboard-response","70","386659","0.0-46.0-1.0","""event"",""trial"",""time""
""fullscreenenter"",""0"",""1304""
","
","
","""event"",""trial"",""time""
""fullscreenenter"",""0"",""1304""
","
","3397.100000023842","<div class='center'><p><img src='run_exp/static/images/tutorial/prac_source.png'  height='500'></p></div>","50","","","","","","","","","","","","","","","","","","","","","","",""
"","html-keyboard-response","71","388352","0.0-47.0-0.0","""event"",""trial"",""time""
""fullscreenenter"",""0"",""1304""
","
","
","""event"",""trial"",""time""
""fullscreenenter"",""0"",""1304""
","
","1691.0999999940395","<div class='center'><p>That's correct! You saw this ship on the cavern island.</p><p><b>[Press the space bar to continue]</b></p></div>","32","","","","","","","","","","","","","","","","","","","","","","",""
"","quiz_beginning","72","404735","0.0-47.0-1.0","""event"",""trial"",""time""
""fullscreenenter"",""0"",""1304""
","
","
","""event"",""trial"",""time""
""fullscreenenter"",""0"",""1304""
","
","null","run_exp/static/audio/clip_16_quiz_intro.m4a","null","","","","","<div class='center'><p>Good job on the practice game! Now, you will be asked some true or false questions to make sure you really understand the rules of the game.</p><p> Press <b>'1'</b> on the keyboard for true and press <b>'2'</b> for false.</p></div>","","","","","","","","","","","","","","","","","",""
"","audio-keyboard-response","73","408698","0.0-47.0-2.0","""event"",""trial"",""time""
""fullscreenenter"",""0"",""1304""
","
","
","""event"",""trial"",""time""
""fullscreenenter"",""0"",""1304""
","
","3960.4000000059605","run_exp/static/audio/clip_17_q1.m4a","49","","","","","","","","","","","","","","","","","","","","","","",""
"","correct","74","411295","0.0-48.0-0.0","""event"",""trial"",""time""
""fullscreenenter"",""0"",""1304""
","
","
","""event"",""trial"",""time""
""fullscreenenter"",""0"",""1304""
","
","null","run_exp/static/audio/clip_18_correct.m4a","null","","","","","<div class='center'><p>That's correct!</p></div>","","","","","","","","","","","","","","","","","",""
"","html-keyboard-response","75","411903","0.0-48.0-1.0","""event"",""trial"",""time""
""fullscreenenter"",""0"",""1304""
","
","
","""event"",""trial"",""time""
""fullscreenenter"",""0"",""1304""
","
","606.5999999940395","<div class='center'><p>That's correct!</p><p><b>[Press the space bar to continue]</b></p></div>","32","","","","","","","","","","","","","","","","","","","","","","",""
"","audio-keyboard-response","76","416709","0.0-48.0-2.0","""event"",""trial"",""time""
""fullscreenenter"",""0"",""1304""
","
","
","""event"",""trial"",""time""
""fullscreenenter"",""0"",""1304""
","
","4804.100000023842","run_exp/static/audio/clip_20_q2.m4a","50","","","","","","","","","","","","","","","","","","","","","","",""
"","correct","77","419255","0.0-49.0-0.0","""event"",""trial"",""time""
""fullscreenenter"",""0"",""1304""
","
","
","""event"",""trial"",""time""
""fullscreenenter"",""0"",""1304""
","
","null","run_exp/static/audio/clip_18_correct.m4a","null","","","","","<div class='center'><p>That's correct!</p></div>","","","","","","","","","","","","","","","","","",""
"","html-keyboard-response","78","419766","0.0-49.0-1.0","""event"",""trial"",""time""
""fullscreenenter"",""0"",""1304""
","
","
","""event"",""trial"",""time""
""fullscreenenter"",""0"",""1304""
","
","509.40000000596046","<div class='center'><p>That's correct!</p><p><b>[Press the space bar to continue]</b></p></div>","32","","","","","","","","","","","","","","","","","","","","","","",""
"","audio-keyboard-response","79","422741","0.0-49.0-2.0","""event"",""trial"",""time""
""fullscreenenter"",""0"",""1304""
","
","
","""event"",""trial"",""time""
""fullscreenenter"",""0"",""1304""
","
","2973.4000000059605","run_exp/static/audio/clip_22_q3.m4a","50","","","","","","","","","","","","","","","","","","","","","","",""
"","correct","80","425275","0.0-50.0-0.0","""event"",""trial"",""time""
""fullscreenenter"",""0"",""1304""
","
","
","""event"",""trial"",""time""
""fullscreenenter"",""0"",""1304""
","
","null","run_exp/static/audio/clip_18_correct.m4a","null","","","","","<div class='center'><p>That's correct!</p></div>","","","","","","","","","","","","","","","","","",""
"","html-keyboard-response","81","425759","0.0-50.0-1.0","""event"",""trial"",""time""
""fullscreenenter"",""0"",""1304""
","
","
","""event"",""trial"",""time""
""fullscreenenter"",""0"",""1304""
","
","482.5","<div class='center'><p>That's correct!</p><p><b>[Press the space bar to continue]</b></p></div>","32","","","","","","","","","","","","","","","","","","","","","","",""
"","audio-keyboard-response","82","428079","0.0-50.0-2.0","""event"",""trial"",""time""
""fullscreenenter"",""0"",""1304""
","
","
","""event"",""trial"",""time""
""fullscreenenter"",""0"",""1304""
","
","2318.699999988079","run_exp/static/audio/clip_24_q4.m4a","49","","","","","","","","","","","","","","","","","","","","","","",""
"","correct","83","430676","0.0-51.0-0.0","""event"",""trial"",""time""
""fullscreenenter"",""0"",""1304""
","
","
","""event"",""trial"",""time""
""fullscreenenter"",""0"",""1304""
","
","null","run_exp/static/audio/clip_18_correct.m4a","null","","","","","<div class='center'><p>That's correct!</p></div>","","","","","","","","","","","","","","","","","",""
"","html-keyboard-response","84","431144","0.0-51.0-1.0","""event"",""trial"",""time""
""fullscreenenter"",""0"",""1304""
","
","
","""event"",""trial"",""time""
""fullscreenenter"",""0"",""1304""
","
","466.40000000596046","<div class='center'><p>That's correct!</p><p><b>[Press the space bar to continue]</b></p></div>","32","","","","","","","","","","","","","","","","","","","","","","",""
"","q_all_corr","85","439836","0.0-52.0-0.0","""event"",""trial"",""time""
""fullscreenenter"",""0"",""1304""
","
","
","""event"",""trial"",""time""
""fullscreenenter"",""0"",""1304""
","
","null","run_exp/static/audio/clip_27_quiz_all_correct.m4a","null","","","","","<div class='center'><p>Good job! You’re now ready to move on to the real game! Remember this game will be difficult but don't get discouraged and try your best!</p></div>","","","","","","","","","","","","","","","","","",""
"","html-keyboard-response","86","440295","0.0-52.0-1.0","""event"",""trial"",""time""
""fullscreenenter"",""0"",""1304""
","
","
","""event"",""trial"",""time""
""fullscreenenter"",""0"",""1304""
","
","448.90000000596046","<div class='center'><p>Good job! You’re now ready to move on to the real game! Remember this game will be difficult but don't get discouraged and try your best!</p><p><b>[Press the space bar to continue]</b></p></div>","32","","","","","","","","","","","","","","","","","","","","","","",""
"","do_welcome","87","444315","0.0-53.0-0.0","""event"",""trial"",""time""
""fullscreenenter"",""0"",""1304""
","
","
","""event"",""trial"",""time""
""fullscreenenter"",""0"",""1304""
","
","null","","","","","","","","null","","","","","","","","","","","","","","","","",""
"","do_trial","88","449769","0.0-54.0-0.0","""event"",""trial"",""time""
""fullscreenenter"",""0"",""1304""
","
","
","""event"",""trial"",""time""
""fullscreenenter"",""0"",""1304""
","
","879.4000000059605","","","","","","","","49","0,0,0","0","highway","0","probe-96","0.6","0.3","0.1","0","","","","","","","",""
"","html-keyboard-response","89","450789","0.0-54.0-1.0","""event"",""trial"",""time""
""fullscreenenter"",""0"",""1304""
","
","
","""event"",""trial"",""time""
""fullscreenenter"",""0"",""1304""
","
","null","<p></p>","null","","","","","","","","","","","","","","","","","","","","","","",""
"","do_trial","90","455773","0.0-55.0-0.0","""event"",""trial"",""time""
""fullscreenenter"",""0"",""1304""
","
","
","""event"",""trial"",""time""
""fullscreenenter"",""0"",""1304""
","
","382.89999997615814","","","","","","","","49","1,0,0","0","highway","1","probe-45","0.7507422944356208","0.2740958529948297","0.147920370804157","1","","","","","","","",""
"","html-keyboard-response","91","456790","0.0-55.0-1.0","""event"",""trial"",""time""
""fullscreenenter"",""0"",""1304""
","
","
","""event"",""trial"",""time""
""fullscreenenter"",""0"",""1304""
","
","null","<p></p>","null","","","","","","","","","","","","","","","","","","","","","","",""
"","do_trial","92","461857","0.0-56.0-0.0","""event"",""trial"",""time""
""fullscreenenter"",""0"",""1304""
","
","
","""event"",""trial"",""time""
""fullscreenenter"",""0"",""1304""
","
","497.40000000596046","","","","","","","","49","1,0,1","0","highway","2","probe-100","0.6374965118033248","0.41384649107181576","0.17001742592446217","1","","","","","","","",""
"","html-keyboard-response","93","462869","0.0-56.0-1.0","""event"",""trial"",""time""
""fullscreenenter"",""0"",""1304""
","
","
","""event"",""trial"",""time""
""fullscreenenter"",""0"",""1304""
","
","null","<p></p>","null","","","","","","","","","","","","","","","","","","","","","","",""
"","do_trial","94","468799","0.0-57.0-0.0","""event"",""trial"",""time""
""fullscreenenter"",""0"",""1304""
","
","
","""event"",""trial"",""time""
""fullscreenenter"",""0"",""1304""
","
","1355","","","","","","","","49","1,0,0","0","highway","3","probe-191","0.6260861324455422","0.5142409922680926","0.12898660992615268","1","","","","","","","",""
"","html-keyboard-response","95","469812","0.0-57.0-1.0","""event"",""trial"",""time""
""fullscreenenter"",""0"",""1304""
","
","
","""event"",""trial"",""time""
""fullscreenenter"",""0"",""1304""
","
","null","<p></p>","null","","","","","","","","","","","","","","","","","","","","","","",""
"","do_trial","96","474996","0.0-58.0-0.0","""event"",""trial"",""time""
""fullscreenenter"",""0"",""1304""
","
","
","""event"",""trial"",""time""
""fullscreenenter"",""0"",""1304""
","
","621.6999999880791","","","","","","","","49","1,1,0","0","highway","4","probe-107","0.5585623245420537","0.41289719543534065","0.08847684375780912","1","","","","","","","",""
"","html-keyboard-response","97","476012","0.0-58.0-1.0","""event"",""trial"",""time""
""fullscreenenter"",""0"",""1304""
","
","
","""event"",""trial"",""time""
""fullscreenenter"",""0"",""1304""
","
","null","<p></p>","null","","","","","","","","","","","","","","","","","","","","","","",""
"","do_trial","98","481167","0.0-59.0-0.0","""event"",""trial"",""time""
""fullscreenenter"",""0"",""1304""
","
","
","""event"",""trial"",""time""
""fullscreenenter"",""0"",""1304""
","
","578.6999999880791","","","","","","","","49","1,0,0","0","highway","5","probe-42","0.5073058338738136","0.40743222942021534","0.11251978961739773","1","","","","","","","",""
"","html-keyboard-response","99","482178","0.0-59.0-1.0","""event"",""trial"",""time""
""fullscreenenter"",""0"",""1304""
","
","
","""event"",""trial"",""time""
""fullscreenenter"",""0"",""1304""
","
","null","<p></p>","null","","","","","","","","","","","","","","","","","","","","","","",""
"","do_trial","100","487241","0.0-60.0-0.0","""event"",""trial"",""time""
""fullscreenenter"",""0"",""1304""
","
","
","""event"",""trial"",""time""
""fullscreenenter"",""0"",""1304""
","
","481","","","","","","","","49","0,0,0","0","highway","6","probe-128","0.6323460621549475","0.4229316814854169","0.12424758722257037","0","","","","","","","",""
"","html-keyboard-response","101","488248","0.0-60.0-1.0","""event"",""trial"",""time""
""fullscreenenter"",""0"",""1304""
","
","
","""event"",""trial"",""time""
""fullscreenenter"",""0"",""1304""
","
","null","<p></p>","null","","","","","","","","","","","","","","","","","","","","","","",""
"","do_trial","102","493187","0.0-61.0-0.0","""event"",""trial"",""time""
""fullscreenenter"",""0"",""1304""
","
","
","""event"",""trial"",""time""
""fullscreenenter"",""0"",""1304""
","
","364.5","","","","","","","","49","0,0,0","0","highway","7","probe-22","0.4334816522048039","0.38874609099606633","0.05014831665969078","0","","","","","","","",""
"","html-keyboard-response","103","494199","0.0-61.0-1.0","""event"",""trial"",""time""
""fullscreenenter"",""0"",""1304""
","
","
","""event"",""trial"",""time""
""fullscreenenter"",""0"",""1304""
","
","null","<p></p>","null","","","","","","","","","","","","","","","","","","","","","","",""
"","do_trial","104","499052","0.0-62.0-0.0","""event"",""trial"",""time""
""fullscreenenter"",""0"",""1304""
","
","
","""event"",""trial"",""time""
""fullscreenenter"",""0"",""1304""
","
","284.40000000596046","","","","","","","","49","1,0,0","0","highway","8","probe-05","0.49927130334225384","0.4774463380165601","0.0907409086081696","1","","","","","","","",""
"","html-keyboard-response","105","500066","0.0-62.0-1.0","""event"",""trial"",""time""
""fullscreenenter"",""0"",""1304""
","
","
","""event"",""trial"",""time""
""fullscreenenter"",""0"",""1304""
","
","null","<p></p>","null","","","","","","","","","","","","","","","","","","","","","","",""
"","do_trial","106","504854","0.0-63.0-0.0","""event"",""trial"",""time""
""fullscreenenter"",""0"",""1304""
","
","
","""event"",""trial"",""time""
""fullscreenenter"",""0"",""1304""
","
","217.5","","","","","","","","49","0,1,0","0","highway","9","probe-114","0.5523843357832443","0.3908365844482029","0.19763505178566435","0","","","","","","","",""
"","html-keyboard-response","107","505868","0.0-63.0-1.0","""event"",""trial"",""time""
""fullscreenenter"",""0"",""1304""
","
","
","""event"",""trial"",""time""
""fullscreenenter"",""0"",""1304""
","
","null","<p></p>","null","","","","","","","","","","","","","","","","","","","","","","",""
"","do_trial","108","510438","0.0-64.0-0.0","""event"",""trial"",""time""
""fullscreenenter"",""0"",""1304""
","
","
","""event"",""trial"",""time""
""fullscreenenter"",""0"",""1304""
","
","0.09999999403953552","","","","","","","","49","1,0,0","0","highway","10","probe-48","0.5960223062044006","0.3588924167018279","0.08424683359515843","1","","","","","","","",""
"","html-keyboard-response","109","511450","0.0-64.0-1.0","""event"",""trial"",""time""
""fullscreenenter"",""0"",""1304""
","
","
","""event"",""trial"",""time""
""fullscreenenter"",""0"",""1304""
","
","null","<p></p>","null","","","","","","","","","","","","","","","","","","","","","","",""
"","do_trial","110","516318","0.0-65.0-0.0","""event"",""trial"",""time""
""fullscreenenter"",""0"",""1304""
","
","
","""event"",""trial"",""time""
""fullscreenenter"",""0"",""1304""
","
","307.40000000596046","","","","","","","","49","0,1,0","0","highway","11","probe-21","0.7293273468153391","0.2565222185629161","0.22739080763482886","0","","","","","","","",""
"","html-keyboard-response","111","517330","0.0-65.0-1.0","""event"",""trial"",""time""
""fullscreenenter"",""0"",""1304""
","
","
","""event"",""trial"",""time""
""fullscreenenter"",""0"",""1304""
","
","null","<p></p>","null","","","","","","","","","","","","","","","","","","","","","","",""
"","do_trial","112","522137","0.0-66.0-0.0","""event"",""trial"",""time""
""fullscreenenter"",""0"",""1304""
","
","
","""event"",""trial"",""time""
""fullscreenenter"",""0"",""1304""
","
","244.80000001192093","","","","","","","","49","1,0,0","0","highway","12","probe-20","0.7041721047433296","0.31730524649901914","0.08245675459764458","1","","","","","","","",""
"","html-keyboard-response","113","523150","0.0-66.0-1.0","""event"",""trial"",""time""
""fullscreenenter"",""0"",""1304""
","
","
","""event"",""trial"",""time""
""fullscreenenter"",""0"",""1304""
","
","null","<p></p>","null","","","","","","","","","","","","","","","","","","","","","","",""
"","do_trial","114","528122","0.0-67.0-0.0","""event"",""trial"",""time""
""fullscreenenter"",""0"",""1304""
","
","
","""event"",""trial"",""time""
""fullscreenenter"",""0"",""1304""
","
","398.30000001192093","","","","","","","","49","0,1,0","0","highway","13","probe-74","0.7083476056270307","0.45405038581491114","0.19690602691317438","0","","","","","","","",""
"","html-keyboard-response","115","529131","0.0-67.0-1.0","""event"",""trial"",""time""
""fullscreenenter"",""0"",""1304""
","
","
","""event"",""trial"",""time""
""fullscreenenter"",""0"",""1304""
","
","null","<p></p>","null","","","","","","","","","","","","","","","","","","","","","","",""
"","do_trial","116","533767","0.0-68.0-0.0","""event"",""trial"",""time""
""fullscreenenter"",""0"",""1304""
","
","
","""event"",""trial"",""time""
""fullscreenenter"",""0"",""1304""
","
","54.80000001192093","","","","","","","","49","1,0,0","0","highway","14","probe-147","0.5904849909046691","0.43284442646935306","0.23273650560680217","1","","","","","","","",""
"","html-keyboard-response","117","534778","0.0-68.0-1.0","""event"",""trial"",""time""
""fullscreenenter"",""0"",""1304""
","
","
","""event"",""trial"",""time""
""fullscreenenter"",""0"",""1304""
","
","null","<p></p>","null","","","","","","","","","","","","","","","","","","","","","","",""
"","do_trial","118","539350","0.0-69.0-0.0","""event"",""trial"",""time""
""fullscreenenter"",""0"",""1304""
","
","
","""event"",""trial"",""time""
""fullscreenenter"",""0"",""1304""
","
","0.5","","","","","","","","49","1,0,0","0","highway","15","probe-136","0.6916501074331715","0.3871451438572281","0.13511545637644287","1","","","","","","","",""
"","html-keyboard-response","119","540361","0.0-69.0-1.0","""event"",""trial"",""time""
""fullscreenenter"",""0"",""1304""
","
","
","""event"",""trial"",""time""
""fullscreenenter"",""0"",""1304""
","
","null","<p></p>","null","","","","","","","","","","","","","","","","","","","","","","",""
"","do_trial","120","545108","0.0-70.0-0.0","""event"",""trial"",""time""
""fullscreenenter"",""0"",""1304""
","
","
","""event"",""trial"",""time""
""fullscreenenter"",""0"",""1304""
","
","165.59999999403954","","","","","","","","49","0,0,0","0","highway","16","probe-68","0.8093832597529952","0.39811812229589066","0.1419925515699931","0","","","","","","","",""
"","html-keyboard-response","121","546115","0.0-70.0-1.0","""event"",""trial"",""time""
""fullscreenenter"",""0"",""1304""
","
","
","""event"",""trial"",""time""
""fullscreenenter"",""0"",""1304""
","
","null","<p></p>","null","","","","","","","","","","","","","","","","","","","","","","",""
"","do_trial","122","550687","0.0-71.0-0.0","""event"",""trial"",""time""
""fullscreenenter"",""0"",""1304""
","
","
","""event"",""trial"",""time""
""fullscreenenter"",""0"",""1304""
","
","0","","","","","","","","49","0,0,0","0","highway","17","probe-108","0.7581796416960291","0.2612868076422171","0.09563378513931642","0","","","","","","","",""
"","html-keyboard-response","123","551700","0.0-71.0-1.0","""event"",""trial"",""time""
""fullscreenenter"",""0"",""1304""
","
","
","""event"",""trial"",""time""
""fullscreenenter"",""0"",""1304""
","
","null","<p></p>","null","","","","","","","","","","","","","","","","","","","","","","",""
"","do_trial","124","556454","0.0-72.0-0.0","""event"",""trial"",""time""
""fullscreenenter"",""0"",""1304""
","
","
","""event"",""trial"",""time""
""fullscreenenter"",""0"",""1304""
","
","174.90000000596046","","","","","","","","49","1,1,0","0","highway","18","probe-33","0.6508300428276802","0.23548718855603748","0.19500951910664832","1","","","","","","","",""
"","html-keyboard-response","125","557466","0.0-72.0-1.0","""event"",""trial"",""time""
""fullscreenenter"",""0"",""1304""
","
","
","""event"",""trial"",""time""
""fullscreenenter"",""0"",""1304""
","
","null","<p></p>","null","","","","","","","","","","","","","","","","","","","","","","",""
"","do_trial","126","562638","0.0-73.0-0.0","""event"",""trial"",""time""
""fullscreenenter"",""0"",""1304""
","
","
","""event"",""trial"",""time""
""fullscreenenter"",""0"",""1304""
","
","633.7999999821186","","","","","","","","49","1,0,1","0","highway","19","probe-155","0.6821534971106235","0.23145819373487786","0.2547714485641791","1","","","","","","","",""
"","html-keyboard-response","127","563648","0.0-73.0-1.0","""event"",""trial"",""time""
""fullscreenenter"",""0"",""1304""
","
","
","""event"",""trial"",""time""
""fullscreenenter"",""0"",""1304""
","
","null","<p></p>","null","","","","","","","","","","","","","","","","","","","","","","",""
"","do_trial","128","568705","0.0-74.0-0.0","""event"",""trial"",""time""
""fullscreenenter"",""0"",""1304""
","
","
","""event"",""trial"",""time""
""fullscreenenter"",""0"",""1304""
","
","481","","","","","","","","49","1,1,1","0","highway","20","probe-212","0.6557140979670648","0.35238616605905565","0.19230654433413602","1","","","","","","","",""
"","html-keyboard-response","129","569714","0.0-74.0-1.0","""event"",""trial"",""time""
""fullscreenenter"",""0"",""1304""
","
","
","""event"",""trial"",""time""
""fullscreenenter"",""0"",""1304""
","
","null","<p></p>","null","","","","","","","","","","","","","","","","","","","","","","",""
"","do_trial","130","574688","0.0-75.0-0.0","""event"",""trial"",""time""
""fullscreenenter"",""0"",""1304""
","
","
","""event"",""trial"",""time""
""fullscreenenter"",""0"",""1304""
","
","390.69999998807907","","","","","","","","49","0,0,0","0","highway","21","probe-99","0.49083679575783246","0.46314038896932974","0.24165060531410226","0","","","","","","","",""
"","html-keyboard-response","131","575698","0.0-75.0-1.0","""event"",""trial"",""time""
""fullscreenenter"",""0"",""1304""
","
","
","""event"",""trial"",""time""
""fullscreenenter"",""0"",""1304""
","
","null","<p></p>","null","","","","","","","","","","","","","","","","","","","","","","",""
"","do_trial","132","580649","0.0-76.0-0.0","""event"",""trial"",""time""
""fullscreenenter"",""0"",""1304""
","
","
","""event"",""trial"",""time""
""fullscreenenter"",""0"",""1304""
","
","372","","","","","","","","49","1,0,0","0","highway","22","probe-66","0.6297811250877144","0.4546661312234248","0.1428088289909952","1","","","","","","","",""
"","html-keyboard-response","133","581660","0.0-76.0-1.0","""event"",""trial"",""time""
""fullscreenenter"",""0"",""1304""
","
","
","""event"",""trial"",""time""
""fullscreenenter"",""0"",""1304""
","
","null","<p></p>","null","","","","","","","","","","","","","","","","","","","","","","",""
"","do_trial","134","586619","0.0-77.0-0.0","""event"",""trial"",""time""
""fullscreenenter"",""0"",""1304""
","
","
","""event"",""trial"",""time""
""fullscreenenter"",""0"",""1304""
","
","372.19999998807907","","","","","","","","49","0,0,0","0","highway","23","probe-61","0.6131890854146848","0.3831031065521831","0.09735054455749138","0","","","","","","","",""
"","html-keyboard-response","135","587631","0.0-77.0-1.0","""event"",""trial"",""time""
""fullscreenenter"",""0"",""1304""
","
","
","""event"",""trial"",""time""
""fullscreenenter"",""0"",""1304""
","
","null","<p></p>","null","","","","","","","","","","","","","","","","","","","","","","",""
"","do_trial","136","592321","0.0-78.0-0.0","""event"",""trial"",""time""
""fullscreenenter"",""0"",""1304""
","
","
","""event"",""trial"",""time""
""fullscreenenter"",""0"",""1304""
","
","110.59999999403954","","","","","","","","49","0,0,1","0","highway","24","probe-77","0.5680155248415149","0.3023098753676635","0.18618265889304816","0","","","","","","","",""
"","html-keyboard-response","137","593331","0.0-78.0-1.0","""event"",""trial"",""time""
""fullscreenenter"",""0"",""1304""
","
","
","""event"",""trial"",""time""
""fullscreenenter"",""0"",""1304""
","
","null","<p></p>","null","","","","","","","","","","","","","","","","","","","","","","",""
"","do_trial","138","597921","0.0-79.0-0.0","""event"",""trial"",""time""
""fullscreenenter"",""0"",""1304""
","
","
","""event"",""trial"",""time""
""fullscreenenter"",""0"",""1304""
","
","3.7000000178813934","","","","","","","","49","1,0,0","0","highway","25","probe-174","0.7196580497118495","0.32023761370587106","0.17171539528147534","1","","","","","","","",""
"","html-keyboard-response","139","598932","0.0-79.0-1.0","""event"",""trial"",""time""
""fullscreenenter"",""0"",""1304""
","
","
","""event"",""trial"",""time""
""fullscreenenter"",""0"",""1304""
","
","null","<p></p>","null","","","","","","","","","","","","","","","","","","","","","","",""
"","do_trial","140","603822","0.0-80.0-0.0","""event"",""trial"",""time""
""fullscreenenter"",""0"",""1304""
","
","
","""event"",""trial"",""time""
""fullscreenenter"",""0"",""1304""
","
","333.40000000596046","","","","","","","","49","1,1,1","0","highway","26","probe-119","0.6143076434603577","0.4605233045387653","0.13457443203603403","1","","","","","","","",""
"","html-keyboard-response","141","604831","0.0-80.0-1.0","""event"",""trial"",""time""
""fullscreenenter"",""0"",""1304""
","
","
","""event"",""trial"",""time""
""fullscreenenter"",""0"",""1304""
","
","null","<p></p>","null","","","","","","","","","","","","","","","","","","","","","","",""
"","do_trial","142","609794","0.0-81.0-0.0","""event"",""trial"",""time""
""fullscreenenter"",""0"",""1304""
","
","
","""event"",""trial"",""time""
""fullscreenenter"",""0"",""1304""
","
","376.59999999403954","","","","","","","","49","0,0,0","0","highway","27","probe-209","0.6367623011419662","0.41680241437868437","0.13469368004413038","0","","","","","","","",""
"","html-keyboard-response","143","610811","0.0-81.0-1.0","""event"",""trial"",""time""
""fullscreenenter"",""0"",""1304""
","
","
","""event"",""trial"",""time""
""fullscreenenter"",""0"",""1304""
","
","null","<p></p>","null","","","","","","","","","","","","","","","","","","","","","","",""
"","do_trial","144","615407","0.0-82.0-0.0","""event"",""trial"",""time""
""fullscreenenter"",""0"",""1304""
","
","
","""event"",""trial"",""time""
""fullscreenenter"",""0"",""1304""
","
","36","","","","","","","","49","1,0,0","0","highway","28","probe-32","0.6990927408621529","0.42468936693984194","0.12126001841174987","1","","","","","","","",""
"","html-keyboard-response","145","616414","0.0-82.0-1.0","""event"",""trial"",""time""
""fullscreenenter"",""0"",""1304""
","
","
","""event"",""trial"",""time""
""fullscreenenter"",""0"",""1304""
","
","null","<p></p>","null","","","","","","","","","","","","","","","","","","","","","","",""
"","do_trial","146","621370","0.0-83.0-0.0","""event"",""trial"",""time""
""fullscreenenter"",""0"",""1304""
","
","
","""event"",""trial"",""time""
""fullscreenenter"",""0"",""1304""
","
","383.19999998807907","","","","","","","","49","1,0,1","0","highway","29","probe-201","0.631224973499197","0.28544163842097203","0.08799857726587612","1","","","","","","","",""
"","html-keyboard-response","147","622382","0.0-83.0-1.0","""event"",""trial"",""time""
""fullscreenenter"",""0"",""1304""
","
","
","""event"",""trial"",""time""
""fullscreenenter"",""0"",""1304""
","
","null","<p></p>","null","","","","","","","","","","","","","","","","","","","","","","",""
"","do_bye","148","623903","0.0-84.0-0.0","""event"",""trial"",""time""
""fullscreenenter"",""0"",""1304""
","
","
","""event"",""trial"",""time""
""fullscreenenter"",""0"",""1304""
","
","null","","","","","","","","null","","","","","","","","","","","","","","","","",""
"","break","149","623909","0.0-84.0-1.0","""event"",""trial"",""time""
""fullscreenenter"",""0"",""1304""
","
","
","""event"",""trial"",""time""
""fullscreenenter"",""0"",""1304""
","
","3.4000000059604645","<div class='center'><p>Time to take a quick break! You have 2 minutes to rest, but you can move on sooner if you'd like.</p><p> Press the <b>space bar</b> to continue.</p></div>","32","","","","","","","","","","","","","","","","","","","","","","",""
"","do_travel","150","632922","0.0-85.0-0.0","""event"",""trial"",""time""
""fullscreenenter"",""0"",""1304""
","
","
","""event"",""trial"",""time""
""fullscreenenter"",""0"",""1304""
","
","null","","","","","","","","null","","","","","","","","","","","","","","","","",""
"","do_welcome","151","636952","0.0-85.0-1.0","""event"",""trial"",""time""
""fullscreenenter"",""0"",""1304""
","
","
","""event"",""trial"",""time""
""fullscreenenter"",""0"",""1304""
","
","null","","","","","","","","null","","","","","","","","","","","","","","","","",""
"","do_trial","152","642424","0.0-86.0-0.0","""event"",""trial"",""time""
""fullscreenenter"",""0"",""1304""
","
","
","""event"",""trial"",""time""
""fullscreenenter"",""0"",""1304""
","
","869.0999999940395","","","","","","","","49","1,1,0","1","forest","30","probe-133","1","0.33759478616541855","0.06366443015777831","1","","","","","","","",""
"","html-keyboard-response","153","643443","0.0-86.0-1.0","""event"",""trial"",""time""
""fullscreenenter"",""0"",""1304""
","
","
","""event"",""trial"",""time""
""fullscreenenter"",""0"",""1304""
","
","null","<p></p>","null","","","","","","","","","","","","","","","","","","","","","","",""
"","do_trial","154","648364","0.0-87.0-0.0","""event"",""trial"",""time""
""fullscreenenter"",""0"",""1304""
","
","
","""event"",""trial"",""time""
""fullscreenenter"",""0"",""1304""
","
","345.7000000178814","","","","","","","","49","1,1,1","1","forest","31","probe-126","1","0.2833551714835249","0.19710418352828263","1","","","","","","","",""
"","html-keyboard-response","155","649368","0.0-87.0-1.0","""event"",""trial"",""time""
""fullscreenenter"",""0"",""1304""
","
","
","""event"",""trial"",""time""
""fullscreenenter"",""0"",""1304""
","
","null","<p></p>","null","","","","","","","","","","","","","","","","","","","","","","",""
"","do_trial","156","654422","0.0-88.0-0.0","""event"",""trial"",""time""
""fullscreenenter"",""0"",""1304""
","
","
","""event"",""trial"",""time""
""fullscreenenter"",""0"",""1304""
","
","481.39999997615814","","","","","","","","49","1,0,0","1","forest","32","probe-142","1","0.2885995598335465","0.19954528068337524","1","","","","","","","",""
"","html-keyboard-response","157","655431","0.0-88.0-1.0","""event"",""trial"",""time""
""fullscreenenter"",""0"",""1304""
","
","
","""event"",""trial"",""time""
""fullscreenenter"",""0"",""1304""
","
","null","<p></p>","null","","","","","","","","","","","","","","","","","","","","","","",""
"","do_trial","158","660337","0.0-89.0-0.0","""event"",""trial"",""time""
""fullscreenenter"",""0"",""1304""
","
","
","""event"",""trial"",""time""
""fullscreenenter"",""0"",""1304""
","
","321.30000001192093","","","","","","","","49","1,1,1","1","forest","33","probe-58","0.9446604407675134","0.42069117356214875","0.22745047621533","1","","","","","","","",""
"","html-keyboard-response","159","661349","0.0-89.0-1.0","""event"",""trial"",""time""
""fullscreenenter"",""0"",""1304""
","
","
","""event"",""trial"",""time""
""fullscreenenter"",""0"",""1304""
","
","null","<p></p>","null","","","","","","","","","","","","","","","","","","","","","","",""
"","do_trial","160","666236","0.0-90.0-0.0","""event"",""trial"",""time""
""fullscreenenter"",""0"",""1304""
","
","
","""event"",""trial"",""time""
""fullscreenenter"",""0"",""1304""
","
","313.7000000178814","","","","","","","","49","1,0,0","1","forest","34","probe-196","0.9011048603739028","0.2178999696716959","0.12951977581734236","1","","","","","","","",""
"","html-keyboard-response","161","667246","0.0-90.0-1.0","""event"",""trial"",""time""
""fullscreenenter"",""0"",""1304""
","
","
","""event"",""trial"",""time""
""fullscreenenter"",""0"",""1304""
","
","null","<p></p>","null","","","","","","","","","","","","","","","","","","","","","","",""
"","do_trial","162","672119","0.0-91.0-0.0","""event"",""trial"",""time""
""fullscreenenter"",""0"",""1304""
","
","
","""event"",""trial"",""time""
""fullscreenenter"",""0"",""1304""
","
","286.59999999403954","","","","","","","","49","1,1,0","1","forest","35","probe-78","0.8647691087487509","0.2336191587029358","0.08548528329325106","1","","","","","","","",""
"","html-keyboard-response","163","673131","0.0-91.0-1.0","""event"",""trial"",""time""
""fullscreenenter"",""0"",""1304""
","
","
","""event"",""trial"",""time""
""fullscreenenter"",""0"",""1304""
","
","null","<p></p>","null","","","","","","","","","","","","","","","","","","","","","","",""
"","do_trial","164","677986","0.0-92.0-0.0","""event"",""trial"",""time""
""fullscreenenter"",""0"",""1304""
","
","
","""event"",""trial"",""time""
""fullscreenenter"",""0"",""1304""
","
","267.40000000596046","","","","","","","","49","1,0,0","1","forest","36","probe-189","0.9085992332438636","0.23954583520015058","0.09731594714935259","1","","","","","","","",""
"","html-keyboard-response","165","679000","0.0-92.0-1.0","""event"",""trial"",""time""
""fullscreenenter"",""0"",""1304""
","
","
","""event"",""trial"",""time""
""fullscreenenter"",""0"",""1304""
","
","null","<p></p>","null","","","","","","","","","","","","","","","","","","","","","","",""
"","do_trial","166","683999","0.0-93.0-0.0","""event"",""trial"",""time""
""fullscreenenter"",""0"",""1304""
","
","
","""event"",""trial"",""time""
""fullscreenenter"",""0"",""1304""
","
","428.40000000596046","","","","","","","","49","0,0,0","1","forest","37","probe-150","0.8686715421724699","0.21133715133327768","0.10303437976194982","0","","","","","","","",""
"","html-keyboard-response","167","685010","0.0-93.0-1.0","""event"",""trial"",""time""
""fullscreenenter"",""0"",""1304""
","
","
","""event"",""trial"",""time""
""fullscreenenter"",""0"",""1304""
","
","null","<p></p>","null","","","","","","","","","","","","","","","","","","","","","","",""
"","do_trial","168","689942","0.0-94.0-0.0","""event"",""trial"",""time""
""fullscreenenter"",""0"",""1304""
","
","
","""event"",""trial"",""time""
""fullscreenenter"",""0"",""1304""
","
","350.69999998807907","","","","","","","","49","1,0,1","1","forest","38","probe-106","0.8689397035053198","0.17498633025978916","0.28092992134882383","1","","","","","","","",""
"","html-keyboard-response","169","690948","0.0-94.0-1.0","""event"",""trial"",""time""
""fullscreenenter"",""0"",""1304""
","
","
","""event"",""trial"",""time""
""fullscreenenter"",""0"",""1304""
","
","null","<p></p>","null","","","","","","","","","","","","","","","","","","","","","","",""
"","do_trial","170","695903","0.0-95.0-0.0","""event"",""trial"",""time""
""fullscreenenter"",""0"",""1304""
","
","
","""event"",""trial"",""time""
""fullscreenenter"",""0"",""1304""
","
","367.80000001192093","","","","","","","","49","1,0,0","1","forest","39","probe-183","0.6524528946274833","0.27054282693424275","0.19358153623775934","1","","","","","","","",""
"","html-keyboard-response","171","696917","0.0-95.0-1.0","""event"",""trial"",""time""
""fullscreenenter"",""0"",""1304""
","
","
","""event"",""trial"",""time""
""fullscreenenter"",""0"",""1304""
","
","null","<p></p>","null","","","","","","","","","","","","","","","","","","","","","","",""
"","do_trial","172","701952","0.0-96.0-0.0","""event"",""trial"",""time""
""fullscreenenter"",""0"",""1304""
","
","
","""event"",""trial"",""time""
""fullscreenenter"",""0"",""1304""
","
","465.40000000596046","","","","","","","","49","1,0,0","1","forest","40","probe-47","0.711906945289783","0.25252610308836754","0.23928121006276365","1","","","","","","","",""
"","html-keyboard-response","173","702961","0.0-96.0-1.0","""event"",""trial"",""time""
""fullscreenenter"",""0"",""1304""
","
","
","""event"",""trial"",""time""
""fullscreenenter"",""0"",""1304""
","
","null","<p></p>","null","","","","","","","","","","","","","","","","","","","","","","",""
"","do_trial","174","707537","0.0-97.0-0.0","""event"",""trial"",""time""
""fullscreenenter"",""0"",""1304""
","
","
","""event"",""trial"",""time""
""fullscreenenter"",""0"",""1304""
","
","0","","","","","","","","49","1,0,0","1","forest","41","probe-23","0.6428416793360617","0.19627050925224557","0.10384423527096268","1","","","","","","","",""
"","html-keyboard-response","175","708548","0.0-97.0-1.0","""event"",""trial"",""time""
""fullscreenenter"",""0"",""1304""
","
","
","""event"",""trial"",""time""
""fullscreenenter"",""0"",""1304""
","
","null","<p></p>","null","","","","","","","","","","","","","","","","","","","","","","",""
"","do_trial","176","713319","0.0-98.0-0.0","""event"",""trial"",""time""
""fullscreenenter"",""0"",""1304""
","
","
","""event"",""trial"",""time""
""fullscreenenter"",""0"",""1304""
","
","202.59999999403954","","","","","","","","49","0,1,1","1","forest","42","probe-71","0.43067126576977544","0.5453458990007986","0.20344738992167316","0","","","","","","","",""
"","html-keyboard-response","177","714331","0.0-98.0-1.0","""event"",""trial"",""time""
""fullscreenenter"",""0"",""1304""
","
","
","""event"",""trial"",""time""
""fullscreenenter"",""0"",""1304""
","
","null","<p></p>","null","","","","","","","","","","","","","","","","","","","","","","",""
"","do_trial","178","719087","0.0-99.0-0.0","""event"",""trial"",""time""
""fullscreenenter"",""0"",""1304""
","
","
","""event"",""trial"",""time""
""fullscreenenter"",""0"",""1304""
","
","192.40000000596046","","","","","","","","49","0,1,0","1","forest","43","probe-63","0.389786139600218","0.5734941424642664","0.15566734120251244","0","","","","","","","",""
"","html-keyboard-response","179","720098","0.0-99.0-1.0","""event"",""trial"",""time""
""fullscreenenter"",""0"",""1304""
","
","
","""event"",""trial"",""time""
""fullscreenenter"",""0"",""1304""
","
","null","<p></p>","null","","","","","","","","","","","","","","","","","","","","","","",""
"","do_trial","180","724885","0.0-100.0-0.0","""event"",""trial"",""time""
""fullscreenenter"",""0"",""1304""
","
","
","""event"",""trial"",""time""
""fullscreenenter"",""0"",""1304""
","
","219.19999998807907","","","","","","","","49","1,0,0","1","forest","44","probe-206","0.22053620680871341","0.608091743994008","0.20399595120318892","1","","","","","","","",""
"","html-keyboard-response","181","725898","0.0-100.0-1.0","""event"",""trial"",""time""
""fullscreenenter"",""0"",""1304""
","
","
","""event"",""trial"",""time""
""fullscreenenter"",""0"",""1304""
","
","null","<p></p>","null","","","","","","","","","","","","","","","","","","","","","","",""
"","do_trial","182","730719","0.0-101.0-0.0","""event"",""trial"",""time""
""fullscreenenter"",""0"",""1304""
","
","
","""event"",""trial"",""time""
""fullscreenenter"",""0"",""1304""
","
","233.90000000596046","","","","","","","","49","0,1,0","1","forest","45","probe-227","0.24306405501201356","0.653505665888705","0.2081499151711943","0","","","","","","","",""
"","html-keyboard-response","183","731730","0.0-101.0-1.0","""event"",""trial"",""time""
""fullscreenenter"",""0"",""1304""
","
","
","""event"",""trial"",""time""
""fullscreenenter"",""0"",""1304""
","
","null","<p></p>","null","","","","","","","","","","","","","","","","","","","","","","",""
"","do_trial","184","736583","0.0-102.0-0.0","""event"",""trial"",""time""
""fullscreenenter"",""0"",""1304""
","
","
","""event"",""trial"",""time""
""fullscreenenter"",""0"",""1304""
","
","273.5","","","","","","","","49","0,1,1","1","forest","46","probe-06","0.2969403779631469","0.6337263280022027","0.12965950554423838","0","","","","","","","",""
"","html-keyboard-response","185","737600","0.0-102.0-1.0","""event"",""trial"",""time""
""fullscreenenter"",""0"",""1304""
","
","
","""event"",""trial"",""time""
""fullscreenenter"",""0"",""1304""
","
","null","<p></p>","null","","","","","","","","","","","","","","","","","","","","","","",""
"","do_trial","186","742403","0.0-103.0-0.0","""event"",""trial"",""time""
""fullscreenenter"",""0"",""1304""
","
","
","""event"",""trial"",""time""
""fullscreenenter"",""0"",""1304""
","
","243.59999999403954","","","","","","","","49","1,1,0","1","forest","47","probe-97","0.20464758776069814","0.6721094680144408","0.05457015491523895","1","","","","","","","",""
"","html-keyboard-response","187","743416","0.0-103.0-1.0","""event"",""trial"",""time""
""fullscreenenter"",""0"",""1304""
","
","
","""event"",""trial"",""time""
""fullscreenenter"",""0"",""1304""
","
","null","<p></p>","null","","","","","","","","","","","","","","","","","","","","","","",""
"","do_trial","188","748187","0.0-104.0-0.0","""event"",""trial"",""time""
""fullscreenenter"",""0"",""1304""
","
","
","""event"",""trial"",""time""
""fullscreenenter"",""0"",""1304""
","
","192.09999999403954","","","","","","","","49","1,1,1","1","forest","48","probe-50","0.28227904595621783","0.6341678372170515","0.07554067337999454","1","","","","","","","",""
"","html-keyboard-response","189","749197","0.0-104.0-1.0","""event"",""trial"",""time""
""fullscreenenter"",""0"",""1304""
","
","
","""event"",""trial"",""time""
""fullscreenenter"",""0"",""1304""
","
","null","<p></p>","null","","","","","","","","","","","","","","","","","","","","","","",""
"","do_trial","190","753854","0.0-105.0-0.0","""event"",""trial"",""time""
""fullscreenenter"",""0"",""1304""
","
","
","""event"",""trial"",""time""
""fullscreenenter"",""0"",""1304""
","
","81.59999999403954","","","","","","","","49","1,1,0","1","forest","49","probe-37","0.37281639391461285","0.5095347319319184","0.10161129091634959","1","","","","","","","",""
"","html-keyboard-response","191","754864","0.0-105.0-1.0","""event"",""trial"",""time""
""fullscreenenter"",""0"",""1304""
","
","
","""event"",""trial"",""time""
""fullscreenenter"",""0"",""1304""
","
","null","<p></p>","null","","","","","","","","","","","","","","","","","","","","","","",""
"","do_trial","192","759860","0.0-106.0-0.0","""event"",""trial"",""time""
""fullscreenenter"",""0"",""1304""
","
","
","""event"",""trial"",""time""
""fullscreenenter"",""0"",""1304""
","
","427.7999999821186","","","","","","","","49","0,1,0","1","forest","50","probe-188","0.2715084810948204","0.4969261765010615","0.12608903098047688","0","","","","","","","",""
"","html-keyboard-response","193","760866","0.0-106.0-1.0","""event"",""trial"",""time""
""fullscreenenter"",""0"",""1304""
","
","
","""event"",""trial"",""time""
""fullscreenenter"",""0"",""1304""
","
","null","<p></p>","null","","","","","","","","","","","","","","","","","","","","","","",""
"","do_trial","194","765857","0.0-107.0-0.0","""event"",""trial"",""time""
""fullscreenenter"",""0"",""1304""
","
","
","""event"",""trial"",""time""
""fullscreenenter"",""0"",""1304""
","
","414.90000000596046","","","","","","","","49","1,1,1","1","forest","51","probe-54","0.3713025609515576","0.7084312665310951","0.2150144784571315","1","","","","","","","",""
"","html-keyboard-response","195","766864","0.0-107.0-1.0","""event"",""trial"",""time""
""fullscreenenter"",""0"",""1304""
","
","
","""event"",""trial"",""time""
""fullscreenenter"",""0"",""1304""
","
","null","<p></p>","null","","","","","","","","","","","","","","","","","","","","","","",""
"","do_trial","196","771719","0.0-108.0-0.0","""event"",""trial"",""time""
""fullscreenenter"",""0"",""1304""
","
","
","""event"",""trial"",""time""
""fullscreenenter"",""0"",""1304""
","
","227.5","","","","","","","","49","1,0,0","1","forest","52","probe-79","0.28645998739627354","0.5808073285445045","0.2448164660554924","1","","","","","","","",""
"","html-keyboard-response","197","772731","0.0-108.0-1.0","""event"",""trial"",""time""
""fullscreenenter"",""0"",""1304""
","
","
","""event"",""trial"",""time""
""fullscreenenter"",""0"",""1304""
","
","null","<p></p>","null","","","","","","","","","","","","","","","","","","","","","","",""
"","do_trial","198","777407","0.0-109.0-0.0","""event"",""trial"",""time""
""fullscreenenter"",""0"",""1304""
","
","
","""event"",""trial"",""time""
""fullscreenenter"",""0"",""1304""
","
","95.40000000596046","","","","","","","","49","1,1,1","1","forest","53","probe-163","0.2734978405964501","0.449513733517148","0.3520403474724155","1","","","","","","","",""
"","html-keyboard-response","199","778415","0.0-109.0-1.0","""event"",""trial"",""time""
""fullscreenenter"",""0"",""1304""
","
","
","""event"",""trial"",""time""
""fullscreenenter"",""0"",""1304""
","
","null","<p></p>","null","","","","","","","","","","","","","","","","","","","","","","",""
"","do_trial","200","783275","0.0-110.0-0.0","""event"",""trial"",""time""
""fullscreenenter"",""0"",""1304""
","
","
","""event"",""trial"",""time""
""fullscreenenter"",""0"",""1304""
","
","282.7999999821186","","","","","","","","49","1,0,1","1","forest","54","probe-03","0.2724926134418833","0.49899824235558987","0.24127009121597962","1","","","","","","","",""
"","html-keyboard-response","201","784282","0.0-110.0-1.0","""event"",""trial"",""time""
""fullscreenenter"",""0"",""1304""
","
","
","""event"",""trial"",""time""
""fullscreenenter"",""0"",""1304""
","
","null","<p></p>","null","","","","","","","","","","","","","","","","","","","","","","",""
"","do_trial","202","789369","0.0-111.0-0.0","""event"",""trial"",""time""
""fullscreenenter"",""0"",""1304""
","
","
","""event"",""trial"",""time""
""fullscreenenter"",""0"",""1304""
","
","509.90000000596046","","","","","","","","49","1,0,0","1","forest","55","probe-226","0.23907060855796758","0.6020916443572395","0.15740770068755355","1","","","","","","","",""
"","html-keyboard-response","203","790381","0.0-111.0-1.0","""event"",""trial"",""time""
""fullscreenenter"",""0"",""1304""
","
","
","""event"",""trial"",""time""
""fullscreenenter"",""0"",""1304""
","
","null","<p></p>","null","","","","","","","","","","","","","","","","","","","","","","",""
"","do_trial","204","795338","0.0-112.0-0.0","""event"",""trial"",""time""
""fullscreenenter"",""0"",""1304""
","
","
","""event"",""trial"",""time""
""fullscreenenter"",""0"",""1304""
","
","384.5","","","","","","","","49","0,0,0","1","forest","56","probe-60","0.3069479021202141","0.56765869855868","0.13075973181771092","0","","","","","","","",""
"","html-keyboard-response","205","796348","0.0-112.0-1.0","""event"",""trial"",""time""
""fullscreenenter"",""0"",""1304""
","
","
","""event"",""trial"",""time""
""fullscreenenter"",""0"",""1304""
","
","null","<p></p>","null","","","","","","","","","","","","","","","","","","","","","","",""
"","do_trial","206","801252","0.0-113.0-0.0","""event"",""trial"",""time""
""fullscreenenter"",""0"",""1304""
","
","
","""event"",""trial"",""time""
""fullscreenenter"",""0"",""1304""
","
","327.40000000596046","","","","","","","","49","0,0,0","1","forest","57","probe-17","0.4704220304193203","0.6769835746515822","0.08477712264162228","0","","","","","","","",""
"","html-keyboard-response","207","802264","0.0-113.0-1.0","""event"",""trial"",""time""
""fullscreenenter"",""0"",""1304""
","
","
","""event"",""trial"",""time""
""fullscreenenter"",""0"",""1304""
","
","null","<p></p>","null","","","","","","","","","","","","","","","","","","","","","","",""
"","do_trial","208","807019","0.0-114.0-0.0","""event"",""trial"",""time""
""fullscreenenter"",""0"",""1304""
","
","
","""event"",""trial"",""time""
""fullscreenenter"",""0"",""1304""
","
","174.09999999403954","","","","","","","","49","0,1,0","1","forest","58","probe-92","0.27303503555479003","0.6063782002843434","0.10081477449815643","0","","","","","","","",""
"","html-keyboard-response","209","808031","0.0-114.0-1.0","""event"",""trial"",""time""
""fullscreenenter"",""0"",""1304""
","
","
","""event"",""trial"",""time""
""fullscreenenter"",""0"",""1304""
","
","null","<p></p>","null","","","","","","","","","","","","","","","","","","","","","","",""
"","do_trial","210","813053","0.0-115.0-0.0","""event"",""trial"",""time""
""fullscreenenter"",""0"",""1304""
","
","
","""event"",""trial"",""time""
""fullscreenenter"",""0"",""1304""
","
","460.90000000596046","","","","","","","","49","1,1,0","1","forest","59","probe-98","0.23941371684572688","0.5272456130149166","0.12946716536885874","1","","","","","","","",""
"","html-keyboard-response","211","814064","0.0-115.0-1.0","""event"",""trial"",""time""
""fullscreenenter"",""0"",""1304""
","
","
","""event"",""trial"",""time""
""fullscreenenter"",""0"",""1304""
","
","null","<p></p>","null","","","","","","","","","","","","","","","","","","","","","","",""
"","do_trial","212","818950","0.0-116.0-0.0","""event"",""trial"",""time""
""fullscreenenter"",""0"",""1304""
","
","
","""event"",""trial"",""time""
""fullscreenenter"",""0"",""1304""
","
","321.69999998807907","","","","","","","","49","0,1,0","1","forest","60","probe-80","0.21309718288889978","0.6033926056932437","0.121359203347459","0","","","","","","","",""
"","html-keyboard-response","213","819960","0.0-116.0-1.0","""event"",""trial"",""time""
""fullscreenenter"",""0"",""1304""
","
","
","""event"",""trial"",""time""
""fullscreenenter"",""0"",""1304""
","
","null","<p></p>","null","","","","","","","","","","","","","","","","","","","","","","",""
"","do_trial","214","824533","0.0-117.0-0.0","""event"",""trial"",""time""
""fullscreenenter"",""0"",""1304""
","
","
","""event"",""trial"",""time""
""fullscreenenter"",""0"",""1304""
","
","0.09999999403953552","","","","","","","","49","0,1,0","1","forest","61","probe-216","0.16485221004723064","0.5834448790957044","0.11400969165388959","0","","","","","","","",""
"","html-keyboard-response","215","825548","0.0-117.0-1.0","""event"",""trial"",""time""
""fullscreenenter"",""0"",""1304""
","
","
","""event"",""trial"",""time""
""fullscreenenter"",""0"",""1304""
","
","null","<p></p>","null","","","","","","","","","","","","","","","","","","","","","","",""
"","do_trial","216","830373","0.0-118.0-0.0","""event"",""trial"",""time""
""fullscreenenter"",""0"",""1304""
","
","
","""event"",""trial"",""time""
""fullscreenenter"",""0"",""1304""
","
","247.40000000596046","","","","","","","","49","0,1,0","1","forest","62","probe-34","0.09252092738154293","0.7090101476695282","0.1456398104673641","0","","","","","","","",""
"","html-keyboard-response","217","831381","0.0-118.0-1.0","""event"",""trial"",""time""
""fullscreenenter"",""0"",""1304""
","
","
","""event"",""trial"",""time""
""fullscreenenter"",""0"",""1304""
","
","null","<p></p>","null","","","","","","","","","","","","","","","","","","","","","","",""
"","do_trial","218","835977","0.0-119.0-0.0","""event"",""trial"",""time""
""fullscreenenter"",""0"",""1304""
","
","
","""event"",""trial"",""time""
""fullscreenenter"",""0"",""1304""
","
","0","","","","","","","","49","0,1,0","1","forest","63","probe-62","0.08842372185667484","0.6557754424977145","0.10992769604685065","0","","","","","","","",""
"","html-keyboard-response","219","836981","0.0-119.0-1.0","""event"",""trial"",""time""
""fullscreenenter"",""0"",""1304""
","
","
","""event"",""trial"",""time""
""fullscreenenter"",""0"",""1304""
","
","null","<p></p>","null","","","","","","","","","","","","","","","","","","","","","","",""
"","do_trial","220","841737","0.0-120.0-0.0","""event"",""trial"",""time""
""fullscreenenter"",""0"",""1304""
","
","
","""event"",""trial"",""time""
""fullscreenenter"",""0"",""1304""
","
","192.19999998807907","","","","","","","","50","0,1,1","1","forest","64","probe-177","0.32264755019826946","0.6680738025670648","0.09775734151094699","1","","","","","","","",""
"","html-keyboard-response","221","842742","0.0-120.0-1.0","""event"",""trial"",""time""
""fullscreenenter"",""0"",""1304""
","
","
","""event"",""trial"",""time""
""fullscreenenter"",""0"",""1304""
","
","null","<p></p>","null","","","","","","","","","","","","","","","","","","","","","","",""
"","do_trial","222","847754","0.0-121.0-0.0","""event"",""trial"",""time""
""fullscreenenter"",""0"",""1304""
","
","
","""event"",""trial"",""time""
""fullscreenenter"",""0"",""1304""
","
","445.09999999403954","","","","","","","","50","0,0,0","1","forest","65","probe-12","0.3085768236574803","0.6273187770745047","0.06998051924344968","0","","","","","","","",""
"","html-keyboard-response","223","848764","0.0-121.0-1.0","""event"",""trial"",""time""
""fullscreenenter"",""0"",""1304""
","
","
","""event"",""trial"",""time""
""fullscreenenter"",""0"",""1304""
","
","null","<p></p>","null","","","","","","","","","","","","","","","","","","","","","","",""
"","do_trial","224","854115","0.0-122.0-0.0","""event"",""trial"",""time""
""fullscreenenter"",""0"",""1304""
","
","
","""event"",""trial"",""time""
""fullscreenenter"",""0"",""1304""
","
","765.6999999880791","","","","","","","","50","0,1,0","1","forest","66","probe-162","0.2822320820193546","0.5623431135276394","0.07056870207973137","1","","","","","","","",""
"","html-keyboard-response","225","855127","0.0-122.0-1.0","""event"",""trial"",""time""
""fullscreenenter"",""0"",""1304""
","
","
","""event"",""trial"",""time""
""fullscreenenter"",""0"",""1304""
","
","null","<p></p>","null","","","","","","","","","","","","","","","","","","","","","","",""
"","do_trial","226","859953","0.0-123.0-0.0","""event"",""trial"",""time""
""fullscreenenter"",""0"",""1304""
","
","
","""event"",""trial"",""time""
""fullscreenenter"",""0"",""1304""
","
","248.7000000178814","","","","","","","","50","0,0,0","1","forest","67","probe-55","0.34079164468012774","0.49033546446708726","0.09632131916885174","0","","","","","","","",""
"","html-keyboard-response","227","860967","0.0-123.0-1.0","""event"",""trial"",""time""
""fullscreenenter"",""0"",""1304""
","
","
","""event"",""trial"",""time""
""fullscreenenter"",""0"",""1304""
","
","null","<p></p>","null","","","","","","","","","","","","","","","","","","","","","","",""
"","do_trial","228","866025","0.0-124.0-0.0","""event"",""trial"",""time""
""fullscreenenter"",""0"",""1304""
","
","
","""event"",""trial"",""time""
""fullscreenenter"",""0"",""1304""
","
","480.7999999821186","","","","","","","","50","0,0,1","1","forest","68","probe-168","0.31906731388710335","0.4526161222663127","0.2129010436751019","0","","","","","","","",""
"","html-keyboard-response","229","867033","0.0-124.0-1.0","""event"",""trial"",""time""
""fullscreenenter"",""0"",""1304""
","
","
","""event"",""trial"",""time""
""fullscreenenter"",""0"",""1304""
","
","null","<p></p>","null","","","","","","","","","","","","","","","","","","","","","","",""
"","do_trial","230","871936","0.0-125.0-0.0","""event"",""trial"",""time""
""fullscreenenter"",""0"",""1304""
","
","
","""event"",""trial"",""time""
""fullscreenenter"",""0"",""1304""
","
","342.80000001192093","","","","","","","","51","0,1,0","1","forest","69","probe-208","0.25688363345355614","0.568085948240164","0.20161899698542995","0","","","","","","","",""
"","html-keyboard-response","231","872948","0.0-125.0-1.0","""event"",""trial"",""time""
""fullscreenenter"",""0"",""1304""
","
","
","""event"",""trial"",""time""
""fullscreenenter"",""0"",""1304""
","
","null","<p></p>","null","","","","","","","","","","","","","","","","","","","","","","",""
"","do_bye","232","874462","0.0-126.0-0.0","""event"",""trial"",""time""
""fullscreenenter"",""0"",""1304""
","
","
","""event"",""trial"",""time""
""fullscreenenter"",""0"",""1304""
","
","null","","","","","","","","null","","","","","","","","","","","","","","","","",""
"","break","233","877308","0.0-126.0-1.0","""event"",""trial"",""time""
""fullscreenenter"",""0"",""1304""
","
","
","""event"",""trial"",""time""
""fullscreenenter"",""0"",""1304""
","
","2844","<div class='center'><p>Time to take a quick break! You have 2 minutes to rest, but you can move on sooner if you'd like.</p><p> Press the <b>space bar</b> to continue.</p></div>","32","","","","","","","","","","","","","","","","","","","","","","",""
"","do_travel","234","886318","0.0-127.0-0.0","""event"",""trial"",""time""
""fullscreenenter"",""0"",""1304""
","
","
","""event"",""trial"",""time""
""fullscreenenter"",""0"",""1304""
","
","null","","","","","","","","null","","","","","","","","","","","","","","","","",""
"","do_welcome","235","890343","0.0-127.0-1.0","""event"",""trial"",""time""
""fullscreenenter"",""0"",""1304""
","
","
","""event"",""trial"",""time""
""fullscreenenter"",""0"",""1304""
","
","null","","","","","","","","null","","","","","","","","","","","","","","","","",""
"","do_trial","236","895834","0.0-128.0-0.0","""event"",""trial"",""time""
""fullscreenenter"",""0"",""1304""
","
","
","""event"",""trial"",""time""
""fullscreenenter"",""0"",""1304""
","
","882.0999999940395","","","","","","","","49","1,1,0","2","countryside","70","probe-202","0.3931318822295073","1","0.14483014405172256","1","","","","","","","",""
"","html-keyboard-response","237","896850","0.0-128.0-1.0","""event"",""trial"",""time""
""fullscreenenter"",""0"",""1304""
","
","
","""event"",""trial"",""time""
""fullscreenenter"",""0"",""1304""
","
","null","<p></p>","null","","","","","","","","","","","","","","","","","","","","","","",""
"","do_trial","238","901427","0.0-129.0-0.0","""event"",""trial"",""time""
""fullscreenenter"",""0"",""1304""
","
","
","""event"",""trial"",""time""
""fullscreenenter"",""0"",""1304""
","
","0","","","","","","","","49","0,1,0","2","countryside","71","probe-19","0.2968291574300102","1","0.19592286902985634","0","","","","","","","",""
"","html-keyboard-response","239","902436","0.0-129.0-1.0","""event"",""trial"",""time""
""fullscreenenter"",""0"",""1304""
","
","
","""event"",""trial"",""time""
""fullscreenenter"",""0"",""1304""
","
","null","<p></p>","null","","","","","","","","","","","","","","","","","","","","","","",""
"","do_trial","240","907236","0.0-130.0-0.0","""event"",""trial"",""time""
""fullscreenenter"",""0"",""1304""
","
","
","""event"",""trial"",""time""
""fullscreenenter"",""0"",""1304""
","
","230.19999998807907","","","","","","","","51","0,1,0","2","countryside","72","probe-35","0.22436017087306934","0.8832996103178238","0.2592365323311765","0","","","","","","","",""
"","html-keyboard-response","241","908252","0.0-130.0-1.0","""event"",""trial"",""time""
""fullscreenenter"",""0"",""1304""
","
","
","""event"",""trial"",""time""
""fullscreenenter"",""0"",""1304""
","
","null","<p></p>","null","","","","","","","","","","","","","","","","","","","","","","",""
"","do_trial","242","913135","0.0-131.0-0.0","""event"",""trial"",""time""
""fullscreenenter"",""0"",""1304""
","
","
","""event"",""trial"",""time""
""fullscreenenter"",""0"",""1304""
","
","300.30000001192093","","","","","","","","50","1,1,1","2","countryside","73","probe-94","0.18166942603812114","0.6676772244466619","0.16473722116561718","1","","","","","","","",""
"","html-keyboard-response","243","914148","0.0-131.0-1.0","""event"",""trial"",""time""
""fullscreenenter"",""0"",""1304""
","
","
","""event"",""trial"",""time""
""fullscreenenter"",""0"",""1304""
","
","null","<p></p>","null","","","","","","","","","","","","","","","","","","","","","","",""
"","do_trial","244","919137","0.0-132.0-0.0","""event"",""trial"",""time""
""fullscreenenter"",""0"",""1304""
","
","
","""event"",""trial"",""time""
""fullscreenenter"",""0"",""1304""
","
","425.10000002384186","","","","","","","","50","1,0,0","2","countryside","74","probe-109","0.38103593800956403","0.6653108114642096","0.19438254995619453","0","","","","","","","",""
"","html-keyboard-response","245","920147","0.0-132.0-1.0","""event"",""trial"",""time""
""fullscreenenter"",""0"",""1304""
","
","
","""event"",""trial"",""time""
""fullscreenenter"",""0"",""1304""
","
","null","<p></p>","null","","","","","","","","","","","","","","","","","","","","","","",""
"","do_trial","246","924805","0.0-133.0-0.0","""event"",""trial"",""time""
""fullscreenenter"",""0"",""1304""
","
","
","""event"",""trial"",""time""
""fullscreenenter"",""0"",""1304""
","
","92.90000000596046","","","","","","","","50","0,0,0","2","countryside","75","probe-223","0.4287832551547877","0.602503484032248","0.09781990777587658","0","","","","","","","",""
"","html-keyboard-response","247","925820","0.0-133.0-1.0","""event"",""trial"",""time""
""fullscreenenter"",""0"",""1304""
","
","
","""event"",""trial"",""time""
""fullscreenenter"",""0"",""1304""
","
","null","<p></p>","null","","","","","","","","","","","","","","","","","","","","","","",""
"","do_trial","248","930621","0.0-134.0-0.0","""event"",""trial"",""time""
""fullscreenenter"",""0"",""1304""
","
","
","""event"",""trial"",""time""
""fullscreenenter"",""0"",""1304""
","
","228.89999997615814","","","","","","","","49","0,0,0","2","countryside","76","probe-103","0.4302122242429595","0.6090961264757071","0.08295487218509905","0","","","","","","","",""
"","html-keyboard-response","249","931632","0.0-134.0-1.0","""event"",""trial"",""time""
""fullscreenenter"",""0"",""1304""
","
","
","""event"",""trial"",""time""
""fullscreenenter"",""0"",""1304""
","
","null","<p></p>","null","","","","","","","","","","","","","","","","","","","","","","",""
"","do_trial","250","936603","0.0-135.0-0.0","""event"",""trial"",""time""
""fullscreenenter"",""0"",""1304""
","
","
","""event"",""trial"",""time""
""fullscreenenter"",""0"",""1304""
","
","395.09999999403954","","","","","","","","49","1,0,0","2","countryside","77","probe-178","0.41726966920742437","0.4420401667511095","0.09787468265422204","1","","","","","","","",""
"","html-keyboard-response","251","937613","0.0-135.0-1.0","""event"",""trial"",""time""
""fullscreenenter"",""0"",""1304""
","
","
","""event"",""trial"",""time""
""fullscreenenter"",""0"",""1304""
","
","null","<p></p>","null","","","","","","","","","","","","","","","","","","","","","","",""
"","do_trial","252","942521","0.0-136.0-0.0","""event"",""trial"",""time""
""fullscreenenter"",""0"",""1304""
","
","
","""event"",""trial"",""time""
""fullscreenenter"",""0"",""1304""
","
","338.69999998807907","","","","","","","","49","0,0,0","2","countryside","78","probe-160","0.3267726999275729","0.4740426201960742","0.05394034803229948","0","","","","","","","",""
"","html-keyboard-response","253","943530","0.0-136.0-1.0","""event"",""trial"",""time""
""fullscreenenter"",""0"",""1304""
","
","
","""event"",""trial"",""time""
""fullscreenenter"",""0"",""1304""
","
","null","<p></p>","null","","","","","","","","","","","","","","","","","","","","","","",""
"","do_trial","254","948185","0.0-137.0-0.0","""event"",""trial"",""time""
""fullscreenenter"",""0"",""1304""
","
","
","""event"",""trial"",""time""
""fullscreenenter"",""0"",""1304""
","
","67.19999998807907","","","","","","","","49","0,0,0","2","countryside","79","probe-172","0.2809950634792576","0.5570340808728454","0.06312789313390646","0","","","","","","","",""
"","html-keyboard-response","255","949196","0.0-137.0-1.0","""event"",""trial"",""time""
""fullscreenenter"",""0"",""1304""
","
","
","""event"",""trial"",""time""
""fullscreenenter"",""0"",""1304""
","
","null","<p></p>","null","","","","","","","","","","","","","","","","","","","","","","",""
"","do_trial","256","953970","0.0-138.0-0.0","""event"",""trial"",""time""
""fullscreenenter"",""0"",""1304""
","
","
","""event"",""trial"",""time""
""fullscreenenter"",""0"",""1304""
","
","215.7999999821186","","","","","","","","50","0,0,0","2","countryside","80","probe-207","0.20170440741202164","0.5690599905357772","0.05950447225754752","0","","","","","","","",""
"","html-keyboard-response","257","954974","0.0-138.0-1.0","""event"",""trial"",""time""
""fullscreenenter"",""0"",""1304""
","
","
","""event"",""trial"",""time""
""fullscreenenter"",""0"",""1304""
","
","null","<p></p>","null","","","","","","","","","","","","","","","","","","","","","","",""
"","do_trial","258","959731","0.0-139.0-0.0","""event"",""trial"",""time""
""fullscreenenter"",""0"",""1304""
","
","
","""event"",""trial"",""time""
""fullscreenenter"",""0"",""1304""
","
","186.59999999403954","","","","","","","","51","0,0,0","2","countryside","81","probe-57","0.1952974763754204","0.3708038581500081","0.1358796850406498","0","","","","","","","",""
"","html-keyboard-response","259","960742","0.0-139.0-1.0","""event"",""trial"",""time""
""fullscreenenter"",""0"",""1304""
","
","
","""event"",""trial"",""time""
""fullscreenenter"",""0"",""1304""
","
","null","<p></p>","null","","","","","","","","","","","","","","","","","","","","","","",""
"","do_trial","260","965851","0.0-140.0-0.0","""event"",""trial"",""time""
""fullscreenenter"",""0"",""1304""
","
","
","""event"",""trial"",""time""
""fullscreenenter"",""0"",""1304""
","
","537.0999999940395","","","","","","","","50","0,1,0","2","countryside","82","probe-27","0.3893282017475794","0.22263733967362093","0.14165972612186967","1","","","","","","","",""
"","html-keyboard-response","261","966862","0.0-140.0-1.0","""event"",""trial"",""time""
""fullscreenenter"",""0"",""1304""
","
","
