success,trial_type,trial_index,time_elapsed,internal_node_id,interactions,blur_events,focus_events,fullscreenenter_events,fullscreenexit_events,rt,stimulus,key_press,subject_id,participant_id,age,gender,prompt,response,choice_outcomes,context_n,context_img_id,trial_n,probe_img_id,pR_red,pR_white,pR_black,outcome,contextArray_ind,validImageProbes,invalidImageProbes,pRew_Red,pRew_White,pRew_Black,availableForMemProbe,choice_blocks
TRUE,fullscreen,0,4224,0.0-0.0,"""event"",""trial"",""time""
""fullscreenenter"",""0"",""3244""
","
","
","""event"",""trial"",""time""
""fullscreenenter"",""0"",""3244""
","
",,,,,,,,,,,,,,,,,,,,,,,,,,
,pavlovia,1,4230,0.0-1.0,"""event"",""trial"",""time""
""fullscreenenter"",""0"",""3244""
","
","
","""event"",""trial"",""time""
""fullscreenenter"",""0"",""3244""
","
",,,,,,,,,,,,,,,,,,,,,,,,,,
,instruc1,2,49402,0.0-2.0,"""event"",""trial"",""time""
""fullscreenenter"",""0"",""3244""
","
","
","""event"",""trial"",""time""
""fullscreenenter"",""0"",""3244""
","
",null,run_exp/static/audio/clip_1_welcome.m4a,null,218,518,8,Male,"<div class='center'><p>Welcome! This is the first part of the study. It will last ~30 minutes. In part 1 and part 2 of the study, you are the head captain of a pirate ship traveling around the world to different islands. You will play a few different games throughout these two parts. Here is an overview of them:</p><br><p>Part 1 (today)</p><p>1. Instructions, practice game, and quiz</p><p>2. Pick a pirate game on 6 different islands</p><br><p>Part 2 (tomorrow)</p><p>3. Pick a pirate game and memory game</p><p>4. Where did you see this ship? </p></div>",,,,,,,,,,,,,,,,,,
,html-keyboard-response,3,51495,0.0-3.0,"""event"",""trial"",""time""
""fullscreenenter"",""0"",""3244""
","
","
","""event"",""trial"",""time""
""fullscreenenter"",""0"",""3244""
","
",2089.8,"<div class='center'><p>Welcome! This is the first part of the study. It will last ~30 minutes. In part 1 and part 2 of the study, you are the head captain of a pirate ship traveling around the world to different islands. You will play a few different games throughout these two parts. Here is an overview of them:</p><br><p>Part 1 (today)</p><p>1. Instructions, practice game, and quiz</p><p>2. Pick a pirate game on 6 different islands</p><br><p>Part 2 (tomorrow)</p><p>3. Pick a pirate game and memory game</p><p>4. Where did you see this ship? </p><p><b>[Press the space bar to continue]</b></p></div>",32,,,,,,,,,,,,,,,,,,,,,,,
,instruc2,4,57021,0.0-4.0,"""event"",""trial"",""time""
""fullscreenenter"",""0"",""3244""
","
","
","""event"",""trial"",""time""
""fullscreenenter"",""0"",""3244""
","
",null,run_exp/static/audio/clip_2_different_places.m4a,null,,,,,"<div class='center'><p>Today, you’ll visit these 6 islands on your journey. You'll be able to see these islands from your ship.</p><p><img src='run_exp/static/images/contexts/all_contexts.png' height='500'></p></div>",,,,,,,,,,,,,,,,,,
,html-keyboard-response,5,58845,0.0-5.0,"""event"",""trial"",""time""
""fullscreenenter"",""0"",""3244""
","
","
","""event"",""trial"",""time""
""fullscreenenter"",""0"",""3244""
","
",1822.5,"<div class='center'><p>Today, you’ll visit these 6 islands on your journey. You'll be able to see these islands from your ship.</p><p><img src='run_exp/static/images/contexts/all_contexts.png' height='500'></p><p><b>[Press the space bar to continue]</b></p></div>",32,,,,,,,,,,,,,,,,,,,,,,,
,instruc3,6,68730,0.0-6.0,"""event"",""trial"",""time""
""fullscreenenter"",""0"",""3244""
","
","
","""event"",""trial"",""time""
""fullscreenenter"",""0"",""3244""
","
",null,run_exp/static/audio/clip_3_goal_of_game_1.m4a,null,,,,,"<div class='center'><p> The pirates on your ship will rob other ships as they leave the island.</p> These ships have just sold their goods to the islanders, so they will be filled with lots and lots of gold.</p><p><img src='run_exp/static/images/tutorial/ship_center.png' height='400'></p></div>",,,,,,,,,,,,,,,,,,
,html-keyboard-response,7,69984,0.0-7.0,"""event"",""trial"",""time""
""fullscreenenter"",""0"",""3244""
","
","
","""event"",""trial"",""time""
""fullscreenenter"",""0"",""3244""
","
",1252.8,"<div class='center'><p> The pirates on your ship will rob other ships as they leave the island.</p> These ships have just sold their goods to the islanders, so they will be filled with lots and lots of gold.</p><p><img src='run_exp/static/images/tutorial/ship_center.png' height='400'></p><p><b>[Press the space bar to continue]</b></p></div>",32,,,,,,,,,,,,,,,,,,,,,,,
,instruc4,8,98188,0.0-8.0,"""event"",""trial"",""time""
""fullscreenenter"",""0"",""3244""
","
","
","""event"",""trial"",""time""
""fullscreenenter"",""0"",""3244""
","
",null,run_exp/static/audio/clip_4_goal_of_game_2.m4a,null,,,,,"<div class='center'><p>As the head captain, you do not have to rob any ships yourself. Another pirate will be doing the robbing for you. First, you will choose a pirate to rob the next ship.</p><p><img src='run_exp/static/images/tutorial/pirates_all_crop.png' height='200'></p><p>Then, you'll see if the pirate successfully robbed the ship of their gold. If they were successful, then you'll get a stack of gold coins like this:</p><p><img src='run_exp/static/images/tutorial/reward.png' height='150'></p><p> If they were <b>not</b> successful, then you'll get no gold coins, and you'll see a big red x like this: </p><p><img src='run_exp/static/images/tutorial/reward_no.png' height='150'></p><p> How much bonus money you make is based on how many gold coins you collect.</p><div>",,,,,,,,,,,,,,,,,,
,html-keyboard-response,9,121126,0.0-9.0,"""event"",""trial"",""time""
""fullscreenenter"",""0"",""3244""
","
","
","""event"",""trial"",""time""
""fullscreenenter"",""0"",""3244""
","
",22935.4,"<div class='center'><p>As the head captain, you do not have to rob any ships yourself. Another pirate will be doing the robbing for you. First, you will choose a pirate to rob the next ship.</p><p><img src='run_exp/static/images/tutorial/pirates_all_crop.png' height='200'></p><p>Then, you'll see if the pirate successfully robbed the ship of their gold. If they were successful, then you'll get a stack of gold coins like this:</p><p><img src='run_exp/static/images/tutorial/reward.png' height='150'></p><p> If they were <b>not</b> successful, then you'll get no gold coins, and you'll see a big red x like this: </p><p><img src='run_exp/static/images/tutorial/reward_no.png' height='150'></p><p> How much bonus money you make is based on how many gold coins you collect.</p<p><b>[Press the space bar to continue]</b></p></div>",32,,,,,,,,,,,,,,,,,,,,,,,
,instruc5,10,141580,0.0-10.0,"""event"",""trial"",""time""
""fullscreenenter"",""0"",""3244""
","
","
","""event"",""trial"",""time""
""fullscreenenter"",""0"",""3244""
","
",20451.6,run_exp/static/audio/clip_5_probabilistic.m4a,49,,,,,"<div class='center'><p>Even the most skilled pirate can not rob EVERY ship.</p><p> Some ships will have very strong protections against pirate attacks.</p><p> Blue beard, here, is very, very good at robbing ships, but he won't be successful every time he tries to rob one.</p><p> You can press the <b>‘1’</b> key on the keyboard to choose him.</p><p> Try choosing him 10 times to see how often he succeeds at robbing a ship. </p><p><img src='run_exp/static/images/tutorial/blue.png' height='500'></p></div>",,,,,,,,,,,,,,,,,,
,html-keyboard-response,11,143082,0.0-11.0,"""event"",""trial"",""time""
""fullscreenenter"",""0"",""3244""
","
","
","""event"",""trial"",""time""
""fullscreenenter"",""0"",""3244""
","
",null,<div class='center'><p><img src='run_exp/static/images/tutorial/blue_win.png' height='500'></p></div>,null,,,,,,,,,,,,,,,,,,,,,,,
,html-keyboard-response,12,143260,0.0-12.0,"""event"",""trial"",""time""
""fullscreenenter"",""0"",""3244""
","
","
","""event"",""trial"",""time""
""fullscreenenter"",""0"",""3244""
","
",176.9,<div class='center'><img src='run_exp/static/images/tutorial/blue.png' height='500'></p></div>,49,,,,,,,,,,,,,,,,,,,,,,,
,html-keyboard-response,13,144762,0.0-13.0,"""event"",""trial"",""time""
""fullscreenenter"",""0"",""3244""
","
","
","""event"",""trial"",""time""
""fullscreenenter"",""0"",""3244""
","
",null,<div class='center'><p><img src='run_exp/static/images/tutorial/blue_win.png' height='500'></p></div>,null,,,,,,,,,,,,,,,,,,,,,,,
,html-keyboard-response,14,144973,0.0-14.0,"""event"",""trial"",""time""
""fullscreenenter"",""0"",""3244""
","
","
","""event"",""trial"",""time""
""fullscreenenter"",""0"",""3244""
","
",209.9,<div class='center'><img src='run_exp/static/images/tutorial/blue.png' height='500'></p></div>,49,,,,,,,,,,,,,,,,,,,,,,,
,html-keyboard-response,15,146474,0.0-15.0,"""event"",""trial"",""time""
""fullscreenenter"",""0"",""3244""
","
","
","""event"",""trial"",""time""
""fullscreenenter"",""0"",""3244""
","
",null,<div class='center'><p><img src='run_exp/static/images/tutorial/blue_win.png' height='500'></p></div>,null,,,,,,,,,,,,,,,,,,,,,,,
,html-keyboard-response,16,147082,0.0-16.0,"""event"",""trial"",""time""
""fullscreenenter"",""0"",""3244""
","
","
","""event"",""trial"",""time""
""fullscreenenter"",""0"",""3244""
","
",606.2,<div class='center'><img src='run_exp/static/images/tutorial/blue.png' height='500'></p></div>,49,,,,,,,,,,,,,,,,,,,,,,,
,html-keyboard-response,17,148583,0.0-17.0,"""event"",""trial"",""time""
""fullscreenenter"",""0"",""3244""
","
","
","""event"",""trial"",""time""
""fullscreenenter"",""0"",""3244""
","
",null,<div class='center'><p><img src='run_exp/static/images/tutorial/blue_no_win.png' height='500'></p></div>,null,,,,,,,,,,,,,,,,,,,,,,,
,html-keyboard-response,18,149058,0.0-18.0,"""event"",""trial"",""time""
""fullscreenenter"",""0"",""3244""
","
","
","""event"",""trial"",""time""
""fullscreenenter"",""0"",""3244""
","
",473.2,<div class='center'><img src='run_exp/static/images/tutorial/blue.png' height='500'></p></div>,49,,,,,,,,,,,,,,,,,,,,,,,
,html-keyboard-response,19,150560,0.0-19.0,"""event"",""trial"",""time""
""fullscreenenter"",""0"",""3244""
","
","
","""event"",""trial"",""time""
""fullscreenenter"",""0"",""3244""
","
",null,<div class='center'><p><img src='run_exp/static/images/tutorial/blue_win.png' height='500'></p></div>,null,,,,,,,,,,,,,,,,,,,,,,,
,html-keyboard-response,20,151008,0.0-20.0,"""event"",""trial"",""time""
""fullscreenenter"",""0"",""3244""
","
","
","""event"",""trial"",""time""
""fullscreenenter"",""0"",""3244""
","
",447.1,<div class='center'><img src='run_exp/static/images/tutorial/blue.png' height='500'></p></div>,49,,,,,,,,,,,,,,,,,,,,,,,
,html-keyboard-response,21,152509,0.0-21.0,"""event"",""trial"",""time""
""fullscreenenter"",""0"",""3244""
","
","
","""event"",""trial"",""time""
""fullscreenenter"",""0"",""3244""
","
",null,<div class='center'><p><img src='run_exp/static/images/tutorial/blue_win.png' height='500'></p></div>,null,,,,,,,,,,,,,,,,,,,,,,,
,html-keyboard-response,22,152900,0.0-22.0,"""event"",""trial"",""time""
""fullscreenenter"",""0"",""3244""
","
","
","""event"",""trial"",""time""
""fullscreenenter"",""0"",""3244""
","
",389.8,<div class='center'><img src='run_exp/static/images/tutorial/blue.png' height='500'></p></div>,49,,,,,,,,,,,,,,,,,,,,,,,
,html-keyboard-response,23,154402,0.0-23.0,"""event"",""trial"",""time""
""fullscreenenter"",""0"",""3244""
","
","
","""event"",""trial"",""time""
""fullscreenenter"",""0"",""3244""
","
",null,<div class='center'><p><img src='run_exp/static/images/tutorial/blue_win.png' height='500'></p></div>,null,,,,,,,,,,,,,,,,,,,,,,,
,html-keyboard-response,24,154843,0.0-24.0,"""event"",""trial"",""time""
""fullscreenenter"",""0"",""3244""
","
","
","""event"",""trial"",""time""
""fullscreenenter"",""0"",""3244""
","
",439.9,<div class='center'><img src='run_exp/static/images/tutorial/blue.png' height='500'></p></div>,49,,,,,,,,,,,,,,,,,,,,,,,
,html-keyboard-response,25,156345,0.0-25.0,"""event"",""trial"",""time""
""fullscreenenter"",""0"",""3244""
","
","
","""event"",""trial"",""time""
""fullscreenenter"",""0"",""3244""
","
",null,<div class='center'><p><img src='run_exp/static/images/tutorial/blue_no_win.png' height='500'></p></div>,null,,,,,,,,,,,,,,,,,,,,,,,
,html-keyboard-response,26,157043,0.0-26.0,"""event"",""trial"",""time""
""fullscreenenter"",""0"",""3244""
","
","
","""event"",""trial"",""time""
""fullscreenenter"",""0"",""3244""
","
",696.5,<div class='center'><img src='run_exp/static/images/tutorial/blue.png' height='500'></p></div>,49,,,,,,,,,,,,,,,,,,,,,,,
,html-keyboard-response,27,158545,0.0-27.0,"""event"",""trial"",""time""
""fullscreenenter"",""0"",""3244""
","
","
","""event"",""trial"",""time""
""fullscreenenter"",""0"",""3244""
","
",null,<div class='center'><p><img src='run_exp/static/images/tutorial/blue_win.png' height='500'></p></div>,null,,,,,,,,,,,,,,,,,,,,,,,
,html-keyboard-response,28,159990,0.0-28.0,"""event"",""trial"",""time""
""fullscreenenter"",""0"",""3244""
","
","
","""event"",""trial"",""time""
""fullscreenenter"",""0"",""3244""
","
",1444.4,<div class='center'><img src='run_exp/static/images/tutorial/blue.png' height='500'></p></div>,49,,,,,,,,,,,,,,,,,,,,,,,
,html-keyboard-response,29,161492,0.0-29.0,"""event"",""trial"",""time""
""fullscreenenter"",""0"",""3244""
","
","
","""event"",""trial"",""time""
""fullscreenenter"",""0"",""3244""
","
",null,<div class='center'><p><img src='run_exp/static/images/tutorial/blue_win.png' height='500'></p></div>,null,,,,,,,,,,,,,,,,,,,,,,,
,instruc6,30,166994,0.0-30.0,"""event"",""trial"",""time""
""fullscreenenter"",""0"",""3244""
","
","
","""event"",""trial"",""time""
""fullscreenenter"",""0"",""3244""
","
",null,run_exp/static/audio/clip_6_blue_beard_outcome.m4a,null,,,,,"<div class='center'><p> See, he succeeded in robbing the ships most of the time but not every time. </p></div>",,,,,,,,,,,,,,,,,,
,html-keyboard-response,31,169419,0.0-31.0,"""event"",""trial"",""time""
""fullscreenenter"",""0"",""3244""
","
","
","""event"",""trial"",""time""
""fullscreenenter"",""0"",""3244""
","
",2424.1,"<div class='center'><p> See, he succeeded in robbing the ships most of the time but not every time. </p><p><b>[Press the space bar to continue]</b></p></div>",32,,,,,,,,,,,,,,,,,,,,,,,
,audio-keyboard-response,32,198453,0.0-32.0,"""event"",""trial"",""time""
""fullscreenenter"",""0"",""3244""
","
","
","""event"",""trial"",""time""
""fullscreenenter"",""0"",""3244""
","
",29031.7,run_exp/static/audio/clip_7_pick_pirate.m4a,51,,,,,,,,,,,,,,,,,,,,,,,
,audio-keyboard-response,33,201377,0.0-33.0-0.0,"""event"",""trial"",""time""
""fullscreenenter"",""0"",""3244""
","
","
","""event"",""trial"",""time""
""fullscreenenter"",""0"",""3244""
","
",2919.9,run_exp/static/audio/clip_8_chosen_pirate_win.m4a,32,,,,,,,,,,,,,,,,,,,,,,,
,audio-keyboard-response,34,203283,0.0-33.0-1.0,"""event"",""trial"",""time""
""fullscreenenter"",""0"",""3244""
","
","
","""event"",""trial"",""time""
""fullscreenenter"",""0"",""3244""
","
",1903.2,run_exp/static/audio/clip_9_pick_a_pirate_again.m4a,50,,,,,,,,,,,,,,,,,,,,,,,
,audio-keyboard-response,35,205903,0.0-34.0-0.0,"""event"",""trial"",""time""
""fullscreenenter"",""0"",""3244""
","
","
","""event"",""trial"",""time""
""fullscreenenter"",""0"",""3244""
","
",2617.4,run_exp/static/audio/clip_10_chosen_pirate_loss.m4a,32,,,,,,,,,,,,,,,,,,,,,,,
,instruc9,36,211658,0.0-35.0-0.0,"""event"",""trial"",""time""
""fullscreenenter"",""0"",""3244""
","
","
","""event"",""trial"",""time""
""fullscreenenter"",""0"",""3244""
","
",null,run_exp/static/audio/clip_11_time_out.m4a,null,,,,,"<div class='center'><p>If you don’t make your choice fast enough, you’ll have to wait a few seconds before you can make another one. </p><p><img src='run_exp/static/images/miscellaneous/hurry_up.png' height='500'></p></div>",,,,,,,,,,,,,,,,,,
,html-keyboard-response,37,213118,0.0-35.0-1.0,"""event"",""trial"",""time""
""fullscreenenter"",""0"",""3244""
","
","
","""event"",""trial"",""time""
""fullscreenenter"",""0"",""3244""
","
",1457.2,"<div class='center'><p>If you don’t make your choice fast enough, you’ll have to wait a few seconds before you can make another one. </p><p><img src='run_exp/static/images/miscellaneous/hurry_up.png' height='500'></p><p><b>[Press the space bar to continue]</b></p></div>",32,,,,,,,,,,,,,,,,,,,,,,,
,instruc10,38,252452,0.0-35.0-2.0,"""event"",""trial"",""time""
""fullscreenenter"",""0"",""3244""
","
","
","""event"",""trial"",""time""
""fullscreenenter"",""0"",""3244""
","
",null,run_exp/static/audio/clip_12_probe.m4a,null,,,,,"<div class='center'><p>Once you've chosen a pirate, you’ll be shown the ship they are robbing. You will never rob the same ship twice. Ships can be told apart from one another by the image on them. These are the goods that they sell. See, this ship has a travel mug on it. </p><p> You’ll have to remember which island you saw each ship on. You will win more gold coins and hence more bonus money if you remember correctly! To help you remember, you can imagine a story. For example, here, you could imagine a mug full of water in the desert. Or, as another example, if on the forest island, your pirate robbed a ship with an apple on it, you could imagine an apple falling from a tree in the forest. </p><p><img src='run_exp/static/images/tutorial/example_probe.png' height='500'></p></div>",,,,,,,,,,,,,,,,,,
,html-keyboard-response,39,263566,0.0-35.0-3.0,"""event"",""trial"",""time""
""fullscreenenter"",""0"",""3244""
","
","
","""event"",""trial"",""time""
""fullscreenenter"",""0"",""3244""
","
",11112.2,"<div class='center'><p>Once you've chosen a pirate, you’ll be shown the ship they are robbing. You will never rob the same ship twice. Ships can be told apart from one another by the image on them. These are the goods that they sell. See, this ship has a travel mug on it. </p><p> You’ll have to remember which island you saw each ship on. You will win more gold coins and hence more bonus money if you remember correctly! To help you remember, you can imagine a story. For example, here, you could imagine a mug full of water in the desert. Or, as another example, if on the forest island, your pirate robbed a ship with an apple on it, you could imagine an apple falling from a tree in the forest. </p><p><img src='run_exp/static/images/tutorial/example_probe.png' height='500'></p><p><b>[Press the space bar to continue]</b></p></div>",32,,,,,,,,,,,,,,,,,,,,,,,
,instruc11,40,280034,0.0-35.0-4.0,"""event"",""trial"",""time""
""fullscreenenter"",""0"",""3244""
","
","
","""event"",""trial"",""time""
""fullscreenenter"",""0"",""3244""
","
",null,run_exp/static/audio/clip_13_changepoint.m4a,null,,,,,"<div class='center'><p>How successful a pirate is at robbing ships will depend on the island you’re on.</p><p> A pirate may have visited this island many times before and gained a lot of practice robbing ships there.</p><p>So, they’re more likely to be successful than a pirate who has never visited the island before.</p></div>",,,,,,,,,,,,,,,,,,
,html-keyboard-response,41,288225,0.0-35.0-5.0,"""event"",""trial"",""time""
""fullscreenenter"",""0"",""3244""
","
","
","""event"",""trial"",""time""
""fullscreenenter"",""0"",""3244""
","
",8190.1,"<div class='center'><p>How successful a pirate is at robbing ships will depend on the island you’re on.</p><p> A pirate may have visited this island many times before and gained a lot of practice robbing ships there.</p><p>So, they’re more likely to be successful than a pirate who has never visited the island before.</p><p><b>[Press the space bar to continue]</b></p></div>",32,,,,,,,,,,,,,,,,,,,,,,,
,instruc12,42,329562,0.0-35.0-6.0,"""event"",""trial"",""time""
""fullscreenenter"",""0"",""3244""
","
","
","""event"",""trial"",""time""
""fullscreenenter"",""0"",""3244""
","
",null,run_exp/static/audio/clip_14_drift.m4a,null,,,,,"<div class='center'><p>How successful a pirate is at robbing ships can also change over the time spent on the island. </p><p> Ships may hear from islanders about the pirates coming and will improve their protections against the attack. This may make it harder to rob them.</p><p> Ships may also become lazy and weaken the strength of their protections. This may make it easier to rob them.</p><br><p>Things are always changing on the high seas! So, try your best to pay attention!</p><p><img src='run_exp/static/images/tutorial/contingency.png' height='500'></p></div>",,,,,,,,,,,,,,,,,,
,html-keyboard-response,43,331488,0.0-35.0-7.0,"""event"",""trial"",""time""
""fullscreenenter"",""0"",""3244""
","
","
","""event"",""trial"",""time""
""fullscreenenter"",""0"",""3244""
","
",1924.2,"<div class='center'><p>How successful a pirate is at robbing ships can also change over the time spent on the island. </p><p> Ships may hear from islanders about the pirates coming and will improve their protections against the attack. This may make it harder to rob them.</p><p> Ships may also become lazy and weaken the strength of their protections. This may make it easier to rob them.</p><br><p>Things are always changing on the high seas! So, try your best to pay attention!</p><p><img src='run_exp/static/images/tutorial/contingency.png' height='500'></p><p><b>[Press the space bar to continue]</b></p></div>",32,,,,,,,,,,,,,,,,,,,,,,,
,instruc13,44,366919,0.0-35.0-8.0,"""event"",""trial"",""time""
""fullscreenenter"",""0"",""3244""
","
","
","""event"",""trial"",""time""
""fullscreenenter"",""0"",""3244""
","
",null,run_exp/static/audio/clip_15_summary.m4a,null,,,,,"<div class='center'><p>Let's go over the instructions quickly again. You have two important things to do: </p><b><p> 1. Pick the pirate who is the best at robbing ships on the current island. </p></b><b><p> 2. Remember on which island a ship was robbed.</p> </b><p>The amount of bonus money you can win depends on both.</p><p><br><p>Let’s try a practice game. The game will start by showing you the pirates. First, pick a pirate using the <b> 1, 2, 3 </b> keys on your keyboard. When you are shown a ship, try to remember which island you’re on by making up a story.</p><p>This is just a practice game, so you’re not playing for money. </p><p> Good luck! This game will be very difficult but try your best!</p></div>",,,,,,,,,,,,,,,,,,
,html-keyboard-response,45,370554,0.0-35.0-9.0,"""event"",""trial"",""time""
""fullscreenenter"",""0"",""3244""
","
","
","""event"",""trial"",""time""
""fullscreenenter"",""0"",""3244""
","
",3633.4,"<div class='center'><p>Let's go over the instructions quickly again. You have two important things to do: </p><b><p> 1. Pick the pirate who is the best at robbing ships on the current island. </p></b><b><p> 2. Remember on which island a ship was robbed.</p> </b><p>The amount of bonus money you can win depends on both.</p><p><br><p>Let’s try a practice game. The game will start by showing you the pirates. First, pick a pirate using the <b> 1, 2, 3 </b> keys on your keyboard. When you are shown a ship, try to remember which island you’re on by making up a story.</p><p>This is just a practice game, so you’re not playing for money. </p><p> Good luck! This game will be very difficult but try your best!</p><p><b>[Press the space bar to continue]</b></p></div>",32,,,,,,,,,,,,,,,,,,,,,,,
,do_welcome,46,374566,0.0-35.0-10.0,"""event"",""trial"",""time""
""fullscreenenter"",""0"",""3244""
","
","
","""event"",""trial"",""time""
""fullscreenenter"",""0"",""3244""
","
",null,,,,,,,,null,,,,,,,,,,,,,,,,,
,do_trial,47,380574,0.0-35.0-11.0,"""event"",""trial"",""time""
""fullscreenenter"",""0"",""3244""
","
","
","""event"",""trial"",""time""
""fullscreenenter"",""0"",""3244""
","
",null,,,,,,,,null,"1,0,0",,,,,,,,,,,,,,,,
,html-keyboard-response,48,381576,0.0-36.0-0.0,"""event"",""trial"",""time""
""fullscreenenter"",""0"",""3244""
","
","
","""event"",""trial"",""time""
""fullscreenenter"",""0"",""3244""
","
",null,<p></p>,null,,,,,,,,,,,,,,,,,,,,,,,
,do_trial,49,387201,0.0-36.0-1.0,"""event"",""trial"",""time""
""fullscreenenter"",""0"",""3244""
","
","
","""event"",""trial"",""time""
""fullscreenenter"",""0"",""3244""
","
",1118.1,,,,,,,,49,"1,0,0",,,,,,,,,,,,,,,,
,html-keyboard-response,50,388202,0.0-37.0-0.0,"""event"",""trial"",""time""
""fullscreenenter"",""0"",""3244""
","
","
","""event"",""trial"",""time""
""fullscreenenter"",""0"",""3244""
","
",null,<p></p>,null,,,,,,,,,,,,,,,,,,,,,,,
,do_trial,51,394695,0.0-37.0-1.0,"""event"",""trial"",""time""
""fullscreenenter"",""0"",""3244""
","
","
","""event"",""trial"",""time""
""fullscreenenter"",""0"",""3244""
","
",1985.9,,,,,,,,50,"1,1,0",,,,,,,,,,,,,,,,
,html-keyboard-response,52,395697,0.0-38.0-0.0,"""event"",""trial"",""time""
""fullscreenenter"",""0"",""3244""
","
","
","""event"",""trial"",""time""
""fullscreenenter"",""0"",""3244""
","
",null,<p></p>,null,,,,,,,,,,,,,,,,,,,,,,,
,do_trial,53,400723,0.0-38.0-1.0,"""event"",""trial"",""time""
""fullscreenenter"",""0"",""3244""
","
","
","""event"",""trial"",""time""
""fullscreenenter"",""0"",""3244""
","
",519.8,,,,,,,,51,"1,0,1",,,,,,,,,,,,,,,,
,html-keyboard-response,54,401725,0.0-39.0-0.0,"""event"",""trial"",""time""
""fullscreenenter"",""0"",""3244""
","
","
","""event"",""trial"",""time""
""fullscreenenter"",""0"",""3244""
","
",null,<p></p>,null,,,,,,,,,,,,,,,,,,,,,,,
,do_trial,55,407733,0.0-39.0-1.0,"""event"",""trial"",""time""
""fullscreenenter"",""0"",""3244""
","
","
","""event"",""trial"",""time""
""fullscreenenter"",""0"",""3244""
","
",null,,,,,,,,null,"0,1,0",,,,,,,,,,,,,,,,
,html-keyboard-response,56,408735,0.0-40.0-0.0,"""event"",""trial"",""time""
""fullscreenenter"",""0"",""3244""
","
","
","""event"",""trial"",""time""
""fullscreenenter"",""0"",""3244""
","
",null,<p></p>,null,,,,,,,,,,,,,,,,,,,,,,,
,do_trial,57,413847,0.0-40.0-1.0,"""event"",""trial"",""time""
""fullscreenenter"",""0"",""3244""
","
","
","""event"",""trial"",""time""
""fullscreenenter"",""0"",""3244""
","
",604.9,,,,,,,,51,"0,1,0",,,,,,,,,,,,,,,,
,html-keyboard-response,58,414848,0.0-41.0-0.0,"""event"",""trial"",""time""
""fullscreenenter"",""0"",""3244""
","
","
","""event"",""trial"",""time""
""fullscreenenter"",""0"",""3244""
","
",null,<p></p>,null,,,,,,,,,,,,,,,,,,,,,,,
,do_trial,59,419920,0.0-41.0-1.0,"""event"",""trial"",""time""
""fullscreenenter"",""0"",""3244""
","
","
","""event"",""trial"",""time""
""fullscreenenter"",""0"",""3244""
","
",565.4,,,,,,,,51,"1,0,0",,,,,,,,,,,,,,,,
,do_bye,60,421426,0.0-42.0-0.0,"""event"",""trial"",""time""
""fullscreenenter"",""0"",""3244""
","
","
","""event"",""trial"",""time""
""fullscreenenter"",""0"",""3244""
","
",null,,,,,,,,null,,,,,,,,,,,,,,,,,
,do_travel,61,430430,0.0-42.0-1.0,"""event"",""trial"",""time""
""fullscreenenter"",""0"",""3244""
","
","
","""event"",""trial"",""time""
""fullscreenenter"",""0"",""3244""
","
",null,,,,,,,,null,,,,,,,,,,,,,,,,,
,do_welcome,62,434435,0.0-42.0-2.0,"""event"",""trial"",""time""
""fullscreenenter"",""0"",""3244""
","
","
","""event"",""trial"",""time""
""fullscreenenter"",""0"",""3244""
","
",null,,,,,,,,null,,,,,,,,,,,,,,,,,
,do_trial,63,440442,0.0-42.0-3.0,"""event"",""trial"",""time""
""fullscreenenter"",""0"",""3244""
","
","
","""event"",""trial"",""time""
""fullscreenenter"",""0"",""3244""
","
",null,,,,,,,,null,"1,0,0",,,,,,,,,,,,,,,,
,do_bye,64,441947,0.0-43.0-0.0,"""event"",""trial"",""time""
""fullscreenenter"",""0"",""3244""
","
","
","""event"",""trial"",""time""
""fullscreenenter"",""0"",""3244""
","
",null,,,,,,,,null,,,,,,,,,,,,,,,,,
,do_travel,65,450950,0.0-43.0-1.0,"""event"",""trial"",""time""
""fullscreenenter"",""0"",""3244""
","
","
","""event"",""trial"",""time""
""fullscreenenter"",""0"",""3244""
","
",null,,,,,,,,null,,,,,,,,,,,,,,,,,
,do_welcome,66,454956,0.0-43.0-2.0,"""event"",""trial"",""time""
""fullscreenenter"",""0"",""3244""
","
","
","""event"",""trial"",""time""
""fullscreenenter"",""0"",""3244""
","
",null,,,,,,,,null,,,,,,,,,,,,,,,,,
,do_trial,67,460028,0.0-43.0-3.0,"""event"",""trial"",""time""
""fullscreenenter"",""0"",""3244""
","
","
","""event"",""trial"",""time""
""fullscreenenter"",""0"",""3244""
","
",556.6,,,,,,,,50,"1,0,0",,,,,,,,,,,,,,,,
,html-keyboard-response,68,461030,0.0-44.0-0.0,"""event"",""trial"",""time""
""fullscreenenter"",""0"",""3244""
","
","
","""event"",""trial"",""time""
""fullscreenenter"",""0"",""3244""
","
",null,<p></p>,null,,,,,,,,,,,,,,,,,,,,,,,
,do_trial,69,466106,0.0-44.0-1.0,"""event"",""trial"",""time""
""fullscreenenter"",""0"",""3244""
","
","
","""event"",""trial"",""time""
""fullscreenenter"",""0"",""3244""
","
",569.7,,,,,,,,51,"1,0,1",,,,,,,,,,,,,,,,
,html-keyboard-response,70,467108,0.0-45.0-0.0,"""event"",""trial"",""time""
""fullscreenenter"",""0"",""3244""
","
","
","""event"",""trial"",""time""
""fullscreenenter"",""0"",""3244""
","
",null,<p></p>,null,,,,,,,,,,,,,,,,,,,,,,,
,do_trial,71,472068,0.0-45.0-1.0,"""event"",""trial"",""time""
""fullscreenenter"",""0"",""3244""
","
","
","""event"",""trial"",""time""
""fullscreenenter"",""0"",""3244""
","
",453.9,,,,,,,,49,"1,1,0",,,,,,,,,,,,,,,,
,html-keyboard-response,72,473069,0.0-46.0-0.0,"""event"",""trial"",""time""
""fullscreenenter"",""0"",""3244""
","
","
","""event"",""trial"",""time""
""fullscreenenter"",""0"",""3244""
","
",null,<p></p>,null,,,,,,,,,,,,,,,,,,,,,,,
,do_trial,73,477790,0.0-46.0-1.0,"""event"",""trial"",""time""
""fullscreenenter"",""0"",""3244""
","
","
","""event"",""trial"",""time""
""fullscreenenter"",""0"",""3244""
","
",214.3,,,,,,,,51,"0,0,1",,,,,,,,,,,,,,,,
,html-keyboard-response,74,478792,0.0-47.0-0.0,"""event"",""trial"",""time""
""fullscreenenter"",""0"",""3244""
","
","
","""event"",""trial"",""time""
""fullscreenenter"",""0"",""3244""
","
",null,<p></p>,null,,,,,,,,,,,,,,,,,,,,,,,
,do_trial,75,483886,0.0-47.0-1.0,"""event"",""trial"",""time""
""fullscreenenter"",""0"",""3244""
","
","
","""event"",""trial"",""time""
""fullscreenenter"",""0"",""3244""
","
",587.7,,,,,,,,49,"1,0,1",,,,,,,,,,,,,,,,
,html-keyboard-response,76,484008,0.0-48.0-0.0,"""event"",""trial"",""time""
""fullscreenenter"",""0"",""3244""
","
","
","""event"",""trial"",""time""
""fullscreenenter"",""0"",""3244""
","
",119.9,<div class='center'><p><img src='run_exp/static/images/tutorial/prac_best_pirate.png'  height='500'></p></div>,49,,,,,,,,,,,,,,,,,,,,,,,
,html-keyboard-response,77,486245,0.0-49.0-0.0,"""event"",""trial"",""time""
""fullscreenenter"",""0"",""3244""
","
","
","""event"",""trial"",""time""
""fullscreenenter"",""0"",""3244""
","
",2235.1,<div class='center'><p>That's correct! Red beard was the best.</p><p><b>[Press the space bar to continue]</b></p></div>,32,,,,,,,,,,,,,,,,,,,,,,,
,html-keyboard-response,78,498119,0.0-49.0-1.0,"""event"",""trial"",""time""
""fullscreenenter"",""0"",""3244""
","
","
","""event"",""trial"",""time""
""fullscreenenter"",""0"",""3244""
","
",11872.7,<div class='center'><p><img src='run_exp/static/images/tutorial/prac_source.png'  height='500'></p></div>,50,,,,,,,,,,,,,,,,,,,,,,,
,html-keyboard-response,79,500254,0.0-50.0-0.0,"""event"",""trial"",""time""
""fullscreenenter"",""0"",""3244""
","
","
","""event"",""trial"",""time""
""fullscreenenter"",""0"",""3244""
","
",2133.4,<div class='center'><p>That's correct! You saw this ship on the cavern island.</p><p><b>[Press the space bar to continue]</b></p></div>,32,,,,,,,,,,,,,,,,,,,,,,,
,quiz_beginning,80,511533,0.0-50.0-1.0,"""event"",""trial"",""time""
""fullscreenenter"",""0"",""3244""
","
","
","""event"",""trial"",""time""
""fullscreenenter"",""0"",""3244""
","
",null,run_exp/static/audio/clip_16_quiz_intro.m4a,null,,,,,"<div class='center'><p>Good job on the practice game! Now, you will be asked some true or false questions to make sure you really understand the rules of the game.</p><p> Press <b>'1'</b> on the keyboard for true and press <b>'2'</b> for false.</p></div>",,,,,,,,,,,,,,,,,,
,audio-keyboard-response,81,536286,0.0-50.0-2.0,"""event"",""trial"",""time""
""fullscreenenter"",""0"",""3244""
","
","
","""event"",""trial"",""time""
""fullscreenenter"",""0"",""3244""
","
",24751.2,run_exp/static/audio/clip_17_q1.m4a,49,,,,,,,,,,,,,,,,,,,,,,,
,correct,82,538825,0.0-51.0-0.0,"""event"",""trial"",""time""
""fullscreenenter"",""0"",""3244""
","
","
","""event"",""trial"",""time""
""fullscreenenter"",""0"",""3244""
","
",null,run_exp/static/audio/clip_18_correct.m4a,null,,,,,<div class='center'><p>That's correct!</p></div>,,,,,,,,,,,,,,,,,,
,html-keyboard-response,83,539988,0.0-51.0-1.0,"""event"",""trial"",""time""
""fullscreenenter"",""0"",""3244""
","
","
","""event"",""trial"",""time""
""fullscreenenter"",""0"",""3244""
","
",1162.2,<div class='center'><p>That's correct!</p><p><b>[Press the space bar to continue]</b></p></div>,32,,,,,,,,,,,,,,,,,,,,,,,
,audio-keyboard-response,84,555123,0.0-51.0-2.0,"""event"",""trial"",""time""
""fullscreenenter"",""0"",""3244""
","
","
","""event"",""trial"",""time""
""fullscreenenter"",""0"",""3244""
","
",15132.9,run_exp/static/audio/clip_20_q2.m4a,49,,,,,,,,,,,,,,,,,,,,,,,
,q2_err,85,560848,0.0-52.0-0.0,"""event"",""trial"",""time""
""fullscreenenter"",""0"",""3244""
","
","
","""event"",""trial"",""time""
""fullscreenenter"",""0"",""3244""
","
",null,run_exp/static/audio/clip_21_wrong_q2.m4a,null,,,,,<div class='center'><p>That’s incorrect. Which pirate is the best may change during your time on the island.</p></div>,,,,,,,,,,,,,,,,,,
,html-keyboard-response,86,562376,0.0-52.0-1.0,"""event"",""trial"",""time""
""fullscreenenter"",""0"",""3244""
","
","
","""event"",""trial"",""time""
""fullscreenenter"",""0"",""3244""
","
",1526.1,<div class='center'><p>That’s incorrect. Which pirate is the best may change during your time on the island.</p><p><b>[Press the space bar to continue]</b></p></div>,32,,,,,,,,,,,,,,,,,,,,,,,
,audio-keyboard-response,87,570603,0.0-52.0-2.0,"""event"",""trial"",""time""
""fullscreenenter"",""0"",""3244""
","
","
","""event"",""trial"",""time""
""fullscreenenter"",""0"",""3244""
","
",8225.8,run_exp/static/audio/clip_22_q3.m4a,50,,,,,,,,,,,,,,,,,,,,,,,
,correct,88,573301,0.0-53.0-0.0,"""event"",""trial"",""time""
""fullscreenenter"",""0"",""3244""
","
","
","""event"",""trial"",""time""
""fullscreenenter"",""0"",""3244""
","
",null,run_exp/static/audio/clip_18_correct.m4a,null,,,,,<div class='center'><p>That's correct!</p></div>,,,,,,,,,,,,,,,,,,
,html-keyboard-response,89,580154,0.0-53.0-1.0,"""event"",""trial"",""time""
""fullscreenenter"",""0"",""3244""
","
","
","""event"",""trial"",""time""
""fullscreenenter"",""0"",""3244""
","
",6852.2,<div class='center'><p>That's correct!</p><p><b>[Press the space bar to continue]</b></p></div>,32,,,,,,,,,,,,,,,,,,,,,,,
,audio-keyboard-response,90,586449,0.0-53.0-2.0,"""event"",""trial"",""time""
""fullscreenenter"",""0"",""3244""
","
","
","""event"",""trial"",""time""
""fullscreenenter"",""0"",""3244""
","
",6293,run_exp/static/audio/clip_24_q4.m4a,49,,,,,,,,,,,,,,,,,,,,,,,
,correct,91,589099,0.0-54.0-0.0,"""event"",""trial"",""time""
""fullscreenenter"",""0"",""3244""
","
","
","""event"",""trial"",""time""
""fullscreenenter"",""0"",""3244""
","
",null,run_exp/static/audio/clip_18_correct.m4a,null,,,,,<div class='center'><p>That's correct!</p></div>,,,,,,,,,,,,,,,,,,
,html-keyboard-response,92,589904,0.0-54.0-1.0,"""event"",""trial"",""time""
""fullscreenenter"",""0"",""3244""
","
","
","""event"",""trial"",""time""
""fullscreenenter"",""0"",""3244""
","
",804.3,<div class='center'><p>That's correct!</p><p><b>[Press the space bar to continue]</b></p></div>,32,,,,,,,,,,,,,,,,,,,,,,,
,q_all_err,93,596255,0.0-55.0-0.0,"""event"",""trial"",""time""
""fullscreenenter"",""0"",""3244""
","
","
","""event"",""trial"",""time""
""fullscreenenter"",""0"",""3244""
","
",null,run_exp/static/audio/clip_26_quiz_redo.m4a,null,,,,,"<div class='center'><p>Oops, you missed some questions. Now that you’ve heard the correct answers. Try the quiz again! </p></div>",,,,,,,,,,,,,,,,,,
,html-keyboard-response,94,598407,0.0-55.0-1.0,"""event"",""trial"",""time""
""fullscreenenter"",""0"",""3244""
","
","
","""event"",""trial"",""time""
""fullscreenenter"",""0"",""3244""
","
",2150.9,"<div class='center'><p>Oops, you missed some questions. Now that you’ve heard the correct answers. Try the quiz again! </p><p><b>[Press the space bar to continue]</b></p></div>",32,,,,,,,,,,,,,,,,,,,,,,,
,audio-keyboard-response,95,601325,0.0-55.0-2.0,"""event"",""trial"",""time""
""fullscreenenter"",""0"",""3244""
","
","
","""event"",""trial"",""time""
""fullscreenenter"",""0"",""3244""
","
",2916.1,run_exp/static/audio/clip_17_q1.m4a,49,,,,,,,,,,,,,,,,,,,,,,,
,correct,96,603967,0.0-56.0-0.0,"""event"",""trial"",""time""
""fullscreenenter"",""0"",""3244""
","
","
","""event"",""trial"",""time""
""fullscreenenter"",""0"",""3244""
","
",null,run_exp/static/audio/clip_18_correct.m4a,null,,,,,<div class='center'><p>That's correct!</p></div>,,,,,,,,,,,,,,,,,,
,html-keyboard-response,97,604527,0.0-56.0-1.0,"""event"",""trial"",""time""
""fullscreenenter"",""0"",""3244""
","
","
","""event"",""trial"",""time""
""fullscreenenter"",""0"",""3244""
","
",558.8,<div class='center'><p>That's correct!</p><p><b>[Press the space bar to continue]</b></p></div>,32,,,,,,,,,,,,,,,,,,,,,,,
,audio-keyboard-response,98,610127,0.0-56.0-2.0,"""event"",""trial"",""time""
""fullscreenenter"",""0"",""3244""
","
","
","""event"",""trial"",""time""
""fullscreenenter"",""0"",""3244""
","
",5598.9,run_exp/static/audio/clip_20_q2.m4a,50,,,,,,,,,,,,,,,,,,,,,,,
,correct,99,612794,0.0-57.0-0.0,"""event"",""trial"",""time""
""fullscreenenter"",""0"",""3244""
","
","
","""event"",""trial"",""time""
""fullscreenenter"",""0"",""3244""
","
",null,run_exp/static/audio/clip_18_correct.m4a,null,,,,,<div class='center'><p>That's correct!</p></div>,,,,,,,,,,,,,,,,,,
,html-keyboard-response,100,613521,0.0-57.0-1.0,"""event"",""trial"",""time""
""fullscreenenter"",""0"",""3244""
","
","
","""event"",""trial"",""time""
""fullscreenenter"",""0"",""3244""
","
",726.4,<div class='center'><p>That's correct!</p><p><b>[Press the space bar to continue]</b></p></div>,32,,,,,,,,,,,,,,,,,,,,,,,
,audio-keyboard-response,101,616099,0.0-57.0-2.0,"""event"",""trial"",""time""
""fullscreenenter"",""0"",""3244""
","
","
","""event"",""trial"",""time""
""fullscreenenter"",""0"",""3244""
","
",2573.8,run_exp/static/audio/clip_22_q3.m4a,50,,,,,,,,,,,,,,,,,,,,,,,
,correct,102,618743,0.0-58.0-0.0,"""event"",""trial"",""time""
""fullscreenenter"",""0"",""3244""
","
","
","""event"",""trial"",""time""
""fullscreenenter"",""0"",""3244""
","
",null,run_exp/static/audio/clip_18_correct.m4a,null,,,,,<div class='center'><p>That's correct!</p></div>,,,,,,,,,,,,,,,,,,
,html-keyboard-response,103,619533,0.0-58.0-1.0,"""event"",""trial"",""time""
""fullscreenenter"",""0"",""3244""
","
","
","""event"",""trial"",""time""
""fullscreenenter"",""0"",""3244""
","
",789.8,<div class='center'><p>That's correct!</p><p><b>[Press the space bar to continue]</b></p></div>,32,,,,,,,,,,,,,,,,,,,,,,,
,audio-keyboard-response,104,622570,0.0-58.0-2.0,"""event"",""trial"",""time""
""fullscreenenter"",""0"",""3244""
","
","
","""event"",""trial"",""time""
""fullscreenenter"",""0"",""3244""
","
",3035.8,run_exp/static/audio/clip_24_q4.m4a,49,,,,,,,,,,,,,,,,,,,,,,,
,correct,105,625248,0.0-59.0-0.0,"""event"",""trial"",""time""
""fullscreenenter"",""0"",""3244""
","
","
","""event"",""trial"",""time""
""fullscreenenter"",""0"",""3244""
","
",null,run_exp/static/audio/clip_18_correct.m4a,null,,,,,<div class='center'><p>That's correct!</p></div>,,,,,,,,,,,,,,,,,,
,html-keyboard-response,106,625907,0.0-59.0-1.0,"""event"",""trial"",""time""
""fullscreenenter"",""0"",""3244""
","
","
","""event"",""trial"",""time""
""fullscreenenter"",""0"",""3244""
","
",657.7,<div class='center'><p>That's correct!</p><p><b>[Press the space bar to continue]</b></p></div>,32,,,,,,,,,,,,,,,,,,,,,,,
,q_all_corr,107,634632,0.0-60.0-0.0,"""event"",""trial"",""time""
""fullscreenenter"",""0"",""3244""
","
","
","""event"",""trial"",""time""
""fullscreenenter"",""0"",""3244""
","
",null,run_exp/static/audio/clip_27_quiz_all_correct.m4a,null,,,,,<div class='center'><p>Good job! You’re now ready to move on to the real game! Remember this game will be difficult but don't get discouraged and try your best!</p></div>,,,,,,,,,,,,,,,,,,
,html-keyboard-response,108,642224,0.0-60.0-1.0,"""event"",""trial"",""time""
""fullscreenenter"",""0"",""3244""
","
","
","""event"",""trial"",""time""
""fullscreenenter"",""0"",""3244""
","
",7588.6,<div class='center'><p>Good job! You’re now ready to move on to the real game! Remember this game will be difficult but don't get discouraged and try your best!</p><p><b>[Press the space bar to continue]</b></p></div>,32,,,,,,,,,,,,,,,,,,,,,,,
,do_welcome,109,646230,0.0-61.0-0.0,"""event"",""trial"",""time""
""fullscreenenter"",""0"",""3244""
","
","
","""event"",""trial"",""time""
""fullscreenenter"",""0"",""3244""
","
",null,,,,,,,,null,,,,,,,,,,,,,,,,,
,do_trial,110,652290,0.0-62.0-0.0,"""event"",""trial"",""time""
""fullscreenenter"",""0"",""3244""
","
","
","""event"",""trial"",""time""
""fullscreenenter"",""0"",""3244""
","
",null,,,,,,,,null,"1,0,0",0,highway,0,probe-142,0.6,0.3,0.1,,,,,,,,,
,html-keyboard-response,111,653292,0.0-62.0-1.0,"""event"",""trial"",""time""
""fullscreenenter"",""0"",""3244""
","
","
","""event"",""trial"",""time""
""fullscreenenter"",""0"",""3244""
","
",null,<p></p>,null,,,,,,,,,,,,,,,,,,,,,,,
,do_trial,112,658581,0.0-63.0-0.0,"""event"",""trial"",""time""
""fullscreenenter"",""0"",""3244""
","
","
","""event"",""trial"",""time""
""fullscreenenter"",""0"",""3244""
","
",730.8,,,,,,,,51,"0,1,0",0,highway,1,probe-67,0.532417294,0.303182281,0.131370391,0,,,,,,,,
,html-keyboard-response,113,659582,0.0-63.0-1.0,"""event"",""trial"",""time""
""fullscreenenter"",""0"",""3244""
","
","
","""event"",""trial"",""time""
""fullscreenenter"",""0"",""3244""
","
",null,<p></p>,null,,,,,,,,,,,,,,,,,,,,,,,
,do_trial,114,665363,0.0-64.0-0.0,"""event"",""trial"",""time""
""fullscreenenter"",""0"",""3244""
","
","
","""event"",""trial"",""time""
""fullscreenenter"",""0"",""3244""
","
",1224.6,,,,,,,,50,"0,0,0",0,highway,2,probe-04,0.484154687,0.397565185,0.084975373,0,,,,,,,,
,html-keyboard-response,115,666365,0.0-64.0-1.0,"""event"",""trial"",""time""
""fullscreenenter"",""0"",""3244""
","
","
","""event"",""trial"",""time""
""fullscreenenter"",""0"",""3244""
","
",null,<p></p>,null,,,,,,,,,,,,,,,,,,,,,,,
,do_trial,116,671349,0.0-65.0-0.0,"""event"",""trial"",""time""
""fullscreenenter"",""0"",""3244""
","
","
","""event"",""trial"",""time""
""fullscreenenter"",""0"",""3244""
","
",428.8,,,,,,,,49,"1,1,0",0,highway,3,probe-65,0.655391645,0.399789244,0.099436072,1,,,,,,,,
,html-keyboard-response,117,672350,0.0-65.0-1.0,"""event"",""trial"",""time""
""fullscreenenter"",""0"",""3244""
","
","
","""event"",""trial"",""time""
""fullscreenenter"",""0"",""3244""
","
",null,<p></p>,null,,,,,,,,,,,,,,,,,,,,,,,
,do_trial,118,678121,0.0-66.0-0.0,"""event"",""trial"",""time""
""fullscreenenter"",""0"",""3244""
","
","
","""event"",""trial"",""time""
""fullscreenenter"",""0"",""3244""
","
",1215.6,,,,,,,,51,"1,1,0",0,highway,4,probe-185,0.843717204,0.307405284,0.145423506,0,,,,,,,,
,html-keyboard-response,119,679123,0.0-66.0-1.0,"""event"",""trial"",""time""
""fullscreenenter"",""0"",""3244""
","
","
","""event"",""trial"",""time""
""fullscreenenter"",""0"",""3244""
","
",null,<p></p>,null,,,,,,,,,,,,,,,,,,,,,,,
,do_trial,120,684444,0.0-67.0-0.0,"""event"",""trial"",""time""
""fullscreenenter"",""0"",""3244""
","
","
","""event"",""trial"",""time""
""fullscreenenter"",""0"",""3244""
","
",763.1,,,,,,,,50,"1,1,0",0,highway,5,probe-07,0.657708581,0.3032086,0.136452668,1,,,,,,,,
,html-keyboard-response,121,685446,0.0-67.0-1.0,"""event"",""trial"",""time""
""fullscreenenter"",""0"",""3244""
","
","
","""event"",""trial"",""time""
""fullscreenenter"",""0"",""3244""
","
",null,<p></p>,null,,,,,,,,,,,,,,,,,,,,,,,
,do_trial,122,690206,0.0-68.0-0.0,"""event"",""trial"",""time""
""fullscreenenter"",""0"",""3244""
","
","
","""event"",""trial"",""time""
""fullscreenenter"",""0"",""3244""
","
",204.3,,,,,,,,51,"1,0,1",0,highway,6,probe-127,0.735255155,0.32748211,0.131211961,1,,,,,,,,
,html-keyboard-response,123,691208,0.0-68.0-1.0,"""event"",""trial"",""time""
""fullscreenenter"",""0"",""3244""
","
","
","""event"",""trial"",""time""
""fullscreenenter"",""0"",""3244""
","
",null,<p></p>,null,,,,,,,,,,,,,,,,,,,,,,,
,do_trial,124,697847,0.0-69.0-0.0,"""event"",""trial"",""time""
""fullscreenenter"",""0"",""3244""
","
","
","""event"",""trial"",""time""
""fullscreenenter"",""0"",""3244""
","
",2083.1,,,,,,,,50,"0,0,0",0,highway,7,probe-72,0.690687433,0.297745881,0.091047127,0,,,,,,,,
,html-keyboard-response,125,698849,0.0-69.0-1.0,"""event"",""trial"",""time""
""fullscreenenter"",""0"",""3244""
","
","
","""event"",""trial"",""time""
""fullscreenenter"",""0"",""3244""
","
",null,<p></p>,null,,,,,,,,,,,,,,,,,,,,,,,
,do_trial,126,703965,0.0-70.0-0.0,"""event"",""trial"",""time""
""fullscreenenter"",""0"",""3244""
","
","
","""event"",""trial"",""time""
""fullscreenenter"",""0"",""3244""
","
",553.8,,,,,,,,49,"1,0,0",0,highway,8,probe-110,0.686849721,0.335085134,0.086519556,1,,,,,,,,
,html-keyboard-response,127,704967,0.0-70.0-1.0,"""event"",""trial"",""time""
""fullscreenenter"",""0"",""3244""
","
","
","""event"",""trial"",""time""
""fullscreenenter"",""0"",""3244""
","
",null,<p></p>,null,,,,,,,,,,,,,,,,,,,,,,,
,do_trial,128,712425,0.0-71.0-0.0,"""event"",""trial"",""time""
""fullscreenenter"",""0"",""3244""
","
","
","""event"",""trial"",""time""
""fullscreenenter"",""0"",""3244""
","
",2903.7,,,,,,,,50,"1,1,0",0,highway,9,probe-191,0.623317934,0.238082933,0.204855746,1,,,,,,,,
,html-keyboard-response,129,713427,0.0-71.0-1.0,"""event"",""trial"",""time""
""fullscreenenter"",""0"",""3244""
","
","
","""event"",""trial"",""time""
""fullscreenenter"",""0"",""3244""
","
",null,<p></p>,null,,,,,,,,,,,,,,,,,,,,,,,
,do_trial,130,718195,0.0-72.0-0.0,"""event"",""trial"",""time""
""fullscreenenter"",""0"",""3244""
","
","
","""event"",""trial"",""time""
""fullscreenenter"",""0"",""3244""
","
",210.3,,,,,,,,49,"1,0,0",0,highway,10,probe-219,0.676370571,0.216668704,0.330289305,1,,,,,,,,
,html-keyboard-response,131,719197,0.0-72.0-1.0,"""event"",""trial"",""time""
""fullscreenenter"",""0"",""3244""
","
","
","""event"",""trial"",""time""
""fullscreenenter"",""0"",""3244""
","
",null,<p></p>,null,,,,,,,,,,,,,,,,,,,,,,,
,do_trial,132,723800,0.0-73.0-0.0,"""event"",""trial"",""time""
""fullscreenenter"",""0"",""3244""
","
","
","""event"",""trial"",""time""
""fullscreenenter"",""0"",""3244""
","
",45.9,,,,,,,,49,"1,0,0",0,highway,11,probe-21,0.717340791,0.177654417,0.369515829,1,,,,,,,,
,html-keyboard-response,133,724801,0.0-73.0-1.0,"""event"",""trial"",""time""
""fullscreenenter"",""0"",""3244""
","
","
","""event"",""trial"",""time""
""fullscreenenter"",""0"",""3244""
","
",null,<p></p>,null,,,,,,,,,,,,,,,,,,,,,,,
,do_trial,134,729788,0.0-74.0-0.0,"""event"",""trial"",""time""
""fullscreenenter"",""0"",""3244""
","
","
","""event"",""trial"",""time""
""fullscreenenter"",""0"",""3244""
","
",431.6,,,,,,,,49,"1,0,0",0,highway,12,probe-227,0.636454225,0.141908705,0.244618824,1,,,,,,,,
,html-keyboard-response,135,730789,0.0-74.0-1.0,"""event"",""trial"",""time""
""fullscreenenter"",""0"",""3244""
","
","
","""event"",""trial"",""time""
""fullscreenenter"",""0"",""3244""
","
",null,<p></p>,null,,,,,,,,,,,,,,,,,,,,,,,
,do_trial,136,735391,0.0-75.0-0.0,"""event"",""trial"",""time""
""fullscreenenter"",""0"",""3244""
","
","
","""event"",""trial"",""time""
""fullscreenenter"",""0"",""3244""
","
",46.9,,,,,,,,49,"0,1,0",0,highway,13,probe-171,0.657376918,0.11627836,0.16246758,0,,,,,,,,
,html-keyboard-response,137,736393,0.0-75.0-1.0,"""event"",""trial"",""time""
""fullscreenenter"",""0"",""3244""
","
","
","""event"",""trial"",""time""
""fullscreenenter"",""0"",""3244""
","
",null,<p></p>,null,,,,,,,,,,,,,,,,,,,,,,,
,do_trial,138,741154,0.0-76.0-0.0,"""event"",""trial"",""time""
""fullscreenenter"",""0"",""3244""
","
","
","""event"",""trial"",""time""
""fullscreenenter"",""0"",""3244""
","
",205.4,,,,,,,,50,"1,0,0",0,highway,14,probe-92,0.559480961,0.2156827,0.123200747,0,,,,,,,,
,html-keyboard-response,139,742156,0.0-76.0-1.0,"""event"",""trial"",""time""
""fullscreenenter"",""0"",""3244""
","
","
","""event"",""trial"",""time""
""fullscreenenter"",""0"",""3244""
","
",null,<p></p>,null,,,,,,,,,,,,,,,,,,,,,,,
,do_trial,140,746944,0.0-77.0-0.0,"""event"",""trial"",""time""
""fullscreenenter"",""0"",""3244""
","
","
","""event"",""trial"",""time""
""fullscreenenter"",""0"",""3244""
","
",231.8,,,,,,,,51,"1,0,0",0,highway,15,probe-225,0.70369121,0.42567983,0.176730385,0,,,,,,,,
,html-keyboard-response,141,747946,0.0-77.0-1.0,"""event"",""trial"",""time""
""fullscreenenter"",""0"",""3244""
","
","
","""event"",""trial"",""time""
""fullscreenenter"",""0"",""3244""
","
",null,<p></p>,null,,,,,,,,,,,,,,,,,,,,,,,
,do_trial,142,753630,0.0-78.0-0.0,"""event"",""trial"",""time""
""fullscreenenter"",""0"",""3244""
","
","
","""event"",""trial"",""time""
""fullscreenenter"",""0"",""3244""
","
",1127.8,,,,,,,,50,"0,1,0",0,highway,16,probe-157,0.613222646,0.358516827,0.245855391,1,,,,,,,,
,html-keyboard-response,143,754632,0.0-78.0-1.0,"""event"",""trial"",""time""
""fullscreenenter"",""0"",""3244""
","
","
","""event"",""trial"",""time""
""fullscreenenter"",""0"",""3244""
","
",null,<p></p>,null,,,,,,,,,,,,,,,,,,,,,,,
,do_trial,144,759287,0.0-79.0-0.0,"""event"",""trial"",""time""
""fullscreenenter"",""0"",""3244""
","
","
","""event"",""trial"",""time""
""fullscreenenter"",""0"",""3244""
","
",98.5,,,,,,,,50,"1,0,0",0,highway,17,probe-188,0.650244037,0.199206088,0.18654482,0,,,,,,,,
,html-keyboard-response,145,760289,0.0-79.0-1.0,"""event"",""trial"",""time""
""fullscreenenter"",""0"",""3244""
","
","
","""event"",""trial"",""time""
""fullscreenenter"",""0"",""3244""
","
",null,<p></p>,null,,,,,,,,,,,,,,,,,,,,,,,
,do_trial,146,766689,0.0-80.0-0.0,"""event"",""trial"",""time""
""fullscreenenter"",""0"",""3244""
","
","
","""event"",""trial"",""time""
""fullscreenenter"",""0"",""3244""
","
",1844.2,,,,,,,,49,"1,1,0",0,highway,18,probe-22,0.717803585,0.293338065,0.136362088,1,,,,,,,,
,html-keyboard-response,147,767691,0.0-80.0-1.0,"""event"",""trial"",""time""
""fullscreenenter"",""0"",""3244""
","
","
","""event"",""trial"",""time""
""fullscreenenter"",""0"",""3244""
","
",null,<p></p>,null,,,,,,,,,,,,,,,,,,,,,,,
,do_trial,148,773043,0.0-81.0-0.0,"""event"",""trial"",""time""
""fullscreenenter"",""0"",""3244""
","
","
","""event"",""trial"",""time""
""fullscreenenter"",""0"",""3244""
","
",796.9,,,,,,,,50,"0,0,0",0,highway,19,probe-52,0.761111333,0.239719195,0.155552674,0,,,,,,,,
,html-keyboard-response,149,774045,0.0-81.0-1.0,"""event"",""trial"",""time""
""fullscreenenter"",""0"",""3244""
","
","
","""event"",""trial"",""time""
""fullscreenenter"",""0"",""3244""
","
",null,<p></p>,null,,,,,,,,,,,,,,,,,,,,,,,
,do_trial,150,778603,0.0-82.0-0.0,"""event"",""trial"",""time""
""fullscreenenter"",""0"",""3244""
","
","
","""event"",""trial"",""time""
""fullscreenenter"",""0"",""3244""
","
",0.3,,,,,,,,49,"1,0,0",0,highway,20,probe-149,0.771628184,0.369905289,0.246776108,1,,,,,,,,
,html-keyboard-response,151,779605,0.0-82.0-1.0,"""event"",""trial"",""time""
""fullscreenenter"",""0"",""3244""
","
","
","""event"",""trial"",""time""
""fullscreenenter"",""0"",""3244""
","
",null,<p></p>,null,,,,,,,,,,,,,,,,,,,,,,,
,do_trial,152,784162,0.0-83.0-0.0,"""event"",""trial"",""time""
""fullscreenenter"",""0"",""3244""
","
","
","""event"",""trial"",""time""
""fullscreenenter"",""0"",""3244""
","
",0.4,,,,,,,,49,"1,1,0",0,highway,21,probe-154,0.808068418,0.380945464,0.284674164,1,,,,,,,,
,html-keyboard-response,153,785164,0.0-83.0-1.0,"""event"",""trial"",""time""
""fullscreenenter"",""0"",""3244""
","
","
","""event"",""trial"",""time""
""fullscreenenter"",""0"",""3244""
","
",null,<p></p>,null,,,,,,,,,,,,,,,,,,,,,,,
,do_trial,154,790019,0.0-84.0-0.0,"""event"",""trial"",""time""
""fullscreenenter"",""0"",""3244""
","
","
","""event"",""trial"",""time""
""fullscreenenter"",""0"",""3244""
","
",299.7,,,,,,,,49,"1,0,0",0,highway,22,probe-76,0.754681707,0.373773241,0.13936794,1,,,,,,,,
,html-keyboard-response,155,791021,0.0-84.0-1.0,"""event"",""trial"",""time""
""fullscreenenter"",""0"",""3244""
","
","
","""event"",""trial"",""time""
""fullscreenenter"",""0"",""3244""
","
",null,<p></p>,null,,,,,,,,,,,,,,,,,,,,,,,
,do_trial,156,796255,0.0-85.0-0.0,"""event"",""trial"",""time""
""fullscreenenter"",""0"",""3244""
","
","
","""event"",""trial"",""time""
""fullscreenenter"",""0"",""3244""
","
",679.4,,,,,,,,49,"1,0,0",0,highway,23,probe-161,0.83939963,0.363927047,0.202569695,1,,,,,,,,
,html-keyboard-response,157,797256,0.0-85.0-1.0,"""event"",""trial"",""time""
""fullscreenenter"",""0"",""3244""
","
","
","""event"",""trial"",""time""
""fullscreenenter"",""0"",""3244""
","
",null,<p></p>,null,,,,,,,,,,,,,,,,,,,,,,,
,do_trial,158,802519,0.0-86.0-0.0,"""event"",""trial"",""time""
""fullscreenenter"",""0"",""3244""
","
","
","""event"",""trial"",""time""
""fullscreenenter"",""0"",""3244""
","
",706.9,,,,,,,,49,"1,0,0",0,highway,24,probe-43,0.748149722,0.426981512,0.124196119,1,,,,,,,,
,html-keyboard-response,159,803521,0.0-86.0-1.0,"""event"",""trial"",""time""
""fullscreenenter"",""0"",""3244""
","
","
","""event"",""trial"",""time""
""fullscreenenter"",""0"",""3244""
","
",null,<p></p>,null,,,,,,,,,,,,,,,,,,,,,,,
,do_trial,160,808141,0.0-87.0-0.0,"""event"",""trial"",""time""
""fullscreenenter"",""0"",""3244""
","
","
","""event"",""trial"",""time""
""fullscreenenter"",""0"",""3244""
","
",65.5,,,,,,,,50,"1,0,0",0,highway,25,probe-155,0.627850808,0.356338309,0.191204345,0,,,,,,,,
,html-keyboard-response,161,809143,0.0-87.0-1.0,"""event"",""trial"",""time""
""fullscreenenter"",""0"",""3244""
","
","
","""event"",""trial"",""time""
""fullscreenenter"",""0"",""3244""
","
",null,<p></p>,null,,,,,,,,,,,,,,,,,,,,,,,
,do_trial,162,814048,0.0-88.0-0.0,"""event"",""trial"",""time""
""fullscreenenter"",""0"",""3244""
","
","
","""event"",""trial"",""time""
""fullscreenenter"",""0"",""3244""
","
",350.6,,,,,,,,49,"1,0,1",0,highway,26,probe-211,0.495907395,0.138245385,0.164303992,1,,,,,,,,
,html-keyboard-response,163,815050,0.0-88.0-1.0,"""event"",""trial"",""time""
""fullscreenenter"",""0"",""3244""
","
","
","""event"",""trial"",""time""
""fullscreenenter"",""0"",""3244""
","
",null,<p></p>,null,,,,,,,,,,,,,,,,,,,,,,,
,do_trial,164,820400,0.0-89.0-0.0,"""event"",""trial"",""time""
""fullscreenenter"",""0"",""3244""
","
","
","""event"",""trial"",""time""
""fullscreenenter"",""0"",""3244""
","
",796.1,,,,,,,,49,"0,1,0",0,highway,27,probe-86,0.600744202,0.221135564,0.058499732,0,,,,,,,,
,html-keyboard-response,165,821402,0.0-89.0-1.0,"""event"",""trial"",""time""
""fullscreenenter"",""0"",""3244""
","
","
","""event"",""trial"",""time""
""fullscreenenter"",""0"",""3244""
","
",null,<p></p>,null,,,,,,,,,,,,,,,,,,,,,,,
,do_trial,166,826572,0.0-90.0-0.0,"""event"",""trial"",""time""
""fullscreenenter"",""0"",""3244""
","
","
","""event"",""trial"",""time""
""fullscreenenter"",""0"",""3244""
","
",613.4,,,,,,,,51,"0,0,0",0,highway,28,probe-54,0.560408417,0.291669865,0.061106027,0,,,,,,,,
,html-keyboard-response,167,827574,0.0-90.0-1.0,"""event"",""trial"",""time""
""fullscreenenter"",""0"",""3244""
","
","
","""event"",""trial"",""time""
""fullscreenenter"",""0"",""3244""
","
",null,<p></p>,null,,,,,,,,,,,,,,,,,,,,,,,
,do_trial,168,833057,0.0-91.0-0.0,"""event"",""trial"",""time""
""fullscreenenter"",""0"",""3244""
","
","
","""event"",""trial"",""time""
""fullscreenenter"",""0"",""3244""
","
",925.3,,,,,,,,49,"1,0,0",0,highway,29,probe-19,0.47943315,0.26546558,0.070946633,1,,,,,,,,
,html-keyboard-response,169,834059,0.0-91.0-1.0,"""event"",""trial"",""time""
""fullscreenenter"",""0"",""3244""
","
","
","""event"",""trial"",""time""
""fullscreenenter"",""0"",""3244""
","
",null,<p></p>,null,,,,,,,,,,,,,,,,,,,,,,,
,do_bye,170,835563,0.0-92.0-0.0,"""event"",""trial"",""time""
""fullscreenenter"",""0"",""3244""
","
","
","""event"",""trial"",""time""
""fullscreenenter"",""0"",""3244""
","
",null,,,,,,,,null,,,,,,,,,,,,,,,,,
,break,171,848165,0.0-92.0-1.0,"""event"",""trial"",""time""
""fullscreenenter"",""0"",""3244""
","
","
","""event"",""trial"",""time""
""fullscreenenter"",""0"",""3244""
","
",12599.9,"<div class='center'><p>Time to take a quick break! You have 2 minutes to rest, but you can move on sooner if you'd like.</p><p> Press the <b>space bar</b> to continue.</p></div>",32,,,,,,,,,,,,,,,,,,,,,,,
,do_travel,172,857169,0.0-93.0-0.0,"""event"",""trial"",""time""
""fullscreenenter"",""0"",""3244""
","
","
","""event"",""trial"",""time""
""fullscreenenter"",""0"",""3244""
","
",null,,,,,,,,null,,,,,,,,,,,,,,,,,
,do_welcome,173,861176,0.0-93.0-1.0,"""event"",""trial"",""time""
""fullscreenenter"",""0"",""3244""
","
","
","""event"",""trial"",""time""
""fullscreenenter"",""0"",""3244""
","
",null,,,,,,,,null,,,,,,,,,,,,,,,,,
,do_trial,174,867234,0.0-94.0-0.0,"""event"",""trial"",""time""
""fullscreenenter"",""0"",""3244""
","
","
","""event"",""trial"",""time""
""fullscreenenter"",""0"",""3244""
","
",null,,,,,,,,null,"1,0,0",1,city,30,probe-23,1,0.224228001,0.060987922,,,,,,,,,
,html-keyboard-response,175,868236,0.0-94.0-1.0,"""event"",""trial"",""time""
""fullscreenenter"",""0"",""3244""
","
","
","""event"",""trial"",""time""
""fullscreenenter"",""0"",""3244""
","
",null,<p></p>,null,,,,,,,,,,,,,,,,,,,,,,,
,do_trial,176,873286,0.0-95.0-0.0,"""event"",""trial"",""time""
""fullscreenenter"",""0"",""3244""
","
","
","""event"",""trial"",""time""
""fullscreenenter"",""0"",""3244""
","
",492.3,,,,,,,,49,"1,0,0",1,city,31,probe-177,1,0.100465224,0.293421159,1,,,,,,,,
,html-keyboard-response,177,874288,0.0-95.0-1.0,"""event"",""trial"",""time""
""fullscreenenter"",""0"",""3244""
","
","
","""event"",""trial"",""time""
""fullscreenenter"",""0"",""3244""
","
",null,<p></p>,null,,,,,,,,,,,,,,,,,,,,,,,
,do_trial,178,879208,0.0-96.0-0.0,"""event"",""trial"",""time""
""fullscreenenter"",""0"",""3244""
","
","
","""event"",""trial"",""time""
""fullscreenenter"",""0"",""3244""
","
",363,,,,,,,,49,"1,0,0",1,city,32,probe-184,1,0.198329997,0.244008539,1,,,,,,,,
,html-keyboard-response,179,880210,0.0-96.0-1.0,"""event"",""trial"",""time""
""fullscreenenter"",""0"",""3244""
","
","
","""event"",""trial"",""time""
""fullscreenenter"",""0"",""3244""
","
",null,<p></p>,null,,,,,,,,,,,,,,,,,,,,,,,
,do_trial,180,885766,0.0-97.0-0.0,"""event"",""trial"",""time""
""fullscreenenter"",""0"",""3244""
","
","
","""event"",""trial"",""time""
""fullscreenenter"",""0"",""3244""
","
",998.7,,,,,,,,49,"0,1,0",1,city,33,probe-47,0.769649248,0.18710218,0.234487814,0,,,,,,,,
,html-keyboard-response,181,886768,0.0-97.0-1.0,"""event"",""trial"",""time""
""fullscreenenter"",""0"",""3244""
","
","
","""event"",""trial"",""time""
""fullscreenenter"",""0"",""3244""
","
",null,<p></p>,null,,,,,,,,,,,,,,,,,,,,,,,
,do_trial,182,891325,0.0-98.0-0.0,"""event"",""trial"",""time""
""fullscreenenter"",""0"",""3244""
","
","
","""event"",""trial"",""time""
""fullscreenenter"",""0"",""3244""
","
",0.4,,,,,,,,50,"1,0,0",1,city,34,probe-131,0.683944563,0.371219815,0.179201073,0,,,,,,,,
,html-keyboard-response,183,892327,0.0-98.0-1.0,"""event"",""trial"",""time""
""fullscreenenter"",""0"",""3244""
","
","
","""event"",""trial"",""time""
""fullscreenenter"",""0"",""3244""
","
",null,<p></p>,null,,,,,,,,,,,,,,,,,,,,,,,
,do_trial,184,896884,0.0-99.0-0.0,"""event"",""trial"",""time""
""fullscreenenter"",""0"",""3244""
","
","
","""event"",""trial"",""time""
""fullscreenenter"",""0"",""3244""
","
",0.4,,,,,,,,51,"1,0,0",1,city,35,probe-45,0.595174918,0.47772367,0.117088335,0,,,,,,,,
,html-keyboard-response,185,897886,0.0-99.0-1.0,"""event"",""trial"",""time""
""fullscreenenter"",""0"",""3244""
","
","
","""event"",""trial"",""time""
""fullscreenenter"",""0"",""3244""
","
",null,<p></p>,null,,,,,,,,,,,,,,,,,,,,,,,
,do_trial,186,902813,0.0-100.0-0.0,"""event"",""trial"",""time""
""fullscreenenter"",""0"",""3244""
","
","
","""event"",""trial"",""time""
""fullscreenenter"",""0"",""3244""
","
",371.9,,,,,,,,49,"1,1,0",1,city,36,probe-139,0.660121615,0.415327895,0.145022307,1,,,,,,,,
,html-keyboard-response,187,903815,0.0-100.0-1.0,"""event"",""trial"",""time""
""fullscreenenter"",""0"",""3244""
","
","
","""event"",""trial"",""time""
""fullscreenenter"",""0"",""3244""
","
",null,<p></p>,null,,,,,,,,,,,,,,,,,,,,,,,
,do_trial,188,909340,0.0-101.0-0.0,"""event"",""trial"",""time""
""fullscreenenter"",""0"",""3244""
","
","
","""event"",""trial"",""time""
""fullscreenenter"",""0"",""3244""
","
",968.1,,,,,,,,49,"1,0,0",1,city,37,probe-166,0.768078835,0.38194694,0.120829404,1,,,,,,,,
,html-keyboard-response,189,910342,0.0-101.0-1.0,"""event"",""trial"",""time""
""fullscreenenter"",""0"",""3244""
","
","
","""event"",""trial"",""time""
""fullscreenenter"",""0"",""3244""
","
",null,<p></p>,null,,,,,,,,,,,,,,,,,,,,,,,
,do_trial,190,916233,0.0-102.0-0.0,"""event"",""trial"",""time""
""fullscreenenter"",""0"",""3244""
","
","
","""event"",""trial"",""time""
""fullscreenenter"",""0"",""3244""
","
",1335.2,,,,,,,,49,"0,0,1",1,city,38,probe-02,0.675349403,0.335131865,0.174650731,0,,,,,,,,
,html-keyboard-response,191,917235,0.0-102.0-1.0,"""event"",""trial"",""time""
""fullscreenenter"",""0"",""3244""
","
","
","""event"",""trial"",""time""
""fullscreenenter"",""0"",""3244""
","
",null,<p></p>,null,,,,,,,,,,,,,,,,,,,,,,,
,do_trial,192,923292,0.0-103.0-0.0,"""event"",""trial"",""time""
""fullscreenenter"",""0"",""3244""
","
","
","""event"",""trial"",""time""
""fullscreenenter"",""0"",""3244""
","
",null,,,,,,,,null,"1,1,0",1,city,39,probe-09,0.662373336,0.192936415,0.240109402,,,,,,,,,
,html-keyboard-response,193,924294,0.0-103.0-1.0,"""event"",""trial"",""time""
""fullscreenenter"",""0"",""3244""
","
","
","""event"",""trial"",""time""
""fullscreenenter"",""0"",""3244""
","
",null,<p></p>,null,,,,,,,,,,,,,,,,,,,,,,,
,do_trial,194,930349,0.0-104.0-0.0,"""event"",""trial"",""time""
""fullscreenenter"",""0"",""3244""
","
","
","""event"",""trial"",""time""
""fullscreenenter"",""0"",""3244""
","
",null,,,,,,,,null,"0,0,0",1,city,40,probe-172,0.662274223,0.142090528,0.266228199,,,,,,,,,
,html-keyboard-response,195,931351,0.0-104.0-1.0,"""event"",""trial"",""time""
""fullscreenenter"",""0"",""3244""
","
","
","""event"",""trial"",""time""
""fullscreenenter"",""0"",""3244""
","
",null,<p></p>,null,,,,,,,,,,,,,,,,,,,,,,,
,do_trial,196,936636,0.0-105.0-0.0,"""event"",""trial"",""time""
""fullscreenenter"",""0"",""3244""
","
","
","""event"",""trial"",""time""
""fullscreenenter"",""0"",""3244""
","
",728.2,,,,,,,,49,"1,0,0",1,city,41,probe-198,0.665721122,0.260564661,0.14419592,1,,,,,,,,
,html-keyboard-response,197,937638,0.0-105.0-1.0,"""event"",""trial"",""time""
""fullscreenenter"",""0"",""3244""
","
","
","""event"",""trial"",""time""
""fullscreenenter"",""0"",""3244""
","
",null,<p></p>,null,,,,,,,,,,,,,,,,,,,,,,,
,do_trial,198,942526,0.0-106.0-0.0,"""event"",""trial"",""time""
""fullscreenenter"",""0"",""3244""
","
","
","""event"",""trial"",""time""
""fullscreenenter"",""0"",""3244""
","
",331.7,,,,,,,,49,"1,0,1",1,city,42,probe-75,0.672924855,0.21891046,0.450569717,1,,,,,,,,
,html-keyboard-response,199,943529,0.0-106.0-1.0,"""event"",""trial"",""time""
""fullscreenenter"",""0"",""3244""
","
","
","""event"",""trial"",""time""
""fullscreenenter"",""0"",""3244""
","
",null,<p></p>,null,,,,,,,,,,,,,,,,,,,,,,,
,do_trial,200,948867,0.0-107.0-0.0,"""event"",""trial"",""time""
""fullscreenenter"",""0"",""3244""
","
","
","""event"",""trial"",""time""
""fullscreenenter"",""0"",""3244""
","
",782.7,,,,,,,,50,"0,0,0",1,city,43,probe-132,0.569934119,0.238715853,0.520067715,0,,,,,,,,
,html-keyboard-response,201,949869,0.0-107.0-1.0,"""event"",""trial"",""time""
""fullscreenenter"",""0"",""3244""
","
","
","""event"",""trial"",""time""
""fullscreenenter"",""0"",""3244""
","
",null,<p></p>,null,,,,,,,,,,,,,,,,,,,,,,,
,do_trial,202,954662,0.0-108.0-0.0,"""event"",""trial"",""time""
""fullscreenenter"",""0"",""3244""
","
","
","""event"",""trial"",""time""
""fullscreenenter"",""0"",""3244""
","
",236.6,,,,,,,,49,"0,0,0",1,city,44,probe-156,0.440950683,0.09488752,0.536943653,0,,,,,,,,
,html-keyboard-response,203,955663,0.0-108.0-1.0,"""event"",""trial"",""time""
""fullscreenenter"",""0"",""3244""
","
","
","""event"",""trial"",""time""
""fullscreenenter"",""0"",""3244""
","
",null,<p></p>,null,,,,,,,,,,,,,,,,,,,,,,,
,do_trial,204,961143,0.0-109.0-0.0,"""event"",""trial"",""time""
""fullscreenenter"",""0"",""3244""
","
","
","""event"",""trial"",""time""
""fullscreenenter"",""0"",""3244""
","
",923.4,,,,,,,,49,"0,0,0",1,city,45,probe-150,0.406720873,0.130203024,0.615654819,0,,,,,,,,
,html-keyboard-response,205,962145,0.0-109.0-1.0,"""event"",""trial"",""time""
""fullscreenenter"",""0"",""3244""
","
","
","""event"",""trial"",""time""
""fullscreenenter"",""0"",""3244""
","
",null,<p></p>,null,,,,,,,,,,,,,,,,,,,,,,,
,do_trial,206,966790,0.0-110.0-0.0,"""event"",""trial"",""time""
""fullscreenenter"",""0"",""3244""
","
","
","""event"",""trial"",""time""
""fullscreenenter"",""0"",""3244""
","
",86.5,,,,,,,,49,"1,0,0",1,city,46,probe-35,0.361689991,0.099845984,0.708053758,1,,,,,,,,
,html-keyboard-response,207,967793,0.0-110.0-1.0,"""event"",""trial"",""time""
""fullscreenenter"",""0"",""3244""
","
","
","""event"",""trial"",""time""
""fullscreenenter"",""0"",""3244""
","
",null,<p></p>,null,,,,,,,,,,,,,,,,,,,,,,,
,do_trial,208,973525,0.0-111.0-0.0,"""event"",""trial"",""time""
""fullscreenenter"",""0"",""3244""
","
","
","""event"",""trial"",""time""
""fullscreenenter"",""0"",""3244""
","
",1177.9,,,,,,,,49,"0,0,1",1,city,47,probe-196,0.333208281,0.121954612,0.537320584,0,,,,,,,,
,html-keyboard-response,209,974527,0.0-111.0-1.0,"""event"",""trial"",""time""
""fullscreenenter"",""0"",""3244""
","
","
","""event"",""trial"",""time""
""fullscreenenter"",""0"",""3244""
","
",null,<p></p>,null,,,,,,,,,,,,,,,,,,,,,,,
,do_trial,210,979274,0.0-112.0-0.0,"""event"",""trial"",""time""
""fullscreenenter"",""0"",""3244""
","
","
","""event"",""trial"",""time""
""fullscreenenter"",""0"",""3244""
","
",190.9,,,,,,,,49,"0,0,0",1,city,48,probe-162,0.223934073,0.087029767,0.613743766,0,,,,,,,,
,html-keyboard-response,211,980276,0.0-112.0-1.0,"""event"",""trial"",""time""
""fullscreenenter"",""0"",""3244""
","
","
","""event"",""trial"",""time""
""fullscreenenter"",""0"",""3244""
","
",null,<p></p>,null,,,,,,,,,,,,,,,,,,,,,,,
,do_trial,212,984841,0.0-113.0-0.0,"""event"",""trial"",""time""
""fullscreenenter"",""0"",""3244""
","
","
","""event"",""trial"",""time""
""fullscreenenter"",""0"",""3244""
","
",8.6,,,,,,,,49,"0,0,1",1,city,49,probe-97,0.160078805,0.066975267,0.550874046,0,,,,,,,,
,html-keyboard-response,213,985843,0.0-113.0-1.0,"""event"",""trial"",""time""
""fullscreenenter"",""0"",""3244""
","
","
","""event"",""trial"",""time""
""fullscreenenter"",""0"",""3244""
","
",null,<p></p>,null,,,,,,,,,,,,,,,,,,,,,,,
,do_trial,214,991898,0.0-114.0-0.0,"""event"",""trial"",""time""
""fullscreenenter"",""0"",""3244""
","
","
","""event"",""trial"",""time""
""fullscreenenter"",""0"",""3244""
","
",null,,,,,,,,null,"1,0,0",1,city,50,probe-80,0.24767327,0.125401977,0.574829612,,,,,,,,,
,html-keyboard-response,215,992900,0.0-114.0-1.0,"""event"",""trial"",""time""
""fullscreenenter"",""0"",""3244""
","
","
","""event"",""trial"",""time""
""fullscreenenter"",""0"",""3244""
","
",null,<p></p>,null,,,,,,,,,,,,,,,,,,,,,,,
,do_trial,216,997626,0.0-115.0-0.0,"""event"",""trial"",""time""
""fullscreenenter"",""0"",""3244""
","
","
","""event"",""trial"",""time""
""fullscreenenter"",""0"",""3244""
","
",169.3,,,,,,,,49,"0,0,1",1,city,51,probe-136,0.225306572,0.094751376,0.486107728,0,,,,,,,,
,html-keyboard-response,217,998629,0.0-115.0-1.0,"""event"",""trial"",""time""
""fullscreenenter"",""0"",""3244""
","
","
","""event"",""trial"",""time""
""fullscreenenter"",""0"",""3244""
","
",null,<p></p>,null,,,,,,,,,,,,,,,,,,,,,,,
,do_trial,218,1003185,0.0-116.0-0.0,"""event"",""trial"",""time""
""fullscreenenter"",""0"",""3244""
","
","
","""event"",""trial"",""time""
""fullscreenenter"",""0"",""3244""
","
",0.3,,,,,,,,49,"0,0,1",1,city,52,probe-130,0.290252144,0.083050779,0.486396763,0,,,,,,,,
,html-keyboard-response,219,1004187,0.0-116.0-1.0,"""event"",""trial"",""time""
""fullscreenenter"",""0"",""3244""
","
","
","""event"",""trial"",""time""
""fullscreenenter"",""0"",""3244""
","
",null,<p></p>,null,,,,,,,,,,,,,,,,,,,,,,,
,do_trial,220,1008787,0.0-117.0-0.0,"""event"",""trial"",""time""
""fullscreenenter"",""0"",""3244""
","
","
","""event"",""trial"",""time""
""fullscreenenter"",""0"",""3244""
","
",43,,,,,,,,49,"0,0,1",1,city,53,probe-169,0.255984709,0.165778646,0.520292565,0,,,,,,,,
,html-keyboard-response,221,1009788,0.0-117.0-1.0,"""event"",""trial"",""time""
""fullscreenenter"",""0"",""3244""
","
","
","""event"",""trial"",""time""
""fullscreenenter"",""0"",""3244""
","
",null,<p></p>,null,,,,,,,,,,,,,,,,,,,,,,,
,do_trial,222,1014868,0.0-118.0-0.0,"""event"",""trial"",""time""
""fullscreenenter"",""0"",""3244""
","
","
","""event"",""trial"",""time""
""fullscreenenter"",""0"",""3244""
","
",521.8,,,,,,,,49,"0,0,1",1,city,54,probe-153,0.278493569,0.152417553,0.489241029,0,,,,,,,,
,html-keyboard-response,223,1015869,0.0-118.0-1.0,"""event"",""trial"",""time""
""fullscreenenter"",""0"",""3244""
","
","
","""event"",""trial"",""time""
""fullscreenenter"",""0"",""3244""
","
",null,<p></p>,null,,,,,,,,,,,,,,,,,,,,,,,
,do_trial,224,1020426,0.0-119.0-0.0,"""event"",""trial"",""time""
""fullscreenenter"",""0"",""3244""
","
","
","""event"",""trial"",""time""
""fullscreenenter"",""0"",""3244""
","
",0.3,,,,,,,,50,"0,0,1",1,city,55,probe-224,0.340155716,0.282114102,0.370177094,0,,,,,,,,
,html-keyboard-response,225,1021428,0.0-119.0-1.0,"""event"",""trial"",""time""
""fullscreenenter"",""0"",""3244""
","
","
","""event"",""trial"",""time""
""fullscreenenter"",""0"",""3244""
","
",null,<p></p>,null,,,,,,,,,,,,,,,,,,,,,,,
,do_trial,226,1026070,0.0-120.0-0.0,"""event"",""trial"",""time""
""fullscreenenter"",""0"",""3244""
","
","
","""event"",""trial"",""time""
""fullscreenenter"",""0"",""3244""
","
",87.1,,,,,,,,51,"0,0,0",1,city,56,probe-49,0.402412498,0.27078113,0.53172297,0,,,,,,,,
,html-keyboard-response,227,1027072,0.0-120.0-1.0,"""event"",""trial"",""time""
""fullscreenenter"",""0"",""3244""
","
","
","""event"",""trial"",""time""
""fullscreenenter"",""0"",""3244""
","
",null,<p></p>,null,,,,,,,,,,,,,,,,,,,,,,,
,do_trial,228,1032310,0.0-121.0-0.0,"""event"",""trial"",""time""
""fullscreenenter"",""0"",""3244""
","
","
","""event"",""trial"",""time""
""fullscreenenter"",""0"",""3244""
","
",682.7,,,,,,,,51,"0,0,1",1,city,57,probe-01,0.304157946,0.113138982,0.721099695,1,,,,,,,,
,html-keyboard-response,229,1033312,0.0-121.0-1.0,"""event"",""trial"",""time""
""fullscreenenter"",""0"",""3244""
","
","
","""event"",""trial"",""time""
""fullscreenenter"",""0"",""3244""
","
",null,<p></p>,null,,,,,,,,,,,,,,,,,,,,,,,
,do_trial,230,1037869,0.0-122.0-0.0,"""event"",""trial"",""time""
""fullscreenenter"",""0"",""3244""
","
","
","""event"",""trial"",""time""
""fullscreenenter"",""0"",""3244""
","
",0.3,,,,,,,,51,"0,1,1",1,city,58,probe-151,0.293994373,0.158213345,0.624856767,1,,,,,,,,
,html-keyboard-response,231,1038871,0.0-122.0-1.0,"""event"",""trial"",""time""
""fullscreenenter"",""0"",""3244""
","
","
","""event"",""trial"",""time""
""fullscreenenter"",""0"",""3244""
","
",null,<p></p>,null,,,,,,,,,,,,,,,,,,,,,,,
,do_trial,232,1043616,0.0-123.0-0.0,"""event"",""trial"",""time""
""fullscreenenter"",""0"",""3244""
","
","
","""event"",""trial"",""time""
""fullscreenenter"",""0"",""3244""
","
",188.8,,,,,,,,50,"0,0,1",1,city,59,probe-133,0.30301253,0.081972419,0.533934845,0,,,,,,,,
,html-keyboard-response,233,1044618,0.0-123.0-1.0,"""event"",""trial"",""time""
""fullscreenenter"",""0"",""3244""
","
","
","""event"",""trial"",""time""
""fullscreenenter"",""0"",""3244""
","
",null,<p></p>,null,,,,,,,,,,,,,,,,,,,,,,,
,do_trial,234,1050674,0.0-124.0-0.0,"""event"",""trial"",""time""
""fullscreenenter"",""0"",""3244""
","
","
","""event"",""trial"",""time""
""fullscreenenter"",""0"",""3244""
","
",null,,,,,,,,null,"0,0,1",1,city,60,probe-44,0.41213568,0.144966727,0.434652357,,,,,,,,,
,html-keyboard-response,235,1051677,0.0-124.0-1.0,"""event"",""trial"",""time""
""fullscreenenter"",""0"",""3244""
","
","
","""event"",""trial"",""time""
""fullscreenenter"",""0"",""3244""
","
",null,<p></p>,null,,,,,,,,,,,,,,,,,,,,,,,
,do_trial,236,1056983,0.0-125.0-0.0,"""event"",""trial"",""time""
""fullscreenenter"",""0"",""3244""
","
","
","""event"",""trial"",""time""
""fullscreenenter"",""0"",""3244""
","
",749.4,,,,,,,,51,"0,0,1",1,city,61,probe-145,0.205382623,0.175788146,0.268185068,1,,,,,,,,
,html-keyboard-response,237,1057985,0.0-125.0-1.0,"""event"",""trial"",""time""
""fullscreenenter"",""0"",""3244""
","
","
","""event"",""trial"",""time""
""fullscreenenter"",""0"",""3244""
","
",null,<p></p>,null,,,,,,,,,,,,,,,,,,,,,,,
,do_trial,238,1063404,0.0-126.0-0.0,"""event"",""trial"",""time""
""fullscreenenter"",""0"",""3244""
","
","
","""event"",""trial"",""time""
""fullscreenenter"",""0"",""3244""
","
",859.1,,,,,,,,51,"0,0,1",1,city,62,probe-18,0.209830755,0.072798713,0.510805094,1,,,,,,,,
,html-keyboard-response,239,1064405,0.0-126.0-1.0,"""event"",""trial"",""time""
""fullscreenenter"",""0"",""3244""
","
","
","""event"",""trial"",""time""
""fullscreenenter"",""0"",""3244""
","
",null,<p></p>,null,,,,,,,,,,,,,,,,,,,,,,,
,do_trial,240,1068983,0.0-127.0-0.0,"""event"",""trial"",""time""
""fullscreenenter"",""0"",""3244""
","
","
","""event"",""trial"",""time""
""fullscreenenter"",""0"",""3244""
","
",20.2,,,,,,,,51,"0,0,1",1,city,63,probe-33,0.258156299,0.108689257,0.55752997,1,,,,,,,,
,html-keyboard-response,241,1069985,0.0-127.0-1.0,"""event"",""trial"",""time""
""fullscreenenter"",""0"",""3244""
","
","
","""event"",""trial"",""time""
""fullscreenenter"",""0"",""3244""
","
",null,<p></p>,null,,,,,,,,,,,,,,,,,,,,,,,
,do_trial,242,1075646,0.0-128.0-0.0,"""event"",""trial"",""time""
""fullscreenenter"",""0"",""3244""
","
","
","""event"",""trial"",""time""
""fullscreenenter"",""0"",""3244""
","
",1105.4,,,,,,,,51,"0,0,1",1,city,64,probe-60,0.235373271,0.107267811,0.587286822,1,,,,,,,,
,html-keyboard-response,243,1076648,0.0-128.0-1.0,"""event"",""trial"",""time""
""fullscreenenter"",""0"",""3244""
","
","
","""event"",""trial"",""time""
""fullscreenenter"",""0"",""3244""
","
",null,<p></p>,null,,,,,,,,,,,,,,,,,,,,,,,
,do_trial,244,1081578,0.0-129.0-0.0,"""event"",""trial"",""time""
""fullscreenenter"",""0"",""3244""
","
","
","""event"",""trial"",""time""
""fullscreenenter"",""0"",""3244""
","
",374.2,,,,,,,,51,"0,0,1",1,city,65,probe-197,0.170325955,0.093022868,0.568067851,1,,,,,,,,
,html-keyboard-response,245,1082580,0.0-129.0-1.0,"""event"",""trial"",""time""
""fullscreenenter"",""0"",""3244""
","
","
","""event"",""trial"",""time""
""fullscreenenter"",""0"",""3244""
","
",null,<p></p>,null,,,,,,,,,,,,,,,,,,,,,,,
,do_trial,246,1087341,0.0-130.0-0.0,"""event"",""trial"",""time""
""fullscreenenter"",""0"",""3244""
","
","
","""event"",""trial"",""time""
""fullscreenenter"",""0"",""3244""
","
",203.9,,,,,,,,51,"0,1,1",1,city,66,probe-126,0.286654584,0.050497512,0.510697733,1,,,,,,,,
,html-keyboard-response,247,1088343,0.0-130.0-1.0,"""event"",""trial"",""time""
""fullscreenenter"",""0"",""3244""
","
","
","""event"",""trial"",""time""
""fullscreenenter"",""0"",""3244""
","
",null,<p></p>,null,,,,,,,,,,,,,,,,,,,,,,,
,do_trial,248,1092956,0.0-131.0-0.0,"""event"",""trial"",""time""
""fullscreenenter"",""0"",""3244""
","
","
","""event"",""trial"",""time""
""fullscreenenter"",""0"",""3244""
","
",56.3,,,,,,,,51,"0,0,1",1,city,67,probe-176,0.388981356,0.058361958,0.515225195,1,,,,,,,,
,html-keyboard-response,249,1093958,0.0-131.0-1.0,"""event"",""trial"",""time""
""fullscreenenter"",""0"",""3244""
","
","
","""event"",""trial"",""time""
""fullscreenenter"",""0"",""3244""
","
",null,<p></p>,null,,,,,,,,,,,,,,,,,,,,,,,
,do_trial,250,1100663,0.0-132.0-0.0,"""event"",""trial"",""time""
""fullscreenenter"",""0"",""3244""
","
","
","""event"",""trial"",""time""
""fullscreenenter"",""0"",""3244""
","
",2149.6,,,,,,,,50,"0,0,1",1,city,68,probe-56,0.430004529,0.065436023,0.565678618,0,,,,,,,,
,html-keyboard-response,251,1101664,0.0-132.0-1.0,"""event"",""trial"",""time""
""fullscreenenter"",""0"",""3244""
","
","
","""event"",""trial"",""time""
""fullscreenenter"",""0"",""3244""
","
",null,<p></p>,null,,,,,,,,,,,,,,,,,,,,,,,
,do_trial,252,1106615,0.0-133.0-0.0,"""event"",""trial"",""time""
""fullscreenenter"",""0"",""3244""
","
","
","""event"",""trial"",""time""
""fullscreenenter"",""0"",""3244""
","
",394.9,,,,,,,,49,"1,0,0",1,city,69,probe-64,0.348827066,0.189475399,0.653255485,1,,,,,,,,
,html-keyboard-response,253,1107617,0.0-133.0-1.0,"""event"",""trial"",""time""
""fullscreenenter"",""0"",""3244""
","
","
","""event"",""trial"",""time""
""fullscreenenter"",""0"",""3244""
","
",null,<p></p>,null,,,,,,,,,,,,,,,,,,,,,,,
,do_bye,254,1109121,0.0-134.0-0.0,"""event"",""trial"",""time""
""fullscreenenter"",""0"",""3244""
","
","
","""event"",""trial"",""time""
""fullscreenenter"",""0"",""3244""
","
",null,,,,,,,,null,,,,,,,,,,,,,,,,,
,break,255,1111445,0.0-134.0-1.0,"""event"",""trial"",""time""
""fullscreenenter"",""0"",""3244""
","
","
","""event"",""trial"",""time""
""fullscreenenter"",""0"",""3244""
","
",2322.7,"<div class='center'><p>Time to take a quick break! You have 2 minutes to rest, but you can move on sooner if you'd like.</p><p> Press the <b>space bar</b> to continue.</p></div>",32,,,,,,,,,,,,,,,,,,,,,,,
,do_travel,256,1120448,0.0-135.0-0.0,"""event"",""trial"",""time""
""fullscreenenter"",""0"",""3244""
","
","
","""event"",""trial"",""time""
""fullscreenenter"",""0"",""3244""
","
",null,,,,,,,,null,,,,,,,,,,,,,,,,,
,do_welcome,257,1124454,0.0-135.0-1.0,"""event"",""trial"",""time""
""fullscreenenter"",""0"",""3244""
","
","
","""event"",""trial"",""time""
""fullscreenenter"",""0"",""3244""
","
",null,,,,,,,,null,,,,,,,,,,,,,,,,,
,do_trial,258,1130516,0.0-136.0-0.0,"""event"",""trial"",""time""
""fullscreenenter"",""0"",""3244""
","
","
","""event"",""trial"",""time""
""fullscreenenter"",""0"",""3244""
","
",null,,,,,,,,null,"0,0,1",2,countryside,70,probe-40,0.377573819,0.106751012,1,,,,,,,,,
,html-keyboard-response,259,1131519,0.0-136.0-1.0,"""event"",""trial"",""time""
""fullscreenenter"",""0"",""3244""
","
","
","""event"",""trial"",""time""
""fullscreenenter"",""0"",""3244""
","
",null,<p></p>,null,,,,,,,,,,,,,,,,,,,,,,,
,do_trial,260,1136581,0.0-137.0-0.0,"""event"",""trial"",""time""
""fullscreenenter"",""0"",""3244""
","
","
","""event"",""trial"",""time""
""fullscreenenter"",""0"",""3244""
","
",505.5,,,,,,,,51,"0,0,1",2,countryside,71,probe-31,0.355520941,0.116201773,1,1,,,,,,,,
,html-keyboard-response,261,1137583,0.0-137.0-1.0,"""event"",""trial"",""time""
""fullscreenenter"",""0"",""3244""
","
","
","""event"",""trial"",""time""
""fullscreenenter"",""0"",""3244""
","
",null,<p></p>,null,,,,,,,,,,,,,,,,,,,,,,,
,do_trial,262,1142607,0.0-138.0-0.0,"""event"",""trial"",""time""
""fullscreenenter"",""0"",""3244""
","
","
","""event"",""trial"",""time""
""fullscreenenter"",""0"",""3244""
","
",470.4,,,,,,,,50,"0,0,1",2,countryside,72,probe-134,0.326540283,0.109302742,0.93829133,0,,,,,,,,
,html-keyboard-response,263,1143609,0.0-138.0-1.0,"""event"",""trial"",""time""
""fullscreenenter"",""0"",""3244""
","
","
","""event"",""trial"",""time""
""fullscreenenter"",""0"",""3244""
","
",null,<p></p>,null,,,,,,,,,,,,,,,,,,,,,,,
,do_trial,264,1148618,0.0-139.0-0.0,"""event"",""trial"",""time""
""fullscreenenter"",""0"",""3244""
","
","
","""event"",""trial"",""time""
""fullscreenenter"",""0"",""3244""
","
",453.2,,,,,,,,49,"1,0,1",2,countryside,73,probe-137,0.334269847,0.187595241,0.850323941,1,,,,,,,,
,html-keyboard-response,265,1149620,0.0-139.0-1.0,"""event"",""trial"",""time""
""fullscreenenter"",""0"",""3244""
","
","
","""event"",""trial"",""time""
""fullscreenenter"",""0"",""3244""
","
",null,<p></p>,null,,,,,,,,,,,,,,,,,,,,,,,
,do_trial,266,1154747,0.0-140.0-0.0,"""event"",""trial"",""time""
""fullscreenenter"",""0"",""3244""
","
","
","""event"",""trial"",""time""
""fullscreenenter"",""0"",""3244""
","
",571.9,,,,,,,,49,"0,1,1",2,countryside,74,probe-25,0.206272456,0.17400188,0.873687496,0,,,,,,,,
,html-keyboard-response,267,1155749,0.0-140.0-1.0,"""event"",""trial"",""time""
""fullscreenenter"",""0"",""3244""
","
","
","""event"",""trial"",""time""
""fullscreenenter"",""0"",""3244""
","
",null,<p></p>,null,,,,,,,,,,,,,,,,,,,,,,,
,do_trial,268,1160307,0.0-141.0-0.0,"""event"",""trial"",""time""
""fullscreenenter"",""0"",""3244""
","
","
","""event"",""trial"",""time""
""fullscreenenter"",""0"",""3244""
","
",0.4,,,,,,,,51,"0,1,1",2,countryside,75,probe-206,0.320682031,0.148691853,0.723862666,1,,,,,,,,
,html-keyboard-response,269,1161309,0.0-141.0-1.0,"""event"",""trial"",""time""
""fullscreenenter"",""0"",""3244""
","
","
","""event"",""trial"",""time""
""fullscreenenter"",""0"",""3244""
","
",null,<p></p>,null,,,,,,,,,,,,,,,,,,,,,,,
,do_trial,270,1165991,0.0-142.0-0.0,"""event"",""trial"",""time""
""fullscreenenter"",""0"",""3244""
","
","
","""event"",""trial"",""time""
""fullscreenenter"",""0"",""3244""
","
",125.3,,,,,,,,51,"0,0,1",2,countryside,76,probe-159,0.300340303,0.255046941,0.705462355,1,,,,,,,,
,html-keyboard-response,271,1166992,0.0-142.0-1.0,"""event"",""trial"",""time""
""fullscreenenter"",""0"",""3244""
","
","
","""event"",""trial"",""time""
""fullscreenenter"",""0"",""3244""
","
",null,<p></p>,null,,,,,,,,,,,,,,,,,,,,,,,
,do_trial,272,1171889,0.0-143.0-0.0,"""event"",""trial"",""time""
""fullscreenenter"",""0"",""3244""
","
","
","""event"",""trial"",""time""
""fullscreenenter"",""0"",""3244""
","
",340.7,,,,,,,,51,"0,0,0",2,countryside,77,probe-96,0.23064788,0.187255548,0.694781345,0,,,,,,,,
,html-keyboard-response,273,1172890,0.0-143.0-1.0,"""event"",""trial"",""time""
""fullscreenenter"",""0"",""3244""
","
","
","""event"",""trial"",""time""
""fullscreenenter"",""0"",""3244""
","
",null,<p></p>,null,,,,,,,,,,,,,,,,,,,,,,,
,do_trial,274,1177539,0.0-144.0-0.0,"""event"",""trial"",""time""
""fullscreenenter"",""0"",""3244""
","
","
","""event"",""trial"",""time""
""fullscreenenter"",""0"",""3244""
","
",91.2,,,,,,,,49,"0,0,1",2,countryside,78,probe-61,0.447922168,0.200217461,0.818623192,0,,,,,,,,
,html-keyboard-response,275,1178540,0.0-144.0-1.0,"""event"",""trial"",""time""
""fullscreenenter"",""0"",""3244""
","
","
","""event"",""trial"",""time""
""fullscreenenter"",""0"",""3244""
","
",null,<p></p>,null,,,,,,,,,,,,,,,,,,,,,,,
,do_trial,276,1183665,0.0-145.0-0.0,"""event"",""trial"",""time""
""fullscreenenter"",""0"",""3244""
","
","
","""event"",""trial"",""time""
""fullscreenenter"",""0"",""3244""
","
",568.5,,,,,,,,50,"1,0,0",2,countryside,79,probe-89,0.42800592,0.224355723,0.691636184,0,,,,,,,,
,html-keyboard-response,277,1184667,0.0-145.0-1.0,"""event"",""trial"",""time""
""fullscreenenter"",""0"",""3244""
","
","
","""event"",""trial"",""time""
""fullscreenenter"",""0"",""3244""
","
",null,<p></p>,null,,,,,,,,,,,,,,,,,,,,,,,
,do_trial,278,1190302,0.0-146.0-0.0,"""event"",""trial"",""time""
""fullscreenenter"",""0"",""3244""
","
","
","""event"",""trial"",""time""
""fullscreenenter"",""0"",""3244""
","
",1079,,,,,,,,51,"0,1,1",2,countryside,80,probe-152,0.498783056,0.375058077,0.605536815,1,,,,,,,,
,html-keyboard-response,279,1191304,0.0-146.0-1.0,"""event"",""trial"",""time""
""fullscreenenter"",""0"",""3244""
","
","
","""event"",""trial"",""time""
""fullscreenenter"",""0"",""3244""
","
",null,<p></p>,null,,,,,,,,,,,,,,,,,,,,,,,
,do_trial,280,1196391,0.0-147.0-0.0,"""event"",""trial"",""time""
""fullscreenenter"",""0"",""3244""
","
","
","""event"",""trial"",""time""
""fullscreenenter"",""0"",""3244""
","
",528,,,,,,,,51,"1,0,1",2,countryside,81,probe-143,0.577429549,0.361845726,0.508993013,1,,,,,,,,
,html-keyboard-response,281,1197393,0.0-147.0-1.0,"""event"",""trial"",""time""
""fullscreenenter"",""0"",""3244""
","
","
","""event"",""trial"",""time""
""fullscreenenter"",""0"",""3244""
","
",null,<p></p>,null,,,,,,,,,,,,,,,,,,,,,,,
,do_trial,282,1201951,0.0-148.0-0.0,"""event"",""trial"",""time""
""fullscreenenter"",""0"",""3244""
","
","
","""event"",""trial"",""time""
""fullscreenenter"",""0"",""3244""
","
",0.4,,,,,,,,51,"0,0,1",2,countryside,82,probe-17,0.568056396,0.312645989,0.45220341,1,,,,,,,,
,html-keyboard-response,283,1202952,0.0-148.0-1.0,"""event"",""trial"",""time""
""fullscreenenter"",""0"",""3244""
","
","
","""event"",""trial"",""time""
""fullscreenenter"",""0"",""3244""
","
",null,<p></p>,null,,,,,,,,,,,,,,,,,,,,,,,
,do_trial,284,1207650,0.0-149.0-0.0,"""event"",""trial"",""time""
""fullscreenenter"",""0"",""3244""
","
","
","""event"",""trial"",""time""
""fullscreenenter"",""0"",""3244""
","
",143.2,,,,,,,,51,"0,1,0",2,countryside,83,probe-83,0.537185483,0.07388592,0.43559732,0,,,,,,,,
,html-keyboard-response,285,1208653,0.0-149.0-1.0,"""event"",""trial"",""time""
""fullscreenenter"",""0"",""3244""
","
","
","""event"",""trial"",""time""
""fullscreenenter"",""0"",""3244""
","
",null,<p></p>,null,,,,,,,,,,,,,,,,,,,,,,,
,do_trial,286,1214172,0.0-150.0-0.0,"""event"",""trial"",""time""
""fullscreenenter"",""0"",""3244""
","
","
","""event"",""trial"",""time""
""fullscreenenter"",""0"",""3244""
","
",964.9,,,,,,,,51,"0,0,1",2,countryside,84,probe-77,0.508030587,0.057087158,0.489681769,1,,,,,,,,
,html-keyboard-response,287,1215174,0.0-150.0-1.0,"""event"",""trial"",""time""
""fullscreenenter"",""0"",""3244""
","
","
","""event"",""trial"",""time""
""fullscreenenter"",""0"",""3244""
","
",null,<p></p>,null,,,,,,,,,,,,,,,,,,,,,,,
,do_trial,288,1221229,0.0-151.0-0.0,"""event"",""trial"",""time""
""fullscreenenter"",""0"",""3244""
","
","
","""event"",""trial"",""time""
""fullscreenenter"",""0"",""3244""
","
",null,,,,,,,,null,"1,0,0",2,countryside,85,probe-163,0.54242467,0.170773286,0.452520249,,,,,,,,,
,html-keyboard-response,289,1222231,0.0-151.0-1.0,"""event"",""trial"",""time""
""fullscreenenter"",""0"",""3244""
","
","
","""event"",""trial"",""time""
""fullscreenenter"",""0"",""3244""
","
",null,<p></p>,null,,,,,,,,,,,,,,,,,,,,,,,
,do_trial,290,1227596,0.0-152.0-0.0,"""event"",""trial"",""time""
""fullscreenenter"",""0"",""3244""
","
","
","""event"",""trial"",""time""
""fullscreenenter"",""0"",""3244""
","
",809.1,,,,,,,,51,"0,1,1",2,countryside,86,probe-208,0.58361007,0.145415673,0.455363789,1,,,,,,,,
,html-keyboard-response,291,1228597,0.0-152.0-1.0,"""event"",""trial"",""time""
""fullscreenenter"",""0"",""3244""
","
","
","""event"",""trial"",""time""
""fullscreenenter"",""0"",""3244""
","
",null,<p></p>,null,,,,,,,,,,,,,,,,,,,,,,,
,do_trial,292,1233845,0.0-153.0-0.0,"""event"",""trial"",""time""
""fullscreenenter"",""0"",""3244""
","
","
","""event"",""trial"",""time""
""fullscreenenter"",""0"",""3244""
","
",691.8,,,,,,,,51,"1,1,0",2,countryside,87,probe-117,0.586030187,0.174366949,0.461067951,0,,,,,,,,
,html-keyboard-response,293,1234847,0.0-153.0-1.0,"""event"",""trial"",""time""
""fullscreenenter"",""0"",""3244""
","
","
","""event"",""trial"",""time""
""fullscreenenter"",""0"",""3244""
","
",null,<p></p>,null,,,,,,,,,,,,,,,,,,,,,,,
,do_trial,294,1240903,0.0-154.0-0.0,"""event"",""trial"",""time""
""fullscreenenter"",""0"",""3244""
","
","
","""event"",""trial"",""time""
""fullscreenenter"",""0"",""3244""
","
",null,,,,,,,,null,"1,1,0",2,countryside,88,probe-15,0.728645312,0.204651554,0.320995738,,,,,,,,,
,html-keyboard-response,295,1241906,0.0-154.0-1.0,"""event"",""trial"",""time""
""fullscreenenter"",""0"",""3244""
","
","
","""event"",""trial"",""time""
""fullscreenenter"",""0"",""3244""
","
",null,<p></p>,null,,,,,,,,,,,,,,,,,,,,,,,
,do_trial,296,1246800,0.0-155.0-0.0,"""event"",""trial"",""time""
""fullscreenenter"",""0"",""3244""
","
","
","""event"",""trial"",""time""
""fullscreenenter"",""0"",""3244""
","
",337.7,,,,,,,,51,"1,1,0",2,countryside,89,probe-57,0.826076699,0.157419499,0.263461263,0,,,,,,,,
,html-keyboard-response,297,1247802,0.0-155.0-1.0,"""event"",""trial"",""time""
""fullscreenenter"",""0"",""3244""
","
","
","""event"",""trial"",""time""
""fullscreenenter"",""0"",""3244""
","
",null,<p></p>,null,,,,,,,,,,,,,,,,,,,,,,,
,do_trial,298,1252994,0.0-156.0-0.0,"""event"",""trial"",""time""
""fullscreenenter"",""0"",""3244""
","
","
","""event"",""trial"",""time""
""fullscreenenter"",""0"",""3244""
","
",636.1,,,,,,,,51,"1,0,0",2,countryside,90,probe-50,0.769066868,0.144212783,0.243140332,0,,,,,,,,
,html-keyboard-response,299,1253996,0.0-156.0-1.0,"""event"",""trial"",""time""
""fullscreenenter"",""0"",""3244""
","
","
","""event"",""trial"",""time""
""fullscreenenter"",""0"",""3244""
","
",null,<p></p>,null,,,,,,,,,,,,,,,,,,,,,,,
,do_trial,300,1258584,0.0-157.0-0.0,"""event"",""trial"",""time""
""fullscreenenter"",""0"",""3244""
","
","
","""event"",""trial"",""time""
""fullscreenenter"",""0"",""3244""
","
",30.6,,,,,,,,50,"1,0,0",2,countryside,91,probe-125,0.728129172,0.293674912,0.21108905,0,,,,,,,,
,html-keyboard-response,301,1259585,0.0-157.0-1.0,"""event"",""trial"",""time""
""fullscreenenter"",""0"",""3244""
","
","
","""event"",""trial"",""time""
""fullscreenenter"",""0"",""3244""
","
",null,<p></p>,null,,,,,,,,,,,,,,,,,,,,,,,
,do_trial,302,1265509,0.0-158.0-0.0,"""event"",""trial"",""time""
""fullscreenenter"",""0"",""3244""
","
","
","""event"",""trial"",""time""
""fullscreenenter"",""0"",""3244""
","
",1367,,,,,,,,49,"1,0,0",2,countryside,92,probe-20,0.73347646,0.202942605,0.399263366,1,,,,,,,,
,html-keyboard-response,303,1266510,0.0-158.0-1.0,"""event"",""trial"",""time""
""fullscreenenter"",""0"",""3244""
","
","
","""event"",""trial"",""time""
""fullscreenenter"",""0"",""3244""
","
",null,<p></p>,null,,,,,,,,,,,,,,,,,,,,,,,
,do_trial,304,1271347,0.0-159.0-0.0,"""event"",""trial"",""time""
""fullscreenenter"",""0"",""3244""
","
","
","""event"",""trial"",""time""
""fullscreenenter"",""0"",""3244""
","
",280,,,,,,,,49,"1,0,1",2,countryside,93,probe-05,0.754194039,0.138185242,0.288251966,1,,,,,,,,
,html-keyboard-response,305,1272349,0.0-159.0-1.0,"""event"",""trial"",""time""
""fullscreenenter"",""0"",""3244""
","
","
","""event"",""trial"",""time""
""fullscreenenter"",""0"",""3244""
","
",null,<p></p>,null,,,,,,,,,,,,,,,,,,,,,,,
,do_trial,306,1277113,0.0-160.0-0.0,"""event"",""trial"",""time""
""fullscreenenter"",""0"",""3244""
","
","
","""event"",""trial"",""time""
""fullscreenenter"",""0"",""3244""
","
",208.5,,,,,,,,49,"1,0,0",2,countryside,94,probe-68,0.778843136,0.097710972,0.262316175,1,,,,,,,,
,html-keyboard-response,307,1278115,0.0-160.0-1.0,"""event"",""trial"",""time""
""fullscreenenter"",""0"",""3244""
","
","
","""event"",""trial"",""time""
""fullscreenenter"",""0"",""3244""
","
",null,<p></p>,null,,,,,,,,,,,,,,,,,,,,,,,
,do_trial,308,1283001,0.0-161.0-0.0,"""event"",""trial"",""time""
""fullscreenenter"",""0"",""3244""
","
","
","""event"",""trial"",""time""
""fullscreenenter"",""0"",""3244""
","
",329.3,,,,,,,,49,"1,1,0",2,countryside,95,probe-108,0.746200773,0.139520083,0.437685036,1,,,,,,,,
,html-keyboard-response,309,1284003,0.0-161.0-1.0,"""event"",""trial"",""time""
""fullscreenenter"",""0"",""3244""
","
","
","""event"",""trial"",""time""
""fullscreenenter"",""0"",""3244""
","
",null,<p></p>,null,,,,,,,,,,,,,,,,,,,,,,,
,do_trial,310,1290059,0.0-162.0-0.0,"""event"",""trial"",""time""
""fullscreenenter"",""0"",""3244""
","
","
","""event"",""trial"",""time""
""fullscreenenter"",""0"",""3244""
","
",null,,,,,,,,null,"0,0,0",2,countryside,96,probe-116,0.777070727,0.11653988,0.293802103,,,,,,,,,
,html-keyboard-response,311,1291061,0.0-162.0-1.0,"""event"",""trial"",""time""
""fullscreenenter"",""0"",""3244""
","
","
","""event"",""trial"",""time""
""fullscreenenter"",""0"",""3244""
","
",null,<p></p>,null,,,,,,,,,,,,,,,,,,,,,,,
,do_trial,312,1295746,0.0-163.0-0.0,"""event"",""trial"",""time""
""fullscreenenter"",""0"",""3244""
","
","
","""event"",""trial"",""time""
""fullscreenenter"",""0"",""3244""
","
",130.3,,,,,,,,49,"1,0,1",2,countryside,97,probe-194,0.655636434,0.113657425,0.290819555,1,,,,,,,,
,html-keyboard-response,313,1296748,0.0-163.0-1.0,"""event"",""trial"",""time""
""fullscreenenter"",""0"",""3244""
","
","
","""event"",""trial"",""time""
""fullscreenenter"",""0"",""3244""
","
",null,<p></p>,null,,,,,,,,,,,,,,,,,,,,,,,
,do_trial,314,1301500,0.0-164.0-0.0,"""event"",""trial"",""time""
""fullscreenenter"",""0"",""3244""
","
","
","""event"",""trial"",""time""
""fullscreenenter"",""0"",""3244""
","
",195.5,,,,,,,,49,"1,1,0",2,countryside,98,probe-103,0.645383621,0.174920666,0.336073633,1,,,,,,,,
,html-keyboard-response,315,1302502,0.0-164.0-1.0,"""event"",""trial"",""time""
""fullscreenenter"",""0"",""3244""
","
","
","""event"",""trial"",""time""
""fullscreenenter"",""0"",""3244""
","
",null,<p></p>,null,,,,,,,,,,,,,,,,,,,,,,,
,do_trial,316,1307406,0.0-165.0-0.0,"""event"",""trial"",""time""
""fullscreenenter"",""0"",""3244""
","
","
","""event"",""trial"",""time""
""fullscreenenter"",""0"",""3244""
","
",344.4,,,,,,,,49,"1,0,0",2,countryside,99,probe-128,0.684591241,0.253979748,0.384435774,1,,,,,,,,
,html-keyboard-response,317,1308408,0.0-165.0-1.0,"""event"",""trial"",""time""
""fullscreenenter"",""0"",""3244""
","
","
","""event"",""trial"",""time""
""fullscreenenter"",""0"",""3244""
","
",null,<p></p>,null,,,,,,,,,,,,,,,,,,,,,,,
,do_trial,318,1313335,0.0-166.0-0.0,"""event"",""trial"",""time""
""fullscreenenter"",""0"",""3244""
","
","
","""event"",""trial"",""time""
""fullscreenenter"",""0"",""3244""
","
",370.2,,,,,,,,49,"1,0,0",2,countryside,100,probe-38,0.669799772,0.21987567,0.27692141,1,,,,,,,,
,html-keyboard-response,319,1314337,0.0-166.0-1.0,"""event"",""trial"",""time""
""fullscreenenter"",""0"",""3244""
","
","
","""event"",""trial"",""time""
""fullscreenenter"",""0"",""3244""
","
",null,<p></p>,null,,,,,,,,,,,,,,,,,,,,,,,
,do_trial,320,1319231,0.0-167.0-0.0,"""event"",""trial"",""time""
""fullscreenenter"",""0"",""3244""
","
","
","""event"",""trial"",""time""
""fullscreenenter"",""0"",""3244""
","
",335.3,,,,,,,,49,"1,0,0",2,countryside,101,probe-113,0.60063571,0.314373603,0.413831468,1,,,,,,,,
,html-keyboard-response,321,1320233,0.0-167.0-1.0,"""event"",""trial"",""time""
""fullscreenenter"",""0"",""3244""
","
","
","""event"",""trial"",""time""
""fullscreenenter"",""0"",""3244""
","
",null,<p></p>,null,,,,,,,,,,,,,,,,,,,,,,,
,do_trial,322,1325005,0.0-168.0-0.0,"""event"",""trial"",""time""
""fullscreenenter"",""0"",""3244""
","
","
","""event"",""trial"",""time""
""fullscreenenter"",""0"",""3244""
","
",216.6,,,,,,,,49,"1,0,0",2,countryside,102,probe-201,0.570370355,0.290904481,0.430300877,1,,,,,,,,
,html-keyboard-response,323,1326008,0.0-168.0-1.0,"""event"",""trial"",""time""
""fullscreenenter"",""0"",""3244""
","
","
","""event"",""trial"",""time""
""fullscreenenter"",""0"",""3244""
","
",null,<p></p>,null,,,,,,,,,,,,,,,,,,,,,,,
,do_trial,324,1330788,0.0-169.0-0.0,"""event"",""trial"",""time""
""fullscreenenter"",""0"",""3244""
","
","
","""event"",""trial"",""time""
""fullscreenenter"",""0"",""3244""
","
",224.7,,,,,,,,49,"1,0,0",2,countryside,103,probe-192,0.547493487,0.206323948,0.473595641,1,,,,,,,,
,html-keyboard-response,325,1331790,0.0-169.0-1.0,"""event"",""trial"",""time""
""fullscreenenter"",""0"",""3244""
","
","
","""event"",""trial"",""time""
""fullscreenenter"",""0"",""3244""
","
",null,<p></p>,null,,,,,,,,,,,,,,,,,,,,,,,
,do_trial,326,1336674,0.0-170.0-0.0,"""event"",""trial"",""time""
""fullscreenenter"",""0"",""3244""
","
","
","""event"",""trial"",""time""
""fullscreenenter"",""0"",""3244""
","
",327.4,,,,,,,,49,"0,0,0",2,countryside,104,probe-46,0.48027413,0.052070112,0.373829988,0,,,,,,,,
,html-keyboard-response,327,1337676,0.0-170.0-1.0,"""event"",""trial"",""time""
""fullscreenenter"",""0"",""3244""
","
","
","""event"",""trial"",""time""
""fullscreenenter"",""0"",""3244""
","
",null,<p></p>,null,,,,,,,,,,,,,,,,,,,,,,,
,do_trial,328,1342528,0.0-171.0-0.0,"""event"",""trial"",""time""
""fullscreenenter"",""0"",""3244""
","
","
","""event"",""trial"",""time""
""fullscreenenter"",""0"",""3244""
","
",295.5,,,,,,,,49,"0,1,1",2,countryside,105,probe-135,0.345195325,0.191469139,0.310491441,0,,,,,,,,
,html-keyboard-response,329,1343529,0.0-171.0-1.0,"""event"",""trial"",""time""
""fullscreenenter"",""0"",""3244""
","
","
","""event"",""trial"",""time""
""fullscreenenter"",""0"",""3244""
","
",null,<p></p>,null,,,,,,,,,,,,,,,,,,,,,,,
,do_trial,330,1349793,0.0-172.0-0.0,"""event"",""trial"",""time""
""fullscreenenter"",""0"",""3244""
","
","
","""event"",""trial"",""time""
""fullscreenenter"",""0"",""3244""
","
",1705.9,,,,,,,,51,"1,0,0",2,countryside,106,probe-99,0.548762867,0.063449076,0.380603665,0,,,,,,,,
,html-keyboard-response,331,1350795,0.0-172.0-1.0,"""event"",""trial"",""time""
""fullscreenenter"",""0"",""3244""
","
","
