"success","trial_type","trial_index","time_elapsed","internal_node_id","interactions","blur_events","focus_events","fullscreenenter_events","fullscreenexit_events","rt","stimulus","key_press","subject_id","participant_id","age","gender","prompt","response","choice_outcomes","context_n","context_img_id","trial_n","probe_img_id","pR_red","pR_white","pR_black","outcome","contextArray_ind","validImageProbes","invalidImageProbes","pRew_Red","pRew_White","pRew_Black","availableForMemProbe","choice_blocks"
"true","fullscreen","0","4683","0.0-0.0","""event"",""trial"",""time""
""focus"",""0"",""3209""
""fullscreenenter"",""0"",""3716""
","
","""event"",""trial"",""time""
""focus"",""0"",""3209""
","""event"",""trial"",""time""
""fullscreenenter"",""0"",""3716""
","
","","","","","","","","","","","","","","","","","","","","","","","","","",""
"","pavlovia","1","4686","0.0-1.0","""event"",""trial"",""time""
""focus"",""0"",""3209""
""fullscreenenter"",""0"",""3716""
""fullscreenexit"",""2"",""4784""
""blur"",""2"",""18094""
","""event"",""trial"",""time""
""blur"",""2"",""18094""
","""event"",""trial"",""time""
""focus"",""0"",""3209""
","""event"",""trial"",""time""
""fullscreenenter"",""0"",""3716""
","""event"",""trial"",""time""
""fullscreenexit"",""2"",""4784""
","","","","","","","","","","","","","","","","","","","","","","","","","",""
"","instruc1","2","49750","0.0-2.0","""event"",""trial"",""time""
""focus"",""0"",""3209""
""fullscreenenter"",""0"",""3716""
""fullscreenexit"",""2"",""4784""
""blur"",""2"",""18094""
""focus"",""3"",""52316""
","""event"",""trial"",""time""
""blur"",""2"",""18094""
","""event"",""trial"",""time""
""focus"",""0"",""3209""
""focus"",""3"",""52316""
","""event"",""trial"",""time""
""fullscreenenter"",""0"",""3716""
","""event"",""trial"",""time""
""fullscreenexit"",""2"",""4784""
","null","run_exp/static/audio/clip_1_welcome.m4a","null","924","1120","18","Female","<div class='center'><p>Welcome! This is the first part of the study. It will last ~30 minutes. In part 1 and part 2 of the study, you are the head captain of a pirate ship traveling around the world to different islands. You will play a few different games throughout these two parts. Here is an overview of them:</p><br><p>Part 1 (today)</p><p>1. Instructions, practice game, and quiz</p><p>2. Pick a pirate game on 6 different islands</p><br><p>Part 2 (tomorrow)</p><p>3. Pick a pirate game and memory game</p><p>4. Where did you see this ship? </p></div>","","","","","","","","","","","","","","","","","",""
"","html-keyboard-response","3","52735","0.0-3.0","""event"",""trial"",""time""
""focus"",""0"",""3209""
""fullscreenenter"",""0"",""3716""
""fullscreenexit"",""2"",""4784""
""blur"",""2"",""18094""
""focus"",""3"",""52316""
""blur"",""4"",""54383""
","""event"",""trial"",""time""
""blur"",""2"",""18094""
""blur"",""4"",""54383""
","""event"",""trial"",""time""
""focus"",""0"",""3209""
""focus"",""3"",""52316""
","""event"",""trial"",""time""
""fullscreenenter"",""0"",""3716""
","""event"",""trial"",""time""
""fullscreenexit"",""2"",""4784""
","2982.2000000178814","<div class='center'><p>Welcome! This is the first part of the study. It will last ~30 minutes. In part 1 and part 2 of the study, you are the head captain of a pirate ship traveling around the world to different islands. You will play a few different games throughout these two parts. Here is an overview of them:</p><br><p>Part 1 (today)</p><p>1. Instructions, practice game, and quiz</p><p>2. Pick a pirate game on 6 different islands</p><br><p>Part 2 (tomorrow)</p><p>3. Pick a pirate game and memory game</p><p>4. Where did you see this ship? </p><p><b>[Press the space bar to continue]</b></p></div>","32","","","","","","","","","","","","","","","","","","","","","","",""
"","instruc2","4","58037","0.0-4.0","""event"",""trial"",""time""
""focus"",""0"",""3209""
""fullscreenenter"",""0"",""3716""
""fullscreenexit"",""2"",""4784""
""blur"",""2"",""18094""
""focus"",""3"",""52316""
""blur"",""4"",""54383""
""focus"",""5"",""61844""
","""event"",""trial"",""time""
""blur"",""2"",""18094""
""blur"",""4"",""54383""
","""event"",""trial"",""time""
""focus"",""0"",""3209""
""focus"",""3"",""52316""
""focus"",""5"",""61844""
","""event"",""trial"",""time""
""fullscreenenter"",""0"",""3716""
","""event"",""trial"",""time""
""fullscreenexit"",""2"",""4784""
","null","run_exp/static/audio/clip_2_different_places.m4a","null","","","","","<div class='center'><p>Today, you’ll visit these 6 islands on your journey. You'll be able to see these islands from your ship.</p><p><img src='run_exp/static/images/contexts/all_contexts.png' height='500'></p></div>","","","","","","","","","","","","","","","","","",""
"","html-keyboard-response","5","62273","0.0-5.0","""event"",""trial"",""time""
""focus"",""0"",""3209""
""fullscreenenter"",""0"",""3716""
""fullscreenexit"",""2"",""4784""
""blur"",""2"",""18094""
""focus"",""3"",""52316""
""blur"",""4"",""54383""
""focus"",""5"",""61844""
","""event"",""trial"",""time""
""blur"",""2"",""18094""
""blur"",""4"",""54383""
","""event"",""trial"",""time""
""focus"",""0"",""3209""
""focus"",""3"",""52316""
""focus"",""5"",""61844""
","""event"",""trial"",""time""
""fullscreenenter"",""0"",""3716""
","""event"",""trial"",""time""
""fullscreenexit"",""2"",""4784""
","4234.600000023842","<div class='center'><p>Today, you’ll visit these 6 islands on your journey. You'll be able to see these islands from your ship.</p><p><img src='run_exp/static/images/contexts/all_contexts.png' height='500'></p><p><b>[Press the space bar to continue]</b></p></div>","32","","","","","","","","","","","","","","","","","","","","","","",""
"","instruc3","6","71945","0.0-6.0","""event"",""trial"",""time""
""focus"",""0"",""3209""
""fullscreenenter"",""0"",""3716""
""fullscreenexit"",""2"",""4784""
""blur"",""2"",""18094""
""focus"",""3"",""52316""
""blur"",""4"",""54383""
""focus"",""5"",""61844""
","""event"",""trial"",""time""
""blur"",""2"",""18094""
""blur"",""4"",""54383""
","""event"",""trial"",""time""
""focus"",""0"",""3209""
""focus"",""3"",""52316""
""focus"",""5"",""61844""
","""event"",""trial"",""time""
""fullscreenenter"",""0"",""3716""
","""event"",""trial"",""time""
""fullscreenexit"",""2"",""4784""
","null","run_exp/static/audio/clip_3_goal_of_game_1.m4a","null","","","","","<div class='center'><p> The pirates on your ship will rob other ships as they leave the island.</p> These ships have just sold their goods to the islanders, so they will be filled with lots and lots of gold.</p><p><img src='run_exp/static/images/tutorial/ship_center.png' height='400'></p></div>","","","","","","","","","","","","","","","","","",""
"","html-keyboard-response","7","74681","0.0-7.0","""event"",""trial"",""time""
""focus"",""0"",""3209""
""fullscreenenter"",""0"",""3716""
""fullscreenexit"",""2"",""4784""
""blur"",""2"",""18094""
""focus"",""3"",""52316""
""blur"",""4"",""54383""
""focus"",""5"",""61844""
","""event"",""trial"",""time""
""blur"",""2"",""18094""
""blur"",""4"",""54383""
","""event"",""trial"",""time""
""focus"",""0"",""3209""
""focus"",""3"",""52316""
""focus"",""5"",""61844""
","""event"",""trial"",""time""
""fullscreenenter"",""0"",""3716""
","""event"",""trial"",""time""
""fullscreenexit"",""2"",""4784""
","2734.699999988079","<div class='center'><p> The pirates on your ship will rob other ships as they leave the island.</p> These ships have just sold their goods to the islanders, so they will be filled with lots and lots of gold.</p><p><img src='run_exp/static/images/tutorial/ship_center.png' height='400'></p><p><b>[Press the space bar to continue]</b></p></div>","32","","","","","","","","","","","","","","","","","","","","","","",""
"","instruc4","8","102665","0.0-8.0","""event"",""trial"",""time""
""focus"",""0"",""3209""
""fullscreenenter"",""0"",""3716""
""fullscreenexit"",""2"",""4784""
""blur"",""2"",""18094""
""focus"",""3"",""52316""
""blur"",""4"",""54383""
""focus"",""5"",""61844""
","""event"",""trial"",""time""
""blur"",""2"",""18094""
""blur"",""4"",""54383""
","""event"",""trial"",""time""
""focus"",""0"",""3209""
""focus"",""3"",""52316""
""focus"",""5"",""61844""
","""event"",""trial"",""time""
""fullscreenenter"",""0"",""3716""
","""event"",""trial"",""time""
""fullscreenexit"",""2"",""4784""
","null","run_exp/static/audio/clip_4_goal_of_game_2.m4a","null","","","","","<div class='center'><p>As the head captain, you do not have to rob any ships yourself. Another pirate will be doing the robbing for you. First, you will choose a pirate to rob the next ship.</p><p><img src='run_exp/static/images/tutorial/pirates_all_crop.png' height='200'></p><p>Then, you'll see if the pirate successfully robbed the ship of their gold. If they were successful, then you'll get a stack of gold coins like this:</p><p><img src='run_exp/static/images/tutorial/reward.png' height='150'></p><p> If they were <b>not</b> successful, then you'll get no gold coins, and you'll see a big red x like this: </p><p><img src='run_exp/static/images/tutorial/reward_no.png' height='150'></p><p> How much bonus money you make is based on how many gold coins you collect.</p><div>","","","","","","","","","","","","","","","","","",""
"","html-keyboard-response","9","103421","0.0-9.0","""event"",""trial"",""time""
""focus"",""0"",""3209""
""fullscreenenter"",""0"",""3716""
""fullscreenexit"",""2"",""4784""
""blur"",""2"",""18094""
""focus"",""3"",""52316""
""blur"",""4"",""54383""
""focus"",""5"",""61844""
","""event"",""trial"",""time""
""blur"",""2"",""18094""
""blur"",""4"",""54383""
","""event"",""trial"",""time""
""focus"",""0"",""3209""
""focus"",""3"",""52316""
""focus"",""5"",""61844""
","""event"",""trial"",""time""
""fullscreenenter"",""0"",""3716""
","""event"",""trial"",""time""
""fullscreenexit"",""2"",""4784""
","754.7000000178814","<div class='center'><p>As the head captain, you do not have to rob any ships yourself. Another pirate will be doing the robbing for you. First, you will choose a pirate to rob the next ship.</p><p><img src='run_exp/static/images/tutorial/pirates_all_crop.png' height='200'></p><p>Then, you'll see if the pirate successfully robbed the ship of their gold. If they were successful, then you'll get a stack of gold coins like this:</p><p><img src='run_exp/static/images/tutorial/reward.png' height='150'></p><p> If they were <b>not</b> successful, then you'll get no gold coins, and you'll see a big red x like this: </p><p><img src='run_exp/static/images/tutorial/reward_no.png' height='150'></p><p> How much bonus money you make is based on how many gold coins you collect.</p<p><b>[Press the space bar to continue]</b></p></div>","32","","","","","","","","","","","","","","","","","","","","","","",""
"","instruc5","10","111514","0.0-10.0","""event"",""trial"",""time""
""focus"",""0"",""3209""
""fullscreenenter"",""0"",""3716""
""fullscreenexit"",""2"",""4784""
""blur"",""2"",""18094""
""focus"",""3"",""52316""
""blur"",""4"",""54383""
""focus"",""5"",""61844""
","""event"",""trial"",""time""
""blur"",""2"",""18094""
""blur"",""4"",""54383""
","""event"",""trial"",""time""
""focus"",""0"",""3209""
""focus"",""3"",""52316""
""focus"",""5"",""61844""
","""event"",""trial"",""time""
""fullscreenenter"",""0"",""3716""
","""event"",""trial"",""time""
""fullscreenexit"",""2"",""4784""
","8091.5999999940395","run_exp/static/audio/clip_5_probabilistic.m4a","49","","","","","<div class='center'><p>Even the most skilled pirate can not rob EVERY ship.</p><p> Some ships will have very strong protections against pirate attacks.</p><p> Blue beard, here, is very, very good at robbing ships, but he won't be successful every time he tries to rob one.</p><p> You can press the <b>‘1’</b> key on the keyboard to choose him.</p><p> Try choosing him 10 times to see how often he succeeds at robbing a ship. </p><p><img src='run_exp/static/images/tutorial/blue.png' height='500'></p></div>","","","","","","","","","","","","","","","","","",""
"","html-keyboard-response","11","113015","0.0-11.0","""event"",""trial"",""time""
""focus"",""0"",""3209""
""fullscreenenter"",""0"",""3716""
""fullscreenexit"",""2"",""4784""
""blur"",""2"",""18094""
""focus"",""3"",""52316""
""blur"",""4"",""54383""
""focus"",""5"",""61844""
","""event"",""trial"",""time""
""blur"",""2"",""18094""
""blur"",""4"",""54383""
","""event"",""trial"",""time""
""focus"",""0"",""3209""
""focus"",""3"",""52316""
""focus"",""5"",""61844""
","""event"",""trial"",""time""
""fullscreenenter"",""0"",""3716""
","""event"",""trial"",""time""
""fullscreenexit"",""2"",""4784""
","null","<div class='center'><p><img src='run_exp/static/images/tutorial/blue_win.png' height='500'></p></div>","null","","","","","","","","","","","","","","","","","","","","","","",""
"","html-keyboard-response","12","113871","0.0-12.0","""event"",""trial"",""time""
""focus"",""0"",""3209""
""fullscreenenter"",""0"",""3716""
""fullscreenexit"",""2"",""4784""
""blur"",""2"",""18094""
""focus"",""3"",""52316""
""blur"",""4"",""54383""
""focus"",""5"",""61844""
","""event"",""trial"",""time""
""blur"",""2"",""18094""
""blur"",""4"",""54383""
","""event"",""trial"",""time""
""focus"",""0"",""3209""
""focus"",""3"",""52316""
""focus"",""5"",""61844""
","""event"",""trial"",""time""
""fullscreenenter"",""0"",""3716""
","""event"",""trial"",""time""
""fullscreenexit"",""2"",""4784""
","855.6000000238419","<div class='center'><img src='run_exp/static/images/tutorial/blue.png' height='500'></p></div>","49","","","","","","","","","","","","","","","","","","","","","","",""
"","html-keyboard-response","13","115377","0.0-13.0","""event"",""trial"",""time""
""focus"",""0"",""3209""
""fullscreenenter"",""0"",""3716""
""fullscreenexit"",""2"",""4784""
""blur"",""2"",""18094""
""focus"",""3"",""52316""
""blur"",""4"",""54383""
""focus"",""5"",""61844""
","""event"",""trial"",""time""
""blur"",""2"",""18094""
""blur"",""4"",""54383""
","""event"",""trial"",""time""
""focus"",""0"",""3209""
""focus"",""3"",""52316""
""focus"",""5"",""61844""
","""event"",""trial"",""time""
""fullscreenenter"",""0"",""3716""
","""event"",""trial"",""time""
""fullscreenexit"",""2"",""4784""
","null","<div class='center'><p><img src='run_exp/static/images/tutorial/blue_win.png' height='500'></p></div>","null","","","","","","","","","","","","","","","","","","","","","","",""
"","html-keyboard-response","14","116079","0.0-14.0","""event"",""trial"",""time""
""focus"",""0"",""3209""
""fullscreenenter"",""0"",""3716""
""fullscreenexit"",""2"",""4784""
""blur"",""2"",""18094""
""focus"",""3"",""52316""
""blur"",""4"",""54383""
""focus"",""5"",""61844""
","""event"",""trial"",""time""
""blur"",""2"",""18094""
""blur"",""4"",""54383""
","""event"",""trial"",""time""
""focus"",""0"",""3209""
""focus"",""3"",""52316""
""focus"",""5"",""61844""
","""event"",""trial"",""time""
""fullscreenenter"",""0"",""3716""
","""event"",""trial"",""time""
""fullscreenexit"",""2"",""4784""
","701.9000000059605","<div class='center'><img src='run_exp/static/images/tutorial/blue.png' height='500'></p></div>","49","","","","","","","","","","","","","","","","","","","","","","",""
"","html-keyboard-response","15","117585","0.0-15.0","""event"",""trial"",""time""
""focus"",""0"",""3209""
""fullscreenenter"",""0"",""3716""
""fullscreenexit"",""2"",""4784""
""blur"",""2"",""18094""
""focus"",""3"",""52316""
""blur"",""4"",""54383""
""focus"",""5"",""61844""
","""event"",""trial"",""time""
""blur"",""2"",""18094""
""blur"",""4"",""54383""
","""event"",""trial"",""time""
""focus"",""0"",""3209""
""focus"",""3"",""52316""
""focus"",""5"",""61844""
","""event"",""trial"",""time""
""fullscreenenter"",""0"",""3716""
","""event"",""trial"",""time""
""fullscreenexit"",""2"",""4784""
","null","<div class='center'><p><img src='run_exp/static/images/tutorial/blue_win.png' height='500'></p></div>","null","","","","","","","","","","","","","","","","","","","","","","",""
"","html-keyboard-response","16","117696","0.0-16.0","""event"",""trial"",""time""
""focus"",""0"",""3209""
""fullscreenenter"",""0"",""3716""
""fullscreenexit"",""2"",""4784""
""blur"",""2"",""18094""
""focus"",""3"",""52316""
""blur"",""4"",""54383""
""focus"",""5"",""61844""
","""event"",""trial"",""time""
""blur"",""2"",""18094""
""blur"",""4"",""54383""
","""event"",""trial"",""time""
""focus"",""0"",""3209""
""focus"",""3"",""52316""
""focus"",""5"",""61844""
","""event"",""trial"",""time""
""fullscreenenter"",""0"",""3716""
","""event"",""trial"",""time""
""fullscreenexit"",""2"",""4784""
","110.7000000178814","<div class='center'><img src='run_exp/static/images/tutorial/blue.png' height='500'></p></div>","49","","","","","","","","","","","","","","","","","","","","","","",""
"","html-keyboard-response","17","119197","0.0-17.0","""event"",""trial"",""time""
""focus"",""0"",""3209""
""fullscreenenter"",""0"",""3716""
""fullscreenexit"",""2"",""4784""
""blur"",""2"",""18094""
""focus"",""3"",""52316""
""blur"",""4"",""54383""
""focus"",""5"",""61844""
","""event"",""trial"",""time""
""blur"",""2"",""18094""
""blur"",""4"",""54383""
","""event"",""trial"",""time""
""focus"",""0"",""3209""
""focus"",""3"",""52316""
""focus"",""5"",""61844""
","""event"",""trial"",""time""
""fullscreenenter"",""0"",""3716""
","""event"",""trial"",""time""
""fullscreenexit"",""2"",""4784""
","null","<div class='center'><p><img src='run_exp/static/images/tutorial/blue_no_win.png' height='500'></p></div>","null","","","","","","","","","","","","","","","","","","","","","","",""
"","html-keyboard-response","18","119406","0.0-18.0","""event"",""trial"",""time""
""focus"",""0"",""3209""
""fullscreenenter"",""0"",""3716""
""fullscreenexit"",""2"",""4784""
""blur"",""2"",""18094""
""focus"",""3"",""52316""
""blur"",""4"",""54383""
""focus"",""5"",""61844""
","""event"",""trial"",""time""
""blur"",""2"",""18094""
""blur"",""4"",""54383""
","""event"",""trial"",""time""
""focus"",""0"",""3209""
""focus"",""3"",""52316""
""focus"",""5"",""61844""
","""event"",""trial"",""time""
""fullscreenenter"",""0"",""3716""
","""event"",""trial"",""time""
""fullscreenexit"",""2"",""4784""
","208","<div class='center'><img src='run_exp/static/images/tutorial/blue.png' height='500'></p></div>","49","","","","","","","","","","","","","","","","","","","","","","",""
"","html-keyboard-response","19","120911","0.0-19.0","""event"",""trial"",""time""
""focus"",""0"",""3209""
""fullscreenenter"",""0"",""3716""
""fullscreenexit"",""2"",""4784""
""blur"",""2"",""18094""
""focus"",""3"",""52316""
""blur"",""4"",""54383""
""focus"",""5"",""61844""
","""event"",""trial"",""time""
""blur"",""2"",""18094""
""blur"",""4"",""54383""
","""event"",""trial"",""time""
""focus"",""0"",""3209""
""focus"",""3"",""52316""
""focus"",""5"",""61844""
","""event"",""trial"",""time""
""fullscreenenter"",""0"",""3716""
","""event"",""trial"",""time""
""fullscreenexit"",""2"",""4784""
","null","<div class='center'><p><img src='run_exp/static/images/tutorial/blue_win.png' height='500'></p></div>","null","","","","","","","","","","","","","","","","","","","","","","",""
"","html-keyboard-response","20","120951","0.0-20.0","""event"",""trial"",""time""
""focus"",""0"",""3209""
""fullscreenenter"",""0"",""3716""
""fullscreenexit"",""2"",""4784""
""blur"",""2"",""18094""
""focus"",""3"",""52316""
""blur"",""4"",""54383""
""focus"",""5"",""61844""
","""event"",""trial"",""time""
""blur"",""2"",""18094""
""blur"",""4"",""54383""
","""event"",""trial"",""time""
""focus"",""0"",""3209""
""focus"",""3"",""52316""
""focus"",""5"",""61844""
","""event"",""trial"",""time""
""fullscreenenter"",""0"",""3716""
","""event"",""trial"",""time""
""fullscreenexit"",""2"",""4784""
","38.20000001788139","<div class='center'><img src='run_exp/static/images/tutorial/blue.png' height='500'></p></div>","49","","","","","","","","","","","","","","","","","","","","","","",""
"","html-keyboard-response","21","122455","0.0-21.0","""event"",""trial"",""time""
""focus"",""0"",""3209""
""fullscreenenter"",""0"",""3716""
""fullscreenexit"",""2"",""4784""
""blur"",""2"",""18094""
""focus"",""3"",""52316""
""blur"",""4"",""54383""
""focus"",""5"",""61844""
","""event"",""trial"",""time""
""blur"",""2"",""18094""
""blur"",""4"",""54383""
","""event"",""trial"",""time""
""focus"",""0"",""3209""
""focus"",""3"",""52316""
""focus"",""5"",""61844""
","""event"",""trial"",""time""
""fullscreenenter"",""0"",""3716""
","""event"",""trial"",""time""
""fullscreenexit"",""2"",""4784""
","null","<div class='center'><p><img src='run_exp/static/images/tutorial/blue_win.png' height='500'></p></div>","null","","","","","","","","","","","","","","","","","","","","","","",""
"","html-keyboard-response","22","122590","0.0-22.0","""event"",""trial"",""time""
""focus"",""0"",""3209""
""fullscreenenter"",""0"",""3716""
""fullscreenexit"",""2"",""4784""
""blur"",""2"",""18094""
""focus"",""3"",""52316""
""blur"",""4"",""54383""
""focus"",""5"",""61844""
","""event"",""trial"",""time""
""blur"",""2"",""18094""
""blur"",""4"",""54383""
","""event"",""trial"",""time""
""focus"",""0"",""3209""
""focus"",""3"",""52316""
""focus"",""5"",""61844""
","""event"",""trial"",""time""
""fullscreenenter"",""0"",""3716""
","""event"",""trial"",""time""
""fullscreenexit"",""2"",""4784""
","134.10000002384186","<div class='center'><img src='run_exp/static/images/tutorial/blue.png' height='500'></p></div>","49","","","","","","","","","","","","","","","","","","","","","","",""
"","html-keyboard-response","23","124096","0.0-23.0","""event"",""trial"",""time""
""focus"",""0"",""3209""
""fullscreenenter"",""0"",""3716""
""fullscreenexit"",""2"",""4784""
""blur"",""2"",""18094""
""focus"",""3"",""52316""
""blur"",""4"",""54383""
""focus"",""5"",""61844""
","""event"",""trial"",""time""
""blur"",""2"",""18094""
""blur"",""4"",""54383""
","""event"",""trial"",""time""
""focus"",""0"",""3209""
""focus"",""3"",""52316""
""focus"",""5"",""61844""
","""event"",""trial"",""time""
""fullscreenenter"",""0"",""3716""
","""event"",""trial"",""time""
""fullscreenexit"",""2"",""4784""
","null","<div class='center'><p><img src='run_exp/static/images/tutorial/blue_win.png' height='500'></p></div>","null","","","","","","","","","","","","","","","","","","","","","","",""
"","html-keyboard-response","24","126117","0.0-24.0","""event"",""trial"",""time""
""focus"",""0"",""3209""
""fullscreenenter"",""0"",""3716""
""fullscreenexit"",""2"",""4784""
""blur"",""2"",""18094""
""focus"",""3"",""52316""
""blur"",""4"",""54383""
""focus"",""5"",""61844""
","""event"",""trial"",""time""
""blur"",""2"",""18094""
""blur"",""4"",""54383""
","""event"",""trial"",""time""
""focus"",""0"",""3209""
""focus"",""3"",""52316""
""focus"",""5"",""61844""
","""event"",""trial"",""time""
""fullscreenenter"",""0"",""3716""
","""event"",""trial"",""time""
""fullscreenexit"",""2"",""4784""
","2019.800000011921","<div class='center'><img src='run_exp/static/images/tutorial/blue.png' height='500'></p></div>","49","","","","","","","","","","","","","","","","","","","","","","",""
"","html-keyboard-response","25","127618","0.0-25.0","""event"",""trial"",""time""
""focus"",""0"",""3209""
""fullscreenenter"",""0"",""3716""
""fullscreenexit"",""2"",""4784""
""blur"",""2"",""18094""
""focus"",""3"",""52316""
""blur"",""4"",""54383""
""focus"",""5"",""61844""
","""event"",""trial"",""time""
""blur"",""2"",""18094""
""blur"",""4"",""54383""
","""event"",""trial"",""time""
""focus"",""0"",""3209""
""focus"",""3"",""52316""
""focus"",""5"",""61844""
","""event"",""trial"",""time""
""fullscreenenter"",""0"",""3716""
","""event"",""trial"",""time""
""fullscreenexit"",""2"",""4784""
","null","<div class='center'><p><img src='run_exp/static/images/tutorial/blue_no_win.png' height='500'></p></div>","null","","","","","","","","","","","","","","","","","","","","","","",""
"","html-keyboard-response","26","128235","0.0-26.0","""event"",""trial"",""time""
""focus"",""0"",""3209""
""fullscreenenter"",""0"",""3716""
""fullscreenexit"",""2"",""4784""
""blur"",""2"",""18094""
""focus"",""3"",""52316""
""blur"",""4"",""54383""
""focus"",""5"",""61844""
","""event"",""trial"",""time""
""blur"",""2"",""18094""
""blur"",""4"",""54383""
","""event"",""trial"",""time""
""focus"",""0"",""3209""
""focus"",""3"",""52316""
""focus"",""5"",""61844""
","""event"",""trial"",""time""
""fullscreenenter"",""0"",""3716""
","""event"",""trial"",""time""
""fullscreenexit"",""2"",""4784""
","616.0999999940395","<div class='center'><img src='run_exp/static/images/tutorial/blue.png' height='500'></p></div>","49","","","","","","","","","","","","","","","","","","","","","","",""
"","html-keyboard-response","27","129740","0.0-27.0","""event"",""trial"",""time""
""focus"",""0"",""3209""
""fullscreenenter"",""0"",""3716""
""fullscreenexit"",""2"",""4784""
""blur"",""2"",""18094""
""focus"",""3"",""52316""
""blur"",""4"",""54383""
""focus"",""5"",""61844""
","""event"",""trial"",""time""
""blur"",""2"",""18094""
""blur"",""4"",""54383""
","""event"",""trial"",""time""
""focus"",""0"",""3209""
""focus"",""3"",""52316""
""focus"",""5"",""61844""
","""event"",""trial"",""time""
""fullscreenenter"",""0"",""3716""
","""event"",""trial"",""time""
""fullscreenexit"",""2"",""4784""
","null","<div class='center'><p><img src='run_exp/static/images/tutorial/blue_win.png' height='500'></p></div>","null","","","","","","","","","","","","","","","","","","","","","","",""
"","html-keyboard-response","28","130184","0.0-28.0","""event"",""trial"",""time""
""focus"",""0"",""3209""
""fullscreenenter"",""0"",""3716""
""fullscreenexit"",""2"",""4784""
""blur"",""2"",""18094""
""focus"",""3"",""52316""
""blur"",""4"",""54383""
""focus"",""5"",""61844""
","""event"",""trial"",""time""
""blur"",""2"",""18094""
""blur"",""4"",""54383""
","""event"",""trial"",""time""
""focus"",""0"",""3209""
""focus"",""3"",""52316""
""focus"",""5"",""61844""
","""event"",""trial"",""time""
""fullscreenenter"",""0"",""3716""
","""event"",""trial"",""time""
""fullscreenexit"",""2"",""4784""
","443","<div class='center'><img src='run_exp/static/images/tutorial/blue.png' height='500'></p></div>","49","","","","","","","","","","","","","","","","","","","","","","",""
"","html-keyboard-response","29","131688","0.0-29.0","""event"",""trial"",""time""
""focus"",""0"",""3209""
""fullscreenenter"",""0"",""3716""
""fullscreenexit"",""2"",""4784""
""blur"",""2"",""18094""
""focus"",""3"",""52316""
""blur"",""4"",""54383""
""focus"",""5"",""61844""
""blur"",""30"",""134938""
","""event"",""trial"",""time""
""blur"",""2"",""18094""
""blur"",""4"",""54383""
""blur"",""30"",""134938""
","""event"",""trial"",""time""
""focus"",""0"",""3209""
""focus"",""3"",""52316""
""focus"",""5"",""61844""
","""event"",""trial"",""time""
""fullscreenenter"",""0"",""3716""
","""event"",""trial"",""time""
""fullscreenexit"",""2"",""4784""
","null","<div class='center'><p><img src='run_exp/static/images/tutorial/blue_win.png' height='500'></p></div>","null","","","","","","","","","","","","","","","","","","","","","","",""
"","instruc6","30","137059","0.0-30.0","""event"",""trial"",""time""
""focus"",""0"",""3209""
""fullscreenenter"",""0"",""3716""
""fullscreenexit"",""2"",""4784""
""blur"",""2"",""18094""
""focus"",""3"",""52316""
""blur"",""4"",""54383""
""focus"",""5"",""61844""
""blur"",""30"",""134938""
""focus"",""31"",""138571""
","""event"",""trial"",""time""
""blur"",""2"",""18094""
""blur"",""4"",""54383""
""blur"",""30"",""134938""
","""event"",""trial"",""time""
""focus"",""0"",""3209""
""focus"",""3"",""52316""
""focus"",""5"",""61844""
""focus"",""31"",""138571""
","""event"",""trial"",""time""
""fullscreenenter"",""0"",""3716""
","""event"",""trial"",""time""
""fullscreenexit"",""2"",""4784""
","null","run_exp/static/audio/clip_6_blue_beard_outcome.m4a","null","","","","","<div class='center'><p> See, he succeeded in robbing the ships most of the time but not every time. </p></div>","","","","","","","","","","","","","","","","","",""
"","html-keyboard-response","31","139676","0.0-31.0","""event"",""trial"",""time""
""focus"",""0"",""3209""
""fullscreenenter"",""0"",""3716""
""fullscreenexit"",""2"",""4784""
""blur"",""2"",""18094""
""focus"",""3"",""52316""
""blur"",""4"",""54383""
""focus"",""5"",""61844""
""blur"",""30"",""134938""
""focus"",""31"",""138571""
","""event"",""trial"",""time""
""blur"",""2"",""18094""
""blur"",""4"",""54383""
""blur"",""30"",""134938""
","""event"",""trial"",""time""
""focus"",""0"",""3209""
""focus"",""3"",""52316""
""focus"",""5"",""61844""
""focus"",""31"",""138571""
","""event"",""trial"",""time""
""fullscreenenter"",""0"",""3716""
","""event"",""trial"",""time""
""fullscreenexit"",""2"",""4784""
","2615.7000000178814","<div class='center'><p> See, he succeeded in robbing the ships most of the time but not every time. </p><p><b>[Press the space bar to continue]</b></p></div>","32","","","","","","","","","","","","","","","","","","","","","","",""
"","audio-keyboard-response","32","143340","0.0-32.0","""event"",""trial"",""time""
""focus"",""0"",""3209""
""fullscreenenter"",""0"",""3716""
""fullscreenexit"",""2"",""4784""
""blur"",""2"",""18094""
""focus"",""3"",""52316""
""blur"",""4"",""54383""
""focus"",""5"",""61844""
""blur"",""30"",""134938""
""focus"",""31"",""138571""
","""event"",""trial"",""time""
""blur"",""2"",""18094""
""blur"",""4"",""54383""
""blur"",""30"",""134938""
","""event"",""trial"",""time""
""focus"",""0"",""3209""
""focus"",""3"",""52316""
""focus"",""5"",""61844""
""focus"",""31"",""138571""
","""event"",""trial"",""time""
""fullscreenenter"",""0"",""3716""
","""event"",""trial"",""time""
""fullscreenexit"",""2"",""4784""
","3663.5999999940395","run_exp/static/audio/clip_7_pick_pirate.m4a","49","","","","","","","","","","","","","","","","","","","","","","",""
"","audio-keyboard-response","33","144783","0.0-33.0-0.0","""event"",""trial"",""time""
""focus"",""0"",""3209""
""fullscreenenter"",""0"",""3716""
""fullscreenexit"",""2"",""4784""
""blur"",""2"",""18094""
""focus"",""3"",""52316""
""blur"",""4"",""54383""
""focus"",""5"",""61844""
""blur"",""30"",""134938""
""focus"",""31"",""138571""
","""event"",""trial"",""time""
""blur"",""2"",""18094""
""blur"",""4"",""54383""
""blur"",""30"",""134938""
","""event"",""trial"",""time""
""focus"",""0"",""3209""
""focus"",""3"",""52316""
""focus"",""5"",""61844""
""focus"",""31"",""138571""
","""event"",""trial"",""time""
""fullscreenenter"",""0"",""3716""
","""event"",""trial"",""time""
""fullscreenexit"",""2"",""4784""
","1440.5","run_exp/static/audio/clip_8_chosen_pirate_win.m4a","32","","","","","","","","","","","","","","","","","","","","","","",""
"","audio-keyboard-response","34","145448","0.0-33.0-1.0","""event"",""trial"",""time""
""focus"",""0"",""3209""
""fullscreenenter"",""0"",""3716""
""fullscreenexit"",""2"",""4784""
""blur"",""2"",""18094""
""focus"",""3"",""52316""
""blur"",""4"",""54383""
""focus"",""5"",""61844""
""blur"",""30"",""134938""
""focus"",""31"",""138571""
","""event"",""trial"",""time""
""blur"",""2"",""18094""
""blur"",""4"",""54383""
""blur"",""30"",""134938""
","""event"",""trial"",""time""
""focus"",""0"",""3209""
""focus"",""3"",""52316""
""focus"",""5"",""61844""
""focus"",""31"",""138571""
","""event"",""trial"",""time""
""fullscreenenter"",""0"",""3716""
","""event"",""trial"",""time""
""fullscreenexit"",""2"",""4784""
","663.3000000119209","run_exp/static/audio/clip_9_pick_a_pirate_again.m4a","50","","","","","","","","","","","","","","","","","","","","","","",""
"","audio-keyboard-response","35","146097","0.0-34.0-0.0","""event"",""trial"",""time""
""focus"",""0"",""3209""
""fullscreenenter"",""0"",""3716""
""fullscreenexit"",""2"",""4784""
""blur"",""2"",""18094""
""focus"",""3"",""52316""
""blur"",""4"",""54383""
""focus"",""5"",""61844""
""blur"",""30"",""134938""
""focus"",""31"",""138571""
","""event"",""trial"",""time""
""blur"",""2"",""18094""
""blur"",""4"",""54383""
""blur"",""30"",""134938""
","""event"",""trial"",""time""
""focus"",""0"",""3209""
""focus"",""3"",""52316""
""focus"",""5"",""61844""
""focus"",""31"",""138571""
","""event"",""trial"",""time""
""fullscreenenter"",""0"",""3716""
","""event"",""trial"",""time""
""fullscreenexit"",""2"",""4784""
","647.0999999940395","run_exp/static/audio/clip_10_chosen_pirate_loss.m4a","32","","","","","","","","","","","","","","","","","","","","","","",""
"","instruc9","36","151618","0.0-35.0-0.0","""event"",""trial"",""time""
""focus"",""0"",""3209""
""fullscreenenter"",""0"",""3716""
""fullscreenexit"",""2"",""4784""
""blur"",""2"",""18094""
""focus"",""3"",""52316""
""blur"",""4"",""54383""
""focus"",""5"",""61844""
""blur"",""30"",""134938""
""focus"",""31"",""138571""
","""event"",""trial"",""time""
""blur"",""2"",""18094""
""blur"",""4"",""54383""
""blur"",""30"",""134938""
","""event"",""trial"",""time""
""focus"",""0"",""3209""
""focus"",""3"",""52316""
""focus"",""5"",""61844""
""focus"",""31"",""138571""
","""event"",""trial"",""time""
""fullscreenenter"",""0"",""3716""
","""event"",""trial"",""time""
""fullscreenexit"",""2"",""4784""
","null","run_exp/static/audio/clip_11_time_out.m4a","null","","","","","<div class='center'><p>If you don’t make your choice fast enough, you’ll have to wait a few seconds before you can make another one. </p><p><img src='run_exp/static/images/miscellaneous/hurry_up.png' height='500'></p></div>","","","","","","","","","","","","","","","","","",""
"","html-keyboard-response","37","152817","0.0-35.0-1.0","""event"",""trial"",""time""
""focus"",""0"",""3209""
""fullscreenenter"",""0"",""3716""
""fullscreenexit"",""2"",""4784""
""blur"",""2"",""18094""
""focus"",""3"",""52316""
""blur"",""4"",""54383""
""focus"",""5"",""61844""
""blur"",""30"",""134938""
""focus"",""31"",""138571""
""blur"",""38"",""167249""
","""event"",""trial"",""time""
""blur"",""2"",""18094""
""blur"",""4"",""54383""
""blur"",""30"",""134938""
""blur"",""38"",""167249""
","""event"",""trial"",""time""
""focus"",""0"",""3209""
""focus"",""3"",""52316""
""focus"",""5"",""61844""
""focus"",""31"",""138571""
","""event"",""trial"",""time""
""fullscreenenter"",""0"",""3716""
","""event"",""trial"",""time""
""fullscreenexit"",""2"",""4784""
","1198.199999988079","<div class='center'><p>If you don’t make your choice fast enough, you’ll have to wait a few seconds before you can make another one. </p><p><img src='run_exp/static/images/miscellaneous/hurry_up.png' height='500'></p><p><b>[Press the space bar to continue]</b></p></div>","32","","","","","","","","","","","","","","","","","","","","","","",""
"","instruc10","38","191951","0.0-35.0-2.0","""event"",""trial"",""time""
""focus"",""0"",""3209""
""fullscreenenter"",""0"",""3716""
""fullscreenexit"",""2"",""4784""
""blur"",""2"",""18094""
""focus"",""3"",""52316""
""blur"",""4"",""54383""
""focus"",""5"",""61844""
""blur"",""30"",""134938""
""focus"",""31"",""138571""
""blur"",""38"",""167249""
""focus"",""39"",""194054""
","""event"",""trial"",""time""
""blur"",""2"",""18094""
""blur"",""4"",""54383""
""blur"",""30"",""134938""
""blur"",""38"",""167249""
","""event"",""trial"",""time""
""focus"",""0"",""3209""
""focus"",""3"",""52316""
""focus"",""5"",""61844""
""focus"",""31"",""138571""
""focus"",""39"",""194054""
","""event"",""trial"",""time""
""fullscreenenter"",""0"",""3716""
","""event"",""trial"",""time""
""fullscreenexit"",""2"",""4784""
","null","run_exp/static/audio/clip_12_probe.m4a","null","","","","","<div class='center'><p>Once you've chosen a pirate, you’ll be shown the ship they are robbing. You will never rob the same ship twice. Ships can be told apart from one another by the image on them. These are the goods that they sell. See, this ship has a travel mug on it. </p><p> You’ll have to remember which island you saw each ship on. You will win more gold coins and hence more bonus money if you remember correctly! To help you remember, you can imagine a story. For example, here, you could imagine a mug full of water in the desert. Or, as another example, if on the forest island, your pirate robbed a ship with an apple on it, you could imagine an apple falling from a tree in the forest. </p><p><img src='run_exp/static/images/tutorial/example_probe.png' height='500'></p></div>","","","","","","","","","","","","","","","","","",""
"","html-keyboard-response","39","194267","0.0-35.0-3.0","""event"",""trial"",""time""
""focus"",""0"",""3209""
""fullscreenenter"",""0"",""3716""
""fullscreenexit"",""2"",""4784""
""blur"",""2"",""18094""
""focus"",""3"",""52316""
""blur"",""4"",""54383""
""focus"",""5"",""61844""
""blur"",""30"",""134938""
""focus"",""31"",""138571""
""blur"",""38"",""167249""
""focus"",""39"",""194054""
","""event"",""trial"",""time""
""blur"",""2"",""18094""
""blur"",""4"",""54383""
""blur"",""30"",""134938""
""blur"",""38"",""167249""
","""event"",""trial"",""time""
""focus"",""0"",""3209""
""focus"",""3"",""52316""
""focus"",""5"",""61844""
""focus"",""31"",""138571""
""focus"",""39"",""194054""
","""event"",""trial"",""time""
""fullscreenenter"",""0"",""3716""
","""event"",""trial"",""time""
""fullscreenexit"",""2"",""4784""
","2315","<div class='center'><p>Once you've chosen a pirate, you’ll be shown the ship they are robbing. You will never rob the same ship twice. Ships can be told apart from one another by the image on them. These are the goods that they sell. See, this ship has a travel mug on it. </p><p> You’ll have to remember which island you saw each ship on. You will win more gold coins and hence more bonus money if you remember correctly! To help you remember, you can imagine a story. For example, here, you could imagine a mug full of water in the desert. Or, as another example, if on the forest island, your pirate robbed a ship with an apple on it, you could imagine an apple falling from a tree in the forest. </p><p><img src='run_exp/static/images/tutorial/example_probe.png' height='500'></p><p><b>[Press the space bar to continue]</b></p></div>","32","","","","","","","","","","","","","","","","","","","","","","",""
"","instruc11","40","210712","0.0-35.0-4.0","""event"",""trial"",""time""
""focus"",""0"",""3209""
""fullscreenenter"",""0"",""3716""
""fullscreenexit"",""2"",""4784""
""blur"",""2"",""18094""
""focus"",""3"",""52316""
""blur"",""4"",""54383""
""focus"",""5"",""61844""
""blur"",""30"",""134938""
""focus"",""31"",""138571""
""blur"",""38"",""167249""
""focus"",""39"",""194054""
","""event"",""trial"",""time""
""blur"",""2"",""18094""
""blur"",""4"",""54383""
""blur"",""30"",""134938""
""blur"",""38"",""167249""
","""event"",""trial"",""time""
""focus"",""0"",""3209""
""focus"",""3"",""52316""
""focus"",""5"",""61844""
""focus"",""31"",""138571""
""focus"",""39"",""194054""
","""event"",""trial"",""time""
""fullscreenenter"",""0"",""3716""
","""event"",""trial"",""time""
""fullscreenexit"",""2"",""4784""
","null","run_exp/static/audio/clip_13_changepoint.m4a","null","","","","","<div class='center'><p>How successful a pirate is at robbing ships will depend on the island you’re on.</p><p> A pirate may have visited this island many times before and gained a lot of practice robbing ships there.</p><p>So, they’re more likely to be successful than a pirate who has never visited the island before.</p></div>","","","","","","","","","","","","","","","","","",""
"","html-keyboard-response","41","211476","0.0-35.0-5.0","""event"",""trial"",""time""
""focus"",""0"",""3209""
""fullscreenenter"",""0"",""3716""
""fullscreenexit"",""2"",""4784""
""blur"",""2"",""18094""
""focus"",""3"",""52316""
""blur"",""4"",""54383""
""focus"",""5"",""61844""
""blur"",""30"",""134938""
""focus"",""31"",""138571""
""blur"",""38"",""167249""
""focus"",""39"",""194054""
""blur"",""42"",""235620""
","""event"",""trial"",""time""
""blur"",""2"",""18094""
""blur"",""4"",""54383""
""blur"",""30"",""134938""
""blur"",""38"",""167249""
""blur"",""42"",""235620""
","""event"",""trial"",""time""
""focus"",""0"",""3209""
""focus"",""3"",""52316""
""focus"",""5"",""61844""
""focus"",""31"",""138571""
""focus"",""39"",""194054""
","""event"",""trial"",""time""
""fullscreenenter"",""0"",""3716""
","""event"",""trial"",""time""
""fullscreenexit"",""2"",""4784""
","762.0999999940395","<div class='center'><p>How successful a pirate is at robbing ships will depend on the island you’re on.</p><p> A pirate may have visited this island many times before and gained a lot of practice robbing ships there.</p><p>So, they’re more likely to be successful than a pirate who has never visited the island before.</p><p><b>[Press the space bar to continue]</b></p></div>","32","","","","","","","","","","","","","","","","","","","","","","",""
"","instruc12","42","252601","0.0-35.0-6.0","""event"",""trial"",""time""
""focus"",""0"",""3209""
""fullscreenenter"",""0"",""3716""
""fullscreenexit"",""2"",""4784""
""blur"",""2"",""18094""
""focus"",""3"",""52316""
""blur"",""4"",""54383""
""focus"",""5"",""61844""
""blur"",""30"",""134938""
""focus"",""31"",""138571""
""blur"",""38"",""167249""
""focus"",""39"",""194054""
""blur"",""42"",""235620""
""focus"",""43"",""253929""
","""event"",""trial"",""time""
""blur"",""2"",""18094""
""blur"",""4"",""54383""
""blur"",""30"",""134938""
""blur"",""38"",""167249""
""blur"",""42"",""235620""
","""event"",""trial"",""time""
""focus"",""0"",""3209""
""focus"",""3"",""52316""
""focus"",""5"",""61844""
""focus"",""31"",""138571""
""focus"",""39"",""194054""
""focus"",""43"",""253929""
","""event"",""trial"",""time""
""fullscreenenter"",""0"",""3716""
","""event"",""trial"",""time""
""fullscreenexit"",""2"",""4784""
","null","run_exp/static/audio/clip_14_drift.m4a","null","","","","","<div class='center'><p>How successful a pirate is at robbing ships can also change over the time spent on the island. </p><p> Ships may hear from islanders about the pirates coming and will improve their protections against the attack. This may make it harder to rob them.</p><p> Ships may also become lazy and weaken the strength of their protections. This may make it easier to rob them.</p><br><p>Things are always changing on the high seas! So, try your best to pay attention!</p><p><img src='run_exp/static/images/tutorial/contingency.png' height='500'></p></div>","","","","","","","","","","","","","","","","","",""
"","html-keyboard-response","43","254378","0.0-35.0-7.0","""event"",""trial"",""time""
""focus"",""0"",""3209""
""fullscreenenter"",""0"",""3716""
""fullscreenexit"",""2"",""4784""
""blur"",""2"",""18094""
""focus"",""3"",""52316""
""blur"",""4"",""54383""
""focus"",""5"",""61844""
""blur"",""30"",""134938""
""focus"",""31"",""138571""
""blur"",""38"",""167249""
""focus"",""39"",""194054""
""blur"",""42"",""235620""
""focus"",""43"",""253929""
","""event"",""trial"",""time""
""blur"",""2"",""18094""
""blur"",""4"",""54383""
""blur"",""30"",""134938""
""blur"",""38"",""167249""
""blur"",""42"",""235620""
","""event"",""trial"",""time""
""focus"",""0"",""3209""
""focus"",""3"",""52316""
""focus"",""5"",""61844""
""focus"",""31"",""138571""
""focus"",""39"",""194054""
""focus"",""43"",""253929""
","""event"",""trial"",""time""
""fullscreenenter"",""0"",""3716""
","""event"",""trial"",""time""
""fullscreenexit"",""2"",""4784""
","1775.699999988079","<div class='center'><p>How successful a pirate is at robbing ships can also change over the time spent on the island. </p><p> Ships may hear from islanders about the pirates coming and will improve their protections against the attack. This may make it harder to rob them.</p><p> Ships may also become lazy and weaken the strength of their protections. This may make it easier to rob them.</p><br><p>Things are always changing on the high seas! So, try your best to pay attention!</p><p><img src='run_exp/static/images/tutorial/contingency.png' height='500'></p><p><b>[Press the space bar to continue]</b></p></div>","32","","","","","","","","","","","","","","","","","","","","","","",""
"","instruc13","44","289613","0.0-35.0-8.0","""event"",""trial"",""time""
""focus"",""0"",""3209""
""fullscreenenter"",""0"",""3716""
""fullscreenexit"",""2"",""4784""
""blur"",""2"",""18094""
""focus"",""3"",""52316""
""blur"",""4"",""54383""
""focus"",""5"",""61844""
""blur"",""30"",""134938""
""focus"",""31"",""138571""
""blur"",""38"",""167249""
""focus"",""39"",""194054""
""blur"",""42"",""235620""
""focus"",""43"",""253929""
","""event"",""trial"",""time""
""blur"",""2"",""18094""
""blur"",""4"",""54383""
""blur"",""30"",""134938""
""blur"",""38"",""167249""
""blur"",""42"",""235620""
","""event"",""trial"",""time""
""focus"",""0"",""3209""
""focus"",""3"",""52316""
""focus"",""5"",""61844""
""focus"",""31"",""138571""
""focus"",""39"",""194054""
""focus"",""43"",""253929""
","""event"",""trial"",""time""
""fullscreenenter"",""0"",""3716""
","""event"",""trial"",""time""
""fullscreenexit"",""2"",""4784""
","null","run_exp/static/audio/clip_15_summary.m4a","null","","","","","<div class='center'><p>Let's go over the instructions quickly again. You have two important things to do: </p><b><p> 1. Pick the pirate who is the best at robbing ships on the current island. </p></b><b><p> 2. Remember on which island a ship was robbed.</p> </b><p>The amount of bonus money you can win depends on both.</p><p><br><p>Let’s try a practice game. The game will start by showing you the pirates. First, pick a pirate using the <b> 1, 2, 3 </b> keys on your keyboard. When you are shown a ship, try to remember which island you’re on by making up a story.</p><p>This is just a practice game, so you’re not playing for money. </p><p> Good luck! This game will be very difficult but try your best!</p></div>","","","","","","","","","","","","","","","","","",""
"","html-keyboard-response","45","291267","0.0-35.0-9.0","""event"",""trial"",""time""
""focus"",""0"",""3209""
""fullscreenenter"",""0"",""3716""
""fullscreenexit"",""2"",""4784""
""blur"",""2"",""18094""
""focus"",""3"",""52316""
""blur"",""4"",""54383""
""focus"",""5"",""61844""
""blur"",""30"",""134938""
""focus"",""31"",""138571""
""blur"",""38"",""167249""
""focus"",""39"",""194054""
""blur"",""42"",""235620""
""focus"",""43"",""253929""
","""event"",""trial"",""time""
""blur"",""2"",""18094""
""blur"",""4"",""54383""
""blur"",""30"",""134938""
""blur"",""38"",""167249""
""blur"",""42"",""235620""
","""event"",""trial"",""time""
""focus"",""0"",""3209""
""focus"",""3"",""52316""
""focus"",""5"",""61844""
""focus"",""31"",""138571""
""focus"",""39"",""194054""
""focus"",""43"",""253929""
","""event"",""trial"",""time""
""fullscreenenter"",""0"",""3716""
","""event"",""trial"",""time""
""fullscreenexit"",""2"",""4784""
","1652.2999999821186","<div class='center'><p>Let's go over the instructions quickly again. You have two important things to do: </p><b><p> 1. Pick the pirate who is the best at robbing ships on the current island. </p></b><b><p> 2. Remember on which island a ship was robbed.</p> </b><p>The amount of bonus money you can win depends on both.</p><p><br><p>Let’s try a practice game. The game will start by showing you the pirates. First, pick a pirate using the <b> 1, 2, 3 </b> keys on your keyboard. When you are shown a ship, try to remember which island you’re on by making up a story.</p><p>This is just a practice game, so you’re not playing for money. </p><p> Good luck! This game will be very difficult but try your best!</p><p><b>[Press the space bar to continue]</b></p></div>","32","","","","","","","","","","","","","","","","","","","","","","",""
"","do_welcome","46","295278","0.0-35.0-10.0","""event"",""trial"",""time""
""focus"",""0"",""3209""
""fullscreenenter"",""0"",""3716""
""fullscreenexit"",""2"",""4784""
""blur"",""2"",""18094""
""focus"",""3"",""52316""
""blur"",""4"",""54383""
""focus"",""5"",""61844""
""blur"",""30"",""134938""
""focus"",""31"",""138571""
""blur"",""38"",""167249""
""focus"",""39"",""194054""
""blur"",""42"",""235620""
""focus"",""43"",""253929""
","""event"",""trial"",""time""
""blur"",""2"",""18094""
""blur"",""4"",""54383""
""blur"",""30"",""134938""
""blur"",""38"",""167249""
""blur"",""42"",""235620""
","""event"",""trial"",""time""
""focus"",""0"",""3209""
""focus"",""3"",""52316""
""focus"",""5"",""61844""
""focus"",""31"",""138571""
""focus"",""39"",""194054""
""focus"",""43"",""253929""
","""event"",""trial"",""time""
""fullscreenenter"",""0"",""3716""
","""event"",""trial"",""time""
""fullscreenexit"",""2"",""4784""
","null","","","","","","","","null","","","","","","","","","","","","","","","","",""
"","do_trial","47","301287","0.0-35.0-11.0","""event"",""trial"",""time""
""focus"",""0"",""3209""
""fullscreenenter"",""0"",""3716""
""fullscreenexit"",""2"",""4784""
""blur"",""2"",""18094""
""focus"",""3"",""52316""
""blur"",""4"",""54383""
""focus"",""5"",""61844""
""blur"",""30"",""134938""
""focus"",""31"",""138571""
""blur"",""38"",""167249""
""focus"",""39"",""194054""
""blur"",""42"",""235620""
""focus"",""43"",""253929""
","""event"",""trial"",""time""
""blur"",""2"",""18094""
""blur"",""4"",""54383""
""blur"",""30"",""134938""
""blur"",""38"",""167249""
""blur"",""42"",""235620""
","""event"",""trial"",""time""
""focus"",""0"",""3209""
""focus"",""3"",""52316""
""focus"",""5"",""61844""
""focus"",""31"",""138571""
""focus"",""39"",""194054""
""focus"",""43"",""253929""
","""event"",""trial"",""time""
""fullscreenenter"",""0"",""3716""
","""event"",""trial"",""time""
""fullscreenexit"",""2"",""4784""
","null","","","","","","","","null","1,0,0","","","","","","","","","","","","","","","",""
"","html-keyboard-response","48","302291","0.0-36.0-0.0","""event"",""trial"",""time""
""focus"",""0"",""3209""
""fullscreenenter"",""0"",""3716""
""fullscreenexit"",""2"",""4784""
""blur"",""2"",""18094""
""focus"",""3"",""52316""
""blur"",""4"",""54383""
""focus"",""5"",""61844""
""blur"",""30"",""134938""
""focus"",""31"",""138571""
""blur"",""38"",""167249""
""focus"",""39"",""194054""
""blur"",""42"",""235620""
""focus"",""43"",""253929""
","""event"",""trial"",""time""
""blur"",""2"",""18094""
""blur"",""4"",""54383""
""blur"",""30"",""134938""
""blur"",""38"",""167249""
""blur"",""42"",""235620""
","""event"",""trial"",""time""
""focus"",""0"",""3209""
""focus"",""3"",""52316""
""focus"",""5"",""61844""
""focus"",""31"",""138571""
""focus"",""39"",""194054""
""focus"",""43"",""253929""
","""event"",""trial"",""time""
""fullscreenenter"",""0"",""3716""
","""event"",""trial"",""time""
""fullscreenexit"",""2"",""4784""
","null","<p></p>","null","","","","","","","","","","","","","","","","","","","","","","",""
"","do_trial","49","307501","0.0-36.0-1.0","""event"",""trial"",""time""
""focus"",""0"",""3209""
""fullscreenenter"",""0"",""3716""
""fullscreenexit"",""2"",""4784""
""blur"",""2"",""18094""
""focus"",""3"",""52316""
""blur"",""4"",""54383""
""focus"",""5"",""61844""
""blur"",""30"",""134938""
""focus"",""31"",""138571""
""blur"",""38"",""167249""
""focus"",""39"",""194054""
""blur"",""42"",""235620""
""focus"",""43"",""253929""
","""event"",""trial"",""time""
""blur"",""2"",""18094""
""blur"",""4"",""54383""
""blur"",""30"",""134938""
""blur"",""38"",""167249""
""blur"",""42"",""235620""
","""event"",""trial"",""time""
""focus"",""0"",""3209""
""focus"",""3"",""52316""
""focus"",""5"",""61844""
""focus"",""31"",""138571""
""focus"",""39"",""194054""
""focus"",""43"",""253929""
","""event"",""trial"",""time""
""fullscreenenter"",""0"",""3716""
","""event"",""trial"",""time""
""fullscreenexit"",""2"",""4784""
","701.3000000119209","","","","","","","","49","1,0,0","","","","","","","","","","","","","","","",""
"","html-keyboard-response","50","308505","0.0-37.0-0.0","""event"",""trial"",""time""
""focus"",""0"",""3209""
""fullscreenenter"",""0"",""3716""
""fullscreenexit"",""2"",""4784""
""blur"",""2"",""18094""
""focus"",""3"",""52316""
""blur"",""4"",""54383""
""focus"",""5"",""61844""
""blur"",""30"",""134938""
""focus"",""31"",""138571""
""blur"",""38"",""167249""
""focus"",""39"",""194054""
""blur"",""42"",""235620""
""focus"",""43"",""253929""
","""event"",""trial"",""time""
""blur"",""2"",""18094""
""blur"",""4"",""54383""
""blur"",""30"",""134938""
""blur"",""38"",""167249""
""blur"",""42"",""235620""
","""event"",""trial"",""time""
""focus"",""0"",""3209""
""focus"",""3"",""52316""
""focus"",""5"",""61844""
""focus"",""31"",""138571""
""focus"",""39"",""194054""
""focus"",""43"",""253929""
","""event"",""trial"",""time""
""fullscreenenter"",""0"",""3716""
","""event"",""trial"",""time""
""fullscreenexit"",""2"",""4784""
","null","<p></p>","null","","","","","","","","","","","","","","","","","","","","","","",""
"","do_trial","51","313401","0.0-37.0-1.0","""event"",""trial"",""time""
""focus"",""0"",""3209""
""fullscreenenter"",""0"",""3716""
""fullscreenexit"",""2"",""4784""
""blur"",""2"",""18094""
""focus"",""3"",""52316""
""blur"",""4"",""54383""
""focus"",""5"",""61844""
""blur"",""30"",""134938""
""focus"",""31"",""138571""
""blur"",""38"",""167249""
""focus"",""39"",""194054""
""blur"",""42"",""235620""
""focus"",""43"",""253929""
","""event"",""trial"",""time""
""blur"",""2"",""18094""
""blur"",""4"",""54383""
""blur"",""30"",""134938""
""blur"",""38"",""167249""
""blur"",""42"",""235620""
","""event"",""trial"",""time""
""focus"",""0"",""3209""
""focus"",""3"",""52316""
""focus"",""5"",""61844""
""focus"",""31"",""138571""
""focus"",""39"",""194054""
""focus"",""43"",""253929""
","""event"",""trial"",""time""
""fullscreenenter"",""0"",""3716""
","""event"",""trial"",""time""
""fullscreenexit"",""2"",""4784""
","389.40000000596046","","","","","","","","49","1,1,0","","","","","","","","","","","","","","","",""
"","html-keyboard-response","52","314405","0.0-38.0-0.0","""event"",""trial"",""time""
""focus"",""0"",""3209""
""fullscreenenter"",""0"",""3716""
""fullscreenexit"",""2"",""4784""
""blur"",""2"",""18094""
""focus"",""3"",""52316""
""blur"",""4"",""54383""
""focus"",""5"",""61844""
""blur"",""30"",""134938""
""focus"",""31"",""138571""
""blur"",""38"",""167249""
""focus"",""39"",""194054""
""blur"",""42"",""235620""
""focus"",""43"",""253929""
","""event"",""trial"",""time""
""blur"",""2"",""18094""
""blur"",""4"",""54383""
""blur"",""30"",""134938""
""blur"",""38"",""167249""
""blur"",""42"",""235620""
","""event"",""trial"",""time""
""focus"",""0"",""3209""
""focus"",""3"",""52316""
""focus"",""5"",""61844""
""focus"",""31"",""138571""
""focus"",""39"",""194054""
""focus"",""43"",""253929""
","""event"",""trial"",""time""
""fullscreenenter"",""0"",""3716""
","""event"",""trial"",""time""
""fullscreenexit"",""2"",""4784""
","null","<p></p>","null","","","","","","","","","","","","","","","","","","","","","","",""
"","do_trial","53","319677","0.0-38.0-1.0","""event"",""trial"",""time""
""focus"",""0"",""3209""
""fullscreenenter"",""0"",""3716""
""fullscreenexit"",""2"",""4784""
""blur"",""2"",""18094""
""focus"",""3"",""52316""
""blur"",""4"",""54383""
""focus"",""5"",""61844""
""blur"",""30"",""134938""
""focus"",""31"",""138571""
""blur"",""38"",""167249""
""focus"",""39"",""194054""
""blur"",""42"",""235620""
""focus"",""43"",""253929""
","""event"",""trial"",""time""
""blur"",""2"",""18094""
""blur"",""4"",""54383""
""blur"",""30"",""134938""
""blur"",""38"",""167249""
""blur"",""42"",""235620""
","""event"",""trial"",""time""
""focus"",""0"",""3209""
""focus"",""3"",""52316""
""focus"",""5"",""61844""
""focus"",""31"",""138571""
""focus"",""39"",""194054""
""focus"",""43"",""253929""
","""event"",""trial"",""time""
""fullscreenenter"",""0"",""3716""
","""event"",""trial"",""time""
""fullscreenexit"",""2"",""4784""
","762.5999999940395","","","","","","","","49","1,0,1","","","","","","","","","","","","","","","",""
"","html-keyboard-response","54","320684","0.0-39.0-0.0","""event"",""trial"",""time""
""focus"",""0"",""3209""
""fullscreenenter"",""0"",""3716""
""fullscreenexit"",""2"",""4784""
""blur"",""2"",""18094""
""focus"",""3"",""52316""
""blur"",""4"",""54383""
""focus"",""5"",""61844""
""blur"",""30"",""134938""
""focus"",""31"",""138571""
""blur"",""38"",""167249""
""focus"",""39"",""194054""
""blur"",""42"",""235620""
""focus"",""43"",""253929""
","""event"",""trial"",""time""
""blur"",""2"",""18094""
""blur"",""4"",""54383""
""blur"",""30"",""134938""
""blur"",""38"",""167249""
""blur"",""42"",""235620""
","""event"",""trial"",""time""
""focus"",""0"",""3209""
""focus"",""3"",""52316""
""focus"",""5"",""61844""
""focus"",""31"",""138571""
""focus"",""39"",""194054""
""focus"",""43"",""253929""
","""event"",""trial"",""time""
""fullscreenenter"",""0"",""3716""
","""event"",""trial"",""time""
""fullscreenexit"",""2"",""4784""
","null","<p></p>","null","","","","","","","","","","","","","","","","","","","","","","",""
"","do_trial","55","325557","0.0-39.0-1.0","""event"",""trial"",""time""
""focus"",""0"",""3209""
""fullscreenenter"",""0"",""3716""
""fullscreenexit"",""2"",""4784""
""blur"",""2"",""18094""
""focus"",""3"",""52316""
""blur"",""4"",""54383""
""focus"",""5"",""61844""
""blur"",""30"",""134938""
""focus"",""31"",""138571""
""blur"",""38"",""167249""
""focus"",""39"",""194054""
""blur"",""42"",""235620""
""focus"",""43"",""253929""
","""event"",""trial"",""time""
""blur"",""2"",""18094""
""blur"",""4"",""54383""
""blur"",""30"",""134938""
""blur"",""38"",""167249""
""blur"",""42"",""235620""
","""event"",""trial"",""time""
""focus"",""0"",""3209""
""focus"",""3"",""52316""
""focus"",""5"",""61844""
""focus"",""31"",""138571""
""focus"",""39"",""194054""
""focus"",""43"",""253929""
","""event"",""trial"",""time""
""fullscreenenter"",""0"",""3716""
","""event"",""trial"",""time""
""fullscreenexit"",""2"",""4784""
","363.80000001192093","","","","","","","","50","0,1,0","","","","","","","","","","","","","","","",""
"","html-keyboard-response","56","326561","0.0-40.0-0.0","""event"",""trial"",""time""
""focus"",""0"",""3209""
""fullscreenenter"",""0"",""3716""
""fullscreenexit"",""2"",""4784""
""blur"",""2"",""18094""
""focus"",""3"",""52316""
""blur"",""4"",""54383""
""focus"",""5"",""61844""
""blur"",""30"",""134938""
""focus"",""31"",""138571""
""blur"",""38"",""167249""
""focus"",""39"",""194054""
""blur"",""42"",""235620""
""focus"",""43"",""253929""
","""event"",""trial"",""time""
""blur"",""2"",""18094""
""blur"",""4"",""54383""
""blur"",""30"",""134938""
""blur"",""38"",""167249""
""blur"",""42"",""235620""
","""event"",""trial"",""time""
""focus"",""0"",""3209""
""focus"",""3"",""52316""
""focus"",""5"",""61844""
""focus"",""31"",""138571""
""focus"",""39"",""194054""
""focus"",""43"",""253929""
","""event"",""trial"",""time""
""fullscreenenter"",""0"",""3716""
","""event"",""trial"",""time""
""fullscreenexit"",""2"",""4784""
","null","<p></p>","null","","","","","","","","","","","","","","","","","","","","","","",""
"","do_trial","57","333657","0.0-40.0-1.0","""event"",""trial"",""time""
""focus"",""0"",""3209""
""fullscreenenter"",""0"",""3716""
""fullscreenexit"",""2"",""4784""
""blur"",""2"",""18094""
""focus"",""3"",""52316""
""blur"",""4"",""54383""
""focus"",""5"",""61844""
""blur"",""30"",""134938""
""focus"",""31"",""138571""
""blur"",""38"",""167249""
""focus"",""39"",""194054""
""blur"",""42"",""235620""
""focus"",""43"",""253929""
","""event"",""trial"",""time""
""blur"",""2"",""18094""
""blur"",""4"",""54383""
""blur"",""30"",""134938""
""blur"",""38"",""167249""
""blur"",""42"",""235620""
","""event"",""trial"",""time""
""focus"",""0"",""3209""
""focus"",""3"",""52316""
""focus"",""5"",""61844""
""focus"",""31"",""138571""
""focus"",""39"",""194054""
""focus"",""43"",""253929""
","""event"",""trial"",""time""
""fullscreenenter"",""0"",""3716""
","""event"",""trial"",""time""
""fullscreenexit"",""2"",""4784""
","2587.7999999821186","","","","","","","","50","1,0,0","","","","","","","","","","","","","","","",""
"","do_bye","58","335164","0.0-41.0-0.0","""event"",""trial"",""time""
""focus"",""0"",""3209""
""fullscreenenter"",""0"",""3716""
""fullscreenexit"",""2"",""4784""
""blur"",""2"",""18094""
""focus"",""3"",""52316""
""blur"",""4"",""54383""
""focus"",""5"",""61844""
""blur"",""30"",""134938""
""focus"",""31"",""138571""
""blur"",""38"",""167249""
""focus"",""39"",""194054""
""blur"",""42"",""235620""
""focus"",""43"",""253929""
","""event"",""trial"",""time""
""blur"",""2"",""18094""
""blur"",""4"",""54383""
""blur"",""30"",""134938""
""blur"",""38"",""167249""
""blur"",""42"",""235620""
","""event"",""trial"",""time""
""focus"",""0"",""3209""
""focus"",""3"",""52316""
""focus"",""5"",""61844""
""focus"",""31"",""138571""
""focus"",""39"",""194054""
""focus"",""43"",""253929""
","""event"",""trial"",""time""
""fullscreenenter"",""0"",""3716""
","""event"",""trial"",""time""
""fullscreenexit"",""2"",""4784""
","null","","","","","","","","null","","","","","","","","","","","","","","","","",""
"","do_travel","59","344173","0.0-41.0-1.0","""event"",""trial"",""time""
""focus"",""0"",""3209""
""fullscreenenter"",""0"",""3716""
""fullscreenexit"",""2"",""4784""
""blur"",""2"",""18094""
""focus"",""3"",""52316""
""blur"",""4"",""54383""
""focus"",""5"",""61844""
""blur"",""30"",""134938""
""focus"",""31"",""138571""
""blur"",""38"",""167249""
""focus"",""39"",""194054""
""blur"",""42"",""235620""
""focus"",""43"",""253929""
","""event"",""trial"",""time""
""blur"",""2"",""18094""
""blur"",""4"",""54383""
""blur"",""30"",""134938""
""blur"",""38"",""167249""
""blur"",""42"",""235620""
","""event"",""trial"",""time""
""focus"",""0"",""3209""
""focus"",""3"",""52316""
""focus"",""5"",""61844""
""focus"",""31"",""138571""
""focus"",""39"",""194054""
""focus"",""43"",""253929""
","""event"",""trial"",""time""
""fullscreenenter"",""0"",""3716""
","""event"",""trial"",""time""
""fullscreenexit"",""2"",""4784""
","null","","","","","","","","null","","","","","","","","","","","","","","","","",""
"","do_welcome","60","348181","0.0-41.0-2.0","""event"",""trial"",""time""
""focus"",""0"",""3209""
""fullscreenenter"",""0"",""3716""
""fullscreenexit"",""2"",""4784""
""blur"",""2"",""18094""
""focus"",""3"",""52316""
""blur"",""4"",""54383""
""focus"",""5"",""61844""
""blur"",""30"",""134938""
""focus"",""31"",""138571""
""blur"",""38"",""167249""
""focus"",""39"",""194054""
""blur"",""42"",""235620""
""focus"",""43"",""253929""
","""event"",""trial"",""time""
""blur"",""2"",""18094""
""blur"",""4"",""54383""
""blur"",""30"",""134938""
""blur"",""38"",""167249""
""blur"",""42"",""235620""
","""event"",""trial"",""time""
""focus"",""0"",""3209""
""focus"",""3"",""52316""
""focus"",""5"",""61844""
""focus"",""31"",""138571""
""focus"",""39"",""194054""
""focus"",""43"",""253929""
","""event"",""trial"",""time""
""fullscreenenter"",""0"",""3716""
","""event"",""trial"",""time""
""fullscreenexit"",""2"",""4784""
","null","","","","","","","","null","","","","","","","","","","","","","","","","",""
"","do_trial","61","352743","0.0-41.0-3.0","""event"",""trial"",""time""
""focus"",""0"",""3209""
""fullscreenenter"",""0"",""3716""
""fullscreenexit"",""2"",""4784""
""blur"",""2"",""18094""
""focus"",""3"",""52316""
""blur"",""4"",""54383""
""focus"",""5"",""61844""
""blur"",""30"",""134938""
""focus"",""31"",""138571""
""blur"",""38"",""167249""
""focus"",""39"",""194054""
""blur"",""42"",""235620""
""focus"",""43"",""253929""
","""event"",""trial"",""time""
""blur"",""2"",""18094""
""blur"",""4"",""54383""
""blur"",""30"",""134938""
""blur"",""38"",""167249""
""blur"",""42"",""235620""
","""event"",""trial"",""time""
""focus"",""0"",""3209""
""focus"",""3"",""52316""
""focus"",""5"",""61844""
""focus"",""31"",""138571""
""focus"",""39"",""194054""
""focus"",""43"",""253929""
","""event"",""trial"",""time""
""fullscreenenter"",""0"",""3716""
","""event"",""trial"",""time""
""fullscreenexit"",""2"",""4784""
","51.099999994039536","","","","","","","","51","1,0,0","","","","","","","","","","","","","","","",""
"","html-keyboard-response","62","353747","0.0-42.0-0.0","""event"",""trial"",""time""
""focus"",""0"",""3209""
""fullscreenenter"",""0"",""3716""
""fullscreenexit"",""2"",""4784""
""blur"",""2"",""18094""
""focus"",""3"",""52316""
""blur"",""4"",""54383""
""focus"",""5"",""61844""
""blur"",""30"",""134938""
""focus"",""31"",""138571""
""blur"",""38"",""167249""
""focus"",""39"",""194054""
""blur"",""42"",""235620""
""focus"",""43"",""253929""
","""event"",""trial"",""time""
""blur"",""2"",""18094""
""blur"",""4"",""54383""
""blur"",""30"",""134938""
""blur"",""38"",""167249""
""blur"",""42"",""235620""
","""event"",""trial"",""time""
""focus"",""0"",""3209""
""focus"",""3"",""52316""
""focus"",""5"",""61844""
""focus"",""31"",""138571""
""focus"",""39"",""194054""
""focus"",""43"",""253929""
","""event"",""trial"",""time""
""fullscreenenter"",""0"",""3716""
","""event"",""trial"",""time""
""fullscreenexit"",""2"",""4784""
","null","<p></p>","null","","","","","","","","","","","","","","","","","","","","","","",""
"","do_trial","63","358351","0.0-42.0-1.0","""event"",""trial"",""time""
""focus"",""0"",""3209""
""fullscreenenter"",""0"",""3716""
""fullscreenexit"",""2"",""4784""
""blur"",""2"",""18094""
""focus"",""3"",""52316""
""blur"",""4"",""54383""
""focus"",""5"",""61844""
""blur"",""30"",""134938""
""focus"",""31"",""138571""
""blur"",""38"",""167249""
""focus"",""39"",""194054""
""blur"",""42"",""235620""
""focus"",""43"",""253929""
","""event"",""trial"",""time""
""blur"",""2"",""18094""
""blur"",""4"",""54383""
""blur"",""30"",""134938""
""blur"",""38"",""167249""
""blur"",""42"",""235620""
","""event"",""trial"",""time""
""focus"",""0"",""3209""
""focus"",""3"",""52316""
""focus"",""5"",""61844""
""focus"",""31"",""138571""
""focus"",""39"",""194054""
""focus"",""43"",""253929""
","""event"",""trial"",""time""
""fullscreenenter"",""0"",""3716""
","""event"",""trial"",""time""
""fullscreenexit"",""2"",""4784""
","92.90000000596046","","","","","","","","50","1,0,1","","","","","","","","","","","","","","","",""
"","html-keyboard-response","64","359352","0.0-43.0-0.0","""event"",""trial"",""time""
""focus"",""0"",""3209""
""fullscreenenter"",""0"",""3716""
""fullscreenexit"",""2"",""4784""
""blur"",""2"",""18094""
""focus"",""3"",""52316""
""blur"",""4"",""54383""
""focus"",""5"",""61844""
""blur"",""30"",""134938""
""focus"",""31"",""138571""
""blur"",""38"",""167249""
""focus"",""39"",""194054""
""blur"",""42"",""235620""
""focus"",""43"",""253929""
","""event"",""trial"",""time""
""blur"",""2"",""18094""
""blur"",""4"",""54383""
""blur"",""30"",""134938""
""blur"",""38"",""167249""
""blur"",""42"",""235620""
","""event"",""trial"",""time""
""focus"",""0"",""3209""
""focus"",""3"",""52316""
""focus"",""5"",""61844""
""focus"",""31"",""138571""
""focus"",""39"",""194054""
""focus"",""43"",""253929""
","""event"",""trial"",""time""
""fullscreenenter"",""0"",""3716""
","""event"",""trial"",""time""
""fullscreenexit"",""2"",""4784""
","null","<p></p>","null","","","","","","","","","","","","","","","","","","","","","","",""
"","do_trial","65","363973","0.0-43.0-1.0","""event"",""trial"",""time""
""focus"",""0"",""3209""
""fullscreenenter"",""0"",""3716""
""fullscreenexit"",""2"",""4784""
""blur"",""2"",""18094""
""focus"",""3"",""52316""
""blur"",""4"",""54383""
""focus"",""5"",""61844""
""blur"",""30"",""134938""
""focus"",""31"",""138571""
""blur"",""38"",""167249""
""focus"",""39"",""194054""
""blur"",""42"",""235620""
""focus"",""43"",""253929""
","""event"",""trial"",""time""
""blur"",""2"",""18094""
""blur"",""4"",""54383""
""blur"",""30"",""134938""
""blur"",""38"",""167249""
""blur"",""42"",""235620""
","""event"",""trial"",""time""
""focus"",""0"",""3209""
""focus"",""3"",""52316""
""focus"",""5"",""61844""
""focus"",""31"",""138571""
""focus"",""39"",""194054""
""focus"",""43"",""253929""
","""event"",""trial"",""time""
""fullscreenenter"",""0"",""3716""
","""event"",""trial"",""time""
""fullscreenexit"",""2"",""4784""
","112.10000002384186","","","","","","","","51","1,1,0","","","","","","","","","","","","","","","",""
"","html-keyboard-response","66","364977","0.0-44.0-0.0","""event"",""trial"",""time""
""focus"",""0"",""3209""
""fullscreenenter"",""0"",""3716""
""fullscreenexit"",""2"",""4784""
""blur"",""2"",""18094""
""focus"",""3"",""52316""
""blur"",""4"",""54383""
""focus"",""5"",""61844""
""blur"",""30"",""134938""
""focus"",""31"",""138571""
""blur"",""38"",""167249""
""focus"",""39"",""194054""
""blur"",""42"",""235620""
""focus"",""43"",""253929""
","""event"",""trial"",""time""
""blur"",""2"",""18094""
""blur"",""4"",""54383""
""blur"",""30"",""134938""
""blur"",""38"",""167249""
""blur"",""42"",""235620""
","""event"",""trial"",""time""
""focus"",""0"",""3209""
""focus"",""3"",""52316""
""focus"",""5"",""61844""
""focus"",""31"",""138571""
""focus"",""39"",""194054""
""focus"",""43"",""253929""
","""event"",""trial"",""time""
""fullscreenenter"",""0"",""3716""
","""event"",""trial"",""time""
""fullscreenexit"",""2"",""4784""
","null","<p></p>","null","","","","","","","","","","","","","","","","","","","","","","",""
"","do_trial","67","370004","0.0-44.0-1.0","""event"",""trial"",""time""
""focus"",""0"",""3209""
""fullscreenenter"",""0"",""3716""
""fullscreenexit"",""2"",""4784""
""blur"",""2"",""18094""
""focus"",""3"",""52316""
""blur"",""4"",""54383""
""focus"",""5"",""61844""
""blur"",""30"",""134938""
""focus"",""31"",""138571""
""blur"",""38"",""167249""
""focus"",""39"",""194054""
""blur"",""42"",""235620""
""focus"",""43"",""253929""
","""event"",""trial"",""time""
""blur"",""2"",""18094""
""blur"",""4"",""54383""
""blur"",""30"",""134938""
""blur"",""38"",""167249""
""blur"",""42"",""235620""
","""event"",""trial"",""time""
""focus"",""0"",""3209""
""focus"",""3"",""52316""
""focus"",""5"",""61844""
""focus"",""31"",""138571""
""focus"",""39"",""194054""
""focus"",""43"",""253929""
","""event"",""trial"",""time""
""fullscreenenter"",""0"",""3716""
","""event"",""trial"",""time""
""fullscreenexit"",""2"",""4784""
","518.5999999940395","","","","","","","","49","0,0,1","","","","","","","","","","","","","","","",""
"","html-keyboard-response","68","371006","0.0-45.0-0.0","""event"",""trial"",""time""
""focus"",""0"",""3209""
""fullscreenenter"",""0"",""3716""
""fullscreenexit"",""2"",""4784""
""blur"",""2"",""18094""
""focus"",""3"",""52316""
""blur"",""4"",""54383""
""focus"",""5"",""61844""
""blur"",""30"",""134938""
""focus"",""31"",""138571""
""blur"",""38"",""167249""
""focus"",""39"",""194054""
""blur"",""42"",""235620""
""focus"",""43"",""253929""
","""event"",""trial"",""time""
""blur"",""2"",""18094""
""blur"",""4"",""54383""
""blur"",""30"",""134938""
""blur"",""38"",""167249""
""blur"",""42"",""235620""
","""event"",""trial"",""time""
""focus"",""0"",""3209""
""focus"",""3"",""52316""
""focus"",""5"",""61844""
""focus"",""31"",""138571""
""focus"",""39"",""194054""
""focus"",""43"",""253929""
","""event"",""trial"",""time""
""fullscreenenter"",""0"",""3716""
","""event"",""trial"",""time""
""fullscreenexit"",""2"",""4784""
","null","<p></p>","null","","","","","","","","","","","","","","","","","","","","","","",""
"","do_trial","69","376613","0.0-45.0-1.0","""event"",""trial"",""time""
""focus"",""0"",""3209""
""fullscreenenter"",""0"",""3716""
""fullscreenexit"",""2"",""4784""
""blur"",""2"",""18094""
""focus"",""3"",""52316""
""blur"",""4"",""54383""
""focus"",""5"",""61844""
""blur"",""30"",""134938""
""focus"",""31"",""138571""
""blur"",""38"",""167249""
""focus"",""39"",""194054""
""blur"",""42"",""235620""
""focus"",""43"",""253929""
","""event"",""trial"",""time""
""blur"",""2"",""18094""
""blur"",""4"",""54383""
""blur"",""30"",""134938""
""blur"",""38"",""167249""
""blur"",""42"",""235620""
","""event"",""trial"",""time""
""focus"",""0"",""3209""
""focus"",""3"",""52316""
""focus"",""5"",""61844""
""focus"",""31"",""138571""
""focus"",""39"",""194054""
""focus"",""43"",""253929""
","""event"",""trial"",""time""
""fullscreenenter"",""0"",""3716""
","""event"",""trial"",""time""
""fullscreenexit"",""2"",""4784""
","1098.7999999821186","","","","","","","","49","1,0,1","","","","","","","","","","","","","","","",""
"","html-keyboard-response","70","376769","0.0-46.0-0.0","""event"",""trial"",""time""
""focus"",""0"",""3209""
""fullscreenenter"",""0"",""3716""
""fullscreenexit"",""2"",""4784""
""blur"",""2"",""18094""
""focus"",""3"",""52316""
""blur"",""4"",""54383""
""focus"",""5"",""61844""
""blur"",""30"",""134938""
""focus"",""31"",""138571""
""blur"",""38"",""167249""
""focus"",""39"",""194054""
""blur"",""42"",""235620""
""focus"",""43"",""253929""
","""event"",""trial"",""time""
""blur"",""2"",""18094""
""blur"",""4"",""54383""
""blur"",""30"",""134938""
""blur"",""38"",""167249""
""blur"",""42"",""235620""
","""event"",""trial"",""time""
""focus"",""0"",""3209""
""focus"",""3"",""52316""
""focus"",""5"",""61844""
""focus"",""31"",""138571""
""focus"",""39"",""194054""
""focus"",""43"",""253929""
","""event"",""trial"",""time""
""fullscreenenter"",""0"",""3716""
","""event"",""trial"",""time""
""fullscreenexit"",""2"",""4784""
","154.40000000596046","<div class='center'><p><img src='run_exp/static/images/tutorial/prac_best_pirate.png'  height='500'></p></div>","51","","","","","","","","","","","","","","","","","","","","","","",""
"","html-keyboard-response","71","378105","0.0-47.0-0.0","""event"",""trial"",""time""
""focus"",""0"",""3209""
""fullscreenenter"",""0"",""3716""
""fullscreenexit"",""2"",""4784""
""blur"",""2"",""18094""
""focus"",""3"",""52316""
""blur"",""4"",""54383""
""focus"",""5"",""61844""
""blur"",""30"",""134938""
""focus"",""31"",""138571""
""blur"",""38"",""167249""
""focus"",""39"",""194054""
""blur"",""42"",""235620""
""focus"",""43"",""253929""
","""event"",""trial"",""time""
""blur"",""2"",""18094""
""blur"",""4"",""54383""
""blur"",""30"",""134938""
""blur"",""38"",""167249""
""blur"",""42"",""235620""
","""event"",""trial"",""time""
""focus"",""0"",""3209""
""focus"",""3"",""52316""
""focus"",""5"",""61844""
""focus"",""31"",""138571""
""focus"",""39"",""194054""
""focus"",""43"",""253929""
","""event"",""trial"",""time""
""fullscreenenter"",""0"",""3716""
","""event"",""trial"",""time""
""fullscreenexit"",""2"",""4784""
","1335.4000000059605","<div class='center'><p>That's incorrect! Red beard was the best.</p><p><b>[Press the space bar to continue]</b></p></div>","32","","","","","","","","","","","","","","","","","","","","","","",""
"","html-keyboard-response","72","381214","0.0-47.0-1.0","""event"",""trial"",""time""
""focus"",""0"",""3209""
""fullscreenenter"",""0"",""3716""
""fullscreenexit"",""2"",""4784""
""blur"",""2"",""18094""
""focus"",""3"",""52316""
""blur"",""4"",""54383""
""focus"",""5"",""61844""
""blur"",""30"",""134938""
""focus"",""31"",""138571""
""blur"",""38"",""167249""
""focus"",""39"",""194054""
""blur"",""42"",""235620""
""focus"",""43"",""253929""
","""event"",""trial"",""time""
""blur"",""2"",""18094""
""blur"",""4"",""54383""
""blur"",""30"",""134938""
""blur"",""38"",""167249""
""blur"",""42"",""235620""
","""event"",""trial"",""time""
""focus"",""0"",""3209""
""focus"",""3"",""52316""
""focus"",""5"",""61844""
""focus"",""31"",""138571""
""focus"",""39"",""194054""
""focus"",""43"",""253929""
","""event"",""trial"",""time""
""fullscreenenter"",""0"",""3716""
","""event"",""trial"",""time""
""fullscreenexit"",""2"",""4784""
","3108.199999988079","<div class='center'><p><img src='run_exp/static/images/tutorial/prac_source.png'  height='500'></p></div>","50","","","","","","","","","","","","","","","","","","","","","","",""
"","html-keyboard-response","73","383554","0.0-48.0-0.0","""event"",""trial"",""time""
""focus"",""0"",""3209""
""fullscreenenter"",""0"",""3716""
""fullscreenexit"",""2"",""4784""
""blur"",""2"",""18094""
""focus"",""3"",""52316""
""blur"",""4"",""54383""
""focus"",""5"",""61844""
""blur"",""30"",""134938""
""focus"",""31"",""138571""
""blur"",""38"",""167249""
""focus"",""39"",""194054""
""blur"",""42"",""235620""
""focus"",""43"",""253929""
","""event"",""trial"",""time""
""blur"",""2"",""18094""
""blur"",""4"",""54383""
""blur"",""30"",""134938""
""blur"",""38"",""167249""
""blur"",""42"",""235620""
","""event"",""trial"",""time""
""focus"",""0"",""3209""
""focus"",""3"",""52316""
""focus"",""5"",""61844""
""focus"",""31"",""138571""
""focus"",""39"",""194054""
""focus"",""43"",""253929""
","""event"",""trial"",""time""
""fullscreenenter"",""0"",""3716""
","""event"",""trial"",""time""
""fullscreenexit"",""2"",""4784""
","2338.699999988079","<div class='center'><p>That's correct! You saw this ship on the cavern island.</p><p><b>[Press the space bar to continue]</b></p></div>","32","","","","","","","","","","","","","","","","","","","","","","",""
"","quiz_beginning","74","394751","0.0-48.0-1.0","""event"",""trial"",""time""
""focus"",""0"",""3209""
""fullscreenenter"",""0"",""3716""
""fullscreenexit"",""2"",""4784""
""blur"",""2"",""18094""
""focus"",""3"",""52316""
""blur"",""4"",""54383""
""focus"",""5"",""61844""
""blur"",""30"",""134938""
""focus"",""31"",""138571""
""blur"",""38"",""167249""
""focus"",""39"",""194054""
""blur"",""42"",""235620""
""focus"",""43"",""253929""
","""event"",""trial"",""time""
""blur"",""2"",""18094""
""blur"",""4"",""54383""
""blur"",""30"",""134938""
""blur"",""38"",""167249""
""blur"",""42"",""235620""
","""event"",""trial"",""time""
""focus"",""0"",""3209""
""focus"",""3"",""52316""
""focus"",""5"",""61844""
""focus"",""31"",""138571""
""focus"",""39"",""194054""
""focus"",""43"",""253929""
","""event"",""trial"",""time""
""fullscreenenter"",""0"",""3716""
","""event"",""trial"",""time""
""fullscreenexit"",""2"",""4784""
","null","run_exp/static/audio/clip_16_quiz_intro.m4a","null","","","","","<div class='center'><p>Good job on the practice game! Now, you will be asked some true or false questions to make sure you really understand the rules of the game.</p><p> Press <b>'1'</b> on the keyboard for true and press <b>'2'</b> for false.</p></div>","","","","","","","","","","","","","","","","","",""
"","audio-keyboard-response","75","394797","0.0-48.0-2.0","""event"",""trial"",""time""
""focus"",""0"",""3209""
""fullscreenenter"",""0"",""3716""
""fullscreenexit"",""2"",""4784""
""blur"",""2"",""18094""
""focus"",""3"",""52316""
""blur"",""4"",""54383""
""focus"",""5"",""61844""
""blur"",""30"",""134938""
""focus"",""31"",""138571""
""blur"",""38"",""167249""
""focus"",""39"",""194054""
""blur"",""42"",""235620""
""focus"",""43"",""253929""
","""event"",""trial"",""time""
""blur"",""2"",""18094""
""blur"",""4"",""54383""
""blur"",""30"",""134938""
""blur"",""38"",""167249""
""blur"",""42"",""235620""
","""event"",""trial"",""time""
""focus"",""0"",""3209""
""focus"",""3"",""52316""
""focus"",""5"",""61844""
""focus"",""31"",""138571""
""focus"",""39"",""194054""
""focus"",""43"",""253929""
","""event"",""trial"",""time""
""fullscreenenter"",""0"",""3716""
","""event"",""trial"",""time""
""fullscreenexit"",""2"",""4784""
","44.70000001788139","run_exp/static/audio/clip_17_q1.m4a","49","","","","","","","","","","","","","","","","","","","","","","",""
"","correct","76","397213","0.0-49.0-0.0","""event"",""trial"",""time""
""focus"",""0"",""3209""
""fullscreenenter"",""0"",""3716""
""fullscreenexit"",""2"",""4784""
""blur"",""2"",""18094""
""focus"",""3"",""52316""
""blur"",""4"",""54383""
""focus"",""5"",""61844""
""blur"",""30"",""134938""
""focus"",""31"",""138571""
""blur"",""38"",""167249""
""focus"",""39"",""194054""
""blur"",""42"",""235620""
""focus"",""43"",""253929""
","""event"",""trial"",""time""
""blur"",""2"",""18094""
""blur"",""4"",""54383""
""blur"",""30"",""134938""
""blur"",""38"",""167249""
""blur"",""42"",""235620""
","""event"",""trial"",""time""
""focus"",""0"",""3209""
""focus"",""3"",""52316""
""focus"",""5"",""61844""
""focus"",""31"",""138571""
""focus"",""39"",""194054""
""focus"",""43"",""253929""
","""event"",""trial"",""time""
""fullscreenenter"",""0"",""3716""
","""event"",""trial"",""time""
""fullscreenexit"",""2"",""4784""
","null","run_exp/static/audio/clip_18_correct.m4a","null","","","","","<div class='center'><p>That's correct!</p></div>","","","","","","","","","","","","","","","","","",""
"","html-keyboard-response","77","398368","0.0-49.0-1.0","""event"",""trial"",""time""
""focus"",""0"",""3209""
""fullscreenenter"",""0"",""3716""
""fullscreenexit"",""2"",""4784""
""blur"",""2"",""18094""
""focus"",""3"",""52316""
""blur"",""4"",""54383""
""focus"",""5"",""61844""
""blur"",""30"",""134938""
""focus"",""31"",""138571""
""blur"",""38"",""167249""
""focus"",""39"",""194054""
""blur"",""42"",""235620""
""focus"",""43"",""253929""
","""event"",""trial"",""time""
""blur"",""2"",""18094""
""blur"",""4"",""54383""
""blur"",""30"",""134938""
""blur"",""38"",""167249""
""blur"",""42"",""235620""
","""event"",""trial"",""time""
""focus"",""0"",""3209""
""focus"",""3"",""52316""
""focus"",""5"",""61844""
""focus"",""31"",""138571""
""focus"",""39"",""194054""
""focus"",""43"",""253929""
","""event"",""trial"",""time""
""fullscreenenter"",""0"",""3716""
","""event"",""trial"",""time""
""fullscreenexit"",""2"",""4784""
","1154.5","<div class='center'><p>That's correct!</p><p><b>[Press the space bar to continue]</b></p></div>","32","","","","","","","","","","","","","","","","","","","","","","",""
"","audio-keyboard-response","78","399509","0.0-49.0-2.0","""event"",""trial"",""time""
""focus"",""0"",""3209""
""fullscreenenter"",""0"",""3716""
""fullscreenexit"",""2"",""4784""
""blur"",""2"",""18094""
""focus"",""3"",""52316""
""blur"",""4"",""54383""
""focus"",""5"",""61844""
""blur"",""30"",""134938""
""focus"",""31"",""138571""
""blur"",""38"",""167249""
""focus"",""39"",""194054""
""blur"",""42"",""235620""
""focus"",""43"",""253929""
","""event"",""trial"",""time""
""blur"",""2"",""18094""
""blur"",""4"",""54383""
""blur"",""30"",""134938""
""blur"",""38"",""167249""
""blur"",""42"",""235620""
","""event"",""trial"",""time""
""focus"",""0"",""3209""
""focus"",""3"",""52316""
""focus"",""5"",""61844""
""focus"",""31"",""138571""
""focus"",""39"",""194054""
""focus"",""43"",""253929""
","""event"",""trial"",""time""
""fullscreenenter"",""0"",""3716""
","""event"",""trial"",""time""
""fullscreenexit"",""2"",""4784""
","1140.4000000059605","run_exp/static/audio/clip_20_q2.m4a","50","","","","","","","","","","","","","","","","","","","","","","",""
"","correct","79","401903","0.0-50.0-0.0","""event"",""trial"",""time""
""focus"",""0"",""3209""
""fullscreenenter"",""0"",""3716""
""fullscreenexit"",""2"",""4784""
""blur"",""2"",""18094""
""focus"",""3"",""52316""
""blur"",""4"",""54383""
""focus"",""5"",""61844""
""blur"",""30"",""134938""
""focus"",""31"",""138571""
""blur"",""38"",""167249""
""focus"",""39"",""194054""
""blur"",""42"",""235620""
""focus"",""43"",""253929""
","""event"",""trial"",""time""
""blur"",""2"",""18094""
""blur"",""4"",""54383""
""blur"",""30"",""134938""
""blur"",""38"",""167249""
""blur"",""42"",""235620""
","""event"",""trial"",""time""
""focus"",""0"",""3209""
""focus"",""3"",""52316""
""focus"",""5"",""61844""
""focus"",""31"",""138571""
""focus"",""39"",""194054""
""focus"",""43"",""253929""
","""event"",""trial"",""time""
""fullscreenenter"",""0"",""3716""
","""event"",""trial"",""time""
""fullscreenexit"",""2"",""4784""
","null","run_exp/static/audio/clip_18_correct.m4a","null","","","","","<div class='center'><p>That's correct!</p></div>","","","","","","","","","","","","","","","","","",""
"","html-keyboard-response","80","402971","0.0-50.0-1.0","""event"",""trial"",""time""
""focus"",""0"",""3209""
""fullscreenenter"",""0"",""3716""
""fullscreenexit"",""2"",""4784""
""blur"",""2"",""18094""
""focus"",""3"",""52316""
""blur"",""4"",""54383""
""focus"",""5"",""61844""
""blur"",""30"",""134938""
""focus"",""31"",""138571""
""blur"",""38"",""167249""
""focus"",""39"",""194054""
""blur"",""42"",""235620""
""focus"",""43"",""253929""
","""event"",""trial"",""time""
""blur"",""2"",""18094""
""blur"",""4"",""54383""
""blur"",""30"",""134938""
""blur"",""38"",""167249""
""blur"",""42"",""235620""
","""event"",""trial"",""time""
""focus"",""0"",""3209""
""focus"",""3"",""52316""
""focus"",""5"",""61844""
""focus"",""31"",""138571""
""focus"",""39"",""194054""
""focus"",""43"",""253929""
","""event"",""trial"",""time""
""fullscreenenter"",""0"",""3716""
","""event"",""trial"",""time""
""fullscreenexit"",""2"",""4784""
","1066.8999999761581","<div class='center'><p>That's correct!</p><p><b>[Press the space bar to continue]</b></p></div>","32","","","","","","","","","","","","","","","","","","","","","","",""
"","audio-keyboard-response","81","403935","0.0-50.0-2.0","""event"",""trial"",""time""
""focus"",""0"",""3209""
""fullscreenenter"",""0"",""3716""
""fullscreenexit"",""2"",""4784""
""blur"",""2"",""18094""
""focus"",""3"",""52316""
""blur"",""4"",""54383""
""focus"",""5"",""61844""
""blur"",""30"",""134938""
""focus"",""31"",""138571""
""blur"",""38"",""167249""
""focus"",""39"",""194054""
""blur"",""42"",""235620""
""focus"",""43"",""253929""
","""event"",""trial"",""time""
""blur"",""2"",""18094""
""blur"",""4"",""54383""
""blur"",""30"",""134938""
""blur"",""38"",""167249""
""blur"",""42"",""235620""
","""event"",""trial"",""time""
""focus"",""0"",""3209""
""focus"",""3"",""52316""
""focus"",""5"",""61844""
""focus"",""31"",""138571""
""focus"",""39"",""194054""
""focus"",""43"",""253929""
","""event"",""trial"",""time""
""fullscreenenter"",""0"",""3716""
","""event"",""trial"",""time""
""fullscreenexit"",""2"",""4784""
","963.8000000119209","run_exp/static/audio/clip_22_q3.m4a","49","","","","","","","","","","","","","","","","","","","","","","",""
"","q3_err","82","410424","0.0-51.0-0.0","""event"",""trial"",""time""
""focus"",""0"",""3209""
""fullscreenenter"",""0"",""3716""
""fullscreenexit"",""2"",""4784""
""blur"",""2"",""18094""
""focus"",""3"",""52316""
""blur"",""4"",""54383""
""focus"",""5"",""61844""
""blur"",""30"",""134938""
""focus"",""31"",""138571""
""blur"",""38"",""167249""
""focus"",""39"",""194054""
""blur"",""42"",""235620""
""focus"",""43"",""253929""
","""event"",""trial"",""time""
""blur"",""2"",""18094""
""blur"",""4"",""54383""
""blur"",""30"",""134938""
""blur"",""38"",""167249""
""blur"",""42"",""235620""
","""event"",""trial"",""time""
""focus"",""0"",""3209""
""focus"",""3"",""52316""
""focus"",""5"",""61844""
""focus"",""31"",""138571""
""focus"",""39"",""194054""
""focus"",""43"",""253929""
","""event"",""trial"",""time""
""fullscreenenter"",""0"",""3716""
","""event"",""trial"",""time""
""fullscreenexit"",""2"",""4784""
","null","run_exp/static/audio/clip_23_wrong_q3.m4a","null","","","","","<div class='center'><p>That’s incorrect. How good a pirate is at robbing ships will change from island to island!</p></div>","","","","","","","","","","","","","","","","","",""
"","html-keyboard-response","83","413007","0.0-51.0-1.0","""event"",""trial"",""time""
""focus"",""0"",""3209""
""fullscreenenter"",""0"",""3716""
""fullscreenexit"",""2"",""4784""
""blur"",""2"",""18094""
""focus"",""3"",""52316""
""blur"",""4"",""54383""
""focus"",""5"",""61844""
""blur"",""30"",""134938""
""focus"",""31"",""138571""
""blur"",""38"",""167249""
""focus"",""39"",""194054""
""blur"",""42"",""235620""
""focus"",""43"",""253929""
","""event"",""trial"",""time""
""blur"",""2"",""18094""
""blur"",""4"",""54383""
""blur"",""30"",""134938""
""blur"",""38"",""167249""
""blur"",""42"",""235620""
","""event"",""trial"",""time""
""focus"",""0"",""3209""
""focus"",""3"",""52316""
""focus"",""5"",""61844""
""focus"",""31"",""138571""
""focus"",""39"",""194054""
""focus"",""43"",""253929""
","""event"",""trial"",""time""
""fullscreenenter"",""0"",""3716""
","""event"",""trial"",""time""
""fullscreenexit"",""2"",""4784""
","2582.5999999940395","<div class='center'><p>That’s incorrect. How good a pirate is at robbing ships will change from island to island!</p><p><b>[Press the space bar to continue]</b></p></div>","32","","","","","","","","","","","","","","","","","","","","","","",""
"","audio-keyboard-response","84","414693","0.0-51.0-2.0","""event"",""trial"",""time""
""focus"",""0"",""3209""
""fullscreenenter"",""0"",""3716""
""fullscreenexit"",""2"",""4784""
""blur"",""2"",""18094""
""focus"",""3"",""52316""
""blur"",""4"",""54383""
""focus"",""5"",""61844""
""blur"",""30"",""134938""
""focus"",""31"",""138571""
""blur"",""38"",""167249""
""focus"",""39"",""194054""
""blur"",""42"",""235620""
""focus"",""43"",""253929""
","""event"",""trial"",""time""
""blur"",""2"",""18094""
""blur"",""4"",""54383""
""blur"",""30"",""134938""
""blur"",""38"",""167249""
""blur"",""42"",""235620""
","""event"",""trial"",""time""
""focus"",""0"",""3209""
""focus"",""3"",""52316""
""focus"",""5"",""61844""
""focus"",""31"",""138571""
""focus"",""39"",""194054""
""focus"",""43"",""253929""
","""event"",""trial"",""time""
""fullscreenenter"",""0"",""3716""
","""event"",""trial"",""time""
""fullscreenexit"",""2"",""4784""
","1684.4000000059605","run_exp/static/audio/clip_24_q4.m4a","49","","","","","","","","","","","","","","","","","","","","","","",""
"","correct","85","417089","0.0-52.0-0.0","""event"",""trial"",""time""
""focus"",""0"",""3209""
""fullscreenenter"",""0"",""3716""
""fullscreenexit"",""2"",""4784""
""blur"",""2"",""18094""
""focus"",""3"",""52316""
""blur"",""4"",""54383""
""focus"",""5"",""61844""
""blur"",""30"",""134938""
""focus"",""31"",""138571""
""blur"",""38"",""167249""
""focus"",""39"",""194054""
""blur"",""42"",""235620""
""focus"",""43"",""253929""
","""event"",""trial"",""time""
""blur"",""2"",""18094""
""blur"",""4"",""54383""
""blur"",""30"",""134938""
""blur"",""38"",""167249""
""blur"",""42"",""235620""
","""event"",""trial"",""time""
""focus"",""0"",""3209""
""focus"",""3"",""52316""
""focus"",""5"",""61844""
""focus"",""31"",""138571""
""focus"",""39"",""194054""
""focus"",""43"",""253929""
","""event"",""trial"",""time""
""fullscreenenter"",""0"",""3716""
","""event"",""trial"",""time""
""fullscreenexit"",""2"",""4784""
","null","run_exp/static/audio/clip_18_correct.m4a","null","","","","","<div class='center'><p>That's correct!</p></div>","","","","","","","","","","","","","","","","","",""
"","html-keyboard-response","86","419081","0.0-52.0-1.0","""event"",""trial"",""time""
""focus"",""0"",""3209""
""fullscreenenter"",""0"",""3716""
""fullscreenexit"",""2"",""4784""
""blur"",""2"",""18094""
""focus"",""3"",""52316""
""blur"",""4"",""54383""
""focus"",""5"",""61844""
""blur"",""30"",""134938""
""focus"",""31"",""138571""
""blur"",""38"",""167249""
""focus"",""39"",""194054""
""blur"",""42"",""235620""
""focus"",""43"",""253929""
","""event"",""trial"",""time""
""blur"",""2"",""18094""
""blur"",""4"",""54383""
""blur"",""30"",""134938""
""blur"",""38"",""167249""
""blur"",""42"",""235620""
","""event"",""trial"",""time""
""focus"",""0"",""3209""
""focus"",""3"",""52316""
""focus"",""5"",""61844""
""focus"",""31"",""138571""
""focus"",""39"",""194054""
""focus"",""43"",""253929""
","""event"",""trial"",""time""
""fullscreenenter"",""0"",""3716""
","""event"",""trial"",""time""
""fullscreenexit"",""2"",""4784""
","1992.199999988079","<div class='center'><p>That's correct!</p><p><b>[Press the space bar to continue]</b></p></div>","32","","","","","","","","","","","","","","","","","","","","","","",""
"","q_all_err","87","425285","0.0-53.0-0.0","""event"",""trial"",""time""
""focus"",""0"",""3209""
""fullscreenenter"",""0"",""3716""
""fullscreenexit"",""2"",""4784""
""blur"",""2"",""18094""
""focus"",""3"",""52316""
""blur"",""4"",""54383""
""focus"",""5"",""61844""
""blur"",""30"",""134938""
""focus"",""31"",""138571""
""blur"",""38"",""167249""
""focus"",""39"",""194054""
""blur"",""42"",""235620""
""focus"",""43"",""253929""
","""event"",""trial"",""time""
""blur"",""2"",""18094""
""blur"",""4"",""54383""
""blur"",""30"",""134938""
""blur"",""38"",""167249""
""blur"",""42"",""235620""
","""event"",""trial"",""time""
""focus"",""0"",""3209""
""focus"",""3"",""52316""
""focus"",""5"",""61844""
""focus"",""31"",""138571""
""focus"",""39"",""194054""
""focus"",""43"",""253929""
","""event"",""trial"",""time""
""fullscreenenter"",""0"",""3716""
","""event"",""trial"",""time""
""fullscreenexit"",""2"",""4784""
","null","run_exp/static/audio/clip_26_quiz_redo.m4a","null","","","","","<div class='center'><p>Oops, you missed some questions. Now that you’ve heard the correct answers. Try the quiz again! </p></div>","","","","","","","","","","","","","","","","","",""
"","html-keyboard-response","88","427832","0.0-53.0-1.0","""event"",""trial"",""time""
""focus"",""0"",""3209""
""fullscreenenter"",""0"",""3716""
""fullscreenexit"",""2"",""4784""
""blur"",""2"",""18094""
""focus"",""3"",""52316""
""blur"",""4"",""54383""
""focus"",""5"",""61844""
""blur"",""30"",""134938""
""focus"",""31"",""138571""
""blur"",""38"",""167249""
""focus"",""39"",""194054""
""blur"",""42"",""235620""
""focus"",""43"",""253929""
","""event"",""trial"",""time""
""blur"",""2"",""18094""
""blur"",""4"",""54383""
""blur"",""30"",""134938""
""blur"",""38"",""167249""
""blur"",""42"",""235620""
","""event"",""trial"",""time""
""focus"",""0"",""3209""
""focus"",""3"",""52316""
""focus"",""5"",""61844""
""focus"",""31"",""138571""
""focus"",""39"",""194054""
""focus"",""43"",""253929""
","""event"",""trial"",""time""
""fullscreenenter"",""0"",""3716""
","""event"",""trial"",""time""
""fullscreenexit"",""2"",""4784""
","2546.2999999821186","<div class='center'><p>Oops, you missed some questions. Now that you’ve heard the correct answers. Try the quiz again! </p><p><b>[Press the space bar to continue]</b></p></div>","32","","","","","","","","","","","","","","","","","","","","","","",""
"","audio-keyboard-response","89","431464","0.0-53.0-2.0","""event"",""trial"",""time""
""focus"",""0"",""3209""
""fullscreenenter"",""0"",""3716""
""fullscreenexit"",""2"",""4784""
""blur"",""2"",""18094""
""focus"",""3"",""52316""
""blur"",""4"",""54383""
""focus"",""5"",""61844""
""blur"",""30"",""134938""
""focus"",""31"",""138571""
""blur"",""38"",""167249""
""focus"",""39"",""194054""
""blur"",""42"",""235620""
""focus"",""43"",""253929""
","""event"",""trial"",""time""
""blur"",""2"",""18094""
""blur"",""4"",""54383""
""blur"",""30"",""134938""
""blur"",""38"",""167249""
""blur"",""42"",""235620""
","""event"",""trial"",""time""
""focus"",""0"",""3209""
""focus"",""3"",""52316""
""focus"",""5"",""61844""
""focus"",""31"",""138571""
""focus"",""39"",""194054""
""focus"",""43"",""253929""
","""event"",""trial"",""time""
""fullscreenenter"",""0"",""3716""
","""event"",""trial"",""time""
""fullscreenexit"",""2"",""4784""
","3631.7999999821186","run_exp/static/audio/clip_17_q1.m4a","49","","","","","","","","","","","","","","","","","","","","","","",""
"","correct","90","433876","0.0-54.0-0.0","""event"",""trial"",""time""
""focus"",""0"",""3209""
""fullscreenenter"",""0"",""3716""
""fullscreenexit"",""2"",""4784""
""blur"",""2"",""18094""
""focus"",""3"",""52316""
""blur"",""4"",""54383""
""focus"",""5"",""61844""
""blur"",""30"",""134938""
""focus"",""31"",""138571""
""blur"",""38"",""167249""
""focus"",""39"",""194054""
""blur"",""42"",""235620""
""focus"",""43"",""253929""
","""event"",""trial"",""time""
""blur"",""2"",""18094""
""blur"",""4"",""54383""
""blur"",""30"",""134938""
""blur"",""38"",""167249""
""blur"",""42"",""235620""
","""event"",""trial"",""time""
""focus"",""0"",""3209""
""focus"",""3"",""52316""
""focus"",""5"",""61844""
""focus"",""31"",""138571""
""focus"",""39"",""194054""
""focus"",""43"",""253929""
","""event"",""trial"",""time""
""fullscreenenter"",""0"",""3716""
","""event"",""trial"",""time""
""fullscreenexit"",""2"",""4784""
","null","run_exp/static/audio/clip_18_correct.m4a","null","","","","","<div class='center'><p>That's correct!</p></div>","","","","","","","","","","","","","","","","","",""
"","html-keyboard-response","91","436508","0.0-54.0-1.0","""event"",""trial"",""time""
""focus"",""0"",""3209""
""fullscreenenter"",""0"",""3716""
""fullscreenexit"",""2"",""4784""
""blur"",""2"",""18094""
""focus"",""3"",""52316""
""blur"",""4"",""54383""
""focus"",""5"",""61844""
""blur"",""30"",""134938""
""focus"",""31"",""138571""
""blur"",""38"",""167249""
""focus"",""39"",""194054""
""blur"",""42"",""235620""
""focus"",""43"",""253929""
","""event"",""trial"",""time""
""blur"",""2"",""18094""
""blur"",""4"",""54383""
""blur"",""30"",""134938""
""blur"",""38"",""167249""
""blur"",""42"",""235620""
","""event"",""trial"",""time""
""focus"",""0"",""3209""
""focus"",""3"",""52316""
""focus"",""5"",""61844""
""focus"",""31"",""138571""
""focus"",""39"",""194054""
""focus"",""43"",""253929""
","""event"",""trial"",""time""
""fullscreenenter"",""0"",""3716""
","""event"",""trial"",""time""
""fullscreenexit"",""2"",""4784""
","2630.899999976158","<div class='center'><p>That's correct!</p><p><b>[Press the space bar to continue]</b></p></div>","32","","","","","","","","","","","","","","","","","","","","","","",""
"","audio-keyboard-response","92","438501","0.0-54.0-2.0","""event"",""trial"",""time""
""focus"",""0"",""3209""
""fullscreenenter"",""0"",""3716""
""fullscreenexit"",""2"",""4784""
""blur"",""2"",""18094""
""focus"",""3"",""52316""
