"success","trial_type","trial_index","time_elapsed","internal_node_id","interactions","blur_events","focus_events","fullscreenenter_events","fullscreenexit_events","rt","stimulus","key_press","subject_id","participant_id","age","gender","prompt","response","choice_outcomes","context_n","context_img_id","trial_n","probe_img_id","pR_red","pR_white","pR_black","outcome","contextArray_ind","validImageProbes","invalidImageProbes","pRew_Red","pRew_White","pRew_Black","availableForMemProbe","choice_blocks"
"true","fullscreen","0","4622","0.0-0.0","""event"",""trial"",""time""
""fullscreenenter"",""0"",""3739""
","
","
","""event"",""trial"",""time""
""fullscreenenter"",""0"",""3739""
","
","","","","","","","","","","","","","","","","","","","","","","","","","",""
"","pavlovia","1","4644","0.0-1.0","""event"",""trial"",""time""
""fullscreenenter"",""0"",""3739""
","
","
","""event"",""trial"",""time""
""fullscreenenter"",""0"",""3739""
","
","","","","","","","","","","","","","","","","","","","","","","","","","",""
"","instruc1","2","49825","0.0-2.0","""event"",""trial"",""time""
""fullscreenenter"",""0"",""3739""
","
","
","""event"",""trial"",""time""
""fullscreenenter"",""0"",""3739""
","
","null","run_exp/static/audio/clip_1_welcome.m4a","null","222","332","9","Male","<div class='center'><p>Welcome! This is the first part of the study. It will last ~30 minutes. In part 1 and part 2 of the study, you are the head captain of a pirate ship traveling around the world to different islands. You will play a few different games throughout these two parts. Here is an overview of them:</p><br><p>Part 1 (today)</p><p>1. Instructions, practice game, and quiz</p><p>2. Pick a pirate game on 6 different islands</p><br><p>Part 2 (tomorrow)</p><p>3. Pick a pirate game and memory game</p><p>4. Where did you see this ship? </p></div>","","","","","","","","","","","","","","","","","",""
"","html-keyboard-response","3","49871","0.0-3.0","""event"",""trial"",""time""
""fullscreenenter"",""0"",""3739""
","
","
","""event"",""trial"",""time""
""fullscreenenter"",""0"",""3739""
","
","33.69999980926514","<div class='center'><p>Welcome! This is the first part of the study. It will last ~30 minutes. In part 1 and part 2 of the study, you are the head captain of a pirate ship traveling around the world to different islands. You will play a few different games throughout these two parts. Here is an overview of them:</p><br><p>Part 1 (today)</p><p>1. Instructions, practice game, and quiz</p><p>2. Pick a pirate game on 6 different islands</p><br><p>Part 2 (tomorrow)</p><p>3. Pick a pirate game and memory game</p><p>4. Where did you see this ship? </p><p><b>[Press the space bar to continue]</b></p></div>","32","","","","","","","","","","","","","","","","","","","","","","",""
"","instruc2","4","55181","0.0-4.0","""event"",""trial"",""time""
""fullscreenenter"",""0"",""3739""
","
","
","""event"",""trial"",""time""
""fullscreenenter"",""0"",""3739""
","
","null","run_exp/static/audio/clip_2_different_places.m4a","null","","","","","<div class='center'><p>Today, you’ll visit these 6 islands on your journey. You'll be able to see these islands from your ship.</p><p><img src='run_exp/static/images/contexts/all_contexts.png' height='500'></p></div>","","","","","","","","","","","","","","","","","",""
"","html-keyboard-response","5","57217","0.0-5.0","""event"",""trial"",""time""
""fullscreenenter"",""0"",""3739""
","
","
","""event"",""trial"",""time""
""fullscreenenter"",""0"",""3739""
","
","2030.1999998092651","<div class='center'><p>Today, you’ll visit these 6 islands on your journey. You'll be able to see these islands from your ship.</p><p><img src='run_exp/static/images/contexts/all_contexts.png' height='500'></p><p><b>[Press the space bar to continue]</b></p></div>","32","","","","","","","","","","","","","","","","","","","","","","",""
"","instruc3","6","66922","0.0-6.0","""event"",""trial"",""time""
""fullscreenenter"",""0"",""3739""
","
","
","""event"",""trial"",""time""
""fullscreenenter"",""0"",""3739""
","
","null","run_exp/static/audio/clip_3_goal_of_game_1.m4a","null","","","","","<div class='center'><p> The pirates on your ship will rob other ships as they leave the island.</p> These ships have just sold their goods to the islanders, so they will be filled with lots and lots of gold.</p><p><img src='run_exp/static/images/tutorial/ship_center.png' height='400'></p></div>","","","","","","","","","","","","","","","","","",""
"","html-keyboard-response","7","67620","0.0-7.0","""event"",""trial"",""time""
""fullscreenenter"",""0"",""3739""
","
","
","""event"",""trial"",""time""
""fullscreenenter"",""0"",""3739""
","
","693","<div class='center'><p> The pirates on your ship will rob other ships as they leave the island.</p> These ships have just sold their goods to the islanders, so they will be filled with lots and lots of gold.</p><p><img src='run_exp/static/images/tutorial/ship_center.png' height='400'></p><p><b>[Press the space bar to continue]</b></p></div>","32","","","","","","","","","","","","","","","","","","","","","","",""
"","instruc4","8","95622","0.0-8.0","""event"",""trial"",""time""
""fullscreenenter"",""0"",""3739""
","
","
","""event"",""trial"",""time""
""fullscreenenter"",""0"",""3739""
","
","null","run_exp/static/audio/clip_4_goal_of_game_2.m4a","null","","","","","<div class='center'><p>As the head captain, you do not have to rob any ships yourself. Another pirate will be doing the robbing for you. First, you will choose a pirate to rob the next ship.</p><p><img src='run_exp/static/images/tutorial/pirates_all_crop.png' height='200'></p><p>Then, you'll see if the pirate successfully robbed the ship of their gold. If they were successful, then you'll get a stack of gold coins like this:</p><p><img src='run_exp/static/images/tutorial/reward.png' height='150'></p><p> If they were <b>not</b> successful, then you'll get no gold coins, and you'll see a big red x like this: </p><p><img src='run_exp/static/images/tutorial/reward_no.png' height='150'></p><p> How much bonus money you make is based on how many gold coins you collect.</p><div>","","","","","","","","","","","","","","","","","",""
"","html-keyboard-response","9","96589","0.0-9.0","""event"",""trial"",""time""
""fullscreenenter"",""0"",""3739""
","
","
","""event"",""trial"",""time""
""fullscreenenter"",""0"",""3739""
","
","957","<div class='center'><p>As the head captain, you do not have to rob any ships yourself. Another pirate will be doing the robbing for you. First, you will choose a pirate to rob the next ship.</p><p><img src='run_exp/static/images/tutorial/pirates_all_crop.png' height='200'></p><p>Then, you'll see if the pirate successfully robbed the ship of their gold. If they were successful, then you'll get a stack of gold coins like this:</p><p><img src='run_exp/static/images/tutorial/reward.png' height='150'></p><p> If they were <b>not</b> successful, then you'll get no gold coins, and you'll see a big red x like this: </p><p><img src='run_exp/static/images/tutorial/reward_no.png' height='150'></p><p> How much bonus money you make is based on how many gold coins you collect.</p<p><b>[Press the space bar to continue]</b></p></div>","32","","","","","","","","","","","","","","","","","","","","","","",""
"","instruc5","10","109916","0.0-10.0","""event"",""trial"",""time""
""fullscreenenter"",""0"",""3739""
","
","
","""event"",""trial"",""time""
""fullscreenenter"",""0"",""3739""
","
","13320.400000095367","run_exp/static/audio/clip_5_probabilistic.m4a","49","","","","","<div class='center'><p>Even the most skilled pirate can not rob EVERY ship.</p><p> Some ships will have very strong protections against pirate attacks.</p><p> Blue beard, here, is very, very good at robbing ships, but he won't be successful every time he tries to rob one.</p><p> You can press the <b>‘1’</b> key on the keyboard to choose him.</p><p> Try choosing him 10 times to see how often he succeeds at robbing a ship. </p><p><img src='run_exp/static/images/tutorial/blue.png' height='500'></p></div>","","","","","","","","","","","","","","","","","",""
"","html-keyboard-response","11","111434","0.0-11.0","""event"",""trial"",""time""
""fullscreenenter"",""0"",""3739""
","
","
","""event"",""trial"",""time""
""fullscreenenter"",""0"",""3739""
","
","null","<div class='center'><p><img src='run_exp/static/images/tutorial/blue_win.png' height='500'></p></div>","null","","","","","","","","","","","","","","","","","","","","","","",""
"","html-keyboard-response","12","111583","0.0-12.0","""event"",""trial"",""time""
""fullscreenenter"",""0"",""3739""
","
","
","""event"",""trial"",""time""
""fullscreenenter"",""0"",""3739""
","
","145.59999990463257","<div class='center'><img src='run_exp/static/images/tutorial/blue.png' height='500'></p></div>","49","","","","","","","","","","","","","","","","","","","","","","",""
"","html-keyboard-response","13","113097","0.0-13.0","""event"",""trial"",""time""
""fullscreenenter"",""0"",""3739""
","
","
","""event"",""trial"",""time""
""fullscreenenter"",""0"",""3739""
","
","null","<div class='center'><p><img src='run_exp/static/images/tutorial/blue_win.png' height='500'></p></div>","null","","","","","","","","","","","","","","","","","","","","","","",""
"","html-keyboard-response","14","114291","0.0-14.0","""event"",""trial"",""time""
""fullscreenenter"",""0"",""3739""
","
","
","""event"",""trial"",""time""
""fullscreenenter"",""0"",""3739""
","
","1188.5999999046326","<div class='center'><img src='run_exp/static/images/tutorial/blue.png' height='500'></p></div>","49","","","","","","","","","","","","","","","","","","","","","","",""
"","html-keyboard-response","15","115810","0.0-15.0","""event"",""trial"",""time""
""fullscreenenter"",""0"",""3739""
","
","
","""event"",""trial"",""time""
""fullscreenenter"",""0"",""3739""
","
","null","<div class='center'><p><img src='run_exp/static/images/tutorial/blue_win.png' height='500'></p></div>","null","","","","","","","","","","","","","","","","","","","","","","",""
"","html-keyboard-response","16","116074","0.0-16.0","""event"",""trial"",""time""
""fullscreenenter"",""0"",""3739""
","
","
","""event"",""trial"",""time""
""fullscreenenter"",""0"",""3739""
","
","261.5","<div class='center'><img src='run_exp/static/images/tutorial/blue.png' height='500'></p></div>","49","","","","","","","","","","","","","","","","","","","","","","",""
"","html-keyboard-response","17","117589","0.0-17.0","""event"",""trial"",""time""
""fullscreenenter"",""0"",""3739""
","
","
","""event"",""trial"",""time""
""fullscreenenter"",""0"",""3739""
","
","null","<div class='center'><p><img src='run_exp/static/images/tutorial/blue_no_win.png' height='500'></p></div>","null","","","","","","","","","","","","","","","","","","","","","","",""
"","html-keyboard-response","18","117927","0.0-18.0","""event"",""trial"",""time""
""fullscreenenter"",""0"",""3739""
","
","
","""event"",""trial"",""time""
""fullscreenenter"",""0"",""3739""
","
","334.69999980926514","<div class='center'><img src='run_exp/static/images/tutorial/blue.png' height='500'></p></div>","49","","","","","","","","","","","","","","","","","","","","","","",""
"","html-keyboard-response","19","119440","0.0-19.0","""event"",""trial"",""time""
""fullscreenenter"",""0"",""3739""
","
","
","""event"",""trial"",""time""
""fullscreenenter"",""0"",""3739""
","
","null","<div class='center'><p><img src='run_exp/static/images/tutorial/blue_win.png' height='500'></p></div>","null","","","","","","","","","","","","","","","","","","","","","","",""
"","html-keyboard-response","20","119747","0.0-20.0","""event"",""trial"",""time""
""fullscreenenter"",""0"",""3739""
","
","
","""event"",""trial"",""time""
""fullscreenenter"",""0"",""3739""
","
","303.7999997138977","<div class='center'><img src='run_exp/static/images/tutorial/blue.png' height='500'></p></div>","49","","","","","","","","","","","","","","","","","","","","","","",""
"","html-keyboard-response","21","121253","0.0-21.0","""event"",""trial"",""time""
""fullscreenenter"",""0"",""3739""
","
","
","""event"",""trial"",""time""
""fullscreenenter"",""0"",""3739""
","
","null","<div class='center'><p><img src='run_exp/static/images/tutorial/blue_win.png' height='500'></p></div>","null","","","","","","","","","","","","","","","","","","","","","","",""
"","html-keyboard-response","22","121497","0.0-22.0","""event"",""trial"",""time""
""fullscreenenter"",""0"",""3739""
","
","
","""event"",""trial"",""time""
""fullscreenenter"",""0"",""3739""
","
","240.7999997138977","<div class='center'><img src='run_exp/static/images/tutorial/blue.png' height='500'></p></div>","49","","","","","","","","","","","","","","","","","","","","","","",""
"","html-keyboard-response","23","123013","0.0-23.0","""event"",""trial"",""time""
""fullscreenenter"",""0"",""3739""
","
","
","""event"",""trial"",""time""
""fullscreenenter"",""0"",""3739""
","
","null","<div class='center'><p><img src='run_exp/static/images/tutorial/blue_win.png' height='500'></p></div>","null","","","","","","","","","","","","","","","","","","","","","","",""
"","html-keyboard-response","24","123262","0.0-24.0","""event"",""trial"",""time""
""fullscreenenter"",""0"",""3739""
","
","
","""event"",""trial"",""time""
""fullscreenenter"",""0"",""3739""
","
","245.89999961853027","<div class='center'><img src='run_exp/static/images/tutorial/blue.png' height='500'></p></div>","49","","","","","","","","","","","","","","","","","","","","","","",""
"","html-keyboard-response","25","124768","0.0-25.0","""event"",""trial"",""time""
""fullscreenenter"",""0"",""3739""
","
","
","""event"",""trial"",""time""
""fullscreenenter"",""0"",""3739""
","
","null","<div class='center'><p><img src='run_exp/static/images/tutorial/blue_no_win.png' height='500'></p></div>","null","","","","","","","","","","","","","","","","","","","","","","",""
"","html-keyboard-response","26","125024","0.0-26.0","""event"",""trial"",""time""
""fullscreenenter"",""0"",""3739""
","
","
","""event"",""trial"",""time""
""fullscreenenter"",""0"",""3739""
","
","252.40000009536743","<div class='center'><img src='run_exp/static/images/tutorial/blue.png' height='500'></p></div>","49","","","","","","","","","","","","","","","","","","","","","","",""
"","html-keyboard-response","27","126540","0.0-27.0","""event"",""trial"",""time""
""fullscreenenter"",""0"",""3739""
","
","
","""event"",""trial"",""time""
""fullscreenenter"",""0"",""3739""
","
","null","<div class='center'><p><img src='run_exp/static/images/tutorial/blue_win.png' height='500'></p></div>","null","","","","","","","","","","","","","","","","","","","","","","",""
"","html-keyboard-response","28","126790","0.0-28.0","""event"",""trial"",""time""
""fullscreenenter"",""0"",""3739""
","
","
","""event"",""trial"",""time""
""fullscreenenter"",""0"",""3739""
","
","247.59999990463257","<div class='center'><img src='run_exp/static/images/tutorial/blue.png' height='500'></p></div>","49","","","","","","","","","","","","","","","","","","","","","","",""
"","html-keyboard-response","29","128293","0.0-29.0","""event"",""trial"",""time""
""fullscreenenter"",""0"",""3739""
","
","
","""event"",""trial"",""time""
""fullscreenenter"",""0"",""3739""
","
","null","<div class='center'><p><img src='run_exp/static/images/tutorial/blue_win.png' height='500'></p></div>","null","","","","","","","","","","","","","","","","","","","","","","",""
"","instruc6","30","133895","0.0-30.0","""event"",""trial"",""time""
""fullscreenenter"",""0"",""3739""
","
","
","""event"",""trial"",""time""
""fullscreenenter"",""0"",""3739""
","
","null","run_exp/static/audio/clip_6_blue_beard_outcome.m4a","null","","","","","<div class='center'><p> See, he succeeded in robbing the ships most of the time but not every time. </p></div>","","","","","","","","","","","","","","","","","",""
"","html-keyboard-response","31","134542","0.0-31.0","""event"",""trial"",""time""
""fullscreenenter"",""0"",""3739""
","
","
","""event"",""trial"",""time""
""fullscreenenter"",""0"",""3739""
","
","643.5999999046326","<div class='center'><p> See, he succeeded in robbing the ships most of the time but not every time. </p><p><b>[Press the space bar to continue]</b></p></div>","32","","","","","","","","","","","","","","","","","","","","","","",""
"","audio-keyboard-response","32","151139","0.0-32.0","""event"",""trial"",""time""
""fullscreenenter"",""0"",""3739""
","
","
","""event"",""trial"",""time""
""fullscreenenter"",""0"",""3739""
","
","16591.299999713898","run_exp/static/audio/clip_7_pick_pirate.m4a","51","","","","","","","","","","","","","","","","","","","","","","",""
"","audio-keyboard-response","33","155519","0.0-33.0-0.0","""event"",""trial"",""time""
""fullscreenenter"",""0"",""3739""
","
","
","""event"",""trial"",""time""
""fullscreenenter"",""0"",""3739""
","
","4372.699999809265","run_exp/static/audio/clip_8_chosen_pirate_win.m4a","32","","","","","","","","","","","","","","","","","","","","","","",""
"","audio-keyboard-response","34","160324","0.0-33.0-1.0","""event"",""trial"",""time""
""fullscreenenter"",""0"",""3739""
","
","
","""event"",""trial"",""time""
""fullscreenenter"",""0"",""3739""
","
","4798.599999904633","run_exp/static/audio/clip_9_pick_a_pirate_again.m4a","49","","","","","","","","","","","","","","","","","","","","","","",""
"","audio-keyboard-response","35","164790","0.0-34.0-0.0","""event"",""trial"",""time""
""fullscreenenter"",""0"",""3739""
","
","
","""event"",""trial"",""time""
""fullscreenenter"",""0"",""3739""
","
","4457.799999713898","run_exp/static/audio/clip_10_chosen_pirate_loss.m4a","32","","","","","","","","","","","","","","","","","","","","","","",""
"","instruc9","36","170295","0.0-35.0-0.0","""event"",""trial"",""time""
""fullscreenenter"",""0"",""3739""
","
","
","""event"",""trial"",""time""
""fullscreenenter"",""0"",""3739""
","
","null","run_exp/static/audio/clip_11_time_out.m4a","null","","","","","<div class='center'><p>If you don’t make your choice fast enough, you’ll have to wait a few seconds before you can make another one. </p><p><img src='run_exp/static/images/miscellaneous/hurry_up.png' height='500'></p></div>","","","","","","","","","","","","","","","","","",""
"","html-keyboard-response","37","170955","0.0-35.0-1.0","""event"",""trial"",""time""
""fullscreenenter"",""0"",""3739""
","
","
","""event"",""trial"",""time""
""fullscreenenter"",""0"",""3739""
","
","655.9000000953674","<div class='center'><p>If you don’t make your choice fast enough, you’ll have to wait a few seconds before you can make another one. </p><p><img src='run_exp/static/images/miscellaneous/hurry_up.png' height='500'></p><p><b>[Press the space bar to continue]</b></p></div>","32","","","","","","","","","","","","","","","","","","","","","","",""
"","instruc10","38","210074","0.0-35.0-2.0","""event"",""trial"",""time""
""fullscreenenter"",""0"",""3739""
","
","
","""event"",""trial"",""time""
""fullscreenenter"",""0"",""3739""
","
","null","run_exp/static/audio/clip_12_probe.m4a","null","","","","","<div class='center'><p>Once you've chosen a pirate, you’ll be shown the ship they are robbing. You will never rob the same ship twice. Ships can be told apart from one another by the image on them. These are the goods that they sell. See, this ship has a travel mug on it. </p><p> You’ll have to remember which island you saw each ship on. You will win more gold coins and hence more bonus money if you remember correctly! To help you remember, you can imagine a story. For example, here, you could imagine a mug full of water in the desert. Or, as another example, if on the forest island, your pirate robbed a ship with an apple on it, you could imagine an apple falling from a tree in the forest. </p><p><img src='run_exp/static/images/tutorial/example_probe.png' height='500'></p></div>","","","","","","","","","","","","","","","","","",""
"","html-keyboard-response","39","212088","0.0-35.0-3.0","""event"",""trial"",""time""
""fullscreenenter"",""0"",""3739""
","
","
","""event"",""trial"",""time""
""fullscreenenter"",""0"",""3739""
","
","2007.5","<div class='center'><p>Once you've chosen a pirate, you’ll be shown the ship they are robbing. You will never rob the same ship twice. Ships can be told apart from one another by the image on them. These are the goods that they sell. See, this ship has a travel mug on it. </p><p> You’ll have to remember which island you saw each ship on. You will win more gold coins and hence more bonus money if you remember correctly! To help you remember, you can imagine a story. For example, here, you could imagine a mug full of water in the desert. Or, as another example, if on the forest island, your pirate robbed a ship with an apple on it, you could imagine an apple falling from a tree in the forest. </p><p><img src='run_exp/static/images/tutorial/example_probe.png' height='500'></p><p><b>[Press the space bar to continue]</b></p></div>","32","","","","","","","","","","","","","","","","","","","","","","",""
"","instruc11","40","228534","0.0-35.0-4.0","""event"",""trial"",""time""
""fullscreenenter"",""0"",""3739""
","
","
","""event"",""trial"",""time""
""fullscreenenter"",""0"",""3739""
","
","null","run_exp/static/audio/clip_13_changepoint.m4a","null","","","","","<div class='center'><p>How successful a pirate is at robbing ships will depend on the island you’re on.</p><p> A pirate may have visited this island many times before and gained a lot of practice robbing ships there.</p><p>So, they’re more likely to be successful than a pirate who has never visited the island before.</p></div>","","","","","","","","","","","","","","","","","",""
"","html-keyboard-response","41","229287","0.0-35.0-5.0","""event"",""trial"",""time""
""fullscreenenter"",""0"",""3739""
","
","
","""event"",""trial"",""time""
""fullscreenenter"",""0"",""3739""
","
","749.5999999046326","<div class='center'><p>How successful a pirate is at robbing ships will depend on the island you’re on.</p><p> A pirate may have visited this island many times before and gained a lot of practice robbing ships there.</p><p>So, they’re more likely to be successful than a pirate who has never visited the island before.</p><p><b>[Press the space bar to continue]</b></p></div>","32","","","","","","","","","","","","","","","","","","","","","","",""
"","instruc12","42","270413","0.0-35.0-6.0","""event"",""trial"",""time""
""fullscreenenter"",""0"",""3739""
","
","
","""event"",""trial"",""time""
""fullscreenenter"",""0"",""3739""
","
","null","run_exp/static/audio/clip_14_drift.m4a","null","","","","","<div class='center'><p>How successful a pirate is at robbing ships can also change over the time spent on the island. </p><p> Ships may hear from islanders about the pirates coming and will improve their protections against the attack. This may make it harder to rob them.</p><p> Ships may also become lazy and weaken the strength of their protections. This may make it easier to rob them.</p><br><p>Things are always changing on the high seas! So, try your best to pay attention!</p><p><img src='run_exp/static/images/tutorial/contingency.png' height='500'></p></div>","","","","","","","","","","","","","","","","","",""
"","html-keyboard-response","43","272054","0.0-35.0-7.0","""event"",""trial"",""time""
""fullscreenenter"",""0"",""3739""
","
","
","""event"",""trial"",""time""
""fullscreenenter"",""0"",""3739""
","
","1635.9000000953674","<div class='center'><p>How successful a pirate is at robbing ships can also change over the time spent on the island. </p><p> Ships may hear from islanders about the pirates coming and will improve their protections against the attack. This may make it harder to rob them.</p><p> Ships may also become lazy and weaken the strength of their protections. This may make it easier to rob them.</p><br><p>Things are always changing on the high seas! So, try your best to pay attention!</p><p><img src='run_exp/static/images/tutorial/contingency.png' height='500'></p><p><b>[Press the space bar to continue]</b></p></div>","32","","","","","","","","","","","","","","","","","","","","","","",""
"","instruc13","44","307296","0.0-35.0-8.0","""event"",""trial"",""time""
""fullscreenenter"",""0"",""3739""
","
","
","""event"",""trial"",""time""
""fullscreenenter"",""0"",""3739""
","
","null","run_exp/static/audio/clip_15_summary.m4a","null","","","","","<div class='center'><p>Let's go over the instructions quickly again. You have two important things to do: </p><b><p> 1. Pick the pirate who is the best at robbing ships on the current island. </p></b><b><p> 2. Remember on which island a ship was robbed.</p> </b><p>The amount of bonus money you can win depends on both.</p><p><br><p>Let’s try a practice game. The game will start by showing you the pirates. First, pick a pirate using the <b> 1, 2, 3 </b> keys on your keyboard. When you are shown a ship, try to remember which island you’re on by making up a story.</p><p>This is just a practice game, so you’re not playing for money. </p><p> Good luck! This game will be very difficult but try your best!</p></div>","","","","","","","","","","","","","","","","","",""
"","html-keyboard-response","45","307841","0.0-35.0-9.0","""event"",""trial"",""time""
""fullscreenenter"",""0"",""3739""
","
","
","""event"",""trial"",""time""
""fullscreenenter"",""0"",""3739""
","
","540","<div class='center'><p>Let's go over the instructions quickly again. You have two important things to do: </p><b><p> 1. Pick the pirate who is the best at robbing ships on the current island. </p></b><b><p> 2. Remember on which island a ship was robbed.</p> </b><p>The amount of bonus money you can win depends on both.</p><p><br><p>Let’s try a practice game. The game will start by showing you the pirates. First, pick a pirate using the <b> 1, 2, 3 </b> keys on your keyboard. When you are shown a ship, try to remember which island you’re on by making up a story.</p><p>This is just a practice game, so you’re not playing for money. </p><p> Good luck! This game will be very difficult but try your best!</p><p><b>[Press the space bar to continue]</b></p></div>","32","","","","","","","","","","","","","","","","","","","","","","",""
"","do_welcome","46","311865","0.0-35.0-10.0","""event"",""trial"",""time""
""fullscreenenter"",""0"",""3739""
","
","
","""event"",""trial"",""time""
""fullscreenenter"",""0"",""3739""
","
","null","","","","","","","","null","","","","","","","","","","","","","","","","",""
"","do_trial","47","318212","0.0-35.0-11.0","""event"",""trial"",""time""
""fullscreenenter"",""0"",""3739""
","
","
","""event"",""trial"",""time""
""fullscreenenter"",""0"",""3739""
","
","1808.5999999046326","","","","","","","","49","1,0,0","","","","","","","","","","","","","","","",""
"","html-keyboard-response","48","319222","0.0-36.0-0.0","""event"",""trial"",""time""
""fullscreenenter"",""0"",""3739""
","
","
","""event"",""trial"",""time""
""fullscreenenter"",""0"",""3739""
","
","null","<p></p>","null","","","","","","","","","","","","","","","","","","","","","","",""
"","do_trial","49","326004","0.0-36.0-1.0","""event"",""trial"",""time""
""fullscreenenter"",""0"",""3739""
","
","
","""event"",""trial"",""time""
""fullscreenenter"",""0"",""3739""
","
","2259.4000000953674","","","","","","","","51","1,1,0","","","","","","","","","","","","","","","",""
"","html-keyboard-response","50","327022","0.0-37.0-0.0","""event"",""trial"",""time""
""fullscreenenter"",""0"",""3739""
","
","
","""event"",""trial"",""time""
""fullscreenenter"",""0"",""3739""
","
","null","<p></p>","null","","","","","","","","","","","","","","","","","","","","","","",""
"","do_trial","51","332218","0.0-37.0-1.0","""event"",""trial"",""time""
""fullscreenenter"",""0"",""3739""
","
","
","""event"",""trial"",""time""
""fullscreenenter"",""0"",""3739""
","
","669.2999997138977","","","","","","","","50","1,0,1","","","","","","","","","","","","","","","",""
"","html-keyboard-response","52","333230","0.0-38.0-0.0","""event"",""trial"",""time""
""fullscreenenter"",""0"",""3739""
","
","
","""event"",""trial"",""time""
""fullscreenenter"",""0"",""3739""
","
","null","<p></p>","null","","","","","","","","","","","","","","","","","","","","","","",""
"","do_trial","53","338536","0.0-38.0-1.0","""event"",""trial"",""time""
""fullscreenenter"",""0"",""3739""
","
","
","""event"",""trial"",""time""
""fullscreenenter"",""0"",""3739""
","
","793.5","","","","","","","","49","0,1,0","","","","","","","","","","","","","","","",""
"","html-keyboard-response","54","339556","0.0-39.0-0.0","""event"",""trial"",""time""
""fullscreenenter"",""0"",""3739""
","
","
","""event"",""trial"",""time""
""fullscreenenter"",""0"",""3739""
","
","null","<p></p>","null","","","","","","","","","","","","","","","","","","","","","","",""
"","do_trial","55","344479","0.0-39.0-1.0","""event"",""trial"",""time""
""fullscreenenter"",""0"",""3739""
","
","
","""event"",""trial"",""time""
""fullscreenenter"",""0"",""3739""
","
","390.90000009536743","","","","","","","","50","1,0,0","","","","","","","","","","","","","","","",""
"","do_bye","56","345993","0.0-40.0-0.0","""event"",""trial"",""time""
""fullscreenenter"",""0"",""3739""
","
","
","""event"",""trial"",""time""
""fullscreenenter"",""0"",""3739""
","
","null","","","","","","","","null","","","","","","","","","","","","","","","","",""
"","do_travel","57","355003","0.0-40.0-1.0","""event"",""trial"",""time""
""fullscreenenter"",""0"",""3739""
","
","
","""event"",""trial"",""time""
""fullscreenenter"",""0"",""3739""
","
","null","","","","","","","","null","","","","","","","","","","","","","","","","",""
"","do_welcome","58","359011","0.0-40.0-2.0","""event"",""trial"",""time""
""fullscreenenter"",""0"",""3739""
","
","
","""event"",""trial"",""time""
""fullscreenenter"",""0"",""3739""
","
","null","","","","","","","","null","","","","","","","","","","","","","","","","",""
"","do_trial","59","364563","0.0-40.0-3.0","""event"",""trial"",""time""
""fullscreenenter"",""0"",""3739""
","
","
","""event"",""trial"",""time""
""fullscreenenter"",""0"",""3739""
","
","1022.3000001907349","","","","","","","","49","1,0,0","","","","","","","","","","","","","","","",""
"","html-keyboard-response","60","365592","0.0-41.0-0.0","""event"",""trial"",""time""
""fullscreenenter"",""0"",""3739""
","
","
","""event"",""trial"",""time""
""fullscreenenter"",""0"",""3739""
","
","null","<p></p>","null","","","","","","","","","","","","","","","","","","","","","","",""
"","do_trial","61","370399","0.0-41.0-1.0","""event"",""trial"",""time""
""fullscreenenter"",""0"",""3739""
","
","
","""event"",""trial"",""time""
""fullscreenenter"",""0"",""3739""
","
","277.90000009536743","","","","","","","","50","1,0,1","","","","","","","","","","","","","","","",""
"","html-keyboard-response","62","371413","0.0-42.0-0.0","""event"",""trial"",""time""
""fullscreenenter"",""0"",""3739""
","
","
","""event"",""trial"",""time""
""fullscreenenter"",""0"",""3739""
","
","null","<p></p>","null","","","","","","","","","","","","","","","","","","","","","","",""
"","do_trial","63","376177","0.0-42.0-1.0","""event"",""trial"",""time""
""fullscreenenter"",""0"",""3739""
","
","
","""event"",""trial"",""time""
""fullscreenenter"",""0"",""3739""
","
","249","","","","","","","","51","1,1,0","","","","","","","","","","","","","","","",""
"","html-keyboard-response","64","377189","0.0-43.0-0.0","""event"",""trial"",""time""
""fullscreenenter"",""0"",""3739""
","
","
","""event"",""trial"",""time""
""fullscreenenter"",""0"",""3739""
","
","null","<p></p>","null","","","","","","","","","","","","","","","","","","","","","","",""
"","do_trial","65","382330","0.0-43.0-1.0","""event"",""trial"",""time""
""fullscreenenter"",""0"",""3739""
","
","
","""event"",""trial"",""time""
""fullscreenenter"",""0"",""3739""
","
","620","","","","","","","","49","0,0,1","","","","","","","","","","","","","","","",""
"","html-keyboard-response","66","383346","0.0-44.0-0.0","""event"",""trial"",""time""
""fullscreenenter"",""0"",""3739""
","
","
","""event"",""trial"",""time""
""fullscreenenter"",""0"",""3739""
","
","null","<p></p>","null","","","","","","","","","","","","","","","","","","","","","","",""
"","do_trial","67","388293","0.0-44.0-1.0","""event"",""trial"",""time""
""fullscreenenter"",""0"",""3739""
","
","
","""event"",""trial"",""time""
""fullscreenenter"",""0"",""3739""
","
","418.80000019073486","","","","","","","","50","1,0,1","","","","","","","","","","","","","","","",""
"","html-keyboard-response","68","390484","0.0-45.0-0.0","""event"",""trial"",""time""
""fullscreenenter"",""0"",""3739""
","
","
","""event"",""trial"",""time""
""fullscreenenter"",""0"",""3739""
","
","2185.4000000953674","<div class='center'><p><img src='run_exp/static/images/tutorial/prac_best_pirate.png'  height='500'></p></div>","51","","","","","","","","","","","","","","","","","","","","","","",""
"","html-keyboard-response","69","392441","0.0-46.0-0.0","""event"",""trial"",""time""
""fullscreenenter"",""0"",""3739""
","
","
","""event"",""trial"",""time""
""fullscreenenter"",""0"",""3739""
","
","1953","<div class='center'><p>That's incorrect! Red beard was the best.</p><p><b>[Press the space bar to continue]</b></p></div>","32","","","","","","","","","","","","","","","","","","","","","","",""
"","html-keyboard-response","70","395574","0.0-46.0-1.0","""event"",""trial"",""time""
""fullscreenenter"",""0"",""3739""
","
","
","""event"",""trial"",""time""
""fullscreenenter"",""0"",""3739""
","
","3129.9000000953674","<div class='center'><p><img src='run_exp/static/images/tutorial/prac_source.png'  height='500'></p></div>","49","","","","","","","","","","","","","","","","","","","","","","",""
"","html-keyboard-response","71","396891","0.0-47.0-0.0","""event"",""trial"",""time""
""fullscreenenter"",""0"",""3739""
","
","
","""event"",""trial"",""time""
""fullscreenenter"",""0"",""3739""
","
","1313.9000000953674","<div class='center'><p>That's incorrect! You saw this ship on the cavern island</p><p><b>[Press the space bar to continue]</b></p></div>","32","","","","","","","","","","","","","","","","","","","","","","",""
"","quiz_beginning","72","408265","0.0-47.0-1.0","""event"",""trial"",""time""
""fullscreenenter"",""0"",""3739""
","
","
","""event"",""trial"",""time""
""fullscreenenter"",""0"",""3739""
","
","null","run_exp/static/audio/clip_16_quiz_intro.m4a","null","","","","","<div class='center'><p>Good job on the practice game! Now, you will be asked some true or false questions to make sure you really understand the rules of the game.</p><p> Press <b>'1'</b> on the keyboard for true and press <b>'2'</b> for false.</p></div>","","","","","","","","","","","","","","","","","",""
"","audio-keyboard-response","73","413583","0.0-47.0-2.0","""event"",""trial"",""time""
""fullscreenenter"",""0"",""3739""
","
","
","""event"",""trial"",""time""
""fullscreenenter"",""0"",""3739""
","
","5313.599999904633","run_exp/static/audio/clip_17_q1.m4a","49","","","","","","","","","","","","","","","","","","","","","","",""
"","correct","74","416023","0.0-48.0-0.0","""event"",""trial"",""time""
""fullscreenenter"",""0"",""3739""
","
","
","""event"",""trial"",""time""
""fullscreenenter"",""0"",""3739""
","
","null","run_exp/static/audio/clip_18_correct.m4a","null","","","","","<div class='center'><p>That's correct!</p></div>","","","","","","","","","","","","","","","","","",""
"","html-keyboard-response","75","417110","0.0-48.0-1.0","""event"",""trial"",""time""
""fullscreenenter"",""0"",""3739""
","
","
","""event"",""trial"",""time""
""fullscreenenter"",""0"",""3739""
","
","1084.2999997138977","<div class='center'><p>That's correct!</p><p><b>[Press the space bar to continue]</b></p></div>","32","","","","","","","","","","","","","","","","","","","","","","",""
"","audio-keyboard-response","76","424933","0.0-48.0-2.0","""event"",""trial"",""time""
""fullscreenenter"",""0"",""3739""
","
","
","""event"",""trial"",""time""
""fullscreenenter"",""0"",""3739""
","
","7817.800000190735","run_exp/static/audio/clip_20_q2.m4a","50","","","","","","","","","","","","","","","","","","","","","","",""
"","correct","77","427322","0.0-49.0-0.0","""event"",""trial"",""time""
""fullscreenenter"",""0"",""3739""
","
","
","""event"",""trial"",""time""
""fullscreenenter"",""0"",""3739""
","
","null","run_exp/static/audio/clip_18_correct.m4a","null","","","","","<div class='center'><p>That's correct!</p></div>","","","","","","","","","","","","","","","","","",""
"","html-keyboard-response","78","428617","0.0-49.0-1.0","""event"",""trial"",""time""
""fullscreenenter"",""0"",""3739""
","
","
","""event"",""trial"",""time""
""fullscreenenter"",""0"",""3739""
","
","1293.6999998092651","<div class='center'><p>That's correct!</p><p><b>[Press the space bar to continue]</b></p></div>","32","","","","","","","","","","","","","","","","","","","","","","",""
"","audio-keyboard-response","79","433600","0.0-49.0-2.0","""event"",""trial"",""time""
""fullscreenenter"",""0"",""3739""
","
","
","""event"",""trial"",""time""
""fullscreenenter"",""0"",""3739""
","
","4978.599999904633","run_exp/static/audio/clip_22_q3.m4a","50","","","","","","","","","","","","","","","","","","","","","","",""
"","correct","80","436003","0.0-50.0-0.0","""event"",""trial"",""time""
""fullscreenenter"",""0"",""3739""
","
","
","""event"",""trial"",""time""
""fullscreenenter"",""0"",""3739""
","
","null","run_exp/static/audio/clip_18_correct.m4a","null","","","","","<div class='center'><p>That's correct!</p></div>","","","","","","","","","","","","","","","","","",""
"","html-keyboard-response","81","436506","0.0-50.0-1.0","""event"",""trial"",""time""
""fullscreenenter"",""0"",""3739""
","
","
","""event"",""trial"",""time""
""fullscreenenter"",""0"",""3739""
","
","500.3999996185303","<div class='center'><p>That's correct!</p><p><b>[Press the space bar to continue]</b></p></div>","32","","","","","","","","","","","","","","","","","","","","","","",""
"","audio-keyboard-response","82","439263","0.0-50.0-2.0","""event"",""trial"",""time""
""fullscreenenter"",""0"",""3739""
","
","
","""event"",""trial"",""time""
""fullscreenenter"",""0"",""3739""
","
","2752.4000000953674","run_exp/static/audio/clip_24_q4.m4a","49","","","","","","","","","","","","","","","","","","","","","","",""
"","correct","83","441744","0.0-51.0-0.0","""event"",""trial"",""time""
""fullscreenenter"",""0"",""3739""
","
","
","""event"",""trial"",""time""
""fullscreenenter"",""0"",""3739""
","
","null","run_exp/static/audio/clip_18_correct.m4a","null","","","","","<div class='center'><p>That's correct!</p></div>","","","","","","","","","","","","","","","","","",""
"","html-keyboard-response","84","442687","0.0-51.0-1.0","""event"",""trial"",""time""
""fullscreenenter"",""0"",""3739""
","
","
","""event"",""trial"",""time""
""fullscreenenter"",""0"",""3739""
","
","940.5999999046326","<div class='center'><p>That's correct!</p><p><b>[Press the space bar to continue]</b></p></div>","32","","","","","","","","","","","","","","","","","","","","","","",""
"","q_all_corr","85","451204","0.0-52.0-0.0","""event"",""trial"",""time""
""fullscreenenter"",""0"",""3739""
","
","
","""event"",""trial"",""time""
""fullscreenenter"",""0"",""3739""
","
","null","run_exp/static/audio/clip_27_quiz_all_correct.m4a","null","","","","","<div class='center'><p>Good job! You’re now ready to move on to the real game! Remember this game will be difficult but don't get discouraged and try your best!</p></div>","","","","","","","","","","","","","","","","","",""
"","html-keyboard-response","86","452722","0.0-52.0-1.0","""event"",""trial"",""time""
""fullscreenenter"",""0"",""3739""
","
","
","""event"",""trial"",""time""
""fullscreenenter"",""0"",""3739""
","
","1513.7999997138977","<div class='center'><p>Good job! You’re now ready to move on to the real game! Remember this game will be difficult but don't get discouraged and try your best!</p><p><b>[Press the space bar to continue]</b></p></div>","32","","","","","","","","","","","","","","","","","","","","","","",""
"","do_welcome","87","456741","0.0-53.0-0.0","""event"",""trial"",""time""
""fullscreenenter"",""0"",""3739""
","
","
","""event"",""trial"",""time""
""fullscreenenter"",""0"",""3739""
","
","null","","","","","","","","null","","","","","","","","","","","","","","","","",""
"","do_trial","88","462491","0.0-54.0-0.0","""event"",""trial"",""time""
""fullscreenenter"",""0"",""3739""
","
","
","""event"",""trial"",""time""
""fullscreenenter"",""0"",""3739""
","
","1153","","","","","","","","49","1,1,0","0","coast","0","probe-36","0.6","0.3","0.1","1","","","","","","","",""
"","html-keyboard-response","89","463501","0.0-54.0-1.0","""event"",""trial"",""time""
""fullscreenenter"",""0"",""3739""
","
","
","""event"",""trial"",""time""
""fullscreenenter"",""0"",""3739""
","
","null","<p></p>","null","","","","","","","","","","","","","","","","","","","","","","",""
"","do_trial","90","468411","0.0-55.0-0.0","""event"",""trial"",""time""
""fullscreenenter"",""0"",""3739""
","
","
","""event"",""trial"",""time""
""fullscreenenter"",""0"",""3739""
","
","321.09999990463257","","","","","","","","51","0,0,0","0","coast","1","probe-131","0.6256091573435252","0.32015244701679957","0.05282651636831144","0","","","","","","","",""
"","html-keyboard-response","91","469414","0.0-55.0-1.0","""event"",""trial"",""time""
""fullscreenenter"",""0"",""3739""
","
","
","""event"",""trial"",""time""
""fullscreenenter"",""0"",""3739""
","
","null","<p></p>","null","","","","","","","","","","","","","","","","","","","","","","",""
"","do_trial","92","474337","0.0-56.0-0.0","""event"",""trial"",""time""
""fullscreenenter"",""0"",""3739""
","
","
","""event"",""trial"",""time""
""fullscreenenter"",""0"",""3739""
","
","357","","","","","","","","49","1,0,0","0","coast","2","probe-05","0.7533636467431971","0.21542570018794366","0.11540515341439302","1","","","","","","","",""
"","html-keyboard-response","93","475341","0.0-56.0-1.0","""event"",""trial"",""time""
""fullscreenenter"",""0"",""3739""
","
","
","""event"",""trial"",""time""
""fullscreenenter"",""0"",""3739""
","
","null","<p></p>","null","","","","","","","","","","","","","","","","","","","","","","",""
"","do_trial","94","480290","0.0-57.0-0.0","""event"",""trial"",""time""
""fullscreenenter"",""0"",""3739""
","
","
","""event"",""trial"",""time""
""fullscreenenter"",""0"",""3739""
","
","362","","","","","","","","50","0,1,0","0","coast","3","probe-02","0.7287431971361654","0.29967814782971397","0.24196503541747127","1","","","","","","","",""
"","html-keyboard-response","95","481303","0.0-57.0-1.0","""event"",""trial"",""time""
""fullscreenenter"",""0"",""3739""
","
","
","""event"",""trial"",""time""
""fullscreenenter"",""0"",""3739""
","
","null","<p></p>","null","","","","","","","","","","","","","","","","","","","","","","",""
"","do_trial","96","485989","0.0-58.0-0.0","""event"",""trial"",""time""
""fullscreenenter"",""0"",""3739""
","
","
","""event"",""trial"",""time""
""fullscreenenter"",""0"",""3739""
","
","128.19999980926514","","","","","","","","51","0,0,1","0","coast","4","probe-185","0.6314861433597434","0.089096927711341","0.21422619455791733","1","","","","","","","",""
"","html-keyboard-response","97","487016","0.0-58.0-1.0","""event"",""trial"",""time""
""fullscreenenter"",""0"",""3739""
","
","
","""event"",""trial"",""time""
""fullscreenenter"",""0"",""3739""
","
","null","<p></p>","null","","","","","","","","","","","","","","","","","","","","","","",""
"","do_trial","98","492243","0.0-59.0-0.0","""event"",""trial"",""time""
""fullscreenenter"",""0"",""3739""
","
","
","""event"",""trial"",""time""
""fullscreenenter"",""0"",""3739""
","
","654.2000002861023","","","","","","","","49","1,0,0","0","coast","5","probe-194","0.6656423415615792","0.1918201783179746","0.24846605981486364","1","","","","","","","",""
"","html-keyboard-response","99","493249","0.0-59.0-1.0","""event"",""trial"",""time""
""fullscreenenter"",""0"",""3739""
","
","
","""event"",""trial"",""time""
""fullscreenenter"",""0"",""3739""
","
","null","<p></p>","null","","","","","","","","","","","","","","","","","","","","","","",""
"","do_trial","100","498232","0.0-60.0-0.0","""event"",""trial"",""time""
""fullscreenenter"",""0"",""3739""
","
","
","""event"",""trial"",""time""
""fullscreenenter"",""0"",""3739""
","
","404.69999980926514","","","","","","","","51","1,1,0","0","coast","6","probe-207","0.7108829884723968","0.2376020697828488","0.2429031982618191","0","","","","","","","",""
"","html-keyboard-response","101","499242","0.0-60.0-1.0","""event"",""trial"",""time""
""fullscreenenter"",""0"",""3739""
","
","
","""event"",""trial"",""time""
""fullscreenenter"",""0"",""3739""
","
","null","<p></p>","null","","","","","","","","","","","","","","","","","","","","","","",""
"","do_trial","102","504103","0.0-61.0-0.0","""event"",""trial"",""time""
""fullscreenenter"",""0"",""3739""
","
","
","""event"",""trial"",""time""
""fullscreenenter"",""0"",""3739""
","
","280.5","","","","","","","","50","0,1,1","0","coast","7","probe-43","0.6477560197417591","0.26058400065621357","0.29067074006854504","1","","","","","","","",""
"","html-keyboard-response","103","505108","0.0-61.0-1.0","""event"",""trial"",""time""
""fullscreenenter"",""0"",""3739""
","
","
","""event"",""trial"",""time""
""fullscreenenter"",""0"",""3739""
","
","null","<p></p>","null","","","","","","","","","","","","","","","","","","","","","","",""
"","do_trial","104","510253","0.0-62.0-0.0","""event"",""trial"",""time""
""fullscreenenter"",""0"",""3739""
","
","
","""event"",""trial"",""time""
""fullscreenenter"",""0"",""3739""
","
","579.6999998092651","","","","","","","","49","1,0,0","0","coast","8","probe-150","0.8774225945217378","0.27881898174549913","0.2966438623321419","1","","","","","","","",""
"","html-keyboard-response","105","511260","0.0-62.0-1.0","""event"",""trial"",""time""
""fullscreenenter"",""0"",""3739""
","
","
","""event"",""trial"",""time""
""fullscreenenter"",""0"",""3739""
","
","null","<p></p>","null","","","","","","","","","","","","","","","","","","","","","","",""
"","do_trial","106","516143","0.0-63.0-0.0","""event"",""trial"",""time""
""fullscreenenter"",""0"",""3739""
","
","
","""event"",""trial"",""time""
""fullscreenenter"",""0"",""3739""
","
","285.7000002861023","","","","","","","","50","0,1,0","0","coast","9","probe-57","0.7635985604140337","0.2796927333364907","0.2467958458026881","1","","","","","","","",""
"","html-keyboard-response","107","517157","0.0-63.0-1.0","""event"",""trial"",""time""
""fullscreenenter"",""0"",""3739""
","
","
","""event"",""trial"",""time""
""fullscreenenter"",""0"",""3739""
","
","null","<p></p>","null","","","","","","","","","","","","","","","","","","","","","","",""
"","do_trial","108","522354","0.0-64.0-0.0","""event"",""trial"",""time""
""fullscreenenter"",""0"",""3739""
","
","
","""event"",""trial"",""time""
""fullscreenenter"",""0"",""3739""
","
","626.5999999046326","","","","","","","","49","0,0,0","0","coast","10","probe-106","0.6396145602558448","0.08983329160461924","0.24948941784777842","0","","","","","","","",""
"","html-keyboard-response","109","523362","0.0-64.0-1.0","""event"",""trial"",""time""
""fullscreenenter"",""0"",""3739""
","
","
","""event"",""trial"",""time""
""fullscreenenter"",""0"",""3739""
","
","null","<p></p>","null","","","","","","","","","","","","","","","","","","","","","","",""
"","do_trial","110","528349","0.0-65.0-0.0","""event"",""trial"",""time""
""fullscreenenter"",""0"",""3739""
","
","
","""event"",""trial"",""time""
""fullscreenenter"",""0"",""3739""
","
","398.09999990463257","","","","","","","","51","0,0,0","0","coast","11","probe-90","0.5660483905351342","0.08457124598360931","0.28058168037710596","0","","","","","","","",""
"","html-keyboard-response","111","529363","0.0-65.0-1.0","""event"",""trial"",""time""
""fullscreenenter"",""0"",""3739""
","
","
","""event"",""trial"",""time""
""fullscreenenter"",""0"",""3739""
","
","null","<p></p>","null","","","","","","","","","","","","","","","","","","","","","","",""
"","do_trial","112","534226","0.0-66.0-0.0","""event"",""trial"",""time""
""fullscreenenter"",""0"",""3739""
","
","
","""event"",""trial"",""time""
""fullscreenenter"",""0"",""3739""
","
","284.80000019073486","","","","","","","","50","0,0,1","0","coast","12","probe-109","0.36959165327416116","0.1666671767865585","0.24161444092304382","0","","","","","","","",""
"","html-keyboard-response","113","535252","0.0-66.0-1.0","""event"",""trial"",""time""
""fullscreenenter"",""0"",""3739""
","
","
","""event"",""trial"",""time""
""fullscreenenter"",""0"",""3739""
","
","null","<p></p>","null","","","","","","","","","","","","","","","","","","","","","","",""
"","do_trial","114","540140","0.0-67.0-0.0","""event"",""trial"",""time""
""fullscreenenter"",""0"",""3739""
","
","
","""event"",""trial"",""time""
""fullscreenenter"",""0"",""3739""
","
","330.09999990463257","","","","","","","","49","0,0,1","0","coast","13","probe-137","0.3792861333808763","0.3111909815989077","0.25902655025794175","0","","","","","","","",""
"","html-keyboard-response","115","541146","0.0-67.0-1.0","""event"",""trial"",""time""
""fullscreenenter"",""0"",""3739""
","
","
","""event"",""trial"",""time""
""fullscreenenter"",""0"",""3739""
","
","null","<p></p>","null","","","","","","","","","","","","","","","","","","","","","","",""
"","do_trial","116","546148","0.0-68.0-0.0","""event"",""trial"",""time""
""fullscreenenter"",""0"",""3739""
","
","
","""event"",""trial"",""time""
""fullscreenenter"",""0"",""3739""
","
","444.30000019073486","","","","","","","","49","1,0,0","0","coast","14","probe-60","0.6094931498539848","0.4512301974231687","0.30580805538972705","1","","","","","","","",""
"","html-keyboard-response","117","547165","0.0-68.0-1.0","""event"",""trial"",""time""
""fullscreenenter"",""0"",""3739""
","
","
","""event"",""trial"",""time""
""fullscreenenter"",""0"",""3739""
","
","null","<p></p>","null","","","","","","","","","","","","","","","","","","","","","","",""
"","do_trial","118","552073","0.0-69.0-0.0","""event"",""trial"",""time""
""fullscreenenter"",""0"",""3739""
","
","
","""event"",""trial"",""time""
""fullscreenenter"",""0"",""3739""
","
","347.7999997138977","","","","","","","","49","0,1,0","0","coast","15","probe-155","0.5754938077929314","0.3375352304299644","0.18934096269014739","0","","","","","","","",""
"","html-keyboard-response","119","553087","0.0-69.0-1.0","""event"",""trial"",""time""
""fullscreenenter"",""0"",""3739""
","
","
","""event"",""trial"",""time""
""fullscreenenter"",""0"",""3739""
","
","null","<p></p>","null","","","","","","","","","","","","","","","","","","","","","","",""
"","do_trial","120","557976","0.0-70.0-0.0","""event"",""trial"",""time""
""fullscreenenter"",""0"",""3739""
","
","
","""event"",""trial"",""time""
""fullscreenenter"",""0"",""3739""
","
","319.59999990463257","","","","","","","","50","0,0,0","0","coast","16","probe-166","0.5094865976364982","0.36147038091948985","0.1424884555952966","0","","","","","","","",""
"","html-keyboard-response","121","558983","0.0-70.0-1.0","""event"",""trial"",""time""
""fullscreenenter"",""0"",""3739""
","
","
","""event"",""trial"",""time""
""fullscreenenter"",""0"",""3739""
","
","null","<p></p>","null","","","","","","","","","","","","","","","","","","","","","","",""
"","do_trial","122","563843","0.0-71.0-0.0","""event"",""trial"",""time""
""fullscreenenter"",""0"",""3739""
","
","
","""event"",""trial"",""time""
""fullscreenenter"",""0"",""3739""
","
","254.59999990463257","","","","","","","","50","0,1,0","0","coast","17","probe-175","0.49888420513478837","0.3665654811045114","0.17595441581029012","1","","","","","","","",""
"","html-keyboard-response","123","564852","0.0-71.0-1.0","""event"",""trial"",""time""
""fullscreenenter"",""0"",""3739""
","
","
","""event"",""trial"",""time""
""fullscreenenter"",""0"",""3739""
","
","null","<p></p>","null","","","","","","","","","","","","","","","","","","","","","","",""
"","do_trial","124","569941","0.0-72.0-0.0","""event"",""trial"",""time""
""fullscreenenter"",""0"",""3739""
","
","
","""event"",""trial"",""time""
""fullscreenenter"",""0"",""3739""
","
","478.90000009536743","","","","","","","","50","1,1,1","0","coast","18","probe-15","0.4756423193315665","0.40810711495246393","0.2883920331847658","1","","","","","","","",""
"","html-keyboard-response","125","570947","0.0-72.0-1.0","""event"",""trial"",""time""
""fullscreenenter"",""0"",""3739""
","
","
","""event"",""trial"",""time""
""fullscreenenter"",""0"",""3739""
","
","null","<p></p>","null","","","","","","","","","","","","","","","","","","","","","","",""
"","do_trial","126","575860","0.0-73.0-0.0","""event"",""trial"",""time""
""fullscreenenter"",""0"",""3739""
","
","
","""event"",""trial"",""time""
""fullscreenenter"",""0"",""3739""
","
","328.09999990463257","","","","","","","","50","1,1,0","0","coast","19","probe-169","0.6882029830961913","0.31857360780210303","0.2835666866501602","1","","","","","","","",""
"","html-keyboard-response","127","576877","0.0-73.0-1.0","""event"",""trial"",""time""
""fullscreenenter"",""0"",""3739""
","
","
","""event"",""trial"",""time""
""fullscreenenter"",""0"",""3739""
","
","null","<p></p>","null","","","","","","","","","","","","","","","","","","","","","","",""
"","do_trial","128","581719","0.0-74.0-0.0","""event"",""trial"",""time""
""fullscreenenter"",""0"",""3739""
","
","
","""event"",""trial"",""time""
""fullscreenenter"",""0"",""3739""
","
","268.69999980926514","","","","","","","","50","1,0,0","0","coast","20","probe-72","0.677502305909632","0.21146539927947125","0.2749700802105835","0","","","","","","","",""
"","html-keyboard-response","129","582740","0.0-74.0-1.0","""event"",""trial"",""time""
""fullscreenenter"",""0"",""3739""
","
","
","""event"",""trial"",""time""
""fullscreenenter"",""0"",""3739""
","
","null","<p></p>","null","","","","","","","","","","","","","","","","","","","","","","",""
"","do_trial","130","587353","0.0-75.0-0.0","""event"",""trial"",""time""
""fullscreenenter"",""0"",""3739""
","
","
","""event"",""trial"",""time""
""fullscreenenter"",""0"",""3739""
","
","61.69999980926514","","","","","","","","50","0,0,0","0","coast","21","probe-123","0.6649965079994092","0.34561462924511993","0.08613949729934074","0","","","","","","","",""
"","html-keyboard-response","131","588362","0.0-75.0-1.0","""event"",""trial"",""time""
""fullscreenenter"",""0"",""3739""
","
","
","""event"",""trial"",""time""
""fullscreenenter"",""0"",""3739""
","
","null","<p></p>","null","","","","","","","","","","","","","","","","","","","","","","",""
"","do_trial","132","593205","0.0-76.0-0.0","""event"",""trial"",""time""
""fullscreenenter"",""0"",""3739""
","
","
","""event"",""trial"",""time""
""fullscreenenter"",""0"",""3739""
","
","221.2000002861023","","","","","","","","50","1,0,0","0","coast","22","probe-119","0.5899407082661469","0.25710209106400583","0.15055894725172309","0","","","","","","","",""
"","html-keyboard-response","133","594218","0.0-76.0-1.0","""event"",""trial"",""time""
""fullscreenenter"",""0"",""3739""
","
","
","""event"",""trial"",""time""
""fullscreenenter"",""0"",""3739""
","
","null","<p></p>","null","","","","","","","","","","","","","","","","","","","","","","",""
"","do_trial","134","599089","0.0-77.0-0.0","""event"",""trial"",""time""
""fullscreenenter"",""0"",""3739""
","
","
","""event"",""trial"",""time""
""fullscreenenter"",""0"",""3739""
","
","289.40000009536743","","","","","","","","51","0,0,0","0","coast","23","probe-17","0.722883900196532","0.3220840880682719","0.2598768567284656","0","","","","","","","",""
"","html-keyboard-response","135","600102","0.0-77.0-1.0","""event"",""trial"",""time""
""fullscreenenter"",""0"",""3739""
","
","
","""event"",""trial"",""time""
""fullscreenenter"",""0"",""3739""
","
","null","<p></p>","null","","","","","","","","","","","","","","","","","","","","","","",""
"","do_trial","136","604936","0.0-78.0-0.0","""event"",""trial"",""time""
""fullscreenenter"",""0"",""3739""
","
","
","""event"",""trial"",""time""
""fullscreenenter"",""0"",""3739""
","
","268.7999997138977","","","","","","","","51","1,1,1","0","coast","24","probe-38","0.6685575346178216","0.403804973778318","0.2711739465551629","1","","","","","","","",""
"","html-keyboard-response","137","605939","0.0-78.0-1.0","""event"",""trial"",""time""
""fullscreenenter"",""0"",""3739""
","
","
","""event"",""trial"",""time""
""fullscreenenter"",""0"",""3739""
","
","null","<p></p>","null","","","","","","","","","","","","","","","","","","","","","","",""
"","do_trial","138","610896","0.0-79.0-0.0","""event"",""trial"",""time""
""fullscreenenter"",""0"",""3739""
","
","
","""event"",""trial"",""time""
""fullscreenenter"",""0"",""3739""
","
","406.5","","","","","","","","51","0,1,0","0","coast","25","probe-74","0.6862794960595301","0.3519217992771669","0.24384088123890046","0","","","","","","","",""
"","html-keyboard-response","139","611909","0.0-79.0-1.0","""event"",""trial"",""time""
""fullscreenenter"",""0"",""3739""
","
","
","""event"",""trial"",""time""
""fullscreenenter"",""0"",""3739""
","
","null","<p></p>","null","","","","","","","","","","","","","","","","","","","","","","",""
"","do_trial","140","616740","0.0-80.0-0.0","""event"",""trial"",""time""
""fullscreenenter"",""0"",""3739""
","
","
","""event"",""trial"",""time""
""fullscreenenter"",""0"",""3739""
","
","271","","","","","","","","51","1,0,1","0","coast","26","probe-88","0.5672953084497154","0.43480876147619973","0.2209069586618342","1","","","","","","","",""
"","html-keyboard-response","141","617743","0.0-80.0-1.0","""event"",""trial"",""time""
""fullscreenenter"",""0"",""3739""
","
","
","""event"",""trial"",""time""
""fullscreenenter"",""0"",""3739""
","
","null","<p></p>","null","","","","","","","","","","","","","","","","","","","","","","",""
"","do_trial","142","622679","0.0-81.0-0.0","""event"",""trial"",""time""
""fullscreenenter"",""0"",""3739""
","
","
","""event"",""trial"",""time""
""fullscreenenter"",""0"",""3739""
","
","350.6000003814697","","","","","","","","51","0,0,0","0","coast","27","probe-186","0.5390416145935117","0.29326034411668966","0.21205561341228202","0","","","","","","","",""
"","html-keyboard-response","143","623692","0.0-81.0-1.0","""event"",""trial"",""time""
""fullscreenenter"",""0"",""3739""
","
","
","""event"",""trial"",""time""
""fullscreenenter"",""0"",""3739""
","
","null","<p></p>","null","","","","","","","","","","","","","","","","","","","","","","",""
"","do_trial","144","628981","0.0-82.0-0.0","""event"",""trial"",""time""
""fullscreenenter"",""0"",""3739""
","
","
","""event"",""trial"",""time""
""fullscreenenter"",""0"",""3739""
","
","680.6999998092651","","","","","","","","51","1,0,0","0","coast","28","probe-107","0.5352381505120396","0.3914621393056269","0.11534650949942","0","","","","","","","",""
"","html-keyboard-response","145","629989","0.0-82.0-1.0","""event"",""trial"",""time""
""fullscreenenter"",""0"",""3739""
","
","
","""event"",""trial"",""time""
""fullscreenenter"",""0"",""3739""
","
","null","<p></p>","null","","","","","","","","","","","","","","","","","","","","","","",""
"","do_trial","146","634805","0.0-83.0-0.0","""event"",""trial"",""time""
""fullscreenenter"",""0"",""3739""
","
","
","""event"",""trial"",""time""
""fullscreenenter"",""0"",""3739""
","
","237.5","","","","","","","","49","1,0,0","0","coast","29","probe-85","0.6248816178484254","0.315756454238469","0.05815992541344128","1","","","","","","","",""
"","html-keyboard-response","147","635818","0.0-83.0-1.0","""event"",""trial"",""time""
""fullscreenenter"",""0"",""3739""
","
","
","""event"",""trial"",""time""
""fullscreenenter"",""0"",""3739""
","
","null","<p></p>","null","","","","","","","","","","","","","","","","","","","","","","",""
"","do_bye","148","637334","0.0-84.0-0.0","""event"",""trial"",""time""
""fullscreenenter"",""0"",""3739""
","
","
","""event"",""trial"",""time""
""fullscreenenter"",""0"",""3739""
","
","null","","","","","","","","null","","","","","","","","","","","","","","","","",""
"","break","149","640232","0.0-84.0-1.0","""event"",""trial"",""time""
""fullscreenenter"",""0"",""3739""
","
","
","""event"",""trial"",""time""
""fullscreenenter"",""0"",""3739""
","
","2893.4000000953674","<div class='center'><p>Time to take a quick break! You have 2 minutes to rest, but you can move on sooner if you'd like.</p><p> Press the <b>space bar</b> to continue.</p></div>","32","","","","","","","","","","","","","","","","","","","","","","",""
"","do_travel","150","649244","0.0-85.0-0.0","""event"",""trial"",""time""
""fullscreenenter"",""0"",""3739""
","
","
","""event"",""trial"",""time""
""fullscreenenter"",""0"",""3739""
","
","null","","","","","","","","null","","","","","","","","","","","","","","","","",""
"","do_welcome","151","653264","0.0-85.0-1.0","""event"",""trial"",""time""
""fullscreenenter"",""0"",""3739""
","
","
","""event"",""trial"",""time""
""fullscreenenter"",""0"",""3739""
","
","null","","","","","","","","null","","","","","","","","","","","","","","","","",""
"","do_trial","152","659244","0.0-86.0-0.0","""event"",""trial"",""time""
""fullscreenenter"",""0"",""3739""
","
","
","""event"",""trial"",""time""
""fullscreenenter"",""0"",""3739""
","
","1387.3000001907349","","","","","","","","49","1,0,0","1","countryside","30","probe-151","1","0.3287895268786302","0.21265576600793965","1","","","","","","","",""
"","html-keyboard-response","153","660262","0.0-86.0-1.0","""event"",""trial"",""time""
""fullscreenenter"",""0"",""3739""
","
","
","""event"",""trial"",""time""
""fullscreenenter"",""0"",""3739""
","
","null","<p></p>","null","","","","","","","","","","","","","","","","","","","","","","",""
"","do_trial","154","665306","0.0-87.0-0.0","""event"",""trial"",""time""
""fullscreenenter"",""0"",""3739""
","
","
","""event"",""trial"",""time""
""fullscreenenter"",""0"",""3739""
","
","445.5","","","","","","","","49","1,0,1","1","countryside","31","probe-173","1","0.43346598643747464","0.2589891263377491","1","","","","","","","",""
"","html-keyboard-response","155","666311","0.0-87.0-1.0","""event"",""trial"",""time""
""fullscreenenter"",""0"",""3739""
","
","
","""event"",""trial"",""time""
""fullscreenenter"",""0"",""3739""
","
","null","<p></p>","null","","","","","","","","","","","","","","","","","","","","","","",""
"","do_trial","156","671552","0.0-88.0-0.0","""event"",""trial"",""time""
""fullscreenenter"",""0"",""3739""
","
","
","""event"",""trial"",""time""
""fullscreenenter"",""0"",""3739""
","
","659.1999998092651","","","","","","","","49","1,0,1","1","countryside","32","probe-219","1","0.44906940513795723","0.2631038232798265","1","","","","","","","",""
"","html-keyboard-response","157","672565","0.0-88.0-1.0","""event"",""trial"",""time""
""fullscreenenter"",""0"",""3739""
","
","
","""event"",""trial"",""time""
""fullscreenenter"",""0"",""3739""
","
","null","<p></p>","null","","","","","","","","","","","","","","","","","","","","","","",""
"","do_trial","158","677696","0.0-89.0-0.0","""event"",""trial"",""time""
""fullscreenenter"",""0"",""3739""
","
","
","""event"",""trial"",""time""
""fullscreenenter"",""0"",""3739""
","
","582.7000002861023","","","","","","","","49","1,1,0","1","countryside","33","probe-95","0.7835851131219829","0.5596679069306808","0.0912915060391978","1","","","","","","","",""
"","html-keyboard-response","159","678711","0.0-89.0-1.0","""event"",""trial"",""time""
""fullscreenenter"",""0"",""3739""
","
","
","""event"",""trial"",""time""
""fullscreenenter"",""0"",""3739""
","
","null","<p></p>","null","","","","","","","","","","","","","","","","","","","","","","",""
"","do_trial","160","683629","0.0-90.0-0.0","""event"",""trial"",""time""
""fullscreenenter"",""0"",""3739""
","
","
","""event"",""trial"",""time""
""fullscreenenter"",""0"",""3739""
","
","366.5","","","","","","","","49","1,0,0","1","countryside","34","probe-202","0.743764945874253","0.45081073536280386","0.07477554760098182","1","","","","","","","",""
"","html-keyboard-response","161","684647","0.0-90.0-1.0","""event"",""trial"",""time""
""fullscreenenter"",""0"",""3739""
","
","
","""event"",""trial"",""time""
""fullscreenenter"",""0"",""3739""
","
","null","<p></p>","null","","","","","","","","","","","","","","","","","","","","","","",""
"","do_trial","162","689484","0.0-91.0-0.0","""event"",""trial"",""time""
""fullscreenenter"",""0"",""3739""
","
","
","""event"",""trial"",""time""
""fullscreenenter"",""0"",""3739""
","
","278.2999997138977","","","","","","","","49","1,0,1","1","countryside","35","probe-54","0.6317967542552828","0.5697574353653938","0.1714965359639788","1","","","","","","","",""
"","html-keyboard-response","163","690499","0.0-91.0-1.0","""event"",""trial"",""time""
""fullscreenenter"",""0"",""3739""
","
","
","""event"",""trial"",""time""
""fullscreenenter"",""0"",""3739""
","
","null","<p></p>","null","","","","","","","","","","","","","","","","","","","","","","",""
"","do_trial","164","695359","0.0-92.0-0.0","""event"",""trial"",""time""
""fullscreenenter"",""0"",""3739""
","
","
","""event"",""trial"",""time""
""fullscreenenter"",""0"",""3739""
","
","258.59999990463257","","","","","","","","49","1,1,0","1","countryside","36","probe-12","0.6137063337025106","0.5492686731789032","0.2424958147630266","1","","","","","","","",""
"","html-keyboard-response","165","696365","0.0-92.0-1.0","""event"",""trial"",""time""
""fullscreenenter"",""0"",""3739""
","
","
","""event"",""trial"",""time""
""fullscreenenter"",""0"",""3739""
","
","null","<p></p>","null","","","","","","","","","","","","","","","","","","","","","","",""
"","do_trial","166","701237","0.0-93.0-0.0","""event"",""trial"",""time""
""fullscreenenter"",""0"",""3739""
","
","
","""event"",""trial"",""time""
""fullscreenenter"",""0"",""3739""
","
","297.19999980926514","","","","","","","","49","0,0,0","1","countryside","37","probe-192","0.7303178713180265","0.43581954202133744","0.2454136796553563","0","","","","","","","",""
"","html-keyboard-response","167","702244","0.0-93.0-1.0","""event"",""trial"",""time""
""fullscreenenter"",""0"",""3739""
","
","
","""event"",""trial"",""time""
""fullscreenenter"",""0"",""3739""
","
","null","<p></p>","null","","","","","","","","","","","","","","","","","","","","","","",""
"","do_trial","168","707145","0.0-94.0-0.0","""event"",""trial"",""time""
""fullscreenenter"",""0"",""3739""
","
","
","""event"",""trial"",""time""
""fullscreenenter"",""0"",""3739""
","
","308.59999990463257","","","","","","","","49","1,0,0","1","countryside","38","probe-177","0.6895039415220251","0.35998905031156336","0.1991268932094369","1","","","","","","","",""
"","html-keyboard-response","169","708149","0.0-94.0-1.0","""event"",""trial"",""time""
""fullscreenenter"",""0"",""3739""
","
","
","""event"",""trial"",""time""
""fullscreenenter"",""0"",""3739""
","
","null","<p></p>","null","","","","","","","","","","","","","","","","","","","","","","",""
"","do_trial","170","713004","0.0-95.0-0.0","""event"",""trial"",""time""
""fullscreenenter"",""0"",""3739""
","
","
","""event"",""trial"",""time""
""fullscreenenter"",""0"",""3739""
","
","255.09999990463257","","","","","","","","49","0,0,0","1","countryside","39","probe-159","0.5866583636096582","0.4254877569024531","0.06145700628248227","0","","","","","","","",""
"","html-keyboard-response","171","714015","0.0-95.0-1.0","""event"",""trial"",""time""
""fullscreenenter"",""0"",""3739""
","
","
","""event"",""trial"",""time""
""fullscreenenter"",""0"",""3739""
","
","null","<p></p>","null","","","","","","","","","","","","","","","","","","","","","","",""
"","do_trial","172","718989","0.0-96.0-0.0","""event"",""trial"",""time""
""fullscreenenter"",""0"",""3739""
","
","
","""event"",""trial"",""time""
""fullscreenenter"",""0"",""3739""
","
","386.2000002861023","","","","","","","","49","0,0,0","1","countryside","40","probe-138","0.6015251034666006","0.34328150714876415","0.07872517105024032","0","","","","","","","",""
"","html-keyboard-response","173","720008","0.0-96.0-1.0","""event"",""trial"",""time""
""fullscreenenter"",""0"",""3739""
","
","
","""event"",""trial"",""time""
""fullscreenenter"",""0"",""3739""
","
","null","<p></p>","null","","","","","","","","","","","","","","","","","","","","","","",""
"","do_trial","174","724864","0.0-97.0-0.0","""event"",""trial"",""time""
""fullscreenenter"",""0"",""3739""
","
","
","""event"",""trial"",""time""
""fullscreenenter"",""0"",""3739""
","
","267.90000009536743","","","","","","","","49","0,1,0","1","countryside","41","probe-164","0.675614610381662","0.44323947889891524","0.1941216355706843","0","","","","","","","",""
"","html-keyboard-response","175","725882","0.0-97.0-1.0","""event"",""trial"",""time""
""fullscreenenter"",""0"",""3739""
","
","
","""event"",""trial"",""time""
""fullscreenenter"",""0"",""3739""
","
","null","<p></p>","null","","","","","","","","","","","","","","","","","","","","","","",""
"","do_trial","176","730817","0.0-98.0-0.0","""event"",""trial"",""time""
""fullscreenenter"",""0"",""3739""
","
","
","""event"",""trial"",""time""
""fullscreenenter"",""0"",""3739""
","
","324","","","","","","","","50","1,0,1","1","countryside","42","probe-168","0.5274133831973838","0.49971372784430523","0.2693594739835704","0","","","","","","","",""
"","html-keyboard-response","177","731830","0.0-98.0-1.0","""event"",""trial"",""time""
""fullscreenenter"",""0"",""3739""
","
","
","""event"",""trial"",""time""
""fullscreenenter"",""0"",""3739""
","
","null","<p></p>","null","","","","","","","","","","","","","","","","","","","","","","",""
"","do_trial","178","736512","0.0-99.0-0.0","""event"",""trial"",""time""
""fullscreenenter"",""0"",""3739""
","
","
","""event"",""trial"",""time""
""fullscreenenter"",""0"",""3739""
","
","127.5","","","","","","","","50","0,0,0","1","countryside","43","probe-101","0.29564649342466054","0.47674045030438567","0.09741270689028987","0","","","","","","","",""
"","html-keyboard-response","179","737524","0.0-99.0-1.0","""event"",""trial"",""time""
""fullscreenenter"",""0"",""3739""
","
","
","""event"",""trial"",""time""
""fullscreenenter"",""0"",""3739""
","
","null","<p></p>","null","","","","","","","","","","","","","","","","","","","","","","",""
"","do_trial","180","742345","0.0-100.0-0.0","""event"",""trial"",""time""
""fullscreenenter"",""0"",""3739""
","
","
","""event"",""trial"",""time""
""fullscreenenter"",""0"",""3739""
","
","248.59999990463257","","","","","","","","51","0,0,0","1","countryside","44","probe-153","0.30913690600584387","0.38745859270733723","0.08492332612339441","0","","","","","","","",""
"","html-keyboard-response","181","743360","0.0-100.0-1.0","""event"",""trial"",""time""
""fullscreenenter"",""0"",""3739""
","
","
","""event"",""trial"",""time""
""fullscreenenter"",""0"",""3739""
","
","null","<p></p>","null","","","","","","","","","","","","","","","","","","","","","","",""
"","do_trial","182","748253","0.0-101.0-0.0","""event"",""trial"",""time""
""fullscreenenter"",""0"",""3739""
","
","
","""event"",""trial"",""time""
""fullscreenenter"",""0"",""3739""
","
","335.40000009536743","","","","","","","","51","0,0,0","1","countryside","45","probe-117","0.12460334213295106","0.4963396911168372","0.21272385933521776","0","","","","","","","",""
"","html-keyboard-response","183","749268","0.0-101.0-1.0","""event"",""trial"",""time""
""fullscreenenter"",""0"",""3739""
","
","
","""event"",""trial"",""time""
""fullscreenenter"",""0"",""3739""
","
","null","<p></p>","null","","","","","","","","","","","","","","","","","","","","","","",""
"","do_trial","184","754233","0.0-102.0-0.0","""event"",""trial"",""time""
""fullscreenenter"",""0"",""3739""
","
","
","""event"",""trial"",""time""
""fullscreenenter"",""0"",""3739""
","
","411.2999997138977","","","","","","","","51","0,0,0","1","countryside","46","probe-220","0.11725537704502692","0.5314383094356075","0.14054372251651379","0","","","","","","","",""
"","html-keyboard-response","185","755247","0.0-102.0-1.0","""event"",""trial"",""time""
""fullscreenenter"",""0"",""3739""
","
","
","""event"",""trial"",""time""
""fullscreenenter"",""0"",""3739""
","
","null","<p></p>","null","","","","","","","","","","","","","","","","","","","","","","",""
"","do_trial","186","759856","0.0-103.0-0.0","""event"",""trial"",""time""
""fullscreenenter"",""0"",""3739""
","
","
","""event"",""trial"",""time""
""fullscreenenter"",""0"",""3739""
","
","1.1999998092651367","","","","","","","","51","1,0,1","1","countryside","47","probe-218","0.2267414497598743","0.694100012850599","0.09963066130801312","1","","","","","","","",""
"","html-keyboard-response","187","760871","0.0-103.0-1.0","""event"",""trial"",""time""
""fullscreenenter"",""0"",""3739""
","
","
","""event"",""trial"",""time""
""fullscreenenter"",""0"",""3739""
","
","null","<p></p>","null","","","","","","","","","","","","","","","","","","","","","","",""
"","do_trial","188","765725","0.0-104.0-0.0","""event"",""trial"",""time""
""fullscreenenter"",""0"",""3739""
","
","
","""event"",""trial"",""time""
""fullscreenenter"",""0"",""3739""
","
","297.90000009536743","","","","","","","","49","0,0,0","1","countryside","48","probe-28","0.39818007442476044","0.718512739785068","0.07192975479371595","0","","","","","","","",""
"","html-keyboard-response","189","766734","0.0-104.0-1.0","""event"",""trial"",""time""
""fullscreenenter"",""0"",""3739""
","
","
","""event"",""trial"",""time""
""fullscreenenter"",""0"",""3739""
","
","null","<p></p>","null","","","","","","","","","","","","","","","","","","","","","","",""
"","do_trial","190","771661","0.0-105.0-0.0","""event"",""trial"",""time""
""fullscreenenter"",""0"",""3739""
","
","
","""event"",""trial"",""time""
""fullscreenenter"",""0"",""3739""
","
","373.2999997138977","","","","","","","","51","0,0,1","1","countryside","49","probe-140","0.27070854060288624","0.6741207815032647","0.1468796430939101","1","","","","","","","",""
"","html-keyboard-response","191","772675","0.0-105.0-1.0","""event"",""trial"",""time""
""fullscreenenter"",""0"",""3739""
","
","
","""event"",""trial"",""time""
""fullscreenenter"",""0"",""3739""
","
","null","<p></p>","null","","","","","","","","","","","","","","","","","","","","","","",""
"","do_trial","192","777595","0.0-106.0-0.0","""event"",""trial"",""time""
""fullscreenenter"",""0"",""3739""
","
","
","""event"",""trial"",""time""
""fullscreenenter"",""0"",""3739""
","
","358.7999997138977","","","","","","","","50","1,0,0","1","countryside","50","probe-183","0.2849898386863789","0.586869951977625","0.13897501905543547","0","","","","","","","",""
"","html-keyboard-response","193","778602","0.0-106.0-1.0","""event"",""trial"",""time""
""fullscreenenter"",""0"",""3739""
","
","
","""event"",""trial"",""time""
""fullscreenenter"",""0"",""3739""
","
","null","<p></p>","null","","","","","","","","","","","","","","","","","","","","","","",""
"","do_trial","194","783600","0.0-107.0-0.0","""event"",""trial"",""time""
""fullscreenenter"",""0"",""3739""
","
","
","""event"",""trial"",""time""
""fullscreenenter"",""0"",""3739""
","
","399.7999997138977","","","","","","","","49","0,0,0","1","countryside","51","probe-181","0.3122731767591545","0.5471417101937663","0.21331696197604166","0","","","","","","","",""
"","html-keyboard-response","195","784610","0.0-107.0-1.0","""event"",""trial"",""time""
""fullscreenenter"",""0"",""3739""
","
","
","""event"",""trial"",""time""
""fullscreenenter"",""0"",""3739""
","
","null","<p></p>","null","","","","","","","","","","","","","","","","","","","","","","",""
"","do_trial","196","789474","0.0-108.0-0.0","""event"",""trial"",""time""
""fullscreenenter"",""0"",""3739""
","
","
","""event"",""trial"",""time""
""fullscreenenter"",""0"",""3739""
","
","287.2000002861023","","","","","","","","51","1,1,1","1","countryside","52","probe-66","0.3582657075027821","0.5370291002517762","0.19421901164123634","1","","","","","","","",""
"","html-keyboard-response","197","790490","0.0-108.0-1.0","""event"",""trial"",""time""
""fullscreenenter"",""0"",""3739""
","
","
","""event"",""trial"",""time""
""fullscreenenter"",""0"",""3739""
","
","null","<p></p>","null","","","","","","","","","","","","","","","","","","","","","","",""
"","do_trial","198","795768","0.0-109.0-0.0","""event"",""trial"",""time""
""fullscreenenter"",""0"",""3739""
","
","
","""event"",""trial"",""time""
""fullscreenenter"",""0"",""3739""
","
","693.0999999046326","","","","","","","","51","0,1,0","1","countryside","53","probe-229","0.34426921660738097","0.5866886320262962","0.08577558173348258","0","","","","","","","",""
"","html-keyboard-response","199","796784","0.0-109.0-1.0","""event"",""trial"",""time""
""fullscreenenter"",""0"",""3739""
","
","
","""event"",""trial"",""time""
""fullscreenenter"",""0"",""3739""
","
","null","<p></p>","null","","","","","","","","","","","","","","","","","","","","","","",""
"","do_trial","200","801523","0.0-110.0-0.0","""event"",""trial"",""time""
""fullscreenenter"",""0"",""3739""
","
","
","""event"",""trial"",""time""
""fullscreenenter"",""0"",""3739""
","
","133.60000038146973","","","","","","","","49","1,1,0","1","countryside","54","probe-105","0.38207975672524613","0.6205890747665144","0.14061875536141816","1","","","","","","","",""
"","html-keyboard-response","201","802537","0.0-110.0-1.0","""event"",""trial"",""time""
""fullscreenenter"",""0"",""3739""
","
","
","""event"",""trial"",""time""
""fullscreenenter"",""0"",""3739""
","
","null","<p></p>","null","","","","","","","","","","","","","","","","","","","","","","",""
"","do_trial","202","807402","0.0-111.0-0.0","""event"",""trial"",""time""
""fullscreenenter"",""0"",""3739""
","
","
","""event"",""trial"",""time""
""fullscreenenter"",""0"",""3739""
","
","277.7000002861023","","","","","","","","49","1,1,0","1","countryside","55","probe-128","0.336135428048633","0.6316200651272269","0.22180054250118603","1","","","","","","","",""
"","html-keyboard-response","203","808417","0.0-111.0-1.0","""event"",""trial"",""time""
""fullscreenenter"",""0"",""3739""
","
","
","""event"",""trial"",""time""
""fullscreenenter"",""0"",""3739""
","
","null","<p></p>","null","","","","","","","","","","","","","","","","","","","","","","",""
"","do_trial","204","813720","0.0-112.0-0.0","""event"",""trial"",""time""
""fullscreenenter"",""0"",""3739""
","
","
","""event"",""trial"",""time""
""fullscreenenter"",""0"",""3739""
","
","741.5999999046326","","","","","","","","50","1,0,1","1","countryside","56","probe-201","0.4643702224159569","0.6426889375643364","0.18265365114375715","0","","","","","","","",""
"","html-keyboard-response","205","814737","0.0-112.0-1.0","""event"",""trial"",""time""
""fullscreenenter"",""0"",""3739""
","
","
","""event"",""trial"",""time""
""fullscreenenter"",""0"",""3739""
","
","null","<p></p>","null","","","","","","","","","","","","","","","","","","","","","","",""
"","do_trial","206","819633","0.0-113.0-0.0","""event"",""trial"",""time""
""fullscreenenter"",""0"",""3739""
","
","
","""event"",""trial"",""time""
""fullscreenenter"",""0"",""3739""
","
","333.40000009536743","","","","","","","","51","1,0,0","1","countryside","57","probe-83","0.5083749532291373","0.628937700916329","0.17035634786608153","0","","","","","","","",""
"","html-keyboard-response","207","820656","0.0-113.0-1.0","""event"",""trial"",""time""
""fullscreenenter"",""0"",""3739""
","
","
","""event"",""trial"",""time""
""fullscreenenter"",""0"",""3739""
","
","null","<p></p>","null","","","","","","","","","","","","","","","","","","","","","","",""
"","do_trial","208","825533","0.0-114.0-0.0","""event"",""trial"",""time""
""fullscreenenter"",""0"",""3739""
","
","
","""event"",""trial"",""time""
""fullscreenenter"",""0"",""3739""
","
","316.80000019073486","","","","","","","","49","0,1,0","1","countryside","58","probe-170","0.3298875441652392","0.5610074848760949","0.1488549820681602","0","","","","","","","",""
"","html-keyboard-response","209","826541","0.0-114.0-1.0","""event"",""trial"",""time""
""fullscreenenter"",""0"",""3739""
","
","
","""event"",""trial"",""time""
""fullscreenenter"",""0"",""3739""
","
","null","<p></p>","null","","","","","","","","","","","","","","","","","","","","","","",""
"","do_trial","210","831337","0.0-115.0-0.0","""event"",""trial"",""time""
""fullscreenenter"",""0"",""3739""
","
","
","""event"",""trial"",""time""
""fullscreenenter"",""0"",""3739""
","
","233.10000038146973","","","","","","","","50","0,0,0","1","countryside","59","probe-50","0.28061273037340984","0.6859213668250829","0.10547305016990899","0","","","","","","","",""
"","html-keyboard-response","211","832355","0.0-115.0-1.0","""event"",""trial"",""time""
""fullscreenenter"",""0"",""3739""
","
","
","""event"",""trial"",""time""
""fullscreenenter"",""0"",""3739""
","
","null","<p></p>","null","","","","","","","","","","","","","","","","","","","","","","",""
"","do_trial","212","837234","0.0-116.0-0.0","""event"",""trial"",""time""
""fullscreenenter"",""0"",""3739""
","
","
","""event"",""trial"",""time""
""fullscreenenter"",""0"",""3739""
","
","326","","","","","","","","51","0,0,0","1","countryside","60","probe-55","0.23695934667235585","0.6345989641078577","0.05042087255097505","0","","","","","","","",""
"","html-keyboard-response","213","838239","0.0-116.0-1.0","""event"",""trial"",""time""
""fullscreenenter"",""0"",""3739""
","
","
","""event"",""trial"",""time""
""fullscreenenter"",""0"",""3739""
","
","null","<p></p>","null","","","","","","","","","","","","","","","","","","","","","","",""
"","do_trial","214","843089","0.0-117.0-0.0","""event"",""trial"",""time""
""fullscreenenter"",""0"",""3739""
","
","
","""event"",""trial"",""time""
""fullscreenenter"",""0"",""3739""
","
","283.5","","","","","","","","49","0,1,1","1","countryside","61","probe-52","0.31866925956510966","0.6637923355515853","0.14684571049435333","0","","","","","","","",""
"","html-keyboard-response","215","844104","0.0-117.0-1.0","""event"",""trial"",""time""
""fullscreenenter"",""0"",""3739""
","
","
","""event"",""trial"",""time""
""fullscreenenter"",""0"",""3739""
","
","null","<p></p>","null","","","","","","","","","","","","","","","","","","","","","","",""
"","do_trial","216","848976","0.0-118.0-0.0","""event"",""trial"",""time""
""fullscreenenter"",""0"",""3739""
","
","
","""event"",""trial"",""time""
""fullscreenenter"",""0"",""3739""
","
","298.30000019073486","","","","","","","","49","0,1,0","1","countryside","62","probe-08","0.2695421318430921","0.6119976192643907","0.11304376218581329","0","","","","","","","",""
"","html-keyboard-response","217","849981","0.0-118.0-1.0","""event"",""trial"",""time""
""fullscreenenter"",""0"",""3739""
","
","
","""event"",""trial"",""time""
""fullscreenenter"",""0"",""3739""
","
","null","<p></p>","null","","","","","","","","","","","","","","","","","","","","","","",""
"","do_trial","218","854820","0.0-119.0-0.0","""event"",""trial"",""time""
""fullscreenenter"",""0"",""3739""
","
","
","""event"",""trial"",""time""
""fullscreenenter"",""0"",""3739""
","
","276.90000009536743","","","","","","","","51","0,0,0","1","countryside","63","probe-139","0.2643314777879986","0.6217850358605983","0.06245369592454867","0","","","","","","","",""
"","html-keyboard-response","219","855833","0.0-119.0-1.0","""event"",""trial"",""time""
""fullscreenenter"",""0"",""3739""
","
","
","""event"",""trial"",""time""
""fullscreenenter"",""0"",""3739""
","
","null","<p></p>","null","","","","","","","","","","","","","","","","","","","","","","",""
"","do_trial","220","860679","0.0-120.0-0.0","""event"",""trial"",""time""
""fullscreenenter"",""0"",""3739""
","
","
","""event"",""trial"",""time""
""fullscreenenter"",""0"",""3739""
","
","291.40000009536743","","","","","","","","50","1,0,1","1","countryside","64","probe-80","0.2850562166045884","0.617278877145895","0.09844161739742668","0","","","","","","","",""
"","html-keyboard-response","221","861698","0.0-120.0-1.0","""event"",""trial"",""time""
""fullscreenenter"",""0"",""3739""
","
","
","""event"",""trial"",""time""
""fullscreenenter"",""0"",""3739""
","
","null","<p></p>","null","","","","","","","","","","","","","","","","","","","","","","",""
"","do_trial","222","866251","0.0-121.0-0.0","""event"",""trial"",""time""
""fullscreenenter"",""0"",""3739""
","
","
","""event"",""trial"",""time""
""fullscreenenter"",""0"",""3739""
","
","0.19999980926513672","","","","","","","","50","0,0,0","1","countryside","65","probe-184","0.19274702697852433","0.7175510575032198","0.1513332742558504","0","","","","","","","",""
"","html-keyboard-response","223","867264","0.0-121.0-1.0","""event"",""trial"",""time""
""fullscreenenter"",""0"",""3739""
","
","
","""event"",""trial"",""time""
""fullscreenenter"",""0"",""3739""
","
","null","<p></p>","null","","","","","","","","","","","","","","","","","","","","","","",""
"","do_trial","224","872052","0.0-122.0-0.0","""event"",""trial"",""time""
""fullscreenenter"",""0"",""3739""
","
","
","""event"",""trial"",""time""
""fullscreenenter"",""0"",""3739""
","
","230.7999997138977","","","","","","","","49","1,0,0","1","countryside","66","probe-189","0.11462532548370342","0.6168838232558135","0.05979526011184089","1","","","","","","","",""
"","html-keyboard-response","225","873056","0.0-122.0-1.0","""event"",""trial"",""time""
""fullscreenenter"",""0"",""3739""
","
","
","""event"",""trial"",""time""
""fullscreenenter"",""0"",""3739""
","
","null","<p></p>","null","","","","","","","","","","","","","","","","","","","","","","",""
"","do_trial","226","877885","0.0-123.0-0.0","""event"",""trial"",""time""
""fullscreenenter"",""0"",""3739""
","
","
","""event"",""trial"",""time""
""fullscreenenter"",""0"",""3739""
","
","275.2000002861023","","","","","","","","49","0,1,0","1","countryside","67","probe-70","0.30282204487978837","0.5770243089251573","0.17475053527824438","0","","","","","","","",""
"","html-keyboard-response","227","878902","0.0-123.0-1.0","""event"",""trial"",""time""
""fullscreenenter"",""0"",""3739""
","
","
","""event"",""trial"",""time""
""fullscreenenter"",""0"",""3739""
","
","null","<p></p>","null","","","","","","","","","","","","","","","","","","","","","","",""
"","do_trial","228","885210","0.0-124.0-0.0","""event"",""trial"",""time""
""fullscreenenter"",""0"",""3739""
","
","
","""event"",""trial"",""time""
""fullscreenenter"",""0"",""3739""
","
","1702.3000001907349","","","","","","","","49","1,1,0","1","countryside","68","probe-11","0.3921211251180767","0.5314455016999902","0.09127665911548163","1","","","","","","","",""
"","html-keyboard-response","229","886227","0.0-124.0-1.0","""event"",""trial"",""time""
""fullscreenenter"",""0"",""3739""
","
","
","""event"",""trial"",""time""
""fullscreenenter"",""0"",""3739""
","
","null","<p></p>","null","","","","","","","","","","","","","","","","","","","","","","",""
"","do_trial","230","890806","0.0-125.0-0.0","""event"",""trial"",""time""
""fullscreenenter"",""0"",""3739""
","
","
","""event"",""trial"",""time""
""fullscreenenter"",""0"",""3739""
","
","0.10000038146972656","","","","","","","","49","0,1,0","1","countryside","69","probe-63","0.2684917333962295","0.48869623281514335","0.09032095869391178","0","","","","","","","",""
"","html-keyboard-response","231","891821","0.0-125.0-1.0","""event"",""trial"",""time""
""fullscreenenter"",""0"",""3739""
","
","
","""event"",""trial"",""time""
""fullscreenenter"",""0"",""3739""
","
","null","<p></p>","null","","","","","","","","","","","","","","","","","","","","","","",""
"","do_bye","232","893336","0.0-126.0-0.0","""event"",""trial"",""time""
""fullscreenenter"",""0"",""3739""
","
","
","""event"",""trial"",""time""
""fullscreenenter"",""0"",""3739""
","
","null","","","","","","","","null","","","","","","","","","","","","","","","","",""
"","break","233","895763","0.0-126.0-1.0","""event"",""trial"",""time""
""fullscreenenter"",""0"",""3739""
","
","
","""event"",""trial"",""time""
""fullscreenenter"",""0"",""3739""
","
","2424.300000190735","<div class='center'><p>Time to take a quick break! You have 2 minutes to rest, but you can move on sooner if you'd like.</p><p> Press the <b>space bar</b> to continue.</p></div>","32","","","","","","","","","","","","","","","","","","","","","","",""
"","do_travel","234","904788","0.0-127.0-0.0","""event"",""trial"",""time""
""fullscreenenter"",""0"",""3739""
","
","
","""event"",""trial"",""time""
""fullscreenenter"",""0"",""3739""
","
","null","","","","","","","","null","","","","","","","","","","","","","","","","",""
"","do_welcome","235","908807","0.0-127.0-1.0","""event"",""trial"",""time""
""fullscreenenter"",""0"",""3739""
","
","
","""event"",""trial"",""time""
""fullscreenenter"",""0"",""3739""
","
","null","","","","","","","","null","","","","","","","","","","","","","","","","",""
"","do_trial","236","914837","0.0-128.0-0.0","""event"",""trial"",""time""
""fullscreenenter"",""0"",""3739""
","
","
","""event"",""trial"",""time""
""fullscreenenter"",""0"",""3739""
","
","1429.1999998092651","","","","","","","","49","0,1,0","2","city","70","probe-23","0.27045067531530814","1","0.1652658961290884","0","","","","","","","",""
"","html-keyboard-response","237","915856","0.0-128.0-1.0","""event"",""trial"",""time""
""fullscreenenter"",""0"",""3739""
","
","
","""event"",""trial"",""time""
""fullscreenenter"",""0"",""3739""
","
","null","<p></p>","null","","","","","","","","","","","","","","","","","","","","","","",""
"","do_trial","238","920721","0.0-129.0-0.0","""event"",""trial"",""time""
""fullscreenenter"",""0"",""3739""
","
","
","""event"",""trial"",""time""
""fullscreenenter"",""0"",""3739""
","
","271.30000019073486","","","","","","","","50","1,1,0","2","city","71","probe-96","0.33419564778956795","1","0.06593289082604722","1","","","","","","","",""
"","html-keyboard-response","239","921730","0.0-129.0-1.0","""event"",""trial"",""time""
""fullscreenenter"",""0"",""3739""
","
","
","""event"",""trial"",""time""
""fullscreenenter"",""0"",""3739""
","
","null","<p></p>","null","","","","","","","","","","","","","","","","","","","","","","",""
"","do_trial","240","926520","0.0-130.0-0.0","""event"",""trial"",""time""
""fullscreenenter"",""0"",""3739""
","
","
","""event"",""trial"",""time""
""fullscreenenter"",""0"",""3739""
","
","235.30000019073486","","","","","","","","50","0,0,0","2","city","72","probe-143","0.17583983561426408","0.7429217380170833","0.11017208832153669","0","","","","","","","",""
"","html-keyboard-response","241","927532","0.0-130.0-1.0","""event"",""trial"",""time""
""fullscreenenter"",""0"",""3739""
","
","
","""event"",""trial"",""time""
""fullscreenenter"",""0"",""3739""
","
","null","<p></p>","null","","","","","","","","","","","","","","","","","","","","","","",""
"","do_trial","242","932149","0.0-131.0-0.0","""event"",""trial"",""time""
""fullscreenenter"",""0"",""3739""
","
","
","""event"",""trial"",""time""
""fullscreenenter"",""0"",""3739""
","
","53","","","","","","","","49","0,1,0","2","city","73","probe-49","0.10331453535270231","0.6982492860922976","0.1544858578656185","0","","","","","","","",""
"","html-keyboard-response","243","933153","0.0-131.0-1.0","""event"",""trial"",""time""
""fullscreenenter"",""0"",""3739""
","
","
","""event"",""trial"",""time""
""fullscreenenter"",""0"",""3739""
","
","null","<p></p>","null","","","","","","","","","","","","","","","","","","","","","","",""
"","do_trial","244","937943","0.0-132.0-0.0","""event"",""trial"",""time""
""fullscreenenter"",""0"",""3739""
","
","
","""event"",""trial"",""time""
""fullscreenenter"",""0"",""3739""
","
","235.5","","","","","","","","49","0,1,1","2","city","74","probe-198","0.16913598336612562","0.7248645974194269","0.0639678911432974","0","","","","","","","",""
"","html-keyboard-response","245","938948","0.0-132.0-1.0","""event"",""trial"",""time""
""fullscreenenter"",""0"",""3739""
","
","
","""event"",""trial"",""time""
""fullscreenenter"",""0"",""3739""
","
","null","<p></p>","null","","","","","","","","","","","","","","","","","","","","","","",""
"","do_trial","246","944120","0.0-133.0-0.0","""event"",""trial"",""time""
""fullscreenenter"",""0"",""3739""
","
","
","""event"",""trial"",""time""
""fullscreenenter"",""0"",""3739""
","
","585.6000003814697","","","","","","","","50","1,1,0","2","city","75","probe-25","0.18082798710401254","0.7784760773406221","0.15865917370724072","1","","","","","","","",""
"","html-keyboard-response","247","945136","0.0-133.0-1.0","""event"",""trial"",""time""
""fullscreenenter"",""0"",""3739""
","
","
","""event"",""trial"",""time""
""fullscreenenter"",""0"",""3739""
","
","null","<p></p>","null","","","","","","","","","","","","","","","","","","","","","","",""
"","do_trial","248","950132","0.0-134.0-0.0","""event"",""trial"",""time""
""fullscreenenter"",""0"",""3739""
","
","
","""event"",""trial"",""time""
""fullscreenenter"",""0"",""3739""
","
","392.19999980926514","","","","","","","","50","1,1,0","2","city","76","probe-41","0.324463196828357","0.6599484042821151","0.17603499051578958","1","","","","","","","",""
"","html-keyboard-response","249","951141","0.0-134.0-1.0","""event"",""trial"",""time""
""fullscreenenter"",""0"",""3739""
","
","
","""event"",""trial"",""time""
""fullscreenenter"",""0"",""3739""
","
","null","<p></p>","null","","","","","","","","","","","","","","","","","","","","","","",""
"","do_trial","250","956147","0.0-135.0-0.0","""event"",""trial"",""time""
""fullscreenenter"",""0"",""3739""
","
","
","""event"",""trial"",""time""
""fullscreenenter"",""0"",""3739""
","
","450.90000009536743","","","","","","","","50","0,1,0","2","city","77","probe-141","0.32635530385130374","0.855883723309513","0.27699116117550654","1","","","","","","","",""
"","html-keyboard-response","251","957150","0.0-135.0-1.0","""event"",""trial"",""time""
""fullscreenenter"",""0"",""3739""
","
","
","""event"",""trial"",""time""
""fullscreenenter"",""0"",""3739""
","
","null","<p></p>","null","","","","","","","","","","","","","","","","","","","","","","",""
"","do_trial","252","962300","0.0-136.0-0.0","""event"",""trial"",""time""
""fullscreenenter"",""0"",""3739""
","
","
","""event"",""trial"",""time""
""fullscreenenter"",""0"",""3739""
","
","561.9000000953674","","","","","","","","50","0,1,1","2","city","78","probe-216","0.28467033667418035","0.8246549738689616","0.26091296395657193","1","","","","","","","",""
"","html-keyboard-response","253","963318","0.0-136.0-1.0","""event"",""trial"",""time""
""fullscreenenter"",""0"",""3739""
","
","
","""event"",""trial"",""time""
""fullscreenenter"",""0"",""3739""
","
","null","<p></p>","null","","","","","","","","","","","","","","","","","","","","","","",""
"","do_trial","254","968302","0.0-137.0-0.0","""event"",""trial"",""time""
""fullscreenenter"",""0"",""3739""
","
","
","""event"",""trial"",""time""
""fullscreenenter"",""0"",""3739""
","
","400.2000002861023","","","","","","","","50","0,1,0","2","city","79","probe-210","0.24384320574057378","0.6288843748827223","0.21384407157611487","1","","","","","","","",""
"","html-keyboard-response","255","969314","0.0-137.0-1.0","""event"",""trial"",""time""
""fullscreenenter"",""0"",""3739""
","
","
","""event"",""trial"",""time""
""fullscreenenter"",""0"",""3739""
","
","null","<p></p>","null","","","","","","","","","","","","","","","","","","","","","","",""
"","do_trial","256","974489","0.0-138.0-0.0","""event"",""trial"",""time""
""fullscreenenter"",""0"",""3739""
","
","
","""event"",""trial"",""time""
""fullscreenenter"",""0"",""3739""
","
","593.5999999046326","","","","","","","","50","1,1,0","2","city","80","probe-193","0.2899927541365814","0.6994207710487578","0.26210025815823046","1","","","","","","","",""
"","html-keyboard-response","257","975497","0.0-138.0-1.0","""event"",""trial"",""time""
""fullscreenenter"",""0"",""3739""
","
","
","""event"",""trial"",""time""
""fullscreenenter"",""0"",""3739""
","
","null","<p></p>","null","","","","","","","","","","","","","","","","","","","","","","",""
"","do_trial","258","980109","0.0-139.0-0.0","""event"",""trial"",""time""
""fullscreenenter"",""0"",""3739""
","
","
","""event"",""trial"",""time""
""fullscreenenter"",""0"",""3739""
","
","34.19999980926514","","","","","","","","50","0,1,0","2","city","81","probe-87","0.2337423020245381","0.6341143502187399","0.2840621953800051","1","","","","","","","",""
"","html-keyboard-response","259","981114","0.0-139.0-1.0","""event"",""trial"",""time""
""fullscreenenter"",""0"",""3739""
","
","
","""event"",""trial"",""time""
""fullscreenenter"",""0"",""3739""
","
","null","<p></p>","null","","","","","","","","","","","","","","","","","","","","","","",""
"","do_trial","260","986467","0.0-140.0-0.0","""event"",""trial"",""time""
""fullscreenenter"",""0"",""3739""
","
","
","""event"",""trial"",""time""
""fullscreenenter"",""0"",""3739""
","
","788.7999997138977","","","","","","","","50","1,1,0","2","city","82","probe-225","0.19362933755488906","0.5263593809101991","0.22063169780601338","1","","","","","","","",""
"","html-keyboard-response","261","987476","0.0-140.0-1.0","""event"",""trial"",""time""
