"success","trial_type","trial_index","time_elapsed","internal_node_id","interactions","blur_events","focus_events","fullscreenenter_events","fullscreenexit_events","rt","stimulus","key_press","subject_id","participant_id","age","gender","prompt","response","choice_outcomes","context_n","context_img_id","trial_n","probe_img_id","pR_red","pR_white","pR_black","outcome","contextArray_ind","validImageProbes","invalidImageProbes","pRew_Red","pRew_White","pRew_Black","availableForMemProbe","choice_blocks"
"true","fullscreen","0","4321","0.0-0.0","""event"",""trial"",""time""
""fullscreenenter"",""0"",""3344""
","
","
","""event"",""trial"",""time""
""fullscreenenter"",""0"",""3344""
","
","","","","","","","","","","","","","","","","","","","","","","","","","",""
"","pavlovia","1","4323","0.0-1.0","""event"",""trial"",""time""
""fullscreenenter"",""0"",""3344""
","
","
","""event"",""trial"",""time""
""fullscreenenter"",""0"",""3344""
","
","","","","","","","","","","","","","","","","","","","","","","","","","",""
"","instruc1","2","49423","0.0-2.0","""event"",""trial"",""time""
""fullscreenenter"",""0"",""3344""
","
","
","""event"",""trial"",""time""
""fullscreenenter"",""0"",""3344""
","
","null","run_exp/static/audio/clip_1_welcome.m4a","null","357","787","22","Female","<div class='center'><p>Welcome! This is the first part of the study. It will last ~30 minutes. In part 1 and part 2 of the study, you are the head captain of a pirate ship traveling around the world to different islands. You will play a few different games throughout these two parts. Here is an overview of them:</p><br><p>Part 1 (today)</p><p>1. Instructions, practice game, and quiz</p><p>2. Pick a pirate game on 6 different islands</p><br><p>Part 2 (tomorrow)</p><p>3. Pick a pirate game and memory game</p><p>4. Where did you see this ship? </p></div>","","","","","","","","","","","","","","","","","",""
"","html-keyboard-response","3","61310","0.0-3.0","""event"",""trial"",""time""
""fullscreenenter"",""0"",""3344""
","
","
","""event"",""trial"",""time""
""fullscreenenter"",""0"",""3344""
","
","11892.199999988079","<div class='center'><p>Welcome! This is the first part of the study. It will last ~30 minutes. In part 1 and part 2 of the study, you are the head captain of a pirate ship traveling around the world to different islands. You will play a few different games throughout these two parts. Here is an overview of them:</p><br><p>Part 1 (today)</p><p>1. Instructions, practice game, and quiz</p><p>2. Pick a pirate game on 6 different islands</p><br><p>Part 2 (tomorrow)</p><p>3. Pick a pirate game and memory game</p><p>4. Where did you see this ship? </p><p><b>[Press the space bar to continue]</b></p></div>","32","","","","","","","","","","","","","","","","","","","","","","",""
"","instruc2","4","66595","0.0-4.0","""event"",""trial"",""time""
""fullscreenenter"",""0"",""3344""
","
","
","""event"",""trial"",""time""
""fullscreenenter"",""0"",""3344""
","
","null","run_exp/static/audio/clip_2_different_places.m4a","null","","","","","<div class='center'><p>Today, you’ll visit these 6 islands on your journey. You'll be able to see these islands from your ship.</p><p><img src='run_exp/static/images/contexts/all_contexts.png' height='500'></p></div>","","","","","","","","","","","","","","","","","",""
"","html-keyboard-response","5","79138","0.0-5.0","""event"",""trial"",""time""
""fullscreenenter"",""0"",""3344""
","
","
","""event"",""trial"",""time""
""fullscreenenter"",""0"",""3344""
","
","12541.199999988079","<div class='center'><p>Today, you’ll visit these 6 islands on your journey. You'll be able to see these islands from your ship.</p><p><img src='run_exp/static/images/contexts/all_contexts.png' height='500'></p><p><b>[Press the space bar to continue]</b></p></div>","32","","","","","","","","","","","","","","","","","","","","","","",""
"","instruc3","6","88805","0.0-6.0","""event"",""trial"",""time""
""fullscreenenter"",""0"",""3344""
","
","
","""event"",""trial"",""time""
""fullscreenenter"",""0"",""3344""
","
","null","run_exp/static/audio/clip_3_goal_of_game_1.m4a","null","","","","","<div class='center'><p> The pirates on your ship will rob other ships as they leave the island.</p> These ships have just sold their goods to the islanders, so they will be filled with lots and lots of gold.</p><p><img src='run_exp/static/images/tutorial/ship_center.png' height='400'></p></div>","","","","","","","","","","","","","","","","","",""
"","html-keyboard-response","7","90618","0.0-7.0","""event"",""trial"",""time""
""fullscreenenter"",""0"",""3344""
","
","
","""event"",""trial"",""time""
""fullscreenenter"",""0"",""3344""
","
","1811.699999988079","<div class='center'><p> The pirates on your ship will rob other ships as they leave the island.</p> These ships have just sold their goods to the islanders, so they will be filled with lots and lots of gold.</p><p><img src='run_exp/static/images/tutorial/ship_center.png' height='400'></p><p><b>[Press the space bar to continue]</b></p></div>","32","","","","","","","","","","","","","","","","","","","","","","",""
"","instruc4","8","118605","0.0-8.0","""event"",""trial"",""time""
""fullscreenenter"",""0"",""3344""
","
","
","""event"",""trial"",""time""
""fullscreenenter"",""0"",""3344""
","
","null","run_exp/static/audio/clip_4_goal_of_game_2.m4a","null","","","","","<div class='center'><p>As the head captain, you do not have to rob any ships yourself. Another pirate will be doing the robbing for you. First, you will choose a pirate to rob the next ship.</p><p><img src='run_exp/static/images/tutorial/pirates_all_crop.png' height='200'></p><p>Then, you'll see if the pirate successfully robbed the ship of their gold. If they were successful, then you'll get a stack of gold coins like this:</p><p><img src='run_exp/static/images/tutorial/reward.png' height='150'></p><p> If they were <b>not</b> successful, then you'll get no gold coins, and you'll see a big red x like this: </p><p><img src='run_exp/static/images/tutorial/reward_no.png' height='150'></p><p> How much bonus money you make is based on how many gold coins you collect.</p><div>","","","","","","","","","","","","","","","","","",""
"","html-keyboard-response","9","122907","0.0-9.0","""event"",""trial"",""time""
""fullscreenenter"",""0"",""3344""
","
","
","""event"",""trial"",""time""
""fullscreenenter"",""0"",""3344""
","
","4294.600000023842","<div class='center'><p>As the head captain, you do not have to rob any ships yourself. Another pirate will be doing the robbing for you. First, you will choose a pirate to rob the next ship.</p><p><img src='run_exp/static/images/tutorial/pirates_all_crop.png' height='200'></p><p>Then, you'll see if the pirate successfully robbed the ship of their gold. If they were successful, then you'll get a stack of gold coins like this:</p><p><img src='run_exp/static/images/tutorial/reward.png' height='150'></p><p> If they were <b>not</b> successful, then you'll get no gold coins, and you'll see a big red x like this: </p><p><img src='run_exp/static/images/tutorial/reward_no.png' height='150'></p><p> How much bonus money you make is based on how many gold coins you collect.</p<p><b>[Press the space bar to continue]</b></p></div>","32","","","","","","","","","","","","","","","","","","","","","","",""
"","instruc5","10","144493","0.0-10.0","""event"",""trial"",""time""
""fullscreenenter"",""0"",""3344""
","
","
","""event"",""trial"",""time""
""fullscreenenter"",""0"",""3344""
","
","21584.30000001192","run_exp/static/audio/clip_5_probabilistic.m4a","49","","","","","<div class='center'><p>Even the most skilled pirate can not rob EVERY ship.</p><p> Some ships will have very strong protections against pirate attacks.</p><p> Blue beard, here, is very, very good at robbing ships, but he won't be successful every time he tries to rob one.</p><p> You can press the <b>‘1’</b> key on the keyboard to choose him.</p><p> Try choosing him 10 times to see how often he succeeds at robbing a ship. </p><p><img src='run_exp/static/images/tutorial/blue.png' height='500'></p></div>","","","","","","","","","","","","","","","","","",""
"","html-keyboard-response","11","145995","0.0-11.0","""event"",""trial"",""time""
""fullscreenenter"",""0"",""3344""
","
","
","""event"",""trial"",""time""
""fullscreenenter"",""0"",""3344""
","
","null","<div class='center'><p><img src='run_exp/static/images/tutorial/blue_win.png' height='500'></p></div>","null","","","","","","","","","","","","","","","","","","","","","","",""
"","html-keyboard-response","12","147236","0.0-12.0","""event"",""trial"",""time""
""fullscreenenter"",""0"",""3344""
","
","
","""event"",""trial"",""time""
""fullscreenenter"",""0"",""3344""
","
","1239.6000000238419","<div class='center'><img src='run_exp/static/images/tutorial/blue.png' height='500'></p></div>","49","","","","","","","","","","","","","","","","","","","","","","",""
"","html-keyboard-response","13","148750","0.0-13.0","""event"",""trial"",""time""
""fullscreenenter"",""0"",""3344""
","
","
","""event"",""trial"",""time""
""fullscreenenter"",""0"",""3344""
","
","null","<div class='center'><p><img src='run_exp/static/images/tutorial/blue_win.png' height='500'></p></div>","null","","","","","","","","","","","","","","","","","","","","","","",""
"","html-keyboard-response","14","149061","0.0-14.0","""event"",""trial"",""time""
""fullscreenenter"",""0"",""3344""
","
","
","""event"",""trial"",""time""
""fullscreenenter"",""0"",""3344""
","
","308.89999997615814","<div class='center'><img src='run_exp/static/images/tutorial/blue.png' height='500'></p></div>","49","","","","","","","","","","","","","","","","","","","","","","",""
"","html-keyboard-response","15","150563","0.0-15.0","""event"",""trial"",""time""
""fullscreenenter"",""0"",""3344""
","
","
","""event"",""trial"",""time""
""fullscreenenter"",""0"",""3344""
","
","null","<div class='center'><p><img src='run_exp/static/images/tutorial/blue_win.png' height='500'></p></div>","null","","","","","","","","","","","","","","","","","","","","","","",""
"","html-keyboard-response","16","150830","0.0-16.0","""event"",""trial"",""time""
""fullscreenenter"",""0"",""3344""
","
","
","""event"",""trial"",""time""
""fullscreenenter"",""0"",""3344""
","
","265","<div class='center'><img src='run_exp/static/images/tutorial/blue.png' height='500'></p></div>","49","","","","","","","","","","","","","","","","","","","","","","",""
"","html-keyboard-response","17","152350","0.0-17.0","""event"",""trial"",""time""
""fullscreenenter"",""0"",""3344""
","
","
","""event"",""trial"",""time""
""fullscreenenter"",""0"",""3344""
","
","null","<div class='center'><p><img src='run_exp/static/images/tutorial/blue_no_win.png' height='500'></p></div>","null","","","","","","","","","","","","","","","","","","","","","","",""
"","html-keyboard-response","18","154518","0.0-18.0","""event"",""trial"",""time""
""fullscreenenter"",""0"",""3344""
","
","
","""event"",""trial"",""time""
""fullscreenenter"",""0"",""3344""
","
","2166.400000035763","<div class='center'><img src='run_exp/static/images/tutorial/blue.png' height='500'></p></div>","49","","","","","","","","","","","","","","","","","","","","","","",""
"","html-keyboard-response","19","156030","0.0-19.0","""event"",""trial"",""time""
""fullscreenenter"",""0"",""3344""
","
","
","""event"",""trial"",""time""
""fullscreenenter"",""0"",""3344""
","
","null","<div class='center'><p><img src='run_exp/static/images/tutorial/blue_win.png' height='500'></p></div>","null","","","","","","","","","","","","","","","","","","","","","","",""
"","html-keyboard-response","20","156437","0.0-20.0","""event"",""trial"",""time""
""fullscreenenter"",""0"",""3344""
","
","
","""event"",""trial"",""time""
""fullscreenenter"",""0"",""3344""
","
","406.19999998807907","<div class='center'><img src='run_exp/static/images/tutorial/blue.png' height='500'></p></div>","49","","","","","","","","","","","","","","","","","","","","","","",""
"","html-keyboard-response","21","157942","0.0-21.0","""event"",""trial"",""time""
""fullscreenenter"",""0"",""3344""
","
","
","""event"",""trial"",""time""
""fullscreenenter"",""0"",""3344""
","
","null","<div class='center'><p><img src='run_exp/static/images/tutorial/blue_win.png' height='500'></p></div>","null","","","","","","","","","","","","","","","","","","","","","","",""
"","html-keyboard-response","22","158214","0.0-22.0","""event"",""trial"",""time""
""fullscreenenter"",""0"",""3344""
","
","
","""event"",""trial"",""time""
""fullscreenenter"",""0"",""3344""
","
","271.30000001192093","<div class='center'><img src='run_exp/static/images/tutorial/blue.png' height='500'></p></div>","49","","","","","","","","","","","","","","","","","","","","","","",""
"","html-keyboard-response","23","159716","0.0-23.0","""event"",""trial"",""time""
""fullscreenenter"",""0"",""3344""
","
","
","""event"",""trial"",""time""
""fullscreenenter"",""0"",""3344""
","
","null","<div class='center'><p><img src='run_exp/static/images/tutorial/blue_win.png' height='500'></p></div>","null","","","","","","","","","","","","","","","","","","","","","","",""
"","html-keyboard-response","24","159984","0.0-24.0","""event"",""trial"",""time""
""fullscreenenter"",""0"",""3344""
","
","
","""event"",""trial"",""time""
""fullscreenenter"",""0"",""3344""
","
","267.30000001192093","<div class='center'><img src='run_exp/static/images/tutorial/blue.png' height='500'></p></div>","49","","","","","","","","","","","","","","","","","","","","","","",""
"","html-keyboard-response","25","161495","0.0-25.0","""event"",""trial"",""time""
""fullscreenenter"",""0"",""3344""
","
","
","""event"",""trial"",""time""
""fullscreenenter"",""0"",""3344""
","
","null","<div class='center'><p><img src='run_exp/static/images/tutorial/blue_no_win.png' height='500'></p></div>","null","","","","","","","","","","","","","","","","","","","","","","",""
"","html-keyboard-response","26","161733","0.0-26.0","""event"",""trial"",""time""
""fullscreenenter"",""0"",""3344""
","
","
","""event"",""trial"",""time""
""fullscreenenter"",""0"",""3344""
","
","237.5","<div class='center'><img src='run_exp/static/images/tutorial/blue.png' height='500'></p></div>","49","","","","","","","","","","","","","","","","","","","","","","",""
"","html-keyboard-response","27","163250","0.0-27.0","""event"",""trial"",""time""
""fullscreenenter"",""0"",""3344""
","
","
","""event"",""trial"",""time""
""fullscreenenter"",""0"",""3344""
","
","null","<div class='center'><p><img src='run_exp/static/images/tutorial/blue_win.png' height='500'></p></div>","null","","","","","","","","","","","","","","","","","","","","","","",""
"","html-keyboard-response","28","163541","0.0-28.0","""event"",""trial"",""time""
""fullscreenenter"",""0"",""3344""
","
","
","""event"",""trial"",""time""
""fullscreenenter"",""0"",""3344""
","
","290.30000001192093","<div class='center'><img src='run_exp/static/images/tutorial/blue.png' height='500'></p></div>","49","","","","","","","","","","","","","","","","","","","","","","",""
"","html-keyboard-response","29","165060","0.0-29.0","""event"",""trial"",""time""
""fullscreenenter"",""0"",""3344""
","
","
","""event"",""trial"",""time""
""fullscreenenter"",""0"",""3344""
","
","null","<div class='center'><p><img src='run_exp/static/images/tutorial/blue_win.png' height='500'></p></div>","null","","","","","","","","","","","","","","","","","","","","","","",""
"","instruc6","30","170521","0.0-30.0","""event"",""trial"",""time""
""fullscreenenter"",""0"",""3344""
","
","
","""event"",""trial"",""time""
""fullscreenenter"",""0"",""3344""
","
","null","run_exp/static/audio/clip_6_blue_beard_outcome.m4a","null","","","","","<div class='center'><p> See, he succeeded in robbing the ships most of the time but not every time. </p></div>","","","","","","","","","","","","","","","","","",""
"","html-keyboard-response","31","172454","0.0-31.0","""event"",""trial"",""time""
""fullscreenenter"",""0"",""3344""
","
","
","""event"",""trial"",""time""
""fullscreenenter"",""0"",""3344""
","
","1931.5","<div class='center'><p> See, he succeeded in robbing the ships most of the time but not every time. </p><p><b>[Press the space bar to continue]</b></p></div>","32","","","","","","","","","","","","","","","","","","","","","","",""
"","audio-keyboard-response","32","188830","0.0-32.0","""event"",""trial"",""time""
""fullscreenenter"",""0"",""3344""
","
","
","""event"",""trial"",""time""
""fullscreenenter"",""0"",""3344""
","
","16382.699999988079","run_exp/static/audio/clip_7_pick_pirate.m4a","49","","","","","","","","","","","","","","","","","","","","","","",""
"","audio-keyboard-response","33","193769","0.0-33.0-0.0","""event"",""trial"",""time""
""fullscreenenter"",""0"",""3344""
","
","
","""event"",""trial"",""time""
""fullscreenenter"",""0"",""3344""
","
","4936.699999988079","run_exp/static/audio/clip_8_chosen_pirate_win.m4a","32","","","","","","","","","","","","","","","","","","","","","","",""
"","audio-keyboard-response","34","196354","0.0-33.0-1.0","""event"",""trial"",""time""
""fullscreenenter"",""0"",""3344""
","
","
","""event"",""trial"",""time""
""fullscreenenter"",""0"",""3344""
","
","2583.600000023842","run_exp/static/audio/clip_9_pick_a_pirate_again.m4a","50","","","","","","","","","","","","","","","","","","","","","","",""
"","audio-keyboard-response","35","200520","0.0-34.0-0.0","""event"",""trial"",""time""
""fullscreenenter"",""0"",""3344""
","
","
","""event"",""trial"",""time""
""fullscreenenter"",""0"",""3344""
","
","4164.600000023842","run_exp/static/audio/clip_10_chosen_pirate_loss.m4a","32","","","","","","","","","","","","","","","","","","","","","","",""
"","instruc9","36","206013","0.0-35.0-0.0","""event"",""trial"",""time""
""fullscreenenter"",""0"",""3344""
","
","
","""event"",""trial"",""time""
""fullscreenenter"",""0"",""3344""
","
","null","run_exp/static/audio/clip_11_time_out.m4a","null","","","","","<div class='center'><p>If you don’t make your choice fast enough, you’ll have to wait a few seconds before you can make another one. </p><p><img src='run_exp/static/images/miscellaneous/hurry_up.png' height='500'></p></div>","","","","","","","","","","","","","","","","","",""
"","html-keyboard-response","37","206943","0.0-35.0-1.0","""event"",""trial"",""time""
""fullscreenenter"",""0"",""3344""
","
","
","""event"",""trial"",""time""
""fullscreenenter"",""0"",""3344""
","
","928","<div class='center'><p>If you don’t make your choice fast enough, you’ll have to wait a few seconds before you can make another one. </p><p><img src='run_exp/static/images/miscellaneous/hurry_up.png' height='500'></p><p><b>[Press the space bar to continue]</b></p></div>","32","","","","","","","","","","","","","","","","","","","","","","",""
"","instruc10","38","246033","0.0-35.0-2.0","""event"",""trial"",""time""
""fullscreenenter"",""0"",""3344""
","
","
","""event"",""trial"",""time""
""fullscreenenter"",""0"",""3344""
","
","null","run_exp/static/audio/clip_12_probe.m4a","null","","","","","<div class='center'><p>Once you've chosen a pirate, you’ll be shown the ship they are robbing. You will never rob the same ship twice. Ships can be told apart from one another by the image on them. These are the goods that they sell. See, this ship has a travel mug on it. </p><p> You’ll have to remember which island you saw each ship on. You will win more gold coins and hence more bonus money if you remember correctly! To help you remember, you can imagine a story. For example, here, you could imagine a mug full of water in the desert. Or, as another example, if on the forest island, your pirate robbed a ship with an apple on it, you could imagine an apple falling from a tree in the forest. </p><p><img src='run_exp/static/images/tutorial/example_probe.png' height='500'></p></div>","","","","","","","","","","","","","","","","","",""
"","html-keyboard-response","39","246857","0.0-35.0-3.0","""event"",""trial"",""time""
""fullscreenenter"",""0"",""3344""
","
","
","""event"",""trial"",""time""
""fullscreenenter"",""0"",""3344""
","
","822.3000000119209","<div class='center'><p>Once you've chosen a pirate, you’ll be shown the ship they are robbing. You will never rob the same ship twice. Ships can be told apart from one another by the image on them. These are the goods that they sell. See, this ship has a travel mug on it. </p><p> You’ll have to remember which island you saw each ship on. You will win more gold coins and hence more bonus money if you remember correctly! To help you remember, you can imagine a story. For example, here, you could imagine a mug full of water in the desert. Or, as another example, if on the forest island, your pirate robbed a ship with an apple on it, you could imagine an apple falling from a tree in the forest. </p><p><img src='run_exp/static/images/tutorial/example_probe.png' height='500'></p><p><b>[Press the space bar to continue]</b></p></div>","32","","","","","","","","","","","","","","","","","","","","","","",""
"","instruc11","40","263282","0.0-35.0-4.0","""event"",""trial"",""time""
""fullscreenenter"",""0"",""3344""
","
","
","""event"",""trial"",""time""
""fullscreenenter"",""0"",""3344""
","
","null","run_exp/static/audio/clip_13_changepoint.m4a","null","","","","","<div class='center'><p>How successful a pirate is at robbing ships will depend on the island you’re on.</p><p> A pirate may have visited this island many times before and gained a lot of practice robbing ships there.</p><p>So, they’re more likely to be successful than a pirate who has never visited the island before.</p></div>","","","","","","","","","","","","","","","","","",""
"","html-keyboard-response","41","265166","0.0-35.0-5.0","""event"",""trial"",""time""
""fullscreenenter"",""0"",""3344""
","
","
","""event"",""trial"",""time""
""fullscreenenter"",""0"",""3344""
","
","1883.7000000476837","<div class='center'><p>How successful a pirate is at robbing ships will depend on the island you’re on.</p><p> A pirate may have visited this island many times before and gained a lot of practice robbing ships there.</p><p>So, they’re more likely to be successful than a pirate who has never visited the island before.</p><p><b>[Press the space bar to continue]</b></p></div>","32","","","","","","","","","","","","","","","","","","","","","","",""
"","instruc12","42","306261","0.0-35.0-6.0","""event"",""trial"",""time""
""fullscreenenter"",""0"",""3344""
","
","
","""event"",""trial"",""time""
""fullscreenenter"",""0"",""3344""
","
","null","run_exp/static/audio/clip_14_drift.m4a","null","","","","","<div class='center'><p>How successful a pirate is at robbing ships can also change over the time spent on the island. </p><p> Ships may hear from islanders about the pirates coming and will improve their protections against the attack. This may make it harder to rob them.</p><p> Ships may also become lazy and weaken the strength of their protections. This may make it easier to rob them.</p><br><p>Things are always changing on the high seas! So, try your best to pay attention!</p><p><img src='run_exp/static/images/tutorial/contingency.png' height='500'></p></div>","","","","","","","","","","","","","","","","","",""
"","html-keyboard-response","43","308020","0.0-35.0-7.0","""event"",""trial"",""time""
""fullscreenenter"",""0"",""3344""
","
","
","""event"",""trial"",""time""
""fullscreenenter"",""0"",""3344""
","
","1757.7000000476837","<div class='center'><p>How successful a pirate is at robbing ships can also change over the time spent on the island. </p><p> Ships may hear from islanders about the pirates coming and will improve their protections against the attack. This may make it harder to rob them.</p><p> Ships may also become lazy and weaken the strength of their protections. This may make it easier to rob them.</p><br><p>Things are always changing on the high seas! So, try your best to pay attention!</p><p><img src='run_exp/static/images/tutorial/contingency.png' height='500'></p><p><b>[Press the space bar to continue]</b></p></div>","32","","","","","","","","","","","","","","","","","","","","","","",""
"","instruc13","44","343200","0.0-35.0-8.0","""event"",""trial"",""time""
""fullscreenenter"",""0"",""3344""
","
","
","""event"",""trial"",""time""
""fullscreenenter"",""0"",""3344""
","
","null","run_exp/static/audio/clip_15_summary.m4a","null","","","","","<div class='center'><p>Let's go over the instructions quickly again. You have two important things to do: </p><b><p> 1. Pick the pirate who is the best at robbing ships on the current island. </p></b><b><p> 2. Remember on which island a ship was robbed.</p> </b><p>The amount of bonus money you can win depends on both.</p><p><br><p>Let’s try a practice game. The game will start by showing you the pirates. First, pick a pirate using the <b> 1, 2, 3 </b> keys on your keyboard. When you are shown a ship, try to remember which island you’re on by making up a story.</p><p>This is just a practice game, so you’re not playing for money. </p><p> Good luck! This game will be very difficult but try your best!</p></div>","","","","","","","","","","","","","","","","","",""
"","html-keyboard-response","45","343559","0.0-35.0-9.0","""event"",""trial"",""time""
""fullscreenenter"",""0"",""3344""
","
","
","""event"",""trial"",""time""
""fullscreenenter"",""0"",""3344""
","
","357.39999997615814","<div class='center'><p>Let's go over the instructions quickly again. You have two important things to do: </p><b><p> 1. Pick the pirate who is the best at robbing ships on the current island. </p></b><b><p> 2. Remember on which island a ship was robbed.</p> </b><p>The amount of bonus money you can win depends on both.</p><p><br><p>Let’s try a practice game. The game will start by showing you the pirates. First, pick a pirate using the <b> 1, 2, 3 </b> keys on your keyboard. When you are shown a ship, try to remember which island you’re on by making up a story.</p><p>This is just a practice game, so you’re not playing for money. </p><p> Good luck! This game will be very difficult but try your best!</p><p><b>[Press the space bar to continue]</b></p></div>","32","","","","","","","","","","","","","","","","","","","","","","",""
"","do_welcome","46","347574","0.0-35.0-10.0","""event"",""trial"",""time""
""fullscreenenter"",""0"",""3344""
","
","
","""event"",""trial"",""time""
""fullscreenenter"",""0"",""3344""
","
","null","","","","","","","","null","","","","","","","","","","","","","","","","",""
"","do_trial","47","353608","0.0-35.0-11.0","""event"",""trial"",""time""
""fullscreenenter"",""0"",""3344""
","
","
","""event"",""trial"",""time""
""fullscreenenter"",""0"",""3344""
","
","null","","","","","","","","null","1,0,0","","","","","","","","","","","","","","","",""
"","html-keyboard-response","48","354624","0.0-36.0-0.0","""event"",""trial"",""time""
""fullscreenenter"",""0"",""3344""
","
","
","""event"",""trial"",""time""
""fullscreenenter"",""0"",""3344""
","
","null","<p></p>","null","","","","","","","","","","","","","","","","","","","","","","",""
"","do_trial","49","359586","0.0-36.0-1.0","""event"",""trial"",""time""
""fullscreenenter"",""0"",""3344""
","
","
","""event"",""trial"",""time""
""fullscreenenter"",""0"",""3344""
","
","451.89999997615814","","","","","","","","50","1,0,0","","","","","","","","","","","","","","","",""
"","html-keyboard-response","50","360589","0.0-37.0-0.0","""event"",""trial"",""time""
""fullscreenenter"",""0"",""3344""
","
","
","""event"",""trial"",""time""
""fullscreenenter"",""0"",""3344""
","
","null","<p></p>","null","","","","","","","","","","","","","","","","","","","","","","",""
"","do_trial","51","365992","0.0-37.0-1.0","""event"",""trial"",""time""
""fullscreenenter"",""0"",""3344""
","
","
","""event"",""trial"",""time""
""fullscreenenter"",""0"",""3344""
","
","885.3999999761581","","","","","","","","50","1,1,0","","","","","","","","","","","","","","","",""
"","html-keyboard-response","52","366997","0.0-38.0-0.0","""event"",""trial"",""time""
""fullscreenenter"",""0"",""3344""
","
","
","""event"",""trial"",""time""
""fullscreenenter"",""0"",""3344""
","
","null","<p></p>","null","","","","","","","","","","","","","","","","","","","","","","",""
"","do_trial","53","373706","0.0-38.0-1.0","""event"",""trial"",""time""
""fullscreenenter"",""0"",""3344""
","
","
","""event"",""trial"",""time""
""fullscreenenter"",""0"",""3344""
","
","2203.300000011921","","","","","","","","49","1,0,1","","","","","","","","","","","","","","","",""
"","html-keyboard-response","54","374719","0.0-39.0-0.0","""event"",""trial"",""time""
""fullscreenenter"",""0"",""3344""
","
","
","""event"",""trial"",""time""
""fullscreenenter"",""0"",""3344""
","
","null","<p></p>","null","","","","","","","","","","","","","","","","","","","","","","",""
"","do_trial","55","380549","0.0-39.0-1.0","""event"",""trial"",""time""
""fullscreenenter"",""0"",""3344""
","
","
","""event"",""trial"",""time""
""fullscreenenter"",""0"",""3344""
","
","1307.699999988079","","","","","","","","49","0,1,0","","","","","","","","","","","","","","","",""
"","html-keyboard-response","56","381569","0.0-40.0-0.0","""event"",""trial"",""time""
""fullscreenenter"",""0"",""3344""
","
","
","""event"",""trial"",""time""
""fullscreenenter"",""0"",""3344""
","
","null","<p></p>","null","","","","","","","","","","","","","","","","","","","","","","",""
"","do_trial","57","388164","0.0-40.0-1.0","""event"",""trial"",""time""
""fullscreenenter"",""0"",""3344""
","
","
","""event"",""trial"",""time""
""fullscreenenter"",""0"",""3344""
","
","2079.300000011921","","","","","","","","50","1,0,0","","","","","","","","","","","","","","","",""
"","do_bye","58","389669","0.0-41.0-0.0","""event"",""trial"",""time""
""fullscreenenter"",""0"",""3344""
","
","
","""event"",""trial"",""time""
""fullscreenenter"",""0"",""3344""
","
","null","","","","","","","","null","","","","","","","","","","","","","","","","",""
"","do_travel","59","398679","0.0-41.0-1.0","""event"",""trial"",""time""
""fullscreenenter"",""0"",""3344""
","
","
","""event"",""trial"",""time""
""fullscreenenter"",""0"",""3344""
","
","null","","","","","","","","null","","","","","","","","","","","","","","","","",""
"","do_welcome","60","402689","0.0-41.0-2.0","""event"",""trial"",""time""
""fullscreenenter"",""0"",""3344""
","
","
","""event"",""trial"",""time""
""fullscreenenter"",""0"",""3344""
","
","null","","","","","","","","null","","","","","","","","","","","","","","","","",""
"","do_trial","61","409361","0.0-41.0-3.0","""event"",""trial"",""time""
""fullscreenenter"",""0"",""3344""
","
","
","""event"",""trial"",""time""
""fullscreenenter"",""0"",""3344""
","
","2160.600000023842","","","","","","","","51","1,0,0","","","","","","","","","","","","","","","",""
"","html-keyboard-response","62","410370","0.0-42.0-0.0","""event"",""trial"",""time""
""fullscreenenter"",""0"",""3344""
","
","
","""event"",""trial"",""time""
""fullscreenenter"",""0"",""3344""
","
","null","<p></p>","null","","","","","","","","","","","","","","","","","","","","","","",""
"","do_trial","63","416650","0.0-42.0-1.0","""event"",""trial"",""time""
""fullscreenenter"",""0"",""3344""
","
","
","""event"",""trial"",""time""
""fullscreenenter"",""0"",""3344""
","
","1758.699999988079","","","","","","","","51","1,0,1","","","","","","","","","","","","","","","",""
"","html-keyboard-response","64","417660","0.0-43.0-0.0","""event"",""trial"",""time""
""fullscreenenter"",""0"",""3344""
","
","
","""event"",""trial"",""time""
""fullscreenenter"",""0"",""3344""
","
","null","<p></p>","null","","","","","","","","","","","","","","","","","","","","","","",""
"","do_trial","65","423522","0.0-43.0-1.0","""event"",""trial"",""time""
""fullscreenenter"",""0"",""3344""
","
","
","""event"",""trial"",""time""
""fullscreenenter"",""0"",""3344""
","
","1347.300000011921","","","","","","","","51","1,1,0","","","","","","","","","","","","","","","",""
"","html-keyboard-response","66","424531","0.0-44.0-0.0","""event"",""trial"",""time""
""fullscreenenter"",""0"",""3344""
","
","
","""event"",""trial"",""time""
""fullscreenenter"",""0"",""3344""
","
","null","<p></p>","null","","","","","","","","","","","","","","","","","","","","","","",""
"","do_trial","67","429811","0.0-44.0-1.0","""event"",""trial"",""time""
""fullscreenenter"",""0"",""3344""
","
","
","""event"",""trial"",""time""
""fullscreenenter"",""0"",""3344""
","
","772.1999999880791","","","","","","","","51","0,0,1","","","","","","","","","","","","","","","",""
"","html-keyboard-response","68","430831","0.0-45.0-0.0","""event"",""trial"",""time""
""fullscreenenter"",""0"",""3344""
","
","
","""event"",""trial"",""time""
""fullscreenenter"",""0"",""3344""
","
","null","<p></p>","null","","","","","","","","","","","","","","","","","","","","","","",""
"","do_trial","69","435491","0.0-45.0-1.0","""event"",""trial"",""time""
""fullscreenenter"",""0"",""3344""
","
","
","""event"",""trial"",""time""
""fullscreenenter"",""0"",""3344""
","
","143.10000002384186","","","","","","","","50","1,0,1","","","","","","","","","","","","","","","",""
"","html-keyboard-response","70","439750","0.0-46.0-0.0","""event"",""trial"",""time""
""fullscreenenter"",""0"",""3344""
","
","
","""event"",""trial"",""time""
""fullscreenenter"",""0"",""3344""
","
","4257.599999964237","<div class='center'><p><img src='run_exp/static/images/tutorial/prac_best_pirate.png'  height='500'></p></div>","51","","","","","","","","","","","","","","","","","","","","","","",""
"","html-keyboard-response","71","441669","0.0-47.0-0.0","""event"",""trial"",""time""
""fullscreenenter"",""0"",""3344""
","
","
","""event"",""trial"",""time""
""fullscreenenter"",""0"",""3344""
","
","1917.699999988079","<div class='center'><p>That's incorrect! Red beard was the best.</p><p><b>[Press the space bar to continue]</b></p></div>","32","","","","","","","","","","","","","","","","","","","","","","",""
"","html-keyboard-response","72","444586","0.0-47.0-1.0","""event"",""trial"",""time""
""fullscreenenter"",""0"",""3344""
","
","
","""event"",""trial"",""time""
""fullscreenenter"",""0"",""3344""
","
","2916.199999988079","<div class='center'><p><img src='run_exp/static/images/tutorial/prac_source.png'  height='500'></p></div>","50","","","","","","","","","","","","","","","","","","","","","","",""
"","html-keyboard-response","73","446024","0.0-48.0-0.0","""event"",""trial"",""time""
""fullscreenenter"",""0"",""3344""
","
","
","""event"",""trial"",""time""
""fullscreenenter"",""0"",""3344""
","
","1437.300000011921","<div class='center'><p>That's correct! You saw this ship on the cavern island.</p><p><b>[Press the space bar to continue]</b></p></div>","32","","","","","","","","","","","","","","","","","","","","","","",""
"","quiz_beginning","74","457272","0.0-48.0-1.0","""event"",""trial"",""time""
""fullscreenenter"",""0"",""3344""
","
","
","""event"",""trial"",""time""
""fullscreenenter"",""0"",""3344""
","
","null","run_exp/static/audio/clip_16_quiz_intro.m4a","null","","","","","<div class='center'><p>Good job on the practice game! Now, you will be asked some true or false questions to make sure you really understand the rules of the game.</p><p> Press <b>'1'</b> on the keyboard for true and press <b>'2'</b> for false.</p></div>","","","","","","","","","","","","","","","","","",""
"","audio-keyboard-response","75","463246","0.0-48.0-2.0","""event"",""trial"",""time""
""fullscreenenter"",""0"",""3344""
","
","
","""event"",""trial"",""time""
""fullscreenenter"",""0"",""3344""
","
","5973.600000023842","run_exp/static/audio/clip_17_q1.m4a","49","","","","","","","","","","","","","","","","","","","","","","",""
"","correct","76","465650","0.0-49.0-0.0","""event"",""trial"",""time""
""fullscreenenter"",""0"",""3344""
","
","
","""event"",""trial"",""time""
""fullscreenenter"",""0"",""3344""
","
","null","run_exp/static/audio/clip_18_correct.m4a","null","","","","","<div class='center'><p>That's correct!</p></div>","","","","","","","","","","","","","","","","","",""
"","html-keyboard-response","77","466686","0.0-49.0-1.0","""event"",""trial"",""time""
""fullscreenenter"",""0"",""3344""
","
","
","""event"",""trial"",""time""
""fullscreenenter"",""0"",""3344""
","
","1035.199999988079","<div class='center'><p>That's correct!</p><p><b>[Press the space bar to continue]</b></p></div>","32","","","","","","","","","","","","","","","","","","","","","","",""
"","audio-keyboard-response","78","472778","0.0-49.0-2.0","""event"",""trial"",""time""
""fullscreenenter"",""0"",""3344""
","
","
","""event"",""trial"",""time""
""fullscreenenter"",""0"",""3344""
","
","6090.699999988079","run_exp/static/audio/clip_20_q2.m4a","50","","","","","","","","","","","","","","","","","","","","","","",""
"","correct","79","475170","0.0-50.0-0.0","""event"",""trial"",""time""
""fullscreenenter"",""0"",""3344""
","
","
","""event"",""trial"",""time""
""fullscreenenter"",""0"",""3344""
","
","null","run_exp/static/audio/clip_18_correct.m4a","null","","","","","<div class='center'><p>That's correct!</p></div>","","","","","","","","","","","","","","","","","",""
"","html-keyboard-response","80","475952","0.0-50.0-1.0","""event"",""trial"",""time""
""fullscreenenter"",""0"",""3344""
","
","
","""event"",""trial"",""time""
""fullscreenenter"",""0"",""3344""
","
","781.6999999880791","<div class='center'><p>That's correct!</p><p><b>[Press the space bar to continue]</b></p></div>","32","","","","","","","","","","","","","","","","","","","","","","",""
"","audio-keyboard-response","81","482132","0.0-50.0-2.0","""event"",""trial"",""time""
""fullscreenenter"",""0"",""3344""
","
","
","""event"",""trial"",""time""
""fullscreenenter"",""0"",""3344""
","
","6179.5","run_exp/static/audio/clip_22_q3.m4a","50","","","","","","","","","","","","","","","","","","","","","","",""
"","correct","82","484530","0.0-51.0-0.0","""event"",""trial"",""time""
""fullscreenenter"",""0"",""3344""
","
","
","""event"",""trial"",""time""
""fullscreenenter"",""0"",""3344""
","
","null","run_exp/static/audio/clip_18_correct.m4a","null","","","","","<div class='center'><p>That's correct!</p></div>","","","","","","","","","","","","","","","","","",""
"","html-keyboard-response","83","485129","0.0-51.0-1.0","""event"",""trial"",""time""
""fullscreenenter"",""0"",""3344""
","
","
","""event"",""trial"",""time""
""fullscreenenter"",""0"",""3344""
","
","597.7000000476837","<div class='center'><p>That's correct!</p><p><b>[Press the space bar to continue]</b></p></div>","32","","","","","","","","","","","","","","","","","","","","","","",""
"","audio-keyboard-response","84","489179","0.0-51.0-2.0","""event"",""trial"",""time""
""fullscreenenter"",""0"",""3344""
","
","
","""event"",""trial"",""time""
""fullscreenenter"",""0"",""3344""
","
","4049.199999988079","run_exp/static/audio/clip_24_q4.m4a","49","","","","","","","","","","","","","","","","","","","","","","",""
"","correct","85","491591","0.0-52.0-0.0","""event"",""trial"",""time""
""fullscreenenter"",""0"",""3344""
","
","
","""event"",""trial"",""time""
""fullscreenenter"",""0"",""3344""
","
","null","run_exp/static/audio/clip_18_correct.m4a","null","","","","","<div class='center'><p>That's correct!</p></div>","","","","","","","","","","","","","","","","","",""
"","html-keyboard-response","86","492090","0.0-52.0-1.0","""event"",""trial"",""time""
""fullscreenenter"",""0"",""3344""
","
","
","""event"",""trial"",""time""
""fullscreenenter"",""0"",""3344""
","
","498.5","<div class='center'><p>That's correct!</p><p><b>[Press the space bar to continue]</b></p></div>","32","","","","","","","","","","","","","","","","","","","","","","",""
"","q_all_corr","87","500570","0.0-53.0-0.0","""event"",""trial"",""time""
""fullscreenenter"",""0"",""3344""
","
","
","""event"",""trial"",""time""
""fullscreenenter"",""0"",""3344""
","
","null","run_exp/static/audio/clip_27_quiz_all_correct.m4a","null","","","","","<div class='center'><p>Good job! You’re now ready to move on to the real game! Remember this game will be difficult but don't get discouraged and try your best!</p></div>","","","","","","","","","","","","","","","","","",""
"","html-keyboard-response","88","501311","0.0-53.0-1.0","""event"",""trial"",""time""
""fullscreenenter"",""0"",""3344""
","
","
","""event"",""trial"",""time""
""fullscreenenter"",""0"",""3344""
","
","739.3999999761581","<div class='center'><p>Good job! You’re now ready to move on to the real game! Remember this game will be difficult but don't get discouraged and try your best!</p><p><b>[Press the space bar to continue]</b></p></div>","32","","","","","","","","","","","","","","","","","","","","","","",""
"","do_welcome","89","505316","0.0-54.0-0.0","""event"",""trial"",""time""
""fullscreenenter"",""0"",""3344""
","
","
","""event"",""trial"",""time""
""fullscreenenter"",""0"",""3344""
","
","null","","","","","","","","null","","","","","","","","","","","","","","","","",""
"","do_trial","90","511500","0.0-55.0-0.0","""event"",""trial"",""time""
""fullscreenenter"",""0"",""3344""
","
","
","""event"",""trial"",""time""
""fullscreenenter"",""0"",""3344""
","
","1641","","","","","","","","49","0,0,0","0","forest","0","probe-39","0.6","0.3","0.1","0","","","","","","","",""
"","html-keyboard-response","91","512508","0.0-55.0-1.0","""event"",""trial"",""time""
""fullscreenenter"",""0"",""3344""
","
","
","""event"",""trial"",""time""
""fullscreenenter"",""0"",""3344""
","
","null","<p></p>","null","","","","","","","","","","","","","","","","","","","","","","",""
"","do_trial","92","518000","0.0-56.0-0.0","""event"",""trial"",""time""
""fullscreenenter"",""0"",""3344""
","
","
","""event"",""trial"",""time""
""fullscreenenter"",""0"",""3344""
","
","948.3999999761581","","","","","","","","49","0,0,0","0","forest","1","probe-156","0.6624838893504663","0.1887488914043712","0.1718473737492614","0","","","","","","","",""
"","html-keyboard-response","93","519020","0.0-56.0-1.0","""event"",""trial"",""time""
""fullscreenenter"",""0"",""3344""
","
","
","""event"",""trial"",""time""
""fullscreenenter"",""0"",""3344""
","
","null","<p></p>","null","","","","","","","","","","","","","","","","","","","","","","",""
"","do_trial","94","524612","0.0-57.0-0.0","""event"",""trial"",""time""
""fullscreenenter"",""0"",""3344""
","
","
","""event"",""trial"",""time""
""fullscreenenter"",""0"",""3344""
","
","1049","","","","","","","","50","0,0,0","0","forest","2","probe-119","0.6763453660625766","0.3330341556118395","0.30714258729834026","0","","","","","","","",""
"","html-keyboard-response","95","525630","0.0-57.0-1.0","""event"",""trial"",""time""
""fullscreenenter"",""0"",""3344""
","
","
","""event"",""trial"",""time""
""fullscreenenter"",""0"",""3344""
","
","null","<p></p>","null","","","","","","","","","","","","","","","","","","","","","","",""
"","do_trial","96","531331","0.0-58.0-0.0","""event"",""trial"",""time""
""fullscreenenter"",""0"",""3344""
","
","
","""event"",""trial"",""time""
""fullscreenenter"",""0"",""3344""
","
","1155.5","","","","","","","","50","0,0,0","0","forest","3","probe-13","0.5334221734025756","0.35571931019977654","0.12534811215741398","0","","","","","","","",""
"","html-keyboard-response","97","532346","0.0-58.0-1.0","""event"",""trial"",""time""
""fullscreenenter"",""0"",""3344""
","
","
","""event"",""trial"",""time""
""fullscreenenter"",""0"",""3344""
","
","null","<p></p>","null","","","","","","","","","","","","","","","","","","","","","","",""
"","do_trial","98","537287","0.0-59.0-0.0","""event"",""trial"",""time""
""fullscreenenter"",""0"",""3344""
","
","
","""event"",""trial"",""time""
""fullscreenenter"",""0"",""3344""
","
","398.89999997615814","","","","","","","","51","0,0,0","0","forest","4","probe-28","0.6170016636221828","0.4471061931159184","0.08023227353942707","0","","","","","","","",""
"","html-keyboard-response","99","538296","0.0-59.0-1.0","""event"",""trial"",""time""
""fullscreenenter"",""0"",""3344""
","
","
","""event"",""trial"",""time""
""fullscreenenter"",""0"",""3344""
","
","null","<p></p>","null","","","","","","","","","","","","","","","","","","","","","","",""
"","do_trial","100","543631","0.0-60.0-0.0","""event"",""trial"",""time""
""fullscreenenter"",""0"",""3344""
","
","
","""event"",""trial"",""time""
""fullscreenenter"",""0"",""3344""
","
","799.5999999642372","","","","","","","","51","1,0,0","0","forest","5","probe-207","0.6203201332187156","0.5040403192306553","0.05989521455444347","0","","","","","","","",""
"","html-keyboard-response","101","544650","0.0-60.0-1.0","""event"",""trial"",""time""
""fullscreenenter"",""0"",""3344""
","
","
","""event"",""trial"",""time""
""fullscreenenter"",""0"",""3344""
","
","null","<p></p>","null","","","","","","","","","","","","","","","","","","","","","","",""
"","do_trial","102","550980","0.0-61.0-0.0","""event"",""trial"",""time""
""fullscreenenter"",""0"",""3344""
","
","
","""event"",""trial"",""time""
""fullscreenenter"",""0"",""3344""
","
","1803.1000000238419","","","","","","","","49","1,1,0","0","forest","6","probe-204","0.5950260166886403","0.5263317299939528","0.11162226440692247","1","","","","","","","",""
"","html-keyboard-response","103","551990","0.0-61.0-1.0","""event"",""trial"",""time""
""fullscreenenter"",""0"",""3344""
","
","
","""event"",""trial"",""time""
""fullscreenenter"",""0"",""3344""
","
","null","<p></p>","null","","","","","","","","","","","","","","","","","","","","","","",""
"","do_trial","104","558050","0.0-62.0-0.0","""event"",""trial"",""time""
""fullscreenenter"",""0"",""3344""
","
","
","""event"",""trial"",""time""
""fullscreenenter"",""0"",""3344""
","
","1527.800000011921","","","","","","","","49","1,1,0","0","forest","7","probe-06","0.6410041749614466","0.3691581344770486","0.21224404405479952","1","","","","","","","",""
"","html-keyboard-response","105","559057","0.0-62.0-1.0","""event"",""trial"",""time""
""fullscreenenter"",""0"",""3344""
","
","
","""event"",""trial"",""time""
""fullscreenenter"",""0"",""3344""
","
","null","<p></p>","null","","","","","","","","","","","","","","","","","","","","","","",""
"","do_trial","106","565113","0.0-63.0-0.0","""event"",""trial"",""time""
""fullscreenenter"",""0"",""3344""
","
","
","""event"",""trial"",""time""
""fullscreenenter"",""0"",""3344""
","
","null","","","","","","","","null","1,1,1","0","forest","8","probe-223","0.5626586182080101","0.27131298234292955","0.30826409702062824","","","","","","","","",""
"","html-keyboard-response","107","566131","0.0-63.0-1.0","""event"",""trial"",""time""
""fullscreenenter"",""0"",""3344""
","
","
","""event"",""trial"",""time""
""fullscreenenter"",""0"",""3344""
","
","null","<p></p>","null","","","","","","","","","","","","","","","","","","","","","","",""
"","do_trial","108","571381","0.0-64.0-0.0","""event"",""trial"",""time""
""fullscreenenter"",""0"",""3344""
","
","
","""event"",""trial"",""time""
""fullscreenenter"",""0"",""3344""
","
","709.6999999880791","","","","","","","","50","1,0,1","0","forest","9","probe-222","0.6356490068155661","0.2769506032229744","0.21930283066102493","0","","","","","","","",""
"","html-keyboard-response","109","572400","0.0-64.0-1.0","""event"",""trial"",""time""
""fullscreenenter"",""0"",""3344""
","
","
","""event"",""trial"",""time""
""fullscreenenter"",""0"",""3344""
","
","null","<p></p>","null","","","","","","","","","","","","","","","","","","","","","","",""
"","do_trial","110","577550","0.0-65.0-0.0","""event"",""trial"",""time""
""fullscreenenter"",""0"",""3344""
","
","
","""event"",""trial"",""time""
""fullscreenenter"",""0"",""3344""
","
","614.6999999880791","","","","","","","","49","1,1,0","0","forest","10","probe-63","0.6036757781338491","0.2566622770947467","0.05917272799408575","1","","","","","","","",""
"","html-keyboard-response","111","578558","0.0-65.0-1.0","""event"",""trial"",""time""
""fullscreenenter"",""0"",""3344""
","
","
","""event"",""trial"",""time""
""fullscreenenter"",""0"",""3344""
","
","null","<p></p>","null","","","","","","","","","","","","","","","","","","","","","","",""
"","do_trial","112","584580","0.0-66.0-0.0","""event"",""trial"",""time""
""fullscreenenter"",""0"",""3344""
","
","
","""event"",""trial"",""time""
""fullscreenenter"",""0"",""3344""
","
","1485.5","","","","","","","","49","0,1,0","0","forest","11","probe-16","0.6164706046813352","0.35166750472954433","0.14611671686838615","0","","","","","","","",""
"","html-keyboard-response","113","585583","0.0-66.0-1.0","""event"",""trial"",""time""
""fullscreenenter"",""0"",""3344""
","
","
","""event"",""trial"",""time""
""fullscreenenter"",""0"",""3344""
","
","null","<p></p>","null","","","","","","","","","","","","","","","","","","","","","","",""
"","do_trial","114","590761","0.0-67.0-0.0","""event"",""trial"",""time""
""fullscreenenter"",""0"",""3344""
","
","
","""event"",""trial"",""time""
""fullscreenenter"",""0"",""3344""
","
","632","","","","","","","","51","1,1,0","0","forest","12","probe-167","0.6240558125949717","0.40648957034436395","0.15144270802744358","0","","","","","","","",""
"","html-keyboard-response","115","591777","0.0-67.0-1.0","""event"",""trial"",""time""
""fullscreenenter"",""0"",""3344""
","
","
","""event"",""trial"",""time""
""fullscreenenter"",""0"",""3344""
","
","null","<p></p>","null","","","","","","","","","","","","","","","","","","","","","","",""
"","do_trial","116","596701","0.0-68.0-0.0","""event"",""trial"",""time""
""fullscreenenter"",""0"",""3344""
","
","
","""event"",""trial"",""time""
""fullscreenenter"",""0"",""3344""
","
","388.9000000357628","","","","","","","","50","0,0,0","0","forest","13","probe-57","0.534732026621317","0.270404897536593","0.16637741902522407","0","","","","","","","",""
"","html-keyboard-response","117","597711","0.0-68.0-1.0","""event"",""trial"",""time""
""fullscreenenter"",""0"",""3344""
","
","
","""event"",""trial"",""time""
""fullscreenenter"",""0"",""3344""
","
","null","<p></p>","null","","","","","","","","","","","","","","","","","","","","","","",""
"","do_trial","118","602741","0.0-69.0-0.0","""event"",""trial"",""time""
""fullscreenenter"",""0"",""3344""
","
","
","""event"",""trial"",""time""
""fullscreenenter"",""0"",""3344""
","
","489.30000001192093","","","","","","","","50","1,1,0","0","forest","14","probe-30","0.3387090898939455","0.28319065018698303","0.09643666254214397","1","","","","","","","",""
"","html-keyboard-response","119","603751","0.0-69.0-1.0","""event"",""trial"",""time""
""fullscreenenter"",""0"",""3344""
","
","
","""event"",""trial"",""time""
""fullscreenenter"",""0"",""3344""
","
","null","<p></p>","null","","","","","","","","","","","","","","","","","","","","","","",""
"","do_trial","120","609481","0.0-70.0-0.0","""event"",""trial"",""time""
""fullscreenenter"",""0"",""3344""
","
","
","""event"",""trial"",""time""
""fullscreenenter"",""0"",""3344""
","
","1185.1000000238419","","","","","","","","49","1,0,0","0","forest","15","probe-105","0.5024382969092951","0.39106337261915614","0.10063354183047359","1","","","","","","","",""
"","html-keyboard-response","121","610492","0.0-70.0-1.0","""event"",""trial"",""time""
""fullscreenenter"",""0"",""3344""
","
","
","""event"",""trial"",""time""
""fullscreenenter"",""0"",""3344""
","
","null","<p></p>","null","","","","","","","","","","","","","","","","","","","","","","",""
"","do_trial","122","615861","0.0-71.0-0.0","""event"",""trial"",""time""
""fullscreenenter"",""0"",""3344""
","
","
","""event"",""trial"",""time""
""fullscreenenter"",""0"",""3344""
","
","832.1000000238419","","","","","","","","49","0,0,0","0","forest","16","probe-84","0.5568369031960877","0.4458392091414827","0.20717910810583043","0","","","","","","","",""
"","html-keyboard-response","123","616881","0.0-71.0-1.0","""event"",""trial"",""time""
""fullscreenenter"",""0"",""3344""
","
","
","""event"",""trial"",""time""
""fullscreenenter"",""0"",""3344""
","
","null","<p></p>","null","","","","","","","","","","","","","","","","","","","","","","",""
"","do_trial","124","621691","0.0-72.0-0.0","""event"",""trial"",""time""
""fullscreenenter"",""0"",""3344""
","
","
","""event"",""trial"",""time""
""fullscreenenter"",""0"",""3344""
","
","281.19999998807907","","","","","","","","50","1,0,0","0","forest","17","probe-01","0.5557300707704844","0.27990204079041603","0.15145215428024686","0","","","","","","","",""
"","html-keyboard-response","125","622701","0.0-72.0-1.0","""event"",""trial"",""time""
""fullscreenenter"",""0"",""3344""
","
","
","""event"",""trial"",""time""
""fullscreenenter"",""0"",""3344""
","
","null","<p></p>","null","","","","","","","","","","","","","","","","","","","","","","",""
"","do_trial","126","627671","0.0-73.0-0.0","""event"",""trial"",""time""
""fullscreenenter"",""0"",""3344""
","
","
","""event"",""trial"",""time""
""fullscreenenter"",""0"",""3344""
","
","430.89999997615814","","","","","","","","50","1,0,0","0","forest","18","probe-159","0.5847766782672391","0.3357910820823013","0.1369350937381185","0","","","","","","","",""
"","html-keyboard-response","127","628691","0.0-73.0-1.0","""event"",""trial"",""time""
""fullscreenenter"",""0"",""3344""
","
","
","""event"",""trial"",""time""
""fullscreenenter"",""0"",""3344""
","
","null","<p></p>","null","","","","","","","","","","","","","","","","","","","","","","",""
"","do_trial","128","633701","0.0-74.0-0.0","""event"",""trial"",""time""
""fullscreenenter"",""0"",""3344""
","
","
","""event"",""trial"",""time""
""fullscreenenter"",""0"",""3344""
","
","479.30000001192093","","","","","","","","49","1,1,0","0","forest","19","probe-29","0.5295975581533573","0.28270449375409856","0.1617392708426659","1","","","","","","","",""
"","html-keyboard-response","129","634711","0.0-74.0-1.0","""event"",""trial"",""time""
""fullscreenenter"",""0"",""3344""
","
","
","""event"",""trial"",""time""
""fullscreenenter"",""0"",""3344""
","
","null","<p></p>","null","","","","","","","","","","","","","","","","","","","","","","",""
"","do_trial","130","639871","0.0-75.0-0.0","""event"",""trial"",""time""
""fullscreenenter"",""0"",""3344""
","
","
","""event"",""trial"",""time""
""fullscreenenter"",""0"",""3344""
","
","615.5","","","","","","","","49","1,0,1","0","forest","20","probe-177","0.7222277117369561","0.3618722925749626","0.23163063364910408","1","","","","","","","",""
"","html-keyboard-response","131","640881","0.0-75.0-1.0","""event"",""trial"",""time""
""fullscreenenter"",""0"",""3344""
","
","
","""event"",""trial"",""time""
""fullscreenenter"",""0"",""3344""
","
","null","<p></p>","null","","","","","","","","","","","","","","","","","","","","","","",""
"","do_trial","132","645981","0.0-76.0-0.0","""event"",""trial"",""time""
""fullscreenenter"",""0"",""3344""
","
","
","""event"",""trial"",""time""
""fullscreenenter"",""0"",""3344""
","
","559.8000000119209","","","","","","","","49","1,0,0","0","forest","21","probe-180","0.6674230530849736","0.37775394513409866","0.2609602637493748","1","","","","","","","",""
"","html-keyboard-response","133","647001","0.0-76.0-1.0","""event"",""trial"",""time""
""fullscreenenter"",""0"",""3344""
","
","
","""event"",""trial"",""time""
""fullscreenenter"",""0"",""3344""
","
","null","<p></p>","null","","","","","","","","","","","","","","","","","","","","","","",""
"","do_trial","134","651931","0.0-77.0-0.0","""event"",""trial"",""time""
""fullscreenenter"",""0"",""3344""
","
","
","""event"",""trial"",""time""
""fullscreenenter"",""0"",""3344""
","
","398","","","","","","","","50","0,0,0","0","forest","22","probe-91","0.7221785732780669","0.42345289944872677","0.16893364646185696","0","","","","","","","",""
"","html-keyboard-response","135","652950","0.0-77.0-1.0","""event"",""trial"",""time""
""fullscreenenter"",""0"",""3344""
","
","
","""event"",""trial"",""time""
""fullscreenenter"",""0"",""3344""
","
","null","<p></p>","null","","","","","","","","","","","","","","","","","","","","","","",""
"","do_trial","136","657911","0.0-78.0-0.0","""event"",""trial"",""time""
""fullscreenenter"",""0"",""3344""
","
","
","""event"",""trial"",""time""
""fullscreenenter"",""0"",""3344""
","
","417.4000000357628","","","","","","","","49","1,0,0","0","forest","23","probe-108","0.7765531799524357","0.29656221592081544","0.10960201608352531","1","","","","","","","",""
"","html-keyboard-response","137","658915","0.0-78.0-1.0","""event"",""trial"",""time""
""fullscreenenter"",""0"",""3344""
","
","
","""event"",""trial"",""time""
""fullscreenenter"",""0"",""3344""
","
","null","<p></p>","null","","","","","","","","","","","","","","","","","","","","","","",""
"","do_trial","138","663921","0.0-79.0-0.0","""event"",""trial"",""time""
""fullscreenenter"",""0"",""3344""
","
","
","""event"",""trial"",""time""
""fullscreenenter"",""0"",""3344""
","
","466.30000001192093","","","","","","","","51","1,0,0","0","forest","24","probe-79","0.7222174236697539","0.3169418232185261","0.13459526977861538","0","","","","","","","",""
"","html-keyboard-response","139","664941","0.0-79.0-1.0","""event"",""trial"",""time""
""fullscreenenter"",""0"",""3344""
","
","
","""event"",""trial"",""time""
""fullscreenenter"",""0"",""3344""
","
","null","<p></p>","null","","","","","","","","","","","","","","","","","","","","","","",""
"","do_trial","140","670859","0.0-80.0-0.0","""event"",""trial"",""time""
""fullscreenenter"",""0"",""3344""
","
","
","""event"",""trial"",""time""
""fullscreenenter"",""0"",""3344""
","
","1384.1000000238419","","","","","","","","51","0,0,0","0","forest","25","probe-10","0.6946474627442728","0.4425495619359858","0.20971509173000996","0","","","","","","","",""
"","html-keyboard-response","141","671875","0.0-80.0-1.0","""event"",""trial"",""time""
""fullscreenenter"",""0"",""3344""
","
","
","""event"",""trial"",""time""
""fullscreenenter"",""0"",""3344""
","
","null","<p></p>","null","","","","","","","","","","","","","","","","","","","","","","",""
"","do_trial","142","676821","0.0-81.0-0.0","""event"",""trial"",""time""
""fullscreenenter"",""0"",""3344""
","
","
","""event"",""trial"",""time""
""fullscreenenter"",""0"",""3344""
","
","412.5","","","","","","","","49","1,1,0","0","forest","26","probe-189","0.5883719193473202","0.37520771197172487","0.20643624277304573","1","","","","","","","",""
"","html-keyboard-response","143","677831","0.0-81.0-1.0","""event"",""trial"",""time""
""fullscreenenter"",""0"",""3344""
","
","
","""event"",""trial"",""time""
""fullscreenenter"",""0"",""3344""
","
","null","<p></p>","null","","","","","","","","","","","","","","","","","","","","","","",""
"","do_trial","144","682869","0.0-82.0-0.0","""event"",""trial"",""time""
""fullscreenenter"",""0"",""3344""
","
","
","""event"",""trial"",""time""
""fullscreenenter"",""0"",""3344""
","
","503.69999998807907","","","","","","","","49","1,0,0","0","forest","27","probe-86","0.6727132009814755","0.37056095088666774","0.13226164633567522","1","","","","","","","",""
"","html-keyboard-response","145","683891","0.0-82.0-1.0","""event"",""trial"",""time""
""fullscreenenter"",""0"",""3344""
","
","
","""event"",""trial"",""time""
""fullscreenenter"",""0"",""3344""
","
","null","<p></p>","null","","","","","","","","","","","","","","","","","","","","","","",""
"","do_trial","146","688877","0.0-83.0-0.0","""event"",""trial"",""time""
""fullscreenenter"",""0"",""3344""
","
","
","""event"",""trial"",""time""
""fullscreenenter"",""0"",""3344""
","
","459.0999999642372","","","","","","","","49","1,1,0","0","forest","28","probe-89","0.6375109850334248","0.24530785816669912","0.05410641368324758","1","","","","","","","",""
"","html-keyboard-response","147","689893","0.0-83.0-1.0","""event"",""trial"",""time""
""fullscreenenter"",""0"",""3344""
","
","
","""event"",""trial"",""time""
""fullscreenenter"",""0"",""3344""
","
","null","<p></p>","null","","","","","","","","","","","","","","","","","","","","","","",""
"","do_trial","148","694801","0.0-84.0-0.0","""event"",""trial"",""time""
""fullscreenenter"",""0"",""3344""
","
","
","""event"",""trial"",""time""
""fullscreenenter"",""0"",""3344""
","
","373.60000002384186","","","","","","","","50","1,0,0","0","forest","29","probe-25","0.6037276776105016","0.056881596208586134","0.08679628265150026","0","","","","","","","",""
"","html-keyboard-response","149","695821","0.0-84.0-1.0","""event"",""trial"",""time""
""fullscreenenter"",""0"",""3344""
","
","
","""event"",""trial"",""time""
""fullscreenenter"",""0"",""3344""
","
","null","<p></p>","null","","","","","","","","","","","","","","","","","","","","","","",""
"","do_bye","150","697331","0.0-85.0-0.0","""event"",""trial"",""time""
""fullscreenenter"",""0"",""3344""
","
","
","""event"",""trial"",""time""
""fullscreenenter"",""0"",""3344""
","
","null","","","","","","","","null","","","","","","","","","","","","","","","","",""
"","break","151","706323","0.0-85.0-1.0","""event"",""trial"",""time""
""fullscreenenter"",""0"",""3344""
","
","
","""event"",""trial"",""time""
""fullscreenenter"",""0"",""3344""
","
","8989.699999988079","<div class='center'><p>Time to take a quick break! You have 2 minutes to rest, but you can move on sooner if you'd like.</p><p> Press the <b>space bar</b> to continue.</p></div>","32","","","","","","","","","","","","","","","","","","","","","","",""
"","do_travel","152","715331","0.0-86.0-0.0","""event"",""trial"",""time""
""fullscreenenter"",""0"",""3344""
","
","
","""event"",""trial"",""time""
""fullscreenenter"",""0"",""3344""
","
","null","","","","","","","","null","","","","","","","","","","","","","","","","",""
"","do_welcome","153","719341","0.0-86.0-1.0","""event"",""trial"",""time""
""fullscreenenter"",""0"",""3344""
","
","
","""event"",""trial"",""time""
""fullscreenenter"",""0"",""3344""
","
","null","","","","","","","","null","","","","","","","","","","","","","","","","",""
"","do_trial","154","725391","0.0-87.0-0.0","""event"",""trial"",""time""
""fullscreenenter"",""0"",""3344""
","
","
","""event"",""trial"",""time""
""fullscreenenter"",""0"",""3344""
","
","null","","","","","","","","null","1,0,0","1","city","30","probe-49","1","0.19529535141383114","0.1797464348650516","","","","","","","","",""
"","html-keyboard-response","155","726410","0.0-87.0-1.0","""event"",""trial"",""time""
""fullscreenenter"",""0"",""3344""
","
","
","""event"",""trial"",""time""
""fullscreenenter"",""0"",""3344""
","
","null","<p></p>","null","","","","","","","","","","","","","","","","","","","","","","",""
"","do_trial","156","731390","0.0-88.0-0.0","""event"",""trial"",""time""
""fullscreenenter"",""0"",""3344""
","
","
","""event"",""trial"",""time""
""fullscreenenter"",""0"",""3344""
","
","435.5999999642372","","","","","","","","49","1,0,0","1","city","31","probe-165","1","0.30820480028911446","0.0763991632009225","1","","","","","","","",""
"","html-keyboard-response","157","732410","0.0-88.0-1.0","""event"",""trial"",""time""
""fullscreenenter"",""0"",""3344""
","
","
","""event"",""trial"",""time""
""fullscreenenter"",""0"",""3344""
","
","null","<p></p>","null","","","","","","","","","","","","","","","","","","","","","","",""
"","do_trial","158","737401","0.0-89.0-0.0","""event"",""trial"",""time""
""fullscreenenter"",""0"",""3344""
","
","
","""event"",""trial"",""time""
""fullscreenenter"",""0"",""3344""
","
","456","","","","","","","","50","1,0,0","1","city","32","probe-171","1","0.3623271022965387","0.12094922456892838","0","","","","","","","",""
"","html-keyboard-response","159","738420","0.0-89.0-1.0","""event"",""trial"",""time""
""fullscreenenter"",""0"",""3344""
","
","
","""event"",""trial"",""time""
""fullscreenenter"",""0"",""3344""
","
","null","<p></p>","null","","","","","","","","","","","","","","","","","","","","","","",""
"","do_trial","160","743393","0.0-90.0-0.0","""event"",""trial"",""time""
""fullscreenenter"",""0"",""3344""
","
","
","""event"",""trial"",""time""
""fullscreenenter"",""0"",""3344""
","
","441.60000002384186","","","","","","","","51","1,1,0","1","city","33","probe-85","0.739301106370371","0.5099003414286867","0.05690846278592593","0","","","","","","","",""
"","html-keyboard-response","161","744401","0.0-90.0-1.0","""event"",""trial"",""time""
""fullscreenenter"",""0"",""3344""
","
","
","""event"",""trial"",""time""
""fullscreenenter"",""0"",""3344""
","
","null","<p></p>","null","","","","","","","","","","","","","","","","","","","","","","",""
"","do_trial","162","749778","0.0-91.0-0.0","""event"",""trial"",""time""
""fullscreenenter"",""0"",""3344""
","
","
","""event"",""trial"",""time""
""fullscreenenter"",""0"",""3344""
","
","832.5999999642372","","","","","","","","49","1,0,0","1","city","34","probe-81","0.5443107222814998","0.47923116176865826","0.07904084350879838","1","","","","","","","",""
"","html-keyboard-response","163","750790","0.0-91.0-1.0","""event"",""trial"",""time""
""fullscreenenter"",""0"",""3344""
","
","
","""event"",""trial"",""time""
""fullscreenenter"",""0"",""3344""
","
","null","<p></p>","null","","","","","","","","","","","","","","","","","","","","","","",""
"","do_trial","164","756380","0.0-92.0-0.0","""event"",""trial"",""time""
""fullscreenenter"",""0"",""3344""
","
","
","""event"",""trial"",""time""
""fullscreenenter"",""0"",""3344""
","
","1061.800000011921","","","","","","","","49","0,1,0","1","city","35","probe-170","0.5294358395138459","0.46357176804757977","0.07510620553851861","0","","","","","","","",""
"","html-keyboard-response","165","757390","0.0-92.0-1.0","""event"",""trial"",""time""
""fullscreenenter"",""0"",""3344""
","
","
","""event"",""trial"",""time""
""fullscreenenter"",""0"",""3344""
","
","null","<p></p>","null","","","","","","","","","","","","","","","","","","","","","","",""
"","do_trial","166","762360","0.0-93.0-0.0","""event"",""trial"",""time""
""fullscreenenter"",""0"",""3344""
","
","
","""event"",""trial"",""time""
""fullscreenenter"",""0"",""3344""
","
","439.69999998807907","","","","","","","","50","1,0,0","1","city","36","probe-131","0.5414029897002558","0.4563525688983566","0.17540475832158642","0","","","","","","","",""
"","html-keyboard-response","167","763367","0.0-93.0-1.0","""event"",""trial"",""time""
""fullscreenenter"",""0"",""3344""
","
","
","""event"",""trial"",""time""
""fullscreenenter"",""0"",""3344""
","
","null","<p></p>","null","","","","","","","","","","","","","","","","","","","","","","",""
"","do_trial","168","768513","0.0-94.0-0.0","""event"",""trial"",""time""
""fullscreenenter"",""0"",""3344""
","
","
","""event"",""trial"",""time""
""fullscreenenter"",""0"",""3344""
","
","607.3999999761581","","","","","","","","51","1,1,0","1","city","37","probe-21","0.6230462048732469","0.4761197947463676","0.10257390954137029","0","","","","","","","",""
"","html-keyboard-response","169","769530","0.0-94.0-1.0","""event"",""trial"",""time""
""fullscreenenter"",""0"",""3344""
","
","
","""event"",""trial"",""time""
""fullscreenenter"",""0"",""3344""
","
","null","<p></p>","null","","","","","","","","","","","","","","","","","","","","","","",""
"","do_trial","170","774640","0.0-95.0-0.0","""event"",""trial"",""time""
""fullscreenenter"",""0"",""3344""
","
","
","""event"",""trial"",""time""
""fullscreenenter"",""0"",""3344""
","
","576.3999999761581","","","","","","","","50","0,1,0","1","city","38","probe-212","0.5732483033226522","0.5069772639450689","0.07097383050714917","1","","","","","","","",""
"","html-keyboard-response","171","775646","0.0-95.0-1.0","""event"",""trial"",""time""
""fullscreenenter"",""0"",""3344""
","
","
","""event"",""trial"",""time""
""fullscreenenter"",""0"",""3344""
","
","null","<p></p>","null","","","","","","","","","","","","","","","","","","","","","","",""
"","do_trial","172","780496","0.0-96.0-0.0","""event"",""trial"",""time""
""fullscreenenter"",""0"",""3344""
","
","
","""event"",""trial"",""time""
""fullscreenenter"",""0"",""3344""
","
","309","","","","","","","","50","0,0,0","1","city","39","probe-96","0.6386692726327413","0.5241403517096533","0.07492975432563861","0","","","","","","","",""
"","html-keyboard-response","173","781507","0.0-96.0-1.0","""event"",""trial"",""time""
""fullscreenenter"",""0"",""3344""
","
","
","""event"",""trial"",""time""
""fullscreenenter"",""0"",""3344""
","
","null","<p></p>","null","","","","","","","","","","","","","","","","","","","","","","",""
"","do_trial","174","786496","0.0-97.0-0.0","""event"",""trial"",""time""
""fullscreenenter"",""0"",""3344""
","
","
","""event"",""trial"",""time""
""fullscreenenter"",""0"",""3344""
","
","450.19999998807907","","","","","","","","50","1,0,0","1","city","40","probe-67","0.7294325445494009","0.46552854238916525","0.13621055649864233","0","","","","","","","",""
"","html-keyboard-response","175","787511","0.0-97.0-1.0","""event"",""trial"",""time""
""fullscreenenter"",""0"",""3344""
","
","
","""event"",""trial"",""time""
""fullscreenenter"",""0"",""3344""
","
","null","<p></p>","null","","","","","","","","","","","","","","","","","","","","","","",""
"","do_trial","176","792334","0.0-98.0-0.0","""event"",""trial"",""time""
""fullscreenenter"",""0"",""3344""
","
","
","""event"",""trial"",""time""
""fullscreenenter"",""0"",""3344""
","
","293.4000000357628","","","","","","","","49","0,1,0","1","city","41","probe-112","0.5831355897476302","0.5843442876276601","0.2645196885722432","0","","","","","","","",""
"","html-keyboard-response","177","793350","0.0-98.0-1.0","""event"",""trial"",""time""
""fullscreenenter"",""0"",""3344""
","
","
","""event"",""trial"",""time""
""fullscreenenter"",""0"",""3344""
","
","null","<p></p>","null","","","","","","","","","","","","","","","","","","","","","","",""
"","do_trial","178","798172","0.0-99.0-0.0","""event"",""trial"",""time""
""fullscreenenter"",""0"",""3344""
","
","
","""event"",""trial"",""time""
""fullscreenenter"",""0"",""3344""
","
","289.19999998807907","","","","","","","","49","1,1,0","1","city","42","probe-133","0.4248968740563288","0.5458445282181534","0.1573472585492826","1","","","","","","","",""
"","html-keyboard-response","179","799174","0.0-99.0-1.0","""event"",""trial"",""time""
""fullscreenenter"",""0"",""3344""
","
","
","""event"",""trial"",""time""
""fullscreenenter"",""0"",""3344""
","
","null","<p></p>","null","","","","","","","","","","","","","","","","","","","","","","",""
"","do_trial","180","804371","0.0-100.0-0.0","""event"",""trial"",""time""
""fullscreenenter"",""0"",""3344""
","
","
","""event"",""trial"",""time""
""fullscreenenter"",""0"",""3344""
","
","665.1999999880791","","","","","","","","49","0,0,0","1","city","43","probe-05","0.3670604627041633","0.5121583031703488","0.09631999762525607","0","","","","","","","",""
"","html-keyboard-response","181","805381","0.0-100.0-1.0","""event"",""trial"",""time""
""fullscreenenter"",""0"",""3344""
","
","
","""event"",""trial"",""time""
""fullscreenenter"",""0"",""3344""
","
","null","<p></p>","null","","","","","","","","","","","","","","","","","","","","","","",""
"","do_trial","182","810490","0.0-101.0-0.0","""event"",""trial"",""time""
""fullscreenenter"",""0"",""3344""
","
","
","""event"",""trial"",""time""
""fullscreenenter"",""0"",""3344""
","
","563.4000000357628","","","","","","","","51","0,1,1","1","city","44","probe-20","0.31871181078435556","0.5607755048067312","0.12282438569828434","1","","","","","","","",""
"","html-keyboard-response","183","811497","0.0-101.0-1.0","""event"",""trial"",""time""
""fullscreenenter"",""0"",""3344""
","
","
","""event"",""trial"",""time""
""fullscreenenter"",""0"",""3344""
","
","null","<p></p>","null","","","","","","","","","","","","","","","","","","","","","","",""
"","do_trial","184","816946","0.0-102.0-0.0","""event"",""trial"",""time""
""fullscreenenter"",""0"",""3344""
","
","
","""event"",""trial"",""time""
""fullscreenenter"",""0"",""3344""
","
","909.6999999880791","","","","","","","","51","1,1,0","1","city","45","probe-93","0.38448610401745775","0.5253896999819714","0.21943350061090655","0","","","","","","","",""
"","html-keyboard-response","185","817960","0.0-102.0-1.0","""event"",""trial"",""time""
""fullscreenenter"",""0"",""3344""
","
","
","""event"",""trial"",""time""
""fullscreenenter"",""0"",""3344""
","
","null","<p></p>","null","","","","","","","","","","","","","","","","","","","","","","",""
"","do_trial","186","823171","0.0-103.0-0.0","""event"",""trial"",""time""
""fullscreenenter"",""0"",""3344""
","
","
","""event"",""trial"",""time""
""fullscreenenter"",""0"",""3344""
","
","673","","","","","","","","49","0,1,0","1","city","46","probe-47","0.32376169574288105","0.4270951247968948","0.0747863559104065","0","","","","","","","",""
"","html-keyboard-response","187","824190","0.0-103.0-1.0","""event"",""trial"",""time""
""fullscreenenter"",""0"",""3344""
","
","
","""event"",""trial"",""time""
""fullscreenenter"",""0"",""3344""
","
","null","<p></p>","null","","","","","","","","","","","","","","","","","","","","","","",""
"","do_trial","188","829460","0.0-104.0-0.0","""event"",""trial"",""time""
""fullscreenenter"",""0"",""3344""
","
","
","""event"",""trial"",""time""
""fullscreenenter"",""0"",""3344""
","
","737.5","","","","","","","","51","0,0,0","1","city","47","probe-15","0.33023209587814145","0.5881283923693785","0.05087293771001414","0","","","","","","","",""
"","html-keyboard-response","189","830465","0.0-104.0-1.0","""event"",""trial"",""time""
""fullscreenenter"",""0"",""3344""
","
","
","""event"",""trial"",""time""
""fullscreenenter"",""0"",""3344""
","
","null","<p></p>","null","","","","","","","","","","","","","","","","","","","","","","",""
"","do_trial","190","835667","0.0-105.0-0.0","""event"",""trial"",""time""
""fullscreenenter"",""0"",""3344""
","
","
","""event"",""trial"",""time""
""fullscreenenter"",""0"",""3344""
","
","658.3999999761581","","","","","","","","50","0,0,0","1","city","48","probe-139","0.32807996868576617","0.5028030717225941","0.09032380316914575","0","","","","","","","",""
"","html-keyboard-response","191","836684","0.0-105.0-1.0","""event"",""trial"",""time""
""fullscreenenter"",""0"",""3344""
","
","
","""event"",""trial"",""time""
""fullscreenenter"",""0"",""3344""
","
","null","<p></p>","null","","","","","","","","","","","","","","","","","","","","","","",""
"","do_trial","192","841582","0.0-106.0-0.0","""event"",""trial"",""time""
""fullscreenenter"",""0"",""3344""
","
","
","""event"",""trial"",""time""
""fullscreenenter"",""0"",""3344""
","
","361.4000000357628","","","","","","","","51","0,0,0","1","city","49","probe-103","0.26396961110734735","0.4820200920295832","0.18209178761760256","0","","","","","","","",""
"","html-keyboard-response","193","842586","0.0-106.0-1.0","""event"",""trial"",""time""
""fullscreenenter"",""0"",""3344""
","
","
","""event"",""trial"",""time""
""fullscreenenter"",""0"",""3344""
","
","null","<p></p>","null","","","","","","","","","","","","","","","","","","","","","","",""
"","do_trial","194","847470","0.0-107.0-0.0","""event"",""trial"",""time""
""fullscreenenter"",""0"",""3344""
","
","
","""event"",""trial"",""time""
""fullscreenenter"",""0"",""3344""
","
","349.9000000357628","","","","","","","","49","0,1,0","1","city","50","probe-45","0.3006069226672733","0.5288458652041432","0.20216180104986634","0","","","","","","","",""
"","html-keyboard-response","195","848480","0.0-107.0-1.0","""event"",""trial"",""time""
""fullscreenenter"",""0"",""3344""
","
","
","""event"",""trial"",""time""
""fullscreenenter"",""0"",""3344""
","
","null","<p></p>","null","","","","","","","","","","","","","","","","","","","","","","",""
"","do_trial","196","853416","0.0-108.0-0.0","""event"",""trial"",""time""
""fullscreenenter"",""0"",""3344""
","
","
","""event"",""trial"",""time""
""fullscreenenter"",""0"",""3344""
","
","397.80000001192093","","","","","","","","50","0,0,0","1","city","51","probe-148","0.30852198194536257","0.6227868009458847","0.06830884163611475","0","","","","","","","",""
"","html-keyboard-response","197","854420","0.0-108.0-1.0","""event"",""trial"",""time""
""fullscreenenter"",""0"",""3344""
","
","
","""event"",""trial"",""time""
""fullscreenenter"",""0"",""3344""
","
","null","<p></p>","null","","","","","","","","","","","","","","","","","","","","","","",""
"","do_trial","198","859581","0.0-109.0-0.0","""event"",""trial"",""time""
""fullscreenenter"",""0"",""3344""
","
","
","""event"",""trial"",""time""
""fullscreenenter"",""0"",""3344""
","
","623.5","","","","","","","","49","1,1,1","1","city","52","probe-154","0.3399466210880168","0.6391083164671434","0.20619317685776736","1","","","","","","","",""
"","html-keyboard-response","199","860598","0.0-109.0-1.0","""event"",""trial"",""time""
""fullscreenenter"",""0"",""3344""
","
","
","""event"",""trial"",""time""
""fullscreenenter"",""0"",""3344""
","
","null","<p></p>","null","","","","","","","","","","","","","","","","","","","","","","",""
"","do_trial","200","865950","0.0-110.0-0.0","""event"",""trial"",""time""
""fullscreenenter"",""0"",""3344""
","
","
","""event"",""trial"",""time""
""fullscreenenter"",""0"",""3344""
","
","811","","","","","","","","49","0,1,0","1","city","53","probe-132","0.341099943330096","0.736375089574242","0.2513438005613922","0","","","","","","","",""
"","html-keyboard-response","201","866960","0.0-110.0-1.0","""event"",""trial"",""time""
""fullscreenenter"",""0"",""3344""
","
","
","""event"",""trial"",""time""
""fullscreenenter"",""0"",""3344""
","
","null","<p></p>","null","","","","","","","","","","","","","","","","","","","","","","",""
"","do_trial","202","872000","0.0-111.0-0.0","""event"",""trial"",""time""
""fullscreenenter"",""0"",""3344""
","
","
","""event"",""trial"",""time""
""fullscreenenter"",""0"",""3344""
","
","494.60000002384186","","","","","","","","49","0,1,0","1","city","54","probe-27","0.3713884564039653","0.7254003187935055","0.2465298412931781","0","","","","","","","",""
"","html-keyboard-response","203","873021","0.0-111.0-1.0","""event"",""trial"",""time""
""fullscreenenter"",""0"",""3344""
","
","
","""event"",""trial"",""time""
""fullscreenenter"",""0"",""3344""
","
","null","<p></p>","null","","","","","","","","","","","","","","","","","","","","","","",""
"","do_trial","204","877810","0.0-112.0-0.0","""event"",""trial"",""time""
""fullscreenenter"",""0"",""3344""
","
","
","""event"",""trial"",""time""
""fullscreenenter"",""0"",""3344""
","
","257.0999999642372","","","","","","","","51","0,1,0","1","city","55","probe-38","0.37464241170705576","0.6017036924917077","0.20450681364577858","0","","","","","","","",""
"","html-keyboard-response","205","878830","0.0-112.0-1.0","""event"",""trial"",""time""
""fullscreenenter"",""0"",""3344""
","
","
","""event"",""trial"",""time""
""fullscreenenter"",""0"",""3344""
","
","null","<p></p>","null","","","","","","","","","","","","","","","","","","","","","","",""
"","do_trial","206","883790","0.0-113.0-0.0","""event"",""trial"",""time""
""fullscreenenter"",""0"",""3344""
","
","
","""event"",""trial"",""time""
""fullscreenenter"",""0"",""3344""
","
","417.10000002384186","","","","","","","","50","0,1,0","1","city","56","probe-04","0.350331216807127","0.6827578646016431","0.1864712073505723","1","","","","","","","",""
"","html-keyboard-response","207","884810","0.0-113.0-1.0","""event"",""trial"",""time""
""fullscreenenter"",""0"",""3344""
","
","
","""event"",""trial"",""time""
""fullscreenenter"",""0"",""3344""
","
","null","<p></p>","null","","","","","","","","","","","","","","","","","","","","","","",""
"","do_trial","208","889720","0.0-114.0-0.0","""event"",""trial"",""time""
""fullscreenenter"",""0"",""3344""
","
","
","""event"",""trial"",""time""
""fullscreenenter"",""0"",""3344""
","
","368.89999997615814","","","","","","","","50","0,1,0","1","city","57","probe-122","0.2987506029547203","0.8237422637248965","0.1090795925637218","1","","","","","","","",""
"","html-keyboard-response","209","890729","0.0-114.0-1.0","""event"",""trial"",""time""
""fullscreenenter"",""0"",""3344""
","
","
","""event"",""trial"",""time""
""fullscreenenter"",""0"",""3344""
","
","null","<p></p>","null","","","","","","","","","","","","","","","","","","","","","","",""
"","do_trial","210","895831","0.0-115.0-0.0","""event"",""trial"",""time""
""fullscreenenter"",""0"",""3344""
","
","
","""event"",""trial"",""time""
""fullscreenenter"",""0"",""3344""
","
","557.1000000238419","","","","","","","","50","0,1,0","1","city","58","probe-73","0.3790186277347378","0.8162488362685133","0.08775298225458275","1","","","","","","","",""
"","html-keyboard-response","211","896851","0.0-115.0-1.0","""event"",""trial"",""time""
""fullscreenenter"",""0"",""3344""
","
","
","""event"",""trial"",""time""
""fullscreenenter"",""0"",""3344""
","
","null","<p></p>","null","","","","","","","","","","","","","","","","","","","","","","",""
"","do_trial","212","901854","0.0-116.0-0.0","""event"",""trial"",""time""
""fullscreenenter"",""0"",""3344""
","
","
","""event"",""trial"",""time""
""fullscreenenter"",""0"",""3344""
","
","464.2999999523163","","","","","","","","49","1,0,0","1","city","59","probe-221","0.20697910943915715","0.6092304698779712","0.1908225669129103","1","","","","","","","",""
"","html-keyboard-response","213","902871","0.0-116.0-1.0","""event"",""trial"",""time""
""fullscreenenter"",""0"",""3344""
","
","
","""event"",""trial"",""time""
""fullscreenenter"",""0"",""3344""
","
","null","<p></p>","null","","","","","","","","","","","","","","","","","","","","","","",""
"","do_trial","214","907863","0.0-117.0-0.0","""event"",""trial"",""time""
""fullscreenenter"",""0"",""3344""
","
","
","""event"",""trial"",""time""
""fullscreenenter"",""0"",""3344""
","
","463.60000002384186","","","","","","","","49","1,1,0","1","city","60","probe-141","0.2739951069912361","0.6887691181184029","0.17409924938347324","1","","","","","","","",""
"","html-keyboard-response","215","908881","0.0-117.0-1.0","""event"",""trial"",""time""
""fullscreenenter"",""0"",""3344""
","
","
","""event"",""trial"",""time""
""fullscreenenter"",""0"",""3344""
","
","null","<p></p>","null","","","","","","","","","","","","","","","","","","","","","","",""
"","do_trial","216","913957","0.0-118.0-0.0","""event"",""trial"",""time""
""fullscreenenter"",""0"",""3344""
","
","
","""event"",""trial"",""time""
""fullscreenenter"",""0"",""3344""
","
","534.5999999642372","","","","","","","","49","0,1,0","1","city","61","probe-226","0.2176236171808054","0.5277773598304508","0.14683871637787882","0","","","","","","","",""
"","html-keyboard-response","217","914971","0.0-118.0-1.0","""event"",""trial"",""time""
""fullscreenenter"",""0"",""3344""
","
","
","""event"",""trial"",""time""
""fullscreenenter"",""0"",""3344""
","
","null","<p></p>","null","","","","","","","","","","","","","","","","","","","","","","",""
"","do_trial","218","919941","0.0-119.0-0.0","""event"",""trial"",""time""
""fullscreenenter"",""0"",""3344""
","
","
","""event"",""trial"",""time""
""fullscreenenter"",""0"",""3344""
","
","434.30000001192093","","","","","","","","50","0,0,0","1","city","62","probe-46","0.20595937300597","0.5097724999158625","0.16796279796504787","0","","","","","","","",""
"","html-keyboard-response","219","920945","0.0-119.0-1.0","""event"",""trial"",""time""
""fullscreenenter"",""0"",""3344""
","
","
","""event"",""trial"",""time""
""fullscreenenter"",""0"",""3344""
","
","null","<p></p>","null","","","","","","","","","","","","","","","","","","","","","","",""
"","do_trial","220","926001","0.0-120.0-0.0","""event"",""trial"",""time""
""fullscreenenter"",""0"",""3344""
","
","
","""event"",""trial"",""time""
""fullscreenenter"",""0"",""3344""
","
","511.30000001192093","","","","","","","","51","1,0,0","1","city","63","probe-72","0.1467295155325266","0.5530222158776116","0.1709252152598141","0","","","","","","","",""
"","html-keyboard-response","221","927012","0.0-120.0-1.0","""event"",""trial"",""time""
""fullscreenenter"",""0"",""3344""
","
","
","""event"",""trial"",""time""
""fullscreenenter"",""0"",""3344""
","
","null","<p></p>","null","","","","","","","","","","","","","","","","","","","","","","",""
"","do_trial","222","931791","0.0-121.0-0.0","""event"",""trial"",""time""
""fullscreenenter"",""0"",""3344""
","
","
","""event"",""trial"",""time""
""fullscreenenter"",""0"",""3344""
","
","249.39999997615814","","","","","","","","50","0,0,0","1","city","64","probe-12","0.25061467639162904","0.5147887113207863","0.20616082729785837","0","","","","","","","",""
"","html-keyboard-response","223","932793","0.0-121.0-1.0","""event"",""trial"",""time""
""fullscreenenter"",""0"",""3344""
","
","
","""event"",""trial"",""time""
""fullscreenenter"",""0"",""3344""
","
","null","<p></p>","null","","","","","","","","","","","","","","","","","","","","","","",""
"","do_trial","224","937796","0.0-122.0-0.0","""event"",""trial"",""time""
""fullscreenenter"",""0"",""3344""
","
","
","""event"",""trial"",""time""
""fullscreenenter"",""0"",""3344""
","
","462.7000000476837","","","","","","","","50","1,0,0","1","city","65","probe-230","0.14222450374753157","0.4644561737827049","0.12406433892079853","0","","","","","","","",""
"","html-keyboard-response","225","938801","0.0-122.0-1.0","""event"",""trial"",""time""
""fullscreenenter"",""0"",""3344""
","
","
","""event"",""trial"",""time""
""fullscreenenter"",""0"",""3344""
","
","null","<p></p>","null","","","","","","","","","","","","","","","","","","","","","","",""
"","do_trial","226","943631","0.0-123.0-0.0","""event"",""trial"",""time""
""fullscreenenter"",""0"",""3344""
","
","
","""event"",""trial"",""time""
""fullscreenenter"",""0"",""3344""
","
","288","","","","","","","","51","0,0,0","1","city","66","probe-191","0.23866200232813545","0.5390796872088646","0.12793400721706674","0","","","","","","","",""
"","html-keyboard-response","227","944643","0.0-123.0-1.0","""event"",""trial"",""time""
""fullscreenenter"",""0"",""3344""
","
","
","""event"",""trial"",""time""
""fullscreenenter"",""0"",""3344""
","
","null","<p></p>","null","","","","","","","","","","","","","","","","","","","","","","",""
"","do_trial","228","949849","0.0-124.0-0.0","""event"",""trial"",""time""
""fullscreenenter"",""0"",""3344""
","
","
","""event"",""trial"",""time""
""fullscreenenter"",""0"",""3344""
","
","669.5999999642372","","","","","","","","51","0,0,0","1","city","67","probe-110","0.261141524783182","0.34145711452653116","0.20758965844147098","0","","","","","","","",""
"","html-keyboard-response","229","950862","0.0-124.0-1.0","""event"",""trial"",""time""
""fullscreenenter"",""0"",""3344""
","
","
","""event"",""trial"",""time""
""fullscreenenter"",""0"",""3344""
","
","null","<p></p>","null","","","","","","","","","","","","","","","","","","","","","","",""
"","do_trial","230","955814","0.0-125.0-0.0","""event"",""trial"",""time""
""fullscreenenter"",""0"",""3344""
","
","
","""event"",""trial"",""time""
""fullscreenenter"",""0"",""3344""
","
","419.80000001192093","","","","","","","","49","0,0,0","1","city","68","probe-36","0.2900647141488983","0.370612300390072","0.1298117658252831","0","","","","","","","",""
"","html-keyboard-response","231","956830","0.0-125.0-1.0","""event"",""trial"",""time""
""fullscreenenter"",""0"",""3344""
","
","
","""event"",""trial"",""time""
""fullscreenenter"",""0"",""3344""
","
","null","<p></p>","null","","","","","","","","","","","","","","","","","","","","","","",""
"","do_trial","232","961901","0.0-126.0-0.0","""event"",""trial"",""time""
""fullscreenenter"",""0"",""3344""
","
","
","""event"",""trial"",""time""
""fullscreenenter"",""0"",""3344""
","
","525","","","","","","","","49","0,1,0","1","city","69","probe-126","0.32505343220479943","0.47463426655410235","0.0782057158193716","0","","","","","","","",""
"","html-keyboard-response","233","962909","0.0-126.0-1.0","""event"",""trial"",""time""
""fullscreenenter"",""0"",""3344""
","
","
","""event"",""trial"",""time""
""fullscreenenter"",""0"",""3344""
","
","null","<p></p>","null","","","","","","","","","","","","","","","","","","","","","","",""
"","do_bye","234","964425","0.0-127.0-0.0","""event"",""trial"",""time""
""fullscreenenter"",""0"",""3344""
","
","
","""event"",""trial"",""time""
""fullscreenenter"",""0"",""3344""
","
","null","","","","","","","","null","","","","","","","","","","","","","","","","",""
"","break","235","969086","0.0-127.0-1.0","""event"",""trial"",""time""
""fullscreenenter"",""0"",""3344""
","
","
","""event"",""trial"",""time""
""fullscreenenter"",""0"",""3344""
","
","4660","<div class='center'><p>Time to take a quick break! You have 2 minutes to rest, but you can move on sooner if you'd like.</p><p> Press the <b>space bar</b> to continue.</p></div>","32","","","","","","","","","","","","","","","","","","","","","","",""
"","do_travel","236","978101","0.0-128.0-0.0","""event"",""trial"",""time""
""fullscreenenter"",""0"",""3344""
","
","
","""event"",""trial"",""time""
""fullscreenenter"",""0"",""3344""
","
","null","","","","","","","","null","","","","","","","","","","","","","","","","",""
"","do_welcome","237","982111","0.0-128.0-1.0","""event"",""trial"",""time""
""fullscreenenter"",""0"",""3344""
","
","
","""event"",""trial"",""time""
""fullscreenenter"",""0"",""3344""
","
","null","","","","","","","","null","","","","","","","","","","","","","","","","",""
"","do_trial","238","987591","0.0-129.0-0.0","""event"",""trial"",""time""
""fullscreenenter"",""0"",""3344""
","
","
","""event"",""trial"",""time""
""fullscreenenter"",""0"",""3344""
","
","934.6000000238419","","","","","","","","49","1,1,0","2","coast","70","probe-225","0.3068924904280596","1","0.16285536953294547","1","","","","","","","",""
"","html-keyboard-response","239","988607","0.0-129.0-1.0","""event"",""trial"",""time""
""fullscreenenter"",""0"",""3344""
","
","
","""event"",""trial"",""time""
""fullscreenenter"",""0"",""3344""
","
","null","<p></p>","null","","","","","","","","","","","","","","","","","","","","","","",""
"","do_trial","240","993709","0.0-130.0-0.0","""event"",""trial"",""time""
""fullscreenenter"",""0"",""3344""
","
","
","""event"",""trial"",""time""
""fullscreenenter"",""0"",""3344""
","
","570.6999999880791","","","","","","","","50","1,1,0","2","coast","71","probe-76","0.5144998912949179","1","0.08799503771234073","1","","","","","","","",""
"","html-keyboard-response","241","994721","0.0-130.0-1.0","""event"",""trial"",""time""
""fullscreenenter"",""0"",""3344""
","
","
","""event"",""trial"",""time""
""fullscreenenter"",""0"",""3344""
","
","null","<p></p>","null","","","","","","","","","","","","","","","","","","","","","","",""
"","do_trial","242","999652","0.0-131.0-0.0","""event"",""trial"",""time""
""fullscreenenter"",""0"",""3344""
","
","
","""event"",""trial"",""time""
""fullscreenenter"",""0"",""3344""
","
","395.19999998807907","","","","","","","","51","1,1,0","2","coast","72","probe-200","0.46958848112449403","0.8445115983439441","0.09966515258484523","0","","","","","","","",""
"","html-keyboard-response","243","1000671","0.0-131.0-1.0","""event"",""trial"",""time""
""fullscreenenter"",""0"",""3344""
","
","
","""event"",""trial"",""time""
""fullscreenenter"",""0"",""3344""
","
","null","<p></p>","null","","","","","","","","","","","","","","","","","","","","","","",""
"","do_trial","244","1005642","0.0-132.0-0.0","""event"",""trial"",""time""
""fullscreenenter"",""0"",""3344""
","
","
","""event"",""trial"",""time""
""fullscreenenter"",""0"",""3344""
","
","430.69999998807907","","","","","","","","50","1,1,0","2","coast","73","probe-140","0.44473058662751597","0.8384668919454319","0.16744316889244637","1","","","","","","","",""
"","html-keyboard-response","245","1006656","0.0-132.0-1.0","""event"",""trial"",""time""
""fullscreenenter"",""0"",""3344""
","
","
","""event"",""trial"",""time""
""fullscreenenter"",""0"",""3344""
","
","null","<p></p>","null","","","","","","","","","","","","","","","","","","","","","","",""
"","do_trial","246","1011560","0.0-133.0-0.0","""event"",""trial"",""time""
""fullscreenenter"",""0"",""3344""
","
","
","""event"",""trial"",""time""
""fullscreenenter"",""0"",""3344""
","
","370.5","","","","","","","","51","1,1,0","2","coast","74","probe-136","0.45530994434731953","0.7908930535853651","0.17364272016945864","0","","","","","","","",""
"","html-keyboard-response","247","1012574","0.0-133.0-1.0","""event"",""trial"",""time""
""fullscreenenter"",""0"",""3344""
","
","
","""event"",""trial"",""time""
""fullscreenenter"",""0"",""3344""
","
","null","<p></p>","null","","","","","","","","","","","","","","","","","","","","","","",""
"","do_trial","248","1017711","0.0-134.0-0.0","""event"",""trial"",""time""
""fullscreenenter"",""0"",""3344""
","
","
","""event"",""trial"",""time""
""fullscreenenter"",""0"",""3344""
","
","603.4000000357628","","","","","","","","49","1,0,0","2","coast","75","probe-211","0.4176737033601352","0.6220784886213584","0.11479563736320775","1","","","","","","","",""
"","html-keyboard-response","249","1018721","0.0-134.0-1.0","""event"",""trial"",""time""
""fullscreenenter"",""0"",""3344""
","
","
","""event"",""trial"",""time""
""fullscreenenter"",""0"",""3344""
","
","null","<p></p>","null","","","","","","","","","","","","","","","","","","","","","","",""
"","do_trial","250","1023775","0.0-135.0-0.0","""event"",""trial"",""time""
""fullscreenenter"",""0"",""3344""
","
","
","""event"",""trial"",""time""
""fullscreenenter"",""0"",""3344""
","
","526.3000000119209","","","","","","","","50","0,1,0","2","coast","76","probe-175","0.34587566059600683","0.6994157349159759","0.27195995758186464","1","","","","","","","",""
"","html-keyboard-response","251","1024777","0.0-135.0-1.0","""event"",""trial"",""time""
""fullscreenenter"",""0"",""3344""
","
","
","""event"",""trial"",""time""
""fullscreenenter"",""0"",""3344""
","
","null","<p></p>","null","","","","","","","","","","","","","","","","","","","","","","",""
"","do_trial","252","1029667","0.0-136.0-0.0","""event"",""trial"",""time""
""fullscreenenter"",""0"",""3344""
","
","
","""event"",""trial"",""time""
""fullscreenenter"",""0"",""3344""
","
","355.10000002384186","","","","","","","","51","1,0,1","2","coast","77","probe-02","0.4539156028576426","0.7082351336072684","0.24920293324663925","1","","","","","","","",""
"","html-keyboard-response","253","1030670","0.0-136.0-1.0","""event"",""trial"",""time""
""fullscreenenter"",""0"",""3344""
","
","
","""event"",""trial"",""time""
""fullscreenenter"",""0"",""3344""
","
","null","<p></p>","null","","","","","","","","","","","","","","","","","","","","","","",""
"","do_trial","254","1035560","0.0-137.0-0.0","""event"",""trial"",""time""
""fullscreenenter"",""0"",""3344""
","
","
","""event"",""trial"",""time""
""fullscreenenter"",""0"",""3344""
","
","356.0999999642372","","","","","","","","49","1,1,0","2","coast","78","probe-26","0.5663693211071638","0.623971736851525","0.22334851535514652","1","","","","","","","",""
"","html-keyboard-response","255","1036566","0.0-137.0-1.0","""event"",""trial"",""time""
""fullscreenenter"",""0"",""3344""
","
","
","""event"",""trial"",""time""
""fullscreenenter"",""0"",""3344""
","
","null","<p></p>","null","","","","","","","","","","","","","","","","","","","","","","",""
"","do_trial","256","1041660","0.0-138.0-0.0","""event"",""trial"",""time""
""fullscreenenter"",""0"",""3344""
","
","
","""event"",""trial"",""time""
""fullscreenenter"",""0"",""3344""
","
","551.8000000119209","","","","","","","","50","0,0,0","2","coast","79","probe-218","0.4721810461469043","0.6716220527980216","0.08665778131912216","0","","","","","","","",""
"","html-keyboard-response","257","1042671","0.0-138.0-1.0","""event"",""trial"",""time""
""fullscreenenter"",""0"",""3344""
","
","
","""event"",""trial"",""time""
""fullscreenenter"",""0"",""3344""
","
","null","<p></p>","null","","","","","","","","","","","","","","","","","","","","","","",""
"","do_trial","258","1047480","0.0-139.0-0.0","""event"",""trial"",""time""
""fullscreenenter"",""0"",""3344""
","
","
","""event"",""trial"",""time""
""fullscreenenter"",""0"",""3344""
","
","263","","","","","","","","51","1,0,0","2","coast","80","probe-197","0.5707779335472516","0.4985838084669485","0.08741157230115128","0","","","","","","","",""
"","html-keyboard-response","259","1048500","0.0-139.0-1.0","""event"",""trial"",""time""
""fullscreenenter"",""0"",""3344""
","
","
","""event"",""trial"",""time""
""fullscreenenter"",""0"",""3344""
","
","null","<p></p>","null","","","","","","","","","","","","","","","","","","","","","","",""
"","do_trial","260","1053389","0.0-140.0-0.0","""event"",""trial"",""time""
""fullscreenenter"",""0"",""3344""
","
","
","""event"",""trial"",""time""
""fullscreenenter"",""0"",""3344""
","
","344.30000001192093","","","","","","","","51","0,1,0","2","coast","81","probe-142","0.6848019507763448","0.5317990662215046","0.07208546754400443","0","","","","","","","",""
"","html-keyboard-response","261","1054406","0.0-140.0-1.0","""event"",""trial"",""time""
""fullscreenenter"",""0"",""3344""
","
","
","""event"",""trial"",""time""
""fullscreenenter"",""0"",""3344""
","
","null","<p></p>","null","","","","","","","","","","","","","","","","","","","","","","",""
"","do_trial","262","1059242","0.0-141.0-0.0","""event"",""trial"",""time""
""fullscreenenter"",""0"",""3344""
","
","
