"success","trial_type","trial_index","time_elapsed","internal_node_id","interactions","blur_events","focus_events","fullscreenenter_events","fullscreenexit_events","rt","stimulus","key_press","subject_id","participant_id","age","gender","prompt","response","choice_outcomes","context_n","context_img_id","trial_n","probe_img_id","pR_red","pR_white","pR_black","outcome","contextArray_ind","validImageProbes","invalidImageProbes","pRew_Red","pRew_White","pRew_Black","availableForMemProbe","choice_blocks"
"true","fullscreen","0","4198","0.0-0.0","""event"",""trial"",""time""
""fullscreenenter"",""0"",""3205""
","
","
","""event"",""trial"",""time""
""fullscreenenter"",""0"",""3205""
","
","","","","","","","","","","","","","","","","","","","","","","","","","",""
"","pavlovia","1","4201","0.0-1.0","""event"",""trial"",""time""
""fullscreenenter"",""0"",""3205""
","
","
","""event"",""trial"",""time""
""fullscreenenter"",""0"",""3205""
","
","","","","","","","","","","","","","","","","","","","","","","","","","",""
"","instruc1","2","49367","0.0-2.0","""event"",""trial"",""time""
""fullscreenenter"",""0"",""3205""
","
","
","""event"",""trial"",""time""
""fullscreenenter"",""0"",""3205""
","
","null","run_exp/static/audio/clip_1_welcome.m4a","null","2148","2190","23","Male","<div class='center'><p>Welcome! This is the first part of the study. It will last ~30 minutes. In part 1 and part 2 of the study, you are the head captain of a pirate ship traveling around the world to different islands. You will play a few different games throughout these two parts. Here is an overview of them:</p><br><p>Part 1 (today)</p><p>1. Instructions, practice game, and quiz</p><p>2. Pick a pirate game on 6 different islands</p><br><p>Part 2 (tomorrow)</p><p>3. Pick a pirate game and memory game</p><p>4. Where did you see this ship? </p></div>","","","","","","","","","","","","","","","","","",""
"","html-keyboard-response","3","52728","0.0-3.0","""event"",""trial"",""time""
""fullscreenenter"",""0"",""3205""
","
","
","""event"",""trial"",""time""
""fullscreenenter"",""0"",""3205""
","
","3360.7999999970198","<div class='center'><p>Welcome! This is the first part of the study. It will last ~30 minutes. In part 1 and part 2 of the study, you are the head captain of a pirate ship traveling around the world to different islands. You will play a few different games throughout these two parts. Here is an overview of them:</p><br><p>Part 1 (today)</p><p>1. Instructions, practice game, and quiz</p><p>2. Pick a pirate game on 6 different islands</p><br><p>Part 2 (tomorrow)</p><p>3. Pick a pirate game and memory game</p><p>4. Where did you see this ship? </p><p><b>[Press the space bar to continue]</b></p></div>","32","","","","","","","","","","","","","","","","","","","","","","",""
"","instruc2","4","58049","0.0-4.0","""event"",""trial"",""time""
""fullscreenenter"",""0"",""3205""
","
","
","""event"",""trial"",""time""
""fullscreenenter"",""0"",""3205""
","
","null","run_exp/static/audio/clip_2_different_places.m4a","null","","","","","<div class='center'><p>Today, you’ll visit these 6 islands on your journey. You'll be able to see these islands from your ship.</p><p><img src='run_exp/static/images/contexts/all_contexts.png' height='500'></p></div>","","","","","","","","","","","","","","","","","",""
"","html-keyboard-response","5","67972","0.0-5.0","""event"",""trial"",""time""
""fullscreenenter"",""0"",""3205""
","
","
","""event"",""trial"",""time""
""fullscreenenter"",""0"",""3205""
","
","9921.90000000596","<div class='center'><p>Today, you’ll visit these 6 islands on your journey. You'll be able to see these islands from your ship.</p><p><img src='run_exp/static/images/contexts/all_contexts.png' height='500'></p><p><b>[Press the space bar to continue]</b></p></div>","32","","","","","","","","","","","","","","","","","","","","","","",""
"","instruc3","6","77654","0.0-6.0","""event"",""trial"",""time""
""fullscreenenter"",""0"",""3205""
","
","
","""event"",""trial"",""time""
""fullscreenenter"",""0"",""3205""
","
","null","run_exp/static/audio/clip_3_goal_of_game_1.m4a","null","","","","","<div class='center'><p> The pirates on your ship will rob other ships as they leave the island.</p> These ships have just sold their goods to the islanders, so they will be filled with lots and lots of gold.</p><p><img src='run_exp/static/images/tutorial/ship_center.png' height='400'></p></div>","","","","","","","","","","","","","","","","","",""
"","html-keyboard-response","7","82214","0.0-7.0","""event"",""trial"",""time""
""fullscreenenter"",""0"",""3205""
","
","
","""event"",""trial"",""time""
""fullscreenenter"",""0"",""3205""
","
","4559","<div class='center'><p> The pirates on your ship will rob other ships as they leave the island.</p> These ships have just sold their goods to the islanders, so they will be filled with lots and lots of gold.</p><p><img src='run_exp/static/images/tutorial/ship_center.png' height='400'></p><p><b>[Press the space bar to continue]</b></p></div>","32","","","","","","","","","","","","","","","","","","","","","","",""
"","instruc4","8","110209","0.0-8.0","""event"",""trial"",""time""
""fullscreenenter"",""0"",""3205""
","
","
","""event"",""trial"",""time""
""fullscreenenter"",""0"",""3205""
","
","null","run_exp/static/audio/clip_4_goal_of_game_2.m4a","null","","","","","<div class='center'><p>As the head captain, you do not have to rob any ships yourself. Another pirate will be doing the robbing for you. First, you will choose a pirate to rob the next ship.</p><p><img src='run_exp/static/images/tutorial/pirates_all_crop.png' height='200'></p><p>Then, you'll see if the pirate successfully robbed the ship of their gold. If they were successful, then you'll get a stack of gold coins like this:</p><p><img src='run_exp/static/images/tutorial/reward.png' height='150'></p><p> If they were <b>not</b> successful, then you'll get no gold coins, and you'll see a big red x like this: </p><p><img src='run_exp/static/images/tutorial/reward_no.png' height='150'></p><p> How much bonus money you make is based on how many gold coins you collect.</p><div>","","","","","","","","","","","","","","","","","",""
"","html-keyboard-response","9","111649","0.0-9.0","""event"",""trial"",""time""
""fullscreenenter"",""0"",""3205""
","
","
","""event"",""trial"",""time""
""fullscreenenter"",""0"",""3205""
","
","1439.4000000059605","<div class='center'><p>As the head captain, you do not have to rob any ships yourself. Another pirate will be doing the robbing for you. First, you will choose a pirate to rob the next ship.</p><p><img src='run_exp/static/images/tutorial/pirates_all_crop.png' height='200'></p><p>Then, you'll see if the pirate successfully robbed the ship of their gold. If they were successful, then you'll get a stack of gold coins like this:</p><p><img src='run_exp/static/images/tutorial/reward.png' height='150'></p><p> If they were <b>not</b> successful, then you'll get no gold coins, and you'll see a big red x like this: </p><p><img src='run_exp/static/images/tutorial/reward_no.png' height='150'></p><p> How much bonus money you make is based on how many gold coins you collect.</p<p><b>[Press the space bar to continue]</b></p></div>","32","","","","","","","","","","","","","","","","","","","","","","",""
"","instruc5","10","136040","0.0-10.0","""event"",""trial"",""time""
""fullscreenenter"",""0"",""3205""
","
","
","""event"",""trial"",""time""
""fullscreenenter"",""0"",""3205""
","
","24390.69999999553","run_exp/static/audio/clip_5_probabilistic.m4a","49","","","","","<div class='center'><p>Even the most skilled pirate can not rob EVERY ship.</p><p> Some ships will have very strong protections against pirate attacks.</p><p> Blue beard, here, is very, very good at robbing ships, but he won't be successful every time he tries to rob one.</p><p> You can press the <b>‘1’</b> key on the keyboard to choose him.</p><p> Try choosing him 10 times to see how often he succeeds at robbing a ship. </p><p><img src='run_exp/static/images/tutorial/blue.png' height='500'></p></div>","","","","","","","","","","","","","","","","","",""
"","html-keyboard-response","11","137545","0.0-11.0","""event"",""trial"",""time""
""fullscreenenter"",""0"",""3205""
","
","
","""event"",""trial"",""time""
""fullscreenenter"",""0"",""3205""
","
","null","<div class='center'><p><img src='run_exp/static/images/tutorial/blue_win.png' height='500'></p></div>","null","","","","","","","","","","","","","","","","","","","","","","",""
"","html-keyboard-response","12","137783","0.0-12.0","""event"",""trial"",""time""
""fullscreenenter"",""0"",""3205""
","
","
","""event"",""trial"",""time""
""fullscreenenter"",""0"",""3205""
","
","236.90000000596046","<div class='center'><img src='run_exp/static/images/tutorial/blue.png' height='500'></p></div>","49","","","","","","","","","","","","","","","","","","","","","","",""
"","html-keyboard-response","13","139286","0.0-13.0","""event"",""trial"",""time""
""fullscreenenter"",""0"",""3205""
","
","
","""event"",""trial"",""time""
""fullscreenenter"",""0"",""3205""
","
","null","<div class='center'><p><img src='run_exp/static/images/tutorial/blue_win.png' height='500'></p></div>","null","","","","","","","","","","","","","","","","","","","","","","",""
"","html-keyboard-response","14","140066","0.0-14.0","""event"",""trial"",""time""
""fullscreenenter"",""0"",""3205""
","
","
","""event"",""trial"",""time""
""fullscreenenter"",""0"",""3205""
","
","779.6000000014901","<div class='center'><img src='run_exp/static/images/tutorial/blue.png' height='500'></p></div>","49","","","","","","","","","","","","","","","","","","","","","","",""
"","html-keyboard-response","15","141572","0.0-15.0","""event"",""trial"",""time""
""fullscreenenter"",""0"",""3205""
","
","
","""event"",""trial"",""time""
""fullscreenenter"",""0"",""3205""
","
","null","<div class='center'><p><img src='run_exp/static/images/tutorial/blue_win.png' height='500'></p></div>","null","","","","","","","","","","","","","","","","","","","","","","",""
"","html-keyboard-response","16","141784","0.0-16.0","""event"",""trial"",""time""
""fullscreenenter"",""0"",""3205""
","
","
","""event"",""trial"",""time""
""fullscreenenter"",""0"",""3205""
","
","211.20000000298023","<div class='center'><img src='run_exp/static/images/tutorial/blue.png' height='500'></p></div>","49","","","","","","","","","","","","","","","","","","","","","","",""
"","html-keyboard-response","17","143289","0.0-17.0","""event"",""trial"",""time""
""fullscreenenter"",""0"",""3205""
","
","
","""event"",""trial"",""time""
""fullscreenenter"",""0"",""3205""
","
","null","<div class='center'><p><img src='run_exp/static/images/tutorial/blue_no_win.png' height='500'></p></div>","null","","","","","","","","","","","","","","","","","","","","","","",""
"","html-keyboard-response","18","143532","0.0-18.0","""event"",""trial"",""time""
""fullscreenenter"",""0"",""3205""
","
","
","""event"",""trial"",""time""
""fullscreenenter"",""0"",""3205""
","
","242.09999999403954","<div class='center'><img src='run_exp/static/images/tutorial/blue.png' height='500'></p></div>","49","","","","","","","","","","","","","","","","","","","","","","",""
"","html-keyboard-response","19","145036","0.0-19.0","""event"",""trial"",""time""
""fullscreenenter"",""0"",""3205""
","
","
","""event"",""trial"",""time""
""fullscreenenter"",""0"",""3205""
","
","null","<div class='center'><p><img src='run_exp/static/images/tutorial/blue_win.png' height='500'></p></div>","null","","","","","","","","","","","","","","","","","","","","","","",""
"","html-keyboard-response","20","145450","0.0-20.0","""event"",""trial"",""time""
""fullscreenenter"",""0"",""3205""
","
","
","""event"",""trial"",""time""
""fullscreenenter"",""0"",""3205""
","
","412.79999999701977","<div class='center'><img src='run_exp/static/images/tutorial/blue.png' height='500'></p></div>","49","","","","","","","","","","","","","","","","","","","","","","",""
"","html-keyboard-response","21","146953","0.0-21.0","""event"",""trial"",""time""
""fullscreenenter"",""0"",""3205""
","
","
","""event"",""trial"",""time""
""fullscreenenter"",""0"",""3205""
","
","null","<div class='center'><p><img src='run_exp/static/images/tutorial/blue_win.png' height='500'></p></div>","null","","","","","","","","","","","","","","","","","","","","","","",""
"","html-keyboard-response","22","147217","0.0-22.0","""event"",""trial"",""time""
""fullscreenenter"",""0"",""3205""
","
","
","""event"",""trial"",""time""
""fullscreenenter"",""0"",""3205""
","
","262.79999999701977","<div class='center'><img src='run_exp/static/images/tutorial/blue.png' height='500'></p></div>","49","","","","","","","","","","","","","","","","","","","","","","",""
"","html-keyboard-response","23","148721","0.0-23.0","""event"",""trial"",""time""
""fullscreenenter"",""0"",""3205""
","
","
","""event"",""trial"",""time""
""fullscreenenter"",""0"",""3205""
","
","null","<div class='center'><p><img src='run_exp/static/images/tutorial/blue_win.png' height='500'></p></div>","null","","","","","","","","","","","","","","","","","","","","","","",""
"","html-keyboard-response","24","148985","0.0-24.0","""event"",""trial"",""time""
""fullscreenenter"",""0"",""3205""
","
","
","""event"",""trial"",""time""
""fullscreenenter"",""0"",""3205""
","
","262.8999999985099","<div class='center'><img src='run_exp/static/images/tutorial/blue.png' height='500'></p></div>","49","","","","","","","","","","","","","","","","","","","","","","",""
"","html-keyboard-response","25","150489","0.0-25.0","""event"",""trial"",""time""
""fullscreenenter"",""0"",""3205""
","
","
","""event"",""trial"",""time""
""fullscreenenter"",""0"",""3205""
","
","null","<div class='center'><p><img src='run_exp/static/images/tutorial/blue_no_win.png' height='500'></p></div>","null","","","","","","","","","","","","","","","","","","","","","","",""
"","html-keyboard-response","26","150745","0.0-26.0","""event"",""trial"",""time""
""fullscreenenter"",""0"",""3205""
","
","
","""event"",""trial"",""time""
""fullscreenenter"",""0"",""3205""
","
","255.30000000447035","<div class='center'><img src='run_exp/static/images/tutorial/blue.png' height='500'></p></div>","49","","","","","","","","","","","","","","","","","","","","","","",""
"","html-keyboard-response","27","152249","0.0-27.0","""event"",""trial"",""time""
""fullscreenenter"",""0"",""3205""
","
","
","""event"",""trial"",""time""
""fullscreenenter"",""0"",""3205""
","
","null","<div class='center'><p><img src='run_exp/static/images/tutorial/blue_win.png' height='500'></p></div>","null","","","","","","","","","","","","","","","","","","","","","","",""
"","html-keyboard-response","28","152613","0.0-28.0","""event"",""trial"",""time""
""fullscreenenter"",""0"",""3205""
","
","
","""event"",""trial"",""time""
""fullscreenenter"",""0"",""3205""
","
","364","<div class='center'><img src='run_exp/static/images/tutorial/blue.png' height='500'></p></div>","49","","","","","","","","","","","","","","","","","","","","","","",""
"","html-keyboard-response","29","154118","0.0-29.0","""event"",""trial"",""time""
""fullscreenenter"",""0"",""3205""
","
","
","""event"",""trial"",""time""
""fullscreenenter"",""0"",""3205""
","
","null","<div class='center'><p><img src='run_exp/static/images/tutorial/blue_win.png' height='500'></p></div>","null","","","","","","","","","","","","","","","","","","","","","","",""
"","instruc6","30","159565","0.0-30.0","""event"",""trial"",""time""
""fullscreenenter"",""0"",""3205""
","
","
","""event"",""trial"",""time""
""fullscreenenter"",""0"",""3205""
","
","null","run_exp/static/audio/clip_6_blue_beard_outcome.m4a","null","","","","","<div class='center'><p> See, he succeeded in robbing the ships most of the time but not every time. </p></div>","","","","","","","","","","","","","","","","","",""
"","html-keyboard-response","31","161123","0.0-31.0","""event"",""trial"",""time""
""fullscreenenter"",""0"",""3205""
","
","
","""event"",""trial"",""time""
""fullscreenenter"",""0"",""3205""
","
","1557.2000000029802","<div class='center'><p> See, he succeeded in robbing the ships most of the time but not every time. </p><p><b>[Press the space bar to continue]</b></p></div>","32","","","","","","","","","","","","","","","","","","","","","","",""
"","audio-keyboard-response","32","172991","0.0-32.0","""event"",""trial"",""time""
""fullscreenenter"",""0"",""3205""
","
","
","""event"",""trial"",""time""
""fullscreenenter"",""0"",""3205""
","
","11867.29999999702","run_exp/static/audio/clip_7_pick_pirate.m4a","51","","","","","","","","","","","","","","","","","","","","","","",""
"","audio-keyboard-response","33","175321","0.0-33.0-0.0","""event"",""trial"",""time""
""fullscreenenter"",""0"",""3205""
","
","
","""event"",""trial"",""time""
""fullscreenenter"",""0"",""3205""
","
","2328.1999999955297","run_exp/static/audio/clip_8_chosen_pirate_win.m4a","32","","","","","","","","","","","","","","","","","","","","","","",""
"","audio-keyboard-response","34","176598","0.0-33.0-1.0","""event"",""trial"",""time""
""fullscreenenter"",""0"",""3205""
","
","
","""event"",""trial"",""time""
""fullscreenenter"",""0"",""3205""
","
","1275.6999999955297","run_exp/static/audio/clip_9_pick_a_pirate_again.m4a","50","","","","","","","","","","","","","","","","","","","","","","",""
"","audio-keyboard-response","35","178871","0.0-34.0-0.0","""event"",""trial"",""time""
""fullscreenenter"",""0"",""3205""
","
","
","""event"",""trial"",""time""
""fullscreenenter"",""0"",""3205""
","
","2271.60000000149","run_exp/static/audio/clip_10_chosen_pirate_loss.m4a","32","","","","","","","","","","","","","","","","","","","","","","",""
"","instruc9","36","184355","0.0-35.0-0.0","""event"",""trial"",""time""
""fullscreenenter"",""0"",""3205""
","
","
","""event"",""trial"",""time""
""fullscreenenter"",""0"",""3205""
","
","null","run_exp/static/audio/clip_11_time_out.m4a","null","","","","","<div class='center'><p>If you don’t make your choice fast enough, you’ll have to wait a few seconds before you can make another one. </p><p><img src='run_exp/static/images/miscellaneous/hurry_up.png' height='500'></p></div>","","","","","","","","","","","","","","","","","",""
"","html-keyboard-response","37","186373","0.0-35.0-1.0","""event"",""trial"",""time""
""fullscreenenter"",""0"",""3205""
","
","
","""event"",""trial"",""time""
""fullscreenenter"",""0"",""3205""
","
","2016.6000000014901","<div class='center'><p>If you don’t make your choice fast enough, you’ll have to wait a few seconds before you can make another one. </p><p><img src='run_exp/static/images/miscellaneous/hurry_up.png' height='500'></p><p><b>[Press the space bar to continue]</b></p></div>","32","","","","","","","","","","","","","","","","","","","","","","",""
"","instruc10","38","225464","0.0-35.0-2.0","""event"",""trial"",""time""
""fullscreenenter"",""0"",""3205""
","
","
","""event"",""trial"",""time""
""fullscreenenter"",""0"",""3205""
","
","null","run_exp/static/audio/clip_12_probe.m4a","null","","","","","<div class='center'><p>Once you've chosen a pirate, you’ll be shown the ship they are robbing. You will never rob the same ship twice. Ships can be told apart from one another by the image on them. These are the goods that they sell. See, this ship has a travel mug on it. </p><p> You’ll have to remember which island you saw each ship on. You will win more gold coins and hence more bonus money if you remember correctly! To help you remember, you can imagine a story. For example, here, you could imagine a mug full of water in the desert. Or, as another example, if on the forest island, your pirate robbed a ship with an apple on it, you could imagine an apple falling from a tree in the forest. </p><p><img src='run_exp/static/images/tutorial/example_probe.png' height='500'></p></div>","","","","","","","","","","","","","","","","","",""
"","html-keyboard-response","39","247171","0.0-35.0-3.0","""event"",""trial"",""time""
""fullscreenenter"",""0"",""3205""
","
","
","""event"",""trial"",""time""
""fullscreenenter"",""0"",""3205""
","
","21706.10000000149","<div class='center'><p>Once you've chosen a pirate, you’ll be shown the ship they are robbing. You will never rob the same ship twice. Ships can be told apart from one another by the image on them. These are the goods that they sell. See, this ship has a travel mug on it. </p><p> You’ll have to remember which island you saw each ship on. You will win more gold coins and hence more bonus money if you remember correctly! To help you remember, you can imagine a story. For example, here, you could imagine a mug full of water in the desert. Or, as another example, if on the forest island, your pirate robbed a ship with an apple on it, you could imagine an apple falling from a tree in the forest. </p><p><img src='run_exp/static/images/tutorial/example_probe.png' height='500'></p><p><b>[Press the space bar to continue]</b></p></div>","32","","","","","","","","","","","","","","","","","","","","","","",""
"","instruc11","40","263617","0.0-35.0-4.0","""event"",""trial"",""time""
""fullscreenenter"",""0"",""3205""
","
","
","""event"",""trial"",""time""
""fullscreenenter"",""0"",""3205""
","
","null","run_exp/static/audio/clip_13_changepoint.m4a","null","","","","","<div class='center'><p>How successful a pirate is at robbing ships will depend on the island you’re on.</p><p> A pirate may have visited this island many times before and gained a lot of practice robbing ships there.</p><p>So, they’re more likely to be successful than a pirate who has never visited the island before.</p></div>","","","","","","","","","","","","","","","","","",""
"","html-keyboard-response","41","267142","0.0-35.0-5.0","""event"",""trial"",""time""
""fullscreenenter"",""0"",""3205""
","
","
","""event"",""trial"",""time""
""fullscreenenter"",""0"",""3205""
","
","3523.9000000059605","<div class='center'><p>How successful a pirate is at robbing ships will depend on the island you’re on.</p><p> A pirate may have visited this island many times before and gained a lot of practice robbing ships there.</p><p>So, they’re more likely to be successful than a pirate who has never visited the island before.</p><p><b>[Press the space bar to continue]</b></p></div>","32","","","","","","","","","","","","","","","","","","","","","","",""
"","instruc12","42","308225","0.0-35.0-6.0","""event"",""trial"",""time""
""fullscreenenter"",""0"",""3205""
","
","
","""event"",""trial"",""time""
""fullscreenenter"",""0"",""3205""
","
","null","run_exp/static/audio/clip_14_drift.m4a","null","","","","","<div class='center'><p>How successful a pirate is at robbing ships can also change over the time spent on the island. </p><p> Ships may hear from islanders about the pirates coming and will improve their protections against the attack. This may make it harder to rob them.</p><p> Ships may also become lazy and weaken the strength of their protections. This may make it easier to rob them.</p><br><p>Things are always changing on the high seas! So, try your best to pay attention!</p><p><img src='run_exp/static/images/tutorial/contingency.png' height='500'></p></div>","","","","","","","","","","","","","","","","","",""
"","html-keyboard-response","43","308876","0.0-35.0-7.0","""event"",""trial"",""time""
""fullscreenenter"",""0"",""3205""
","
","
","""event"",""trial"",""time""
""fullscreenenter"",""0"",""3205""
","
","650","<div class='center'><p>How successful a pirate is at robbing ships can also change over the time spent on the island. </p><p> Ships may hear from islanders about the pirates coming and will improve their protections against the attack. This may make it harder to rob them.</p><p> Ships may also become lazy and weaken the strength of their protections. This may make it easier to rob them.</p><br><p>Things are always changing on the high seas! So, try your best to pay attention!</p><p><img src='run_exp/static/images/tutorial/contingency.png' height='500'></p><p><b>[Press the space bar to continue]</b></p></div>","32","","","","","","","","","","","","","","","","","","","","","","",""
"","instruc13","44","344065","0.0-35.0-8.0","""event"",""trial"",""time""
""fullscreenenter"",""0"",""3205""
","
","
","""event"",""trial"",""time""
""fullscreenenter"",""0"",""3205""
","
","null","run_exp/static/audio/clip_15_summary.m4a","null","","","","","<div class='center'><p>Let's go over the instructions quickly again. You have two important things to do: </p><b><p> 1. Pick the pirate who is the best at robbing ships on the current island. </p></b><b><p> 2. Remember on which island a ship was robbed.</p> </b><p>The amount of bonus money you can win depends on both.</p><p><br><p>Let’s try a practice game. The game will start by showing you the pirates. First, pick a pirate using the <b> 1, 2, 3 </b> keys on your keyboard. When you are shown a ship, try to remember which island you’re on by making up a story.</p><p>This is just a practice game, so you’re not playing for money. </p><p> Good luck! This game will be very difficult but try your best!</p></div>","","","","","","","","","","","","","","","","","",""
"","html-keyboard-response","45","348040","0.0-35.0-9.0","""event"",""trial"",""time""
""fullscreenenter"",""0"",""3205""
","
","
","""event"",""trial"",""time""
""fullscreenenter"",""0"",""3205""
","
","3974.1999999955297","<div class='center'><p>Let's go over the instructions quickly again. You have two important things to do: </p><b><p> 1. Pick the pirate who is the best at robbing ships on the current island. </p></b><b><p> 2. Remember on which island a ship was robbed.</p> </b><p>The amount of bonus money you can win depends on both.</p><p><br><p>Let’s try a practice game. The game will start by showing you the pirates. First, pick a pirate using the <b> 1, 2, 3 </b> keys on your keyboard. When you are shown a ship, try to remember which island you’re on by making up a story.</p><p>This is just a practice game, so you’re not playing for money. </p><p> Good luck! This game will be very difficult but try your best!</p><p><b>[Press the space bar to continue]</b></p></div>","32","","","","","","","","","","","","","","","","","","","","","","",""
"","do_welcome","46","352050","0.0-35.0-10.0","""event"",""trial"",""time""
""fullscreenenter"",""0"",""3205""
","
","
","""event"",""trial"",""time""
""fullscreenenter"",""0"",""3205""
","
","null","","","","","","","","null","","","","","","","","","","","","","","","","",""
"","do_trial","47","358062","0.0-35.0-11.0","""event"",""trial"",""time""
""fullscreenenter"",""0"",""3205""
","
","
","""event"",""trial"",""time""
""fullscreenenter"",""0"",""3205""
","
","null","","","","","","","","null","1,0,0","","","","","","","","","","","","","","","",""
"","html-keyboard-response","48","359066","0.0-36.0-0.0","""event"",""trial"",""time""
""fullscreenenter"",""0"",""3205""
","
","
","""event"",""trial"",""time""
""fullscreenenter"",""0"",""3205""
","
","null","<p></p>","null","","","","","","","","","","","","","","","","","","","","","","",""
"","do_trial","49","364253","0.0-36.0-1.0","""event"",""trial"",""time""
""fullscreenenter"",""0"",""3205""
","
","
","""event"",""trial"",""time""
""fullscreenenter"",""0"",""3205""
","
","678.7000000029802","","","","","","","","50","1,0,0","","","","","","","","","","","","","","","",""
"","html-keyboard-response","50","365257","0.0-37.0-0.0","""event"",""trial"",""time""
""fullscreenenter"",""0"",""3205""
","
","
","""event"",""trial"",""time""
""fullscreenenter"",""0"",""3205""
","
","null","<p></p>","null","","","","","","","","","","","","","","","","","","","","","","",""
"","do_trial","51","370759","0.0-37.0-1.0","""event"",""trial"",""time""
""fullscreenenter"",""0"",""3205""
","
","
","""event"",""trial"",""time""
""fullscreenenter"",""0"",""3205""
","
","992.6000000014901","","","","","","","","51","1,1,0","","","","","","","","","","","","","","","",""
"","html-keyboard-response","52","371764","0.0-38.0-0.0","""event"",""trial"",""time""
""fullscreenenter"",""0"",""3205""
","
","
","""event"",""trial"",""time""
""fullscreenenter"",""0"",""3205""
","
","null","<p></p>","null","","","","","","","","","","","","","","","","","","","","","","",""
"","do_trial","53","376756","0.0-38.0-1.0","""event"",""trial"",""time""
""fullscreenenter"",""0"",""3205""
","
","
","""event"",""trial"",""time""
""fullscreenenter"",""0"",""3205""
","
","483.80000000447035","","","","","","","","49","1,0,1","","","","","","","","","","","","","","","",""
"","html-keyboard-response","54","377761","0.0-39.0-0.0","""event"",""trial"",""time""
""fullscreenenter"",""0"",""3205""
","
","
","""event"",""trial"",""time""
""fullscreenenter"",""0"",""3205""
","
","null","<p></p>","null","","","","","","","","","","","","","","","","","","","","","","",""
"","do_trial","55","383310","0.0-39.0-1.0","""event"",""trial"",""time""
""fullscreenenter"",""0"",""3205""
","
","
","""event"",""trial"",""time""
""fullscreenenter"",""0"",""3205""
","
","1043.8999999985099","","","","","","","","49","0,1,0","","","","","","","","","","","","","","","",""
"","html-keyboard-response","56","384316","0.0-40.0-0.0","""event"",""trial"",""time""
""fullscreenenter"",""0"",""3205""
","
","
","""event"",""trial"",""time""
""fullscreenenter"",""0"",""3205""
","
","null","<p></p>","null","","","","","","","","","","","","","","","","","","","","","","",""
"","do_trial","57","389295","0.0-40.0-1.0","""event"",""trial"",""time""
""fullscreenenter"",""0"",""3205""
","
","
","""event"",""trial"",""time""
""fullscreenenter"",""0"",""3205""
","
","470.69999999552965","","","","","","","","50","1,0,0","","","","","","","","","","","","","","","",""
"","do_bye","58","390801","0.0-41.0-0.0","""event"",""trial"",""time""
""fullscreenenter"",""0"",""3205""
","
","
","""event"",""trial"",""time""
""fullscreenenter"",""0"",""3205""
","
","null","","","","","","","","null","","","","","","","","","","","","","","","","",""
"","do_travel","59","399806","0.0-41.0-1.0","""event"",""trial"",""time""
""fullscreenenter"",""0"",""3205""
","
","
","""event"",""trial"",""time""
""fullscreenenter"",""0"",""3205""
","
","null","","","","","","","","null","","","","","","","","","","","","","","","","",""
"","do_welcome","60","403811","0.0-41.0-2.0","""event"",""trial"",""time""
""fullscreenenter"",""0"",""3205""
","
","
","""event"",""trial"",""time""
""fullscreenenter"",""0"",""3205""
","
","null","","","","","","","","null","","","","","","","","","","","","","","","","",""
"","do_trial","61","409374","0.0-41.0-3.0","""event"",""trial"",""time""
""fullscreenenter"",""0"",""3205""
","
","
","""event"",""trial"",""time""
""fullscreenenter"",""0"",""3205""
","
","1057.3999999985099","","","","","","","","49","1,0,0","","","","","","","","","","","","","","","",""
"","html-keyboard-response","62","410379","0.0-42.0-0.0","""event"",""trial"",""time""
""fullscreenenter"",""0"",""3205""
","
","
","""event"",""trial"",""time""
""fullscreenenter"",""0"",""3205""
","
","null","<p></p>","null","","","","","","","","","","","","","","","","","","","","","","",""
"","do_trial","63","415376","0.0-42.0-1.0","""event"",""trial"",""time""
""fullscreenenter"",""0"",""3205""
","
","
","""event"",""trial"",""time""
""fullscreenenter"",""0"",""3205""
","
","489.70000000298023","","","","","","","","50","1,0,1","","","","","","","","","","","","","","","",""
"","html-keyboard-response","64","416380","0.0-43.0-0.0","""event"",""trial"",""time""
""fullscreenenter"",""0"",""3205""
","
","
","""event"",""trial"",""time""
""fullscreenenter"",""0"",""3205""
","
","null","<p></p>","null","","","","","","","","","","","","","","","","","","","","","","",""
"","do_trial","65","421158","0.0-43.0-1.0","""event"",""trial"",""time""
""fullscreenenter"",""0"",""3205""
","
","
","""event"",""trial"",""time""
""fullscreenenter"",""0"",""3205""
","
","270.8999999985099","","","","","","","","51","1,1,0","","","","","","","","","","","","","","","",""
"","html-keyboard-response","66","422163","0.0-44.0-0.0","""event"",""trial"",""time""
""fullscreenenter"",""0"",""3205""
","
","
","""event"",""trial"",""time""
""fullscreenenter"",""0"",""3205""
","
","null","<p></p>","null","","","","","","","","","","","","","","","","","","","","","","",""
"","do_trial","67","427035","0.0-44.0-1.0","""event"",""trial"",""time""
""fullscreenenter"",""0"",""3205""
","
","
","""event"",""trial"",""time""
""fullscreenenter"",""0"",""3205""
","
","363.5","","","","","","","","49","0,0,1","","","","","","","","","","","","","","","",""
"","html-keyboard-response","68","428041","0.0-45.0-0.0","""event"",""trial"",""time""
""fullscreenenter"",""0"",""3205""
","
","
","""event"",""trial"",""time""
""fullscreenenter"",""0"",""3205""
","
","null","<p></p>","null","","","","","","","","","","","","","","","","","","","","","","",""
"","do_trial","69","432910","0.0-45.0-1.0","""event"",""trial"",""time""
""fullscreenenter"",""0"",""3205""
","
","
","""event"",""trial"",""time""
""fullscreenenter"",""0"",""3205""
","
","360.1000000014901","","","","","","","","50","1,0,1","","","","","","","","","","","","","","","",""
"","html-keyboard-response","70","435793","0.0-46.0-0.0","""event"",""trial"",""time""
""fullscreenenter"",""0"",""3205""
","
","
","""event"",""trial"",""time""
""fullscreenenter"",""0"",""3205""
","
","2882","<div class='center'><p><img src='run_exp/static/images/tutorial/prac_best_pirate.png'  height='500'></p></div>","49","","","","","","","","","","","","","","","","","","","","","","",""
"","html-keyboard-response","71","437082","0.0-47.0-0.0","""event"",""trial"",""time""
""fullscreenenter"",""0"",""3205""
","
","
","""event"",""trial"",""time""
""fullscreenenter"",""0"",""3205""
","
","1288.1000000014901","<div class='center'><p>That's correct! Red beard was the best.</p><p><b>[Press the space bar to continue]</b></p></div>","32","","","","","","","","","","","","","","","","","","","","","","",""
"","html-keyboard-response","72","440590","0.0-47.0-1.0","""event"",""trial"",""time""
""fullscreenenter"",""0"",""3205""
","
","
","""event"",""trial"",""time""
""fullscreenenter"",""0"",""3205""
","
","3507.5999999940395","<div class='center'><p><img src='run_exp/static/images/tutorial/prac_source.png'  height='500'></p></div>","50","","","","","","","","","","","","","","","","","","","","","","",""
"","html-keyboard-response","73","441808","0.0-48.0-0.0","""event"",""trial"",""time""
""fullscreenenter"",""0"",""3205""
","
","
","""event"",""trial"",""time""
""fullscreenenter"",""0"",""3205""
","
","1217.1000000014901","<div class='center'><p>That's correct! You saw this ship on the cavern island.</p><p><b>[Press the space bar to continue]</b></p></div>","32","","","","","","","","","","","","","","","","","","","","","","",""
"","quiz_beginning","74","453067","0.0-48.0-1.0","""event"",""trial"",""time""
""fullscreenenter"",""0"",""3205""
","
","
","""event"",""trial"",""time""
""fullscreenenter"",""0"",""3205""
","
","null","run_exp/static/audio/clip_16_quiz_intro.m4a","null","","","","","<div class='center'><p>Good job on the practice game! Now, you will be asked some true or false questions to make sure you really understand the rules of the game.</p><p> Press <b>'1'</b> on the keyboard for true and press <b>'2'</b> for false.</p></div>","","","","","","","","","","","","","","","","","",""
"","audio-keyboard-response","75","458858","0.0-48.0-2.0","""event"",""trial"",""time""
""fullscreenenter"",""0"",""3205""
","
","
","""event"",""trial"",""time""
""fullscreenenter"",""0"",""3205""
","
","5789.79999999702","run_exp/static/audio/clip_17_q1.m4a","49","","","","","","","","","","","","","","","","","","","","","","",""
"","correct","76","461259","0.0-49.0-0.0","""event"",""trial"",""time""
""fullscreenenter"",""0"",""3205""
","
","
","""event"",""trial"",""time""
""fullscreenenter"",""0"",""3205""
","
","null","run_exp/static/audio/clip_18_correct.m4a","null","","","","","<div class='center'><p>That's correct!</p></div>","","","","","","","","","","","","","","","","","",""
"","html-keyboard-response","77","462219","0.0-49.0-1.0","""event"",""trial"",""time""
""fullscreenenter"",""0"",""3205""
","
","
","""event"",""trial"",""time""
""fullscreenenter"",""0"",""3205""
","
","959.9000000059605","<div class='center'><p>That's correct!</p><p><b>[Press the space bar to continue]</b></p></div>","32","","","","","","","","","","","","","","","","","","","","","","",""
"","audio-keyboard-response","78","471586","0.0-49.0-2.0","""event"",""trial"",""time""
""fullscreenenter"",""0"",""3205""
","
","
","""event"",""trial"",""time""
""fullscreenenter"",""0"",""3205""
","
","9366.79999999702","run_exp/static/audio/clip_20_q2.m4a","49","","","","","","","","","","","","","","","","","","","","","","",""
"","q2_err","79","477067","0.0-50.0-0.0","""event"",""trial"",""time""
""fullscreenenter"",""0"",""3205""
","
","
","""event"",""trial"",""time""
""fullscreenenter"",""0"",""3205""
","
","null","run_exp/static/audio/clip_21_wrong_q2.m4a","null","","","","","<div class='center'><p>That’s incorrect. Which pirate is the best may change during your time on the island.</p></div>","","","","","","","","","","","","","","","","","",""
"","html-keyboard-response","80","477729","0.0-50.0-1.0","""event"",""trial"",""time""
""fullscreenenter"",""0"",""3205""
","
","
","""event"",""trial"",""time""
""fullscreenenter"",""0"",""3205""
","
","661","<div class='center'><p>That’s incorrect. Which pirate is the best may change during your time on the island.</p><p><b>[Press the space bar to continue]</b></p></div>","32","","","","","","","","","","","","","","","","","","","","","","",""
"","audio-keyboard-response","81","481513","0.0-50.0-2.0","""event"",""trial"",""time""
""fullscreenenter"",""0"",""3205""
","
","
","""event"",""trial"",""time""
""fullscreenenter"",""0"",""3205""
","
","3783.5","run_exp/static/audio/clip_22_q3.m4a","50","","","","","","","","","","","","","","","","","","","","","","",""
"","correct","82","483936","0.0-51.0-0.0","""event"",""trial"",""time""
""fullscreenenter"",""0"",""3205""
","
","
","""event"",""trial"",""time""
""fullscreenenter"",""0"",""3205""
","
","null","run_exp/static/audio/clip_18_correct.m4a","null","","","","","<div class='center'><p>That's correct!</p></div>","","","","","","","","","","","","","","","","","",""
"","html-keyboard-response","83","484483","0.0-51.0-1.0","""event"",""trial"",""time""
""fullscreenenter"",""0"",""3205""
","
","
","""event"",""trial"",""time""
""fullscreenenter"",""0"",""3205""
","
","545.8999999985099","<div class='center'><p>That's correct!</p><p><b>[Press the space bar to continue]</b></p></div>","32","","","","","","","","","","","","","","","","","","","","","","",""
"","audio-keyboard-response","84","487494","0.0-51.0-2.0","""event"",""trial"",""time""
""fullscreenenter"",""0"",""3205""
","
","
","""event"",""trial"",""time""
""fullscreenenter"",""0"",""3205""
","
","3010.60000000149","run_exp/static/audio/clip_24_q4.m4a","49","","","","","","","","","","","","","","","","","","","","","","",""
"","correct","85","489888","0.0-52.0-0.0","""event"",""trial"",""time""
""fullscreenenter"",""0"",""3205""
","
","
","""event"",""trial"",""time""
""fullscreenenter"",""0"",""3205""
","
","null","run_exp/static/audio/clip_18_correct.m4a","null","","","","","<div class='center'><p>That's correct!</p></div>","","","","","","","","","","","","","","","","","",""
"","html-keyboard-response","86","490927","0.0-52.0-1.0","""event"",""trial"",""time""
""fullscreenenter"",""0"",""3205""
","
","
","""event"",""trial"",""time""
""fullscreenenter"",""0"",""3205""
","
","1038.3000000044703","<div class='center'><p>That's correct!</p><p><b>[Press the space bar to continue]</b></p></div>","32","","","","","","","","","","","","","","","","","","","","","","",""
"","q_all_err","87","497120","0.0-53.0-0.0","""event"",""trial"",""time""
""fullscreenenter"",""0"",""3205""
","
","
","""event"",""trial"",""time""
""fullscreenenter"",""0"",""3205""
","
","null","run_exp/static/audio/clip_26_quiz_redo.m4a","null","","","","","<div class='center'><p>Oops, you missed some questions. Now that you’ve heard the correct answers. Try the quiz again! </p></div>","","","","","","","","","","","","","","","","","",""
"","html-keyboard-response","88","497803","0.0-53.0-1.0","""event"",""trial"",""time""
""fullscreenenter"",""0"",""3205""
","
","
","""event"",""trial"",""time""
""fullscreenenter"",""0"",""3205""
","
","682.5","<div class='center'><p>Oops, you missed some questions. Now that you’ve heard the correct answers. Try the quiz again! </p><p><b>[Press the space bar to continue]</b></p></div>","32","","","","","","","","","","","","","","","","","","","","","","",""
"","audio-keyboard-response","89","499459","0.0-53.0-2.0","""event"",""trial"",""time""
""fullscreenenter"",""0"",""3205""
","
","
","""event"",""trial"",""time""
""fullscreenenter"",""0"",""3205""
","
","1655.2000000029802","run_exp/static/audio/clip_17_q1.m4a","49","","","","","","","","","","","","","","","","","","","","","","",""
"","correct","90","501856","0.0-54.0-0.0","""event"",""trial"",""time""
""fullscreenenter"",""0"",""3205""
","
","
","""event"",""trial"",""time""
""fullscreenenter"",""0"",""3205""
","
","null","run_exp/static/audio/clip_18_correct.m4a","null","","","","","<div class='center'><p>That's correct!</p></div>","","","","","","","","","","","","","","","","","",""
"","html-keyboard-response","91","502511","0.0-54.0-1.0","""event"",""trial"",""time""
""fullscreenenter"",""0"",""3205""
","
","
","""event"",""trial"",""time""
""fullscreenenter"",""0"",""3205""
","
","653.6999999955297","<div class='center'><p>That's correct!</p><p><b>[Press the space bar to continue]</b></p></div>","32","","","","","","","","","","","","","","","","","","","","","","",""
"","audio-keyboard-response","92","508262","0.0-54.0-2.0","""event"",""trial"",""time""
""fullscreenenter"",""0"",""3205""
","
","
","""event"",""trial"",""time""
""fullscreenenter"",""0"",""3205""
","
","5750.70000000298","run_exp/static/audio/clip_20_q2.m4a","49","","","","","","","","","","","","","","","","","","","","","","",""
"","q2_err","93","513739","0.0-55.0-0.0","""event"",""trial"",""time""
""fullscreenenter"",""0"",""3205""
","
","
","""event"",""trial"",""time""
""fullscreenenter"",""0"",""3205""
","
","null","run_exp/static/audio/clip_21_wrong_q2.m4a","null","","","","","<div class='center'><p>That’s incorrect. Which pirate is the best may change during your time on the island.</p></div>","","","","","","","","","","","","","","","","","",""
"","html-keyboard-response","94","514093","0.0-55.0-1.0","""event"",""trial"",""time""
""fullscreenenter"",""0"",""3205""
","
","
","""event"",""trial"",""time""
""fullscreenenter"",""0"",""3205""
","
","353.5","<div class='center'><p>That’s incorrect. Which pirate is the best may change during your time on the island.</p><p><b>[Press the space bar to continue]</b></p></div>","32","","","","","","","","","","","","","","","","","","","","","","",""
"","audio-keyboard-response","95","516721","0.0-55.0-2.0","""event"",""trial"",""time""
""fullscreenenter"",""0"",""3205""
","
","
","""event"",""trial"",""time""
""fullscreenenter"",""0"",""3205""
","
","2627.60000000149","run_exp/static/audio/clip_22_q3.m4a","50","","","","","","","","","","","","","","","","","","","","","","",""
"","correct","96","519115","0.0-56.0-0.0","""event"",""trial"",""time""
""fullscreenenter"",""0"",""3205""
","
","
","""event"",""trial"",""time""
""fullscreenenter"",""0"",""3205""
","
","null","run_exp/static/audio/clip_18_correct.m4a","null","","","","","<div class='center'><p>That's correct!</p></div>","","","","","","","","","","","","","","","","","",""
"","html-keyboard-response","97","519662","0.0-56.0-1.0","""event"",""trial"",""time""
""fullscreenenter"",""0"",""3205""
","
","
","""event"",""trial"",""time""
""fullscreenenter"",""0"",""3205""
","
","547.2000000029802","<div class='center'><p>That's correct!</p><p><b>[Press the space bar to continue]</b></p></div>","32","","","","","","","","","","","","","","","","","","","","","","",""
"","audio-keyboard-response","98","521437","0.0-56.0-2.0","""event"",""trial"",""time""
""fullscreenenter"",""0"",""3205""
","
","
","""event"",""trial"",""time""
""fullscreenenter"",""0"",""3205""
","
","1773.6999999955297","run_exp/static/audio/clip_24_q4.m4a","49","","","","","","","","","","","","","","","","","","","","","","",""
"","correct","99","523830","0.0-57.0-0.0","""event"",""trial"",""time""
""fullscreenenter"",""0"",""3205""
","
","
","""event"",""trial"",""time""
""fullscreenenter"",""0"",""3205""
","
","null","run_exp/static/audio/clip_18_correct.m4a","null","","","","","<div class='center'><p>That's correct!</p></div>","","","","","","","","","","","","","","","","","",""
"","html-keyboard-response","100","524372","0.0-57.0-1.0","""event"",""trial"",""time""
""fullscreenenter"",""0"",""3205""
","
","
","""event"",""trial"",""time""
""fullscreenenter"",""0"",""3205""
","
","542.0999999940395","<div class='center'><p>That's correct!</p><p><b>[Press the space bar to continue]</b></p></div>","32","","","","","","","","","","","","","","","","","","","","","","",""
"","q_all_err","101","530571","0.0-58.0-0.0","""event"",""trial"",""time""
""fullscreenenter"",""0"",""3205""
","
","
","""event"",""trial"",""time""
""fullscreenenter"",""0"",""3205""
","
","null","run_exp/static/audio/clip_26_quiz_redo.m4a","null","","","","","<div class='center'><p>Oops, you missed some questions. Now that you’ve heard the correct answers. Try the quiz again! </p></div>","","","","","","","","","","","","","","","","","",""
"","html-keyboard-response","102","531096","0.0-58.0-1.0","""event"",""trial"",""time""
""fullscreenenter"",""0"",""3205""
","
","
","""event"",""trial"",""time""
""fullscreenenter"",""0"",""3205""
","
","524.7000000029802","<div class='center'><p>Oops, you missed some questions. Now that you’ve heard the correct answers. Try the quiz again! </p><p><b>[Press the space bar to continue]</b></p></div>","32","","","","","","","","","","","","","","","","","","","","","","",""
"","audio-keyboard-response","103","532373","0.0-58.0-2.0","""event"",""trial"",""time""
""fullscreenenter"",""0"",""3205""
","
","
","""event"",""trial"",""time""
""fullscreenenter"",""0"",""3205""
","
","1276.7000000029802","run_exp/static/audio/clip_17_q1.m4a","49","","","","","","","","","","","","","","","","","","","","","","",""
"","correct","104","534773","0.0-59.0-0.0","""event"",""trial"",""time""
""fullscreenenter"",""0"",""3205""
","
","
","""event"",""trial"",""time""
""fullscreenenter"",""0"",""3205""
","
","null","run_exp/static/audio/clip_18_correct.m4a","null","","","","","<div class='center'><p>That's correct!</p></div>","","","","","","","","","","","","","","","","","",""
"","html-keyboard-response","105","535481","0.0-59.0-1.0","""event"",""trial"",""time""
""fullscreenenter"",""0"",""3205""
","
","
","""event"",""trial"",""time""
""fullscreenenter"",""0"",""3205""
","
","707.5","<div class='center'><p>That's correct!</p><p><b>[Press the space bar to continue]</b></p></div>","32","","","","","","","","","","","","","","","","","","","","","","",""
"","audio-keyboard-response","106","538603","0.0-59.0-2.0","""event"",""trial"",""time""
""fullscreenenter"",""0"",""3205""
","
","
","""event"",""trial"",""time""
""fullscreenenter"",""0"",""3205""
","
","3120.7000000029802","run_exp/static/audio/clip_20_q2.m4a","50","","","","","","","","","","","","","","","","","","","","","","",""
"","correct","107","541003","0.0-60.0-0.0","""event"",""trial"",""time""
""fullscreenenter"",""0"",""3205""
","
","
","""event"",""trial"",""time""
""fullscreenenter"",""0"",""3205""
","
","null","run_exp/static/audio/clip_18_correct.m4a","null","","","","","<div class='center'><p>That's correct!</p></div>","","","","","","","","","","","","","","","","","",""
"","html-keyboard-response","108","541367","0.0-60.0-1.0","""event"",""trial"",""time""
""fullscreenenter"",""0"",""3205""
","
","
","""event"",""trial"",""time""
""fullscreenenter"",""0"",""3205""
","
","363.5","<div class='center'><p>That's correct!</p><p><b>[Press the space bar to continue]</b></p></div>","32","","","","","","","","","","","","","","","","","","","","","","",""
"","audio-keyboard-response","109","545534","0.0-60.0-2.0","""event"",""trial"",""time""
""fullscreenenter"",""0"",""3205""
","
","
","""event"",""trial"",""time""
""fullscreenenter"",""0"",""3205""
","
","4167.10000000149","run_exp/static/audio/clip_22_q3.m4a","50","","","","","","","","","","","","","","","","","","","","","","",""
"","correct","110","547936","0.0-61.0-0.0","""event"",""trial"",""time""
""fullscreenenter"",""0"",""3205""
","
","
","""event"",""trial"",""time""
""fullscreenenter"",""0"",""3205""
","
","null","run_exp/static/audio/clip_18_correct.m4a","null","","","","","<div class='center'><p>That's correct!</p></div>","","","","","","","","","","","","","","","","","",""
"","html-keyboard-response","111","548322","0.0-61.0-1.0","""event"",""trial"",""time""
""fullscreenenter"",""0"",""3205""
","
","
","""event"",""trial"",""time""
""fullscreenenter"",""0"",""3205""
","
","385.5","<div class='center'><p>That's correct!</p><p><b>[Press the space bar to continue]</b></p></div>","32","","","","","","","","","","","","","","","","","","","","","","",""
"","audio-keyboard-response","112","550008","0.0-61.0-2.0","""event"",""trial"",""time""
""fullscreenenter"",""0"",""3205""
","
","
","""event"",""trial"",""time""
""fullscreenenter"",""0"",""3205""
","
","1685.2000000029802","run_exp/static/audio/clip_24_q4.m4a","49","","","","","","","","","","","","","","","","","","","","","","",""
"","correct","113","552438","0.0-62.0-0.0","""event"",""trial"",""time""
""fullscreenenter"",""0"",""3205""
","
","
","""event"",""trial"",""time""
""fullscreenenter"",""0"",""3205""
","
","null","run_exp/static/audio/clip_18_correct.m4a","null","","","","","<div class='center'><p>That's correct!</p></div>","","","","","","","","","","","","","","","","","",""
"","html-keyboard-response","114","552866","0.0-62.0-1.0","""event"",""trial"",""time""
""fullscreenenter"",""0"",""3205""
","
","
","""event"",""trial"",""time""
""fullscreenenter"",""0"",""3205""
","
","427.5","<div class='center'><p>That's correct!</p><p><b>[Press the space bar to continue]</b></p></div>","32","","","","","","","","","","","","","","","","","","","","","","",""
"","q_all_corr","115","561355","0.0-63.0-0.0","""event"",""trial"",""time""
""fullscreenenter"",""0"",""3205""
","
","
","""event"",""trial"",""time""
""fullscreenenter"",""0"",""3205""
","
","null","run_exp/static/audio/clip_27_quiz_all_correct.m4a","null","","","","","<div class='center'><p>Good job! You’re now ready to move on to the real game! Remember this game will be difficult but don't get discouraged and try your best!</p></div>","","","","","","","","","","","","","","","","","",""
"","html-keyboard-response","116","562482","0.0-63.0-1.0","""event"",""trial"",""time""
""fullscreenenter"",""0"",""3205""
","
","
","""event"",""trial"",""time""
""fullscreenenter"",""0"",""3205""
","
","1125.8999999985099","<div class='center'><p>Good job! You’re now ready to move on to the real game! Remember this game will be difficult but don't get discouraged and try your best!</p><p><b>[Press the space bar to continue]</b></p></div>","32","","","","","","","","","","","","","","","","","","","","","","",""
"","do_welcome","117","566485","0.0-64.0-0.0","""event"",""trial"",""time""
""fullscreenenter"",""0"",""3205""
","
","
","""event"",""trial"",""time""
""fullscreenenter"",""0"",""3205""
","
","null","","","","","","","","null","","","","","","","","","","","","","","","","",""
"","do_trial","118","571824","0.0-65.0-0.0","""event"",""trial"",""time""
""fullscreenenter"",""0"",""3205""
","
","
","""event"",""trial"",""time""
""fullscreenenter"",""0"",""3205""
","
","802.2000000029802","","","","","","","","49","1,0,0","0","coast","0","probe-54","0.6","0.3","0.1","1","","","","","","","",""
"","html-keyboard-response","119","572829","0.0-65.0-1.0","""event"",""trial"",""time""
""fullscreenenter"",""0"",""3205""
","
","
","""event"",""trial"",""time""
""fullscreenenter"",""0"",""3205""
","
","null","<p></p>","null","","","","","","","","","","","","","","","","","","","","","","",""
"","do_trial","120","577979","0.0-66.0-0.0","""event"",""trial"",""time""
""fullscreenenter"",""0"",""3205""
","
","
","""event"",""trial"",""time""
""fullscreenenter"",""0"",""3205""
","
","618.1000000014901","","","","","","","","49","1,1,0","0","coast","1","probe-128","0.7003744398179482","0.31063114771032824","0.09858904959706431","1","","","","","","","",""
"","html-keyboard-response","121","578984","0.0-66.0-1.0","""event"",""trial"",""time""
""fullscreenenter"",""0"",""3205""
","
","
","""event"",""trial"",""time""
""fullscreenenter"",""0"",""3205""
","
","null","<p></p>","null","","","","","","","","","","","","","","","","","","","","","","",""
"","do_trial","122","583992","0.0-67.0-0.0","""event"",""trial"",""time""
""fullscreenenter"",""0"",""3205""
","
","
","""event"",""trial"",""time""
""fullscreenenter"",""0"",""3205""
","
","476.3999999985099","","","","","","","","49","1,0,1","0","coast","2","probe-220","0.6934685610975977","0.2714019756775219","0.10525645090137392","1","","","","","","","",""
"","html-keyboard-response","123","584997","0.0-67.0-1.0","""event"",""trial"",""time""
""fullscreenenter"",""0"",""3205""
","
","
","""event"",""trial"",""time""
""fullscreenenter"",""0"",""3205""
","
","null","<p></p>","null","","","","","","","","","","","","","","","","","","","","","","",""
"","do_trial","124","590013","0.0-68.0-0.0","""event"",""trial"",""time""
""fullscreenenter"",""0"",""3205""
","
","
","""event"",""trial"",""time""
""fullscreenenter"",""0"",""3205""
","
","485.8999999985099","","","","","","","","49","1,0,0","0","coast","3","probe-35","0.5821558112043566","0.33164736681520546","0.19193804005336979","1","","","","","","","",""
"","html-keyboard-response","125","591018","0.0-68.0-1.0","""event"",""trial"",""time""
""fullscreenenter"",""0"",""3205""
","
","
","""event"",""trial"",""time""
""fullscreenenter"",""0"",""3205""
","
","null","<p></p>","null","","","","","","","","","","","","","","","","","","","","","","",""
"","do_trial","126","596125","0.0-69.0-0.0","""event"",""trial"",""time""
""fullscreenenter"",""0"",""3205""
","
","
","""event"",""trial"",""time""
""fullscreenenter"",""0"",""3205""
","
","574.5999999940395","","","","","","","","49","1,0,0","0","coast","4","probe-17","0.5900968070703594","0.2865739766718564","0.06479444107398237","1","","","","","","","",""
"","html-keyboard-response","127","597127","0.0-69.0-1.0","""event"",""trial"",""time""
""fullscreenenter"",""0"",""3205""
","
","
","""event"",""trial"",""time""
""fullscreenenter"",""0"",""3205""
","
","null","<p></p>","null","","","","","","","","","","","","","","","","","","","","","","",""
"","do_trial","128","602085","0.0-70.0-0.0","""event"",""trial"",""time""
""fullscreenenter"",""0"",""3205""
","
","
","""event"",""trial"",""time""
""fullscreenenter"",""0"",""3205""
","
","427.29999999701977","","","","","","","","49","1,1,0","0","coast","5","probe-145","0.7790140177863577","0.13029565480073071","0.13210891664157123","1","","","","","","","",""
"","html-keyboard-response","129","603090","0.0-70.0-1.0","""event"",""trial"",""time""
""fullscreenenter"",""0"",""3205""
","
","
","""event"",""trial"",""time""
""fullscreenenter"",""0"",""3205""
","
","null","<p></p>","null","","","","","","","","","","","","","","","","","","","","","","",""
"","do_trial","130","608140","0.0-71.0-0.0","""event"",""trial"",""time""
""fullscreenenter"",""0"",""3205""
","
","
","""event"",""trial"",""time""
""fullscreenenter"",""0"",""3205""
","
","517","","","","","","","","49","1,0,0","0","coast","6","probe-82","0.774334795909288","0.11941876364076034","0.0728619389724615","1","","","","","","","",""
"","html-keyboard-response","131","609143","0.0-71.0-1.0","""event"",""trial"",""time""
""fullscreenenter"",""0"",""3205""
","
","
","""event"",""trial"",""time""
""fullscreenenter"",""0"",""3205""
","
","null","<p></p>","null","","","","","","","","","","","","","","","","","","","","","","",""
"","do_trial","132","614114","0.0-72.0-0.0","""event"",""trial"",""time""
""fullscreenenter"",""0"",""3205""
","
","
","""event"",""trial"",""time""
""fullscreenenter"",""0"",""3205""
","
","440.6000000014901","","","","","","","","49","1,0,0","0","coast","7","probe-202","0.8392079771988736","0.242553353503671","0.20398999654138072","1","","","","","","","",""
"","html-keyboard-response","133","615119","0.0-72.0-1.0","""event"",""trial"",""time""
""fullscreenenter"",""0"",""3205""
","
","
","""event"",""trial"",""time""
""fullscreenenter"",""0"",""3205""
","
","null","<p></p>","null","","","","","","","","","","","","","","","","","","","","","","",""
"","do_trial","134","620039","0.0-73.0-0.0","""event"",""trial"",""time""
""fullscreenenter"",""0"",""3205""
","
","
","""event"",""trial"",""time""
""fullscreenenter"",""0"",""3205""
","
","436.5","","","","","","","","49","1,1,1","0","coast","8","probe-48","0.6550456407430311","0.3950458096424042","0.3253907987649795","1","","","","","","","",""
"","html-keyboard-response","135","621044","0.0-73.0-1.0","""event"",""trial"",""time""
""fullscreenenter"",""0"",""3205""
","
","
","""event"",""trial"",""time""
""fullscreenenter"",""0"",""3205""
","
","null","<p></p>","null","","","","","","","","","","","","","","","","","","","","","","",""
"","do_trial","136","626001","0.0-74.0-0.0","""event"",""trial"",""time""
""fullscreenenter"",""0"",""3205""
","
","
","""event"",""trial"",""time""
""fullscreenenter"",""0"",""3205""
","
","419.29999999701977","","","","","","","","49","0,1,0","0","coast","9","probe-143","0.6597091628551728","0.42792410734488145","0.18471347912514255","0","","","","","","","",""
"","html-keyboard-response","137","627007","0.0-74.0-1.0","""event"",""trial"",""time""
""fullscreenenter"",""0"",""3205""
","
","
","""event"",""trial"",""time""
""fullscreenenter"",""0"",""3205""
","
","null","<p></p>","null","","","","","","","","","","","","","","","","","","","","","","",""
"","do_trial","138","631985","0.0-75.0-0.0","""event"",""trial"",""time""
""fullscreenenter"",""0"",""3205""
","
","
","""event"",""trial"",""time""
""fullscreenenter"",""0"",""3205""
","
","439.40000000596046","","","","","","","","49","0,1,1","0","coast","10","probe-180","0.6896245861220703","0.45287005381519485","0.17098267618927107","0","","","","","","","",""
"","html-keyboard-response","139","632991","0.0-75.0-1.0","""event"",""trial"",""time""
""fullscreenenter"",""0"",""3205""
","
","
","""event"",""trial"",""time""
""fullscreenenter"",""0"",""3205""
","
","null","<p></p>","null","","","","","","","","","","","","","","","","","","","","","","",""
"","do_trial","140","638275","0.0-76.0-0.0","""event"",""trial"",""time""
""fullscreenenter"",""0"",""3205""
","
","
","""event"",""trial"",""time""
""fullscreenenter"",""0"",""3205""
","
","740.8999999985099","","","","","","","","49","1,1,0","0","coast","11","probe-121","0.6403550522949236","0.3769353825460054","0.21914022878392075","1","","","","","","","",""
"","html-keyboard-response","141","639281","0.0-76.0-1.0","""event"",""trial"",""time""
""fullscreenenter"",""0"",""3205""
","
","
","""event"",""trial"",""time""
""fullscreenenter"",""0"",""3205""
","
","null","<p></p>","null","","","","","","","","","","","","","","","","","","","","","","",""
"","do_trial","142","644251","0.0-77.0-0.0","""event"",""trial"",""time""
""fullscreenenter"",""0"",""3205""
","
","
","""event"",""trial"",""time""
""fullscreenenter"",""0"",""3205""
","
","437.90000000596046","","","","","","","","49","1,0,1","0","coast","12","probe-25","0.477953537878808","0.3860873927924664","0.058733927398170564","1","","","","","","","",""
"","html-keyboard-response","143","645254","0.0-77.0-1.0","""event"",""trial"",""time""
""fullscreenenter"",""0"",""3205""
","
","
","""event"",""trial"",""time""
""fullscreenenter"",""0"",""3205""
","
","null","<p></p>","null","","","","","","","","","","","","","","","","","","","","","","",""
"","do_trial","144","650176","0.0-78.0-0.0","""event"",""trial"",""time""
""fullscreenenter"",""0"",""3205""
","
","
","""event"",""trial"",""time""
""fullscreenenter"",""0"",""3205""
","
","391.1000000014901","","","","","","","","49","0,0,0","0","coast","13","probe-132","0.45865103654050987","0.34366281808349813","0.12501009074820588","0","","","","","","","",""
"","html-keyboard-response","145","651182","0.0-78.0-1.0","""event"",""trial"",""time""
""fullscreenenter"",""0"",""3205""
","
","
","""event"",""trial"",""time""
""fullscreenenter"",""0"",""3205""
","
","null","<p></p>","null","","","","","","","","","","","","","","","","","","","","","","",""
"","do_trial","146","656790","0.0-79.0-0.0","""event"",""trial"",""time""
""fullscreenenter"",""0"",""3205""
","
","
","""event"",""trial"",""time""
""fullscreenenter"",""0"",""3205""
","
","1075.2000000029802","","","","","","","","49","0,1,1","0","coast","14","probe-02","0.4454406290314922","0.30748836375630667","0.25972016270637377","0","","","","","","","",""
"","html-keyboard-response","147","657795","0.0-79.0-1.0","""event"",""trial"",""time""
""fullscreenenter"",""0"",""3205""
","
","
","""event"",""trial"",""time""
""fullscreenenter"",""0"",""3205""
","
","null","<p></p>","null","","","","","","","","","","","","","","","","","","","","","","",""
"","do_trial","148","662761","0.0-80.0-0.0","""event"",""trial"",""time""
""fullscreenenter"",""0"",""3205""
","
","
","""event"",""trial"",""time""
""fullscreenenter"",""0"",""3205""
","
","436.8999999985099","","","","","","","","50","0,0,0","0","coast","15","probe-66","0.524027128633543","0.4214340925357507","0.08251378388243855","0","","","","","","","",""
"","html-keyboard-response","149","663765","0.0-80.0-1.0","""event"",""trial"",""time""
""fullscreenenter"",""0"",""3205""
","
","
","""event"",""trial"",""time""
""fullscreenenter"",""0"",""3205""
","
","null","<p></p>","null","","","","","","","","","","","","","","","","","","","","","","",""
"","do_trial","150","668726","0.0-81.0-0.0","""event"",""trial"",""time""
""fullscreenenter"",""0"",""3205""
","
","
","""event"",""trial"",""time""
""fullscreenenter"",""0"",""3205""
","
","423.70000000298023","","","","","","","","51","1,1,1","0","coast","16","probe-88","0.5186454807620788","0.3768319780332723","0.14214997169728752","1","","","","","","","",""
"","html-keyboard-response","151","669731","0.0-81.0-1.0","""event"",""trial"",""time""
""fullscreenenter"",""0"",""3205""
","
","
","""event"",""trial"",""time""
""fullscreenenter"",""0"",""3205""
","
","null","<p></p>","null","","","","","","","","","","","","","","","","","","","","","","",""
"","do_trial","152","674595","0.0-82.0-0.0","""event"",""trial"",""time""
""fullscreenenter"",""0"",""3205""
","
","
","""event"",""trial"",""time""
""fullscreenenter"",""0"",""3205""
","
","330.5","","","","","","","","51","1,1,1","0","coast","17","probe-206","0.5478652298130823","0.4529344825994101","0.18306882267643157","1","","","","","","","",""
"","html-keyboard-response","153","675600","0.0-82.0-1.0","""event"",""trial"",""time""
""fullscreenenter"",""0"",""3205""
","
","
","""event"",""trial"",""time""
""fullscreenenter"",""0"",""3205""
","
","null","<p></p>","null","","","","","","","","","","","","","","","","","","","","","","",""
"","do_trial","154","680478","0.0-83.0-0.0","""event"",""trial"",""time""
""fullscreenenter"",""0"",""3205""
","
","
","""event"",""trial"",""time""
""fullscreenenter"",""0"",""3205""
","
","343","","","","","","","","51","1,0,0","0","coast","18","probe-166","0.7233224267862594","0.418715892617233","0.07338374031484755","0","","","","","","","",""
"","html-keyboard-response","155","681483","0.0-83.0-1.0","""event"",""trial"",""time""
""fullscreenenter"",""0"",""3205""
","
","
","""event"",""trial"",""time""
""fullscreenenter"",""0"",""3205""
","
","null","<p></p>","null","","","","","","","","","","","","","","","","","","","","","","",""
"","do_trial","156","686553","0.0-84.0-0.0","""event"",""trial"",""time""
""fullscreenenter"",""0"",""3205""
","
","
","""event"",""trial"",""time""
""fullscreenenter"",""0"",""3205""
","
","535.6000000014901","","","","","","","","51","1,1,1","0","coast","19","probe-101","0.8998250334162391","0.43535023163873704","0.06911173192073726","1","","","","","","","",""
"","html-keyboard-response","157","687557","0.0-84.0-1.0","""event"",""trial"",""time""
""fullscreenenter"",""0"",""3205""
","
","
","""event"",""trial"",""time""
""fullscreenenter"",""0"",""3205""
","
","null","<p></p>","null","","","","","","","","","","","","","","","","","","","","","","",""
"","do_trial","158","692682","0.0-85.0-0.0","""event"",""trial"",""time""
""fullscreenenter"",""0"",""3205""
","
","
","""event"",""trial"",""time""
""fullscreenenter"",""0"",""3205""
","
","590.3000000044703","","","","","","","","51","1,0,1","0","coast","20","probe-79","0.7988361168612361","0.4667317058176823","0.08826861058321488","1","","","","","","","",""
"","html-keyboard-response","159","693688","0.0-85.0-1.0","""event"",""trial"",""time""
""fullscreenenter"",""0"",""3205""
","
","
","""event"",""trial"",""time""
""fullscreenenter"",""0"",""3205""
","
","null","<p></p>","null","","","","","","","","","","","","","","","","","","","","","","",""
"","do_trial","160","698629","0.0-86.0-0.0","""event"",""trial"",""time""
""fullscreenenter"",""0"",""3205""
","
","
","""event"",""trial"",""time""
""fullscreenenter"",""0"",""3205""
","
","404.40000000596046","","","","","","","","51","1,0,0","0","coast","21","probe-68","0.6708800233812626","0.4680430669758318","0.13123174064263193","0","","","","","","","",""
"","html-keyboard-response","161","699634","0.0-86.0-1.0","""event"",""trial"",""time""
""fullscreenenter"",""0"",""3205""
","
","
","""event"",""trial"",""time""
""fullscreenenter"",""0"",""3205""
","
","null","<p></p>","null","","","","","","","","","","","","","","","","","","","","","","",""
"","do_trial","162","704683","0.0-87.0-0.0","""event"",""trial"",""time""
""fullscreenenter"",""0"",""3205""
","
","
","""event"",""trial"",""time""
""fullscreenenter"",""0"",""3205""
","
","515.1000000014901","","","","","","","","49","1,0,0","0","coast","22","probe-40","0.4885595810743647","0.31032970314804476","0.07619295380832741","1","","","","","","","",""
"","html-keyboard-response","163","705687","0.0-87.0-1.0","""event"",""trial"",""time""
""fullscreenenter"",""0"",""3205""
","
","
","""event"",""trial"",""time""
""fullscreenenter"",""0"",""3205""
","
","null","<p></p>","null","","","","","","","","","","","","","","","","","","","","","","",""
"","do_trial","164","711079","0.0-88.0-0.0","""event"",""trial"",""time""
""fullscreenenter"",""0"",""3205""
","
","
","""event"",""trial"",""time""
""fullscreenenter"",""0"",""3205""
","
","863","","","","","","","","49","0,1,0","0","coast","23","probe-63","0.6695532239451835","0.2335461911391144","0.1383135213974484","0","","","","","","","",""
"","html-keyboard-response","165","712085","0.0-88.0-1.0","""event"",""trial"",""time""
""fullscreenenter"",""0"",""3205""
","
","
","""event"",""trial"",""time""
""fullscreenenter"",""0"",""3205""
","
","null","<p></p>","null","","","","","","","","","","","","","","","","","","","","","","",""
"","do_trial","166","717135","0.0-89.0-0.0","""event"",""trial"",""time""
""fullscreenenter"",""0"",""3205""
","
","
","""event"",""trial"",""time""
""fullscreenenter"",""0"",""3205""
","
","513.8000000044703","","","","","","","","50","0,1,0","0","coast","24","probe-87","0.5854896654814796","0.27695284684837146","0.08643265921540273","1","","","","","","","",""
"","html-keyboard-response","167","718141","0.0-89.0-1.0","""event"",""trial"",""time""
""fullscreenenter"",""0"",""3205""
","
","
","""event"",""trial"",""time""
""fullscreenenter"",""0"",""3205""
","
","null","<p></p>","null","","","","","","","","","","","","","","","","","","","","","","",""
"","do_trial","168","723045","0.0-90.0-0.0","""event"",""trial"",""time""
""fullscreenenter"",""0"",""3205""
","
","
","""event"",""trial"",""time""
""fullscreenenter"",""0"",""3205""
","
","373.1000000014901","","","","","","","","50","1,0,1","0","coast","25","probe-127","0.6968180976606796","0.18636902205935776","0.15432815472002445","0","","","","","","","",""
"","html-keyboard-response","169","724050","0.0-90.0-1.0","""event"",""trial"",""time""
""fullscreenenter"",""0"",""3205""
","
","
","""event"",""trial"",""time""
""fullscreenenter"",""0"",""3205""
","
","null","<p></p>","null","","","","","","","","","","","","","","","","","","","","","","",""
"","do_trial","170","728855","0.0-91.0-0.0","""event"",""trial"",""time""
""fullscreenenter"",""0"",""3205""
","
","
","""event"",""trial"",""time""
""fullscreenenter"",""0"",""3205""
","
","275","","","","","","","","50","0,0,1","0","coast","26","probe-91","0.696359062285887","0.2966336036871022","0.20627802333913153","0","","","","","","","",""
"","html-keyboard-response","171","729860","0.0-91.0-1.0","""event"",""trial"",""time""
""fullscreenenter"",""0"",""3205""
","
","
","""event"",""trial"",""time""
""fullscreenenter"",""0"",""3205""
","
","null","<p></p>","null","","","","","","","","","","","","","","","","","","","","","","",""
"","do_trial","172","734650","0.0-92.0-0.0","""event"",""trial"",""time""
""fullscreenenter"",""0"",""3205""
","
","
","""event"",""trial"",""time""
""fullscreenenter"",""0"",""3205""
","
","254.69999999552965","","","","","","","","51","0,1,0","0","coast","27","probe-108","0.6801379970897353","0.3044525559661268","0.12571135633447167","0","","","","","","","",""
"","html-keyboard-response","173","735655","0.0-92.0-1.0","""event"",""trial"",""time""
""fullscreenenter"",""0"",""3205""
","
","
","""event"",""trial"",""time""
""fullscreenenter"",""0"",""3205""
","
","null","<p></p>","null","","","","","","","","","","","","","","","","","","","","","","",""
"","do_trial","174","740540","0.0-93.0-0.0","""event"",""trial"",""time""
""fullscreenenter"",""0"",""3205""
","
","
","""event"",""trial"",""time""
""fullscreenenter"",""0"",""3205""
","
","348.5","","","","","","","","51","1,0,1","0","coast","28","probe-140","0.5451530544239004","0.4480791733451465","0.11698009427894965","1","","","","","","","",""
"","html-keyboard-response","175","741546","0.0-93.0-1.0","""event"",""trial"",""time""
""fullscreenenter"",""0"",""3205""
","
","
","""event"",""trial"",""time""
""fullscreenenter"",""0"",""3205""
","
","null","<p></p>","null","","","","","","","","","","","","","","","","","","","","","","",""
"","do_trial","176","746473","0.0-94.0-0.0","""event"",""trial"",""time""
""fullscreenenter"",""0"",""3205""
","
","
","""event"",""trial"",""time""
""fullscreenenter"",""0"",""3205""
","
","393.3999999985099","","","","","","","","49","1,0,0","0","coast","29","probe-165","0.48051068501960514","0.4385558000683413","0.23262472453938898","1","","","","","","","",""
"","html-keyboard-response","177","747479","0.0-94.0-1.0","""event"",""trial"",""time""
""fullscreenenter"",""0"",""3205""
","
","
","""event"",""trial"",""time""
""fullscreenenter"",""0"",""3205""
","
","null","<p></p>","null","","","","","","","","","","","","","","","","","","","","","","",""
"","do_bye","178","748985","0.0-95.0-0.0","""event"",""trial"",""time""
""fullscreenenter"",""0"",""3205""
","
","
","""event"",""trial"",""time""
""fullscreenenter"",""0"",""3205""
","
","null","","","","","","","","null","","","","","","","","","","","","","","","","",""
"","break","179","753101","0.0-95.0-1.0","""event"",""trial"",""time""
""fullscreenenter"",""0"",""3205""
","
","
","""event"",""trial"",""time""
""fullscreenenter"",""0"",""3205""
","
","4115.0999999940395","<div class='center'><p>Time to take a quick break! You have 2 minutes to rest, but you can move on sooner if you'd like.</p><p> Press the <b>space bar</b> to continue.</p></div>","32","","","","","","","","","","","","","","","","","","","","","","",""
"","do_travel","180","762105","0.0-96.0-0.0","""event"",""trial"",""time""
""fullscreenenter"",""0"",""3205""
","
","
","""event"",""trial"",""time""
""fullscreenenter"",""0"",""3205""
","
","null","","","","","","","","null","","","","","","","","","","","","","","","","",""
"","do_welcome","181","766113","0.0-96.0-1.0","""event"",""trial"",""time""
""fullscreenenter"",""0"",""3205""
","
","
","""event"",""trial"",""time""
""fullscreenenter"",""0"",""3205""
","
","null","","","","","","","","null","","","","","","","","","","","","","","","","",""
"","do_trial","182","771462","0.0-97.0-0.0","""event"",""trial"",""time""
""fullscreenenter"",""0"",""3205""
","
","
","""event"",""trial"",""time""
""fullscreenenter"",""0"",""3205""
","
","819.8000000044703","","","","","","","","49","1,1,0","1","highway","30","probe-186","1","0.4329734009998058","0.14293019689350522","1","","","","","","","",""
"","html-keyboard-response","183","772468","0.0-97.0-1.0","""event"",""trial"",""time""
""fullscreenenter"",""0"",""3205""
","
","
","""event"",""trial"",""time""
""fullscreenenter"",""0"",""3205""
","
","null","<p></p>","null","","","","","","","","","","","","","","","","","","","","","","",""
"","do_trial","184","777419","0.0-98.0-0.0","""event"",""trial"",""time""
""fullscreenenter"",""0"",""3205""
","
","
","""event"",""trial"",""time""
""fullscreenenter"",""0"",""3205""
","
","419.5","","","","","","","","49","1,0,0","1","highway","31","probe-56","1","0.36041166215290565","0.1364114481843217","1","","","","","","","",""
"","html-keyboard-response","185","778425","0.0-98.0-1.0","""event"",""trial"",""time""
""fullscreenenter"",""0"",""3205""
","
","
","""event"",""trial"",""time""
""fullscreenenter"",""0"",""3205""
","
","null","<p></p>","null","","","","","","","","","","","","","","","","","","","","","","",""
"","do_trial","186","783376","0.0-99.0-0.0","""event"",""trial"",""time""
""fullscreenenter"",""0"",""3205""
","
","
","""event"",""trial"",""time""
""fullscreenenter"",""0"",""3205""
","
","421.19999999552965","","","","","","","","49","1,1,0","1","highway","32","probe-05","1","0.4303856247992829","0.11930191691985405","1","","","","","","","",""
"","html-keyboard-response","187","784382","0.0-99.0-1.0","""event"",""trial"",""time""
""fullscreenenter"",""0"",""3205""
","
","
","""event"",""trial"",""time""
""fullscreenenter"",""0"",""3205""
","
","null","<p></p>","null","","","","","","","","","","","","","","","","","","","","","","",""
"","do_trial","188","789323","0.0-100.0-0.0","""event"",""trial"",""time""
""fullscreenenter"",""0"",""3205""
","
","
","""event"",""trial"",""time""
""fullscreenenter"",""0"",""3205""
","
","411.20000000298023","","","","","","","","49","0,0,0","1","highway","33","probe-57","0.8985931121321915","0.4766389201346264","0.19648198730699826","0","","","","","","","",""
"","html-keyboard-response","189","790328","0.0-100.0-1.0","""event"",""trial"",""time""
""fullscreenenter"",""0"",""3205""
","
","
","""event"",""trial"",""time""
""fullscreenenter"",""0"",""3205""
","
","null","<p></p>","null","","","","","","","","","","","","","","","","","","","","","","",""
"","do_trial","190","795174","0.0-101.0-0.0","""event"",""trial"",""time""
""fullscreenenter"",""0"",""3205""
","
","
","""event"",""trial"",""time""
""fullscreenenter"",""0"",""3205""
","
","315.40000000596046","","","","","","","","50","1,0,0","1","highway","34","probe-47","0.8863267372748044","0.3028945856591123","0.1209266912366904","0","","","","","","","",""
"","html-keyboard-response","191","796179","0.0-101.0-1.0","""event"",""trial"",""time""
""fullscreenenter"",""0"",""3205""
","
","
","""event"",""trial"",""time""
""fullscreenenter"",""0"",""3205""
","
","null","<p></p>","null","","","","","","","","","","","","","","","","","","","","","","",""
"","do_trial","192","801763","0.0-102.0-0.0","""event"",""trial"",""time""
""fullscreenenter"",""0"",""3205""
","
","
","""event"",""trial"",""time""
""fullscreenenter"",""0"",""3205""
","
","1054.6000000014901","","","","","","","","51","1,0,0","1","highway","35","probe-59","0.868624154299278","0.48405443578028395","0.1173257577167321","0","","","","","","","",""
"","html-keyboard-response","193","802768","0.0-102.0-1.0","""event"",""trial"",""time""
""fullscreenenter"",""0"",""3205""
","
","
","""event"",""trial"",""time""
""fullscreenenter"",""0"",""3205""
","
","null","<p></p>","null","","","","","","","","","","","","","","","","","","","","","","",""
"","do_trial","194","807638","0.0-103.0-0.0","""event"",""trial"",""time""
""fullscreenenter"",""0"",""3205""
","
","
","""event"",""trial"",""time""
""fullscreenenter"",""0"",""3205""
","
","334.5","","","","","","","","49","1,0,0","1","highway","36","probe-21","0.8301559181900281","0.47664590043894245","0.1257491057441206","1","","","","","","","",""
"","html-keyboard-response","195","808643","0.0-103.0-1.0","""event"",""trial"",""time""
""fullscreenenter"",""0"",""3205""
","
","
","""event"",""trial"",""time""
""fullscreenenter"",""0"",""3205""
","
","null","<p></p>","null","","","","","","","","","","","","","","","","","","","","","","",""
"","do_trial","196","813635","0.0-104.0-0.0","""event"",""trial"",""time""
""fullscreenenter"",""0"",""3205""
","
","
","""event"",""trial"",""time""
""fullscreenenter"",""0"",""3205""
","
","452.3999999985099","","","","","","","","49","1,1,0","1","highway","37","probe-190","0.6606459214743502","0.4323900417218114","0.11987063551278011","1","","","","","","","",""
"","html-keyboard-response","197","814640","0.0-104.0-1.0","""event"",""trial"",""time""
""fullscreenenter"",""0"",""3205""
","
","
","""event"",""trial"",""time""
""fullscreenenter"",""0"",""3205""
","
","null","<p></p>","null","","","","","","","","","","","","","","","","","","","","","","",""
"","do_trial","198","819771","0.0-105.0-0.0","""event"",""trial"",""time""
""fullscreenenter"",""0"",""3205""
","
","
","""event"",""trial"",""time""
""fullscreenenter"",""0"",""3205""
","
","593.8999999985099","","","","","","","","49","1,0,0","1","highway","38","probe-105","0.6010063090425232","0.41024643009364115","0.12210093044336702","1","","","","","","","",""
"","html-keyboard-response","199","820776","0.0-105.0-1.0","""event"",""trial"",""time""
""fullscreenenter"",""0"",""3205""
","
","
","""event"",""trial"",""time""
""fullscreenenter"",""0"",""3205""
","
","null","<p></p>","null","","","","","","","","","","","","","","","","","","","","","","",""
"","do_trial","200","825597","0.0-106.0-0.0","""event"",""trial"",""time""
""fullscreenenter"",""0"",""3205""
","
","
","""event"",""trial"",""time""
""fullscreenenter"",""0"",""3205""
","
","288.8999999985099","","","","","","","","49","1,1,0","1","highway","39","probe-33","0.6964015194654801","0.32684493095726297","0.1794878333771346","1","","","","","","","",""
"","html-keyboard-response","201","826601","0.0-106.0-1.0","""event"",""trial"",""time""
""fullscreenenter"",""0"",""3205""
","
","
","""event"",""trial"",""time""
""fullscreenenter"",""0"",""3205""
","
","null","<p></p>","null","","","","","","","","","","","","","","","","","","","","","","",""
"","do_trial","202","831544","0.0-107.0-0.0","""event"",""trial"",""time""
""fullscreenenter"",""0"",""3205""
","
","
","""event"",""trial"",""time""
""fullscreenenter"",""0"",""3205""
","
","411.20000000298023","","","","","","","","49","1,0,0","1","highway","40","probe-164","0.6600895982093751","0.41494845026095895","0.24428358289581625","1","","","","","","","",""
"","html-keyboard-response","203","832549","0.0-107.0-1.0","""event"",""trial"",""time""
""fullscreenenter"",""0"",""3205""
","
","
","""event"",""trial"",""time""
""fullscreenenter"",""0"",""3205""
","
","null","<p></p>","null","","","","","","","","","","","","","","","","","","","","","","",""
"","do_trial","204","837405","0.0-108.0-0.0","""event"",""trial"",""time""
""fullscreenenter"",""0"",""3205""
","
","
","""event"",""trial"",""time""
""fullscreenenter"",""0"",""3205""
","
","322.30000000447035","","","","","","","","49","1,0,0","1","highway","41","probe-76","0.7582714127841215","0.25984905133812697","0.16420952895095983","1","","","","","","","",""
"","html-keyboard-response","205","838410","0.0-108.0-1.0","""event"",""trial"",""time""
""fullscreenenter"",""0"",""3205""
","
","
","""event"",""trial"",""time""
""fullscreenenter"",""0"",""3205""
","
","null","<p></p>","null","","","","","","","","","","","","","","","","","","","","","","",""
"","do_trial","206","843367","0.0-109.0-0.0","""event"",""trial"",""time""
""fullscreenenter"",""0"",""3205""
","
","
","""event"",""trial"",""time""
""fullscreenenter"",""0"",""3205""
","
","425.8999999985099","","","","","","","","49","1,0,1","1","highway","42","probe-49","0.5519217775572666","0.31672272440108123","0.3003608883016614","1","","","","","","","",""
"","html-keyboard-response","207","844370","0.0-109.0-1.0","""event"",""trial"",""time""
""fullscreenenter"",""0"",""3205""
","
","
","""event"",""trial"",""time""
""fullscreenenter"",""0"",""3205""
","
","null","<p></p>","null","","","","","","","","","","","","","","","","","","","","","","",""
"","do_trial","208","849245","0.0-110.0-0.0","""event"",""trial"",""time""
""fullscreenenter"",""0"",""3205""
","
","
","""event"",""trial"",""time""
""fullscreenenter"",""0"",""3205""
","
","333.80000000447035","","","","","","","","49","0,1,0","1","highway","43","probe-179","0.38579002292948666","0.30107951979985786","0.3125748411335476","0","","","","","","","",""
"","html-keyboard-response","209","850249","0.0-110.0-1.0","""event"",""trial"",""time""
""fullscreenenter"",""0"",""3205""
","
","
","""event"",""trial"",""time""
""fullscreenenter"",""0"",""3205""
","
","null","<p></p>","null","","","","","","","","","","","","","","","","","","","","","","",""
"","do_trial","210","855191","0.0-111.0-0.0","""event"",""trial"",""time""
""fullscreenenter"",""0"",""3205""
","
","
","""event"",""trial"",""time""
""fullscreenenter"",""0"",""3205""
","
","410.69999999552965","","","","","","","","49","0,0,1","1","highway","44","probe-174","0.4150916669963478","0.4598432928056378","0.3919005714805067","0","","","","","","","",""
"","html-keyboard-response","211","856196","0.0-111.0-1.0","""event"",""trial"",""time""
""fullscreenenter"",""0"",""3205""
","
","
","""event"",""trial"",""time""
""fullscreenenter"",""0"",""3205""
","
","null","<p></p>","null","","","","","","","","","","","","","","","","","","","","","","",""
"","do_trial","212","861116","0.0-112.0-0.0","""event"",""trial"",""time""
""fullscreenenter"",""0"",""3205""
","
","
","""event"",""trial"",""time""
""fullscreenenter"",""0"",""3205""
","
","390.8999999985099","","","","","","","","50","1,1,0","1","highway","45","probe-230","0.3243510818877984","0.5784891038115186","0.4433971791898702","1","","","","","","","",""
"","html-keyboard-response","213","862119","0.0-112.0-1.0","""event"",""trial"",""time""
""fullscreenenter"",""0"",""3205""
","
","
","""event"",""trial"",""time""
""fullscreenenter"",""0"",""3205""
","
","null","<p></p>","null","","","","","","","","","","","","","","","","","","","","","","",""
"","do_trial","214","867105","0.0-113.0-0.0","""event"",""trial"",""time""
""fullscreenenter"",""0"",""3205""
","
","
","""event"",""trial"",""time""
""fullscreenenter"",""0"",""3205""
","
","455.1000000014901","","","","","","","","50","0,0,1","1","highway","46","probe-218","0.057538846862612236","0.4784289033170004","0.5055215748651888","0","","","","","","","",""
"","html-keyboard-response","215","868111","0.0-113.0-1.0","""event"",""trial"",""time""
""fullscreenenter"",""0"",""3205""
","
","
","""event"",""trial"",""time""
""fullscreenenter"",""0"",""3205""
","
","null","<p></p>","null","","","","","","","","","","","","","","","","","","","","","","",""
"","do_trial","216","872919","0.0-114.0-0.0","""event"",""trial"",""time""
""fullscreenenter"",""0"",""3205""
","
","
","""event"",""trial"",""time""
""fullscreenenter"",""0"",""3205""
","
","276.1000000014901","","","","","","","","50","0,0,0","1","highway","47","probe-175","0.11934399211123226","0.42308730346565315","0.6173463926699616","0","","","","","","","",""
"","html-keyboard-response","217","873924","0.0-114.0-1.0","""event"",""trial"",""time""
""fullscreenenter"",""0"",""3205""
","
","
","""event"",""trial"",""time""
""fullscreenenter"",""0"",""3205""
","
","null","<p></p>","null","","","","","","","","","","","","","","","","","","","","","","",""
"","do_trial","218","878750","0.0-115.0-0.0","""event"",""trial"",""time""
""fullscreenenter"",""0"",""3205""
","
","
","""event"",""trial"",""time""
""fullscreenenter"",""0"",""3205""
","
","298.6000000014901","","","","","","","","51","0,0,1","1","highway","48","probe-86","0.08438512259579106","0.4110074557444077","0.610924018821607","1","","","","","","","",""
"","html-keyboard-response","219","879756","0.0-115.0-1.0","""event"",""trial"",""time""
""fullscreenenter"",""0"",""3205""
","
","
","""event"",""trial"",""time""
""fullscreenenter"",""0"",""3205""
","
","null","<p></p>","null","","","","","","","","","","","","","","","","","","","","","","",""
"","do_trial","220","884585","0.0-116.0-0.0","""event"",""trial"",""time""
""fullscreenenter"",""0"",""3205""
","
","
","""event"",""trial"",""time""
""fullscreenenter"",""0"",""3205""
","
","296.5","","","","","","","","51","0,0,0","1","highway","49","probe-168","0.10658531933850653","0.4910771850728559","0.7067452017152849","0","","","","","","","",""
"","html-keyboard-response","221","885590","0.0-116.0-1.0","""event"",""trial"",""time""
""fullscreenenter"",""0"",""3205""
","
","
","""event"",""trial"",""time""
""fullscreenenter"",""0"",""3205""
","
","null","<p></p>","null","","","","","","","","","","","","","","","","","","","","","","",""
"","do_trial","222","890460","0.0-117.0-0.0","""event"",""trial"",""time""
""fullscreenenter"",""0"",""3205""
","
","
","""event"",""trial"",""time""
""fullscreenenter"",""0"",""3205""
","
","338.5","","","","","","","","51","0,0,0","1","highway","50","probe-52","0.06563036698107878","0.4242706148200428","0.7008093205056534","0","","","","","","","",""
"","html-keyboard-response","223","891465","0.0-117.0-1.0","""event"",""trial"",""time""
""fullscreenenter"",""0"",""3205""
","
","
","""event"",""trial"",""time""
""fullscreenenter"",""0"",""3205""
","
","null","<p></p>","null","","","","","","","","","","","","","","","","","","","","","","",""
"","do_trial","224","896348","0.0-118.0-0.0","""event"",""trial"",""time""
""fullscreenenter"",""0"",""3205""
","
","
","""event"",""trial"",""time""
""fullscreenenter"",""0"",""3205""
","
","351.1000000014901","","","","","","","","49","0,0,1","1","highway","51","probe-51","0.10367591802840392","0.37649597198470525","0.7185728425587807","0","","","","","","","",""
"","html-keyboard-response","225","897353","0.0-118.0-1.0","""event"",""trial"",""time""
""fullscreenenter"",""0"",""3205""
","
","
","""event"",""trial"",""time""
""fullscreenenter"",""0"",""3205""
","
","null","<p></p>","null","","","","","","","","","","","","","","","","","","","","","","",""
"","do_trial","226","902692","0.0-119.0-0.0","""event"",""trial"",""time""
""fullscreenenter"",""0"",""3205""
","
","
","""event"",""trial"",""time""
""fullscreenenter"",""0"",""3205""
","
","806.1999999955297","","","","","","","","49","0,0,0","1","highway","52","probe-176","0.2374730417650185","0.4089684132994593","0.5116699206139602","0","","","","","","","",""
"","html-keyboard-response","227","903697","0.0-119.0-1.0","""event"",""trial"",""time""
""fullscreenenter"",""0"",""3205""
","
","
","""event"",""trial"",""time""
""fullscreenenter"",""0"",""3205""
","
","null","<p></p>","null","","","","","","","","","","","","","","","","","","","","","","",""
"","do_trial","228","908545","0.0-120.0-0.0","""event"",""trial"",""time""
""fullscreenenter"",""0"",""3205""
","
","
","""event"",""trial"",""time""
""fullscreenenter"",""0"",""3205""
","
","318.1000000014901","","","","","","","","50","0,0,0","1","highway","53","probe-97","0.16122015758198052","0.33782810175250727","0.4146342057611628","0","","","","","","","",""
"","html-keyboard-response","229","909550","0.0-120.0-1.0","""event"",""trial"",""time""
""fullscreenenter"",""0"",""3205""
","
","
","""event"",""trial"",""time""
""fullscreenenter"",""0"",""3205""
","
","null","<p></p>","null","","","","","","","","","","","","","","","","","","","","","","",""
"","do_trial","230","914596","0.0-121.0-0.0","""event"",""trial"",""time""
""fullscreenenter"",""0"",""3205""
","
","
","""event"",""trial"",""time""
""fullscreenenter"",""0"",""3205""
","
","508.3999999985099","","","","","","","","51","0,1,0","1","highway","54","probe-107","0.08638514682301454","0.2651754115762578","0.5778157008205793","0","","","","","","","",""
"","html-keyboard-response","231","915600","0.0-121.0-1.0","""event"",""trial"",""time""
""fullscreenenter"",""0"",""3205""
","
","
","""event"",""trial"",""time""
""fullscreenenter"",""0"",""3205""
","
","null","<p></p>","null","","","","","","","","","","","","","","","","","","","","","","",""
"","do_trial","232","920489","0.0-122.0-0.0","""event"",""trial"",""time""
""fullscreenenter"",""0"",""3205""
","
","
","""event"",""trial"",""time""
""fullscreenenter"",""0"",""3205""
","
","352","","","","","","","","50","0,0,0","1","highway","55","probe-04","0.17508603454019195","0.08787918014364628","0.5414907789465085","0","","","","","","","",""
"","html-keyboard-response","233","921493","0.0-122.0-1.0","""event"",""trial"",""time""
""fullscreenenter"",""0"",""3205""
","
","
","""event"",""trial"",""time""
""fullscreenenter"",""0"",""3205""
","
","null","<p></p>","null","","","","","","","","","","","","","","","","","","","","","","",""
"","do_trial","234","926536","0.0-123.0-0.0","""event"",""trial"",""time""
""fullscreenenter"",""0"",""3205""
","
","
","""event"",""trial"",""time""
""fullscreenenter"",""0"",""3205""
","
","509.1000000014901","","","","","","","","49","0,0,0","1","highway","56","probe-94","0.21199356307543946","0.1674008368387336","0.5536175939863627","0","","","","","","","",""
"","html-keyboard-response","235","927541","0.0-123.0-1.0","""event"",""trial"",""time""
""fullscreenenter"",""0"",""3205""
","
","
","""event"",""trial"",""time""
""fullscreenenter"",""0"",""3205""
","
","null","<p></p>","null","","","","","","","","","","","","","","","","","","","","","","",""
"","do_trial","236","932325","0.0-124.0-0.0","""event"",""trial"",""time""
""fullscreenenter"",""0"",""3205""
","
","
","""event"",""trial"",""time""
""fullscreenenter"",""0"",""3205""
","
","248.5","","","","","","","","51","0,0,1","1","highway","57","probe-72","0.15235605727237123","0.10189053255496494","0.4868336905761806","1","","","","","","","",""
"","html-keyboard-response","237","933328","0.0-124.0-1.0","""event"",""trial"",""time""
""fullscreenenter"",""0"",""3205""
","
","
","""event"",""trial"",""time""
""fullscreenenter"",""0"",""3205""
","
","null","<p></p>","null","","","","","","","","","","","","","","","","","","","","","","",""
"","do_trial","238","938208","0.0-125.0-0.0","""event"",""trial"",""time""
""fullscreenenter"",""0"",""3205""
","
","
","""event"",""trial"",""time""
""fullscreenenter"",""0"",""3205""
","
","346.5","","","","","","","","51","0,1,0","1","highway","58","probe-73","0.21926786746609558","0.3236001572721866","0.4359017432324622","0","","","","","","","",""
"","html-keyboard-response","239","939210","0.0-125.0-1.0","""event"",""trial"",""time""
""fullscreenenter"",""0"",""3205""
","
","
","""event"",""trial"",""time""
""fullscreenenter"",""0"",""3205""
","
","null","<p></p>","null","","","","","","","","","","","","","","","","","","","","","","",""
"","do_trial","240","944016","0.0-126.0-0.0","""event"",""trial"",""time""
""fullscreenenter"",""0"",""3205""
","
","
","""event"",""trial"",""time""
""fullscreenenter"",""0"",""3205""
","
","274.1000000014901","","","","","","","","50","0,0,1","1","highway","59","probe-171","0.11774011215465699","0.27819664965634805","0.6299764726547986","0","","","","","","","",""
"","html-keyboard-response","241","945021","0.0-126.0-1.0","""event"",""trial"",""time""
""fullscreenenter"",""0"",""3205""
","
","
","""event"",""trial"",""time""
""fullscreenenter"",""0"",""3205""
","
","null","<p></p>","null","","","","","","","","","","","","","","","","","","","","","","",""
"","do_trial","242","949843","0.0-127.0-0.0","""event"",""trial"",""time""
""fullscreenenter"",""0"",""3205""
","
","
","""event"",""trial"",""time""
""fullscreenenter"",""0"",""3205""
","
","289.8999999985099","","","","","","","","51","0,0,0","1","highway","60","probe-45","0.24755781268932933","0.28568560099979484","0.40892061424709836","0","","","","","","","",""
"","html-keyboard-response","243","950848","0.0-127.0-1.0","""event"",""trial"",""time""
""fullscreenenter"",""0"",""3205""
","
","
","""event"",""trial"",""time""
""fullscreenenter"",""0"",""3205""
","
","null","<p></p>","null","","","","","","","","","","","","","","","","","","","","","","",""
"","do_trial","244","955853","0.0-128.0-0.0","""event"",""trial"",""time""
""fullscreenenter"",""0"",""3205""
","
","
","""event"",""trial"",""time""
""fullscreenenter"",""0"",""3205""
","
","477.70000000298023","","","","","","","","50","0,1,1","1","highway","61","probe-115","0.07738969335334232","0.2875545017206897","0.4448074485102346","1","","","","","","","",""
"","html-keyboard-response","245","956858","0.0-128.0-1.0","""event"",""trial"",""time""
""fullscreenenter"",""0"",""3205""
","
","
","""event"",""trial"",""time""
""fullscreenenter"",""0"",""3205""
","
","null","<p></p>","null","","","","","","","","","","","","","","","","","","","","","","",""
"","do_trial","246","961890","0.0-129.0-0.0","""event"",""trial"",""time""
""fullscreenenter"",""0"",""3205""
","
","
","""event"",""trial"",""time""
""fullscreenenter"",""0"",""3205""
","
","501.79999999701977","","","","","","","","49","0,0,0","1","highway","62","probe-123","0.1619682303693612","0.18827757089871122","0.4276168960243104","0","","","","","","","",""
"","html-keyboard-response","247","962895","0.0-129.0-1.0","""event"",""trial"",""time""
""fullscreenenter"",""0"",""3205""
","
","
","""event"",""trial"",""time""
""fullscreenenter"",""0"",""3205""
","
","null","<p></p>","null","","","","","","","","","","","","","","","","","","","","","","",""
"","do_trial","248","967666","0.0-130.0-0.0","""event"",""trial"",""time""
""fullscreenenter"",""0"",""3205""
","
","
","""event"",""trial"",""time""
""fullscreenenter"",""0"",""3205""
","
","242","","","","","","","","50","0,0,0","1","highway","63","probe-131","0.31697186059550203","0.34093907241139465","0.5141351511511123","0","","","","","","","",""
"","html-keyboard-response","249","968671","0.0-130.0-1.0","""event"",""trial"",""time""
""fullscreenenter"",""0"",""3205""
","
","
","""event"",""trial"",""time""
""fullscreenenter"",""0"",""3205""
","
","null","<p></p>","null","","","","","","","","","","","","","","","","","","","","","","",""
"","do_trial","250","973521","0.0-131.0-0.0","""event"",""trial"",""time""
""fullscreenenter"",""0"",""3205""
","
","
","""event"",""trial"",""time""
""fullscreenenter"",""0"",""3205""
","
","319.29999999701977","","","","","","","","50","0,0,1","1","highway","64","probe-32","0.22998980733352523","0.3161803120370145","0.6648581160882392","0","","","","","","","",""
"","html-keyboard-response","251","974525","0.0-131.0-1.0","""event"",""trial"",""time""
""fullscreenenter"",""0"",""3205""
","
","
","""event"",""trial"",""time""
""fullscreenenter"",""0"",""3205""
","
","null","<p></p>","null","","","","","","","","","","","","","","","","","","","","","","",""
"","do_trial","252","979284","0.0-132.0-0.0","""event"",""trial"",""time""
""fullscreenenter"",""0"",""3205""
","
","
","""event"",""trial"",""time""
""fullscreenenter"",""0"",""3205""
","
","229.59999999403954","","","","","","","","51","1,0,0","1","highway","65","probe-100","0.09969630072817129","0.3224168469650505","0.7305482252688063","0","","","","","","","",""
"","html-keyboard-response","253","980287","0.0-132.0-1.0","""event"",""trial"",""time""
""fullscreenenter"",""0"",""3205""
","
","
","""event"",""trial"",""time""
""fullscreenenter"",""0"",""3205""
","
","null","<p></p>","null","","","","","","","","","","","","","","","","","","","","","","",""
"","do_trial","254","985327","0.0-133.0-0.0","""event"",""trial"",""time""
""fullscreenenter"",""0"",""3205""
","
","
","""event"",""trial"",""time""
""fullscreenenter"",""0"",""3205""
","
","504.6000000014901","","","","","","","","49","0,0,1","1","highway","66","probe-198","0.05203279772814089","0.19052338123615922","0.5964174337181137","0","","","","","","","",""
"","html-keyboard-response","255","986329","0.0-133.0-1.0","""event"",""trial"",""time""
""fullscreenenter"",""0"",""3205""
","
","
","""event"",""trial"",""time""
""fullscreenenter"",""0"",""3205""
","
","null","<p></p>","null","","","","","","","","","","","","","","","","","","","","","","",""
"","do_trial","256","991618","0.0-134.0-0.0","""event"",""trial"",""time""
""fullscreenenter"",""0"",""3205""
","
","
","""event"",""trial"",""time""
""fullscreenenter"",""0"",""3205""
","
","756.3999999985099","","","","","","","","50","0,0,1","1","highway","67","probe-195","0.14850468897529104","0.3075054633975662","0.5691703187901535","0","","","","","","","",""
