"success","trial_type","trial_index","time_elapsed","internal_node_id","interactions","blur_events","focus_events","fullscreenenter_events","fullscreenexit_events","rt","stimulus","key_press","subject_id","participant_id","age","gender","prompt","response","choice_outcomes","context_n","context_img_id","trial_n","probe_img_id","pR_red","pR_white","pR_black","outcome","contextArray_ind","validImageProbes","invalidImageProbes","pRew_Red","pRew_White","pRew_Black","availableForMemProbe","choice_blocks"
"true","fullscreen","0","3054","0.0-0.0","""event"",""trial"",""time""
""fullscreenenter"",""0"",""2115""
","
","
","""event"",""trial"",""time""
""fullscreenenter"",""0"",""2115""
","
","","","","","","","","","","","","","","","","","","","","","","","","","",""
"","pavlovia","1","3060","0.0-1.0","""event"",""trial"",""time""
""fullscreenenter"",""0"",""2115""
","
","
","""event"",""trial"",""time""
""fullscreenenter"",""0"",""2115""
","
","","","","","","","","","","","","","","","","","","","","","","","","","",""
"","instruc1","2","48179","0.0-2.0","""event"",""trial"",""time""
""fullscreenenter"",""0"",""2115""
","
","
","""event"",""trial"",""time""
""fullscreenenter"",""0"",""2115""
","
","null","run_exp/static/audio/clip_1_welcome.m4a","null","623","957","14","Male","<div class='center'><p>Welcome! This is the first part of the study. It will last ~30 minutes. In part 1 and part 2 of the study, you are the head captain of a pirate ship traveling around the world to different islands. You will play a few different games throughout these two parts. Here is an overview of them:</p><br><p>Part 1 (today)</p><p>1. Instructions, practice game, and quiz</p><p>2. Pick a pirate game on 6 different islands</p><br><p>Part 2 (tomorrow)</p><p>3. Pick a pirate game and memory game</p><p>4. Where did you see this ship? </p></div>","","","","","","","","","","","","","","","","","",""
"","html-keyboard-response","3","48957","0.0-3.0","""event"",""trial"",""time""
""fullscreenenter"",""0"",""2115""
","
","
","""event"",""trial"",""time""
""fullscreenenter"",""0"",""2115""
","
","775.9000000059605","<div class='center'><p>Welcome! This is the first part of the study. It will last ~30 minutes. In part 1 and part 2 of the study, you are the head captain of a pirate ship traveling around the world to different islands. You will play a few different games throughout these two parts. Here is an overview of them:</p><br><p>Part 1 (today)</p><p>1. Instructions, practice game, and quiz</p><p>2. Pick a pirate game on 6 different islands</p><br><p>Part 2 (tomorrow)</p><p>3. Pick a pirate game and memory game</p><p>4. Where did you see this ship? </p><p><b>[Press the space bar to continue]</b></p></div>","32","","","","","","","","","","","","","","","","","","","","","","",""
"","instruc2","4","54285","0.0-4.0","""event"",""trial"",""time""
""fullscreenenter"",""0"",""2115""
","
","
","""event"",""trial"",""time""
""fullscreenenter"",""0"",""2115""
","
","null","run_exp/static/audio/clip_2_different_places.m4a","null","","","","","<div class='center'><p>Today, you’ll visit these 6 islands on your journey. You'll be able to see these islands from your ship.</p><p><img src='run_exp/static/images/contexts/all_contexts.png' height='500'></p></div>","","","","","","","","","","","","","","","","","",""
"","html-keyboard-response","5","57987","0.0-5.0","""event"",""trial"",""time""
""fullscreenenter"",""0"",""2115""
","
","
","""event"",""trial"",""time""
""fullscreenenter"",""0"",""2115""
","
","3699.4000000059605","<div class='center'><p>Today, you’ll visit these 6 islands on your journey. You'll be able to see these islands from your ship.</p><p><img src='run_exp/static/images/contexts/all_contexts.png' height='500'></p><p><b>[Press the space bar to continue]</b></p></div>","32","","","","","","","","","","","","","","","","","","","","","","",""
"","instruc3","6","67706","0.0-6.0","""event"",""trial"",""time""
""fullscreenenter"",""0"",""2115""
","
","
","""event"",""trial"",""time""
""fullscreenenter"",""0"",""2115""
","
","null","run_exp/static/audio/clip_3_goal_of_game_1.m4a","null","","","","","<div class='center'><p> The pirates on your ship will rob other ships as they leave the island.</p> These ships have just sold their goods to the islanders, so they will be filled with lots and lots of gold.</p><p><img src='run_exp/static/images/tutorial/ship_center.png' height='400'></p></div>","","","","","","","","","","","","","","","","","",""
"","html-keyboard-response","7","68483","0.0-7.0","""event"",""trial"",""time""
""fullscreenenter"",""0"",""2115""
""blur"",""8"",""90531""
","""event"",""trial"",""time""
""blur"",""8"",""90531""
","
","""event"",""trial"",""time""
""fullscreenenter"",""0"",""2115""
","
","775.5999999940395","<div class='center'><p> The pirates on your ship will rob other ships as they leave the island.</p> These ships have just sold their goods to the islanders, so they will be filled with lots and lots of gold.</p><p><img src='run_exp/static/images/tutorial/ship_center.png' height='400'></p><p><b>[Press the space bar to continue]</b></p></div>","32","","","","","","","","","","","","","","","","","","","","","","",""
"","instruc4","8","96499","0.0-8.0","""event"",""trial"",""time""
""fullscreenenter"",""0"",""2115""
""blur"",""8"",""90531""
""focus"",""9"",""123523""
","""event"",""trial"",""time""
""blur"",""8"",""90531""
","""event"",""trial"",""time""
""focus"",""9"",""123523""
","""event"",""trial"",""time""
""fullscreenenter"",""0"",""2115""
","
","null","run_exp/static/audio/clip_4_goal_of_game_2.m4a","null","","","","","<div class='center'><p>As the head captain, you do not have to rob any ships yourself. Another pirate will be doing the robbing for you. First, you will choose a pirate to rob the next ship.</p><p><img src='run_exp/static/images/tutorial/pirates_all_crop.png' height='200'></p><p>Then, you'll see if the pirate successfully robbed the ship of their gold. If they were successful, then you'll get a stack of gold coins like this:</p><p><img src='run_exp/static/images/tutorial/reward.png' height='150'></p><p> If they were <b>not</b> successful, then you'll get no gold coins, and you'll see a big red x like this: </p><p><img src='run_exp/static/images/tutorial/reward_no.png' height='150'></p><p> How much bonus money you make is based on how many gold coins you collect.</p><div>","","","","","","","","","","","","","","","","","",""
"","html-keyboard-response","9","124304","0.0-9.0","""event"",""trial"",""time""
""fullscreenenter"",""0"",""2115""
""blur"",""8"",""90531""
""focus"",""9"",""123523""
","""event"",""trial"",""time""
""blur"",""8"",""90531""
","""event"",""trial"",""time""
""focus"",""9"",""123523""
","""event"",""trial"",""time""
""fullscreenenter"",""0"",""2115""
","
","27799.20000000298","<div class='center'><p>As the head captain, you do not have to rob any ships yourself. Another pirate will be doing the robbing for you. First, you will choose a pirate to rob the next ship.</p><p><img src='run_exp/static/images/tutorial/pirates_all_crop.png' height='200'></p><p>Then, you'll see if the pirate successfully robbed the ship of their gold. If they were successful, then you'll get a stack of gold coins like this:</p><p><img src='run_exp/static/images/tutorial/reward.png' height='150'></p><p> If they were <b>not</b> successful, then you'll get no gold coins, and you'll see a big red x like this: </p><p><img src='run_exp/static/images/tutorial/reward_no.png' height='150'></p><p> How much bonus money you make is based on how many gold coins you collect.</p<p><b>[Press the space bar to continue]</b></p></div>","32","","","","","","","","","","","","","","","","","","","","","","",""
"","instruc5","10","147604","0.0-10.0","""event"",""trial"",""time""
""fullscreenenter"",""0"",""2115""
""blur"",""8"",""90531""
""focus"",""9"",""123523""
","""event"",""trial"",""time""
""blur"",""8"",""90531""
","""event"",""trial"",""time""
""focus"",""9"",""123523""
","""event"",""trial"",""time""
""fullscreenenter"",""0"",""2115""
","
","23297.59999999404","run_exp/static/audio/clip_5_probabilistic.m4a","49","","","","","<div class='center'><p>Even the most skilled pirate can not rob EVERY ship.</p><p> Some ships will have very strong protections against pirate attacks.</p><p> Blue beard, here, is very, very good at robbing ships, but he won't be successful every time he tries to rob one.</p><p> You can press the <b>‘1’</b> key on the keyboard to choose him.</p><p> Try choosing him 10 times to see how often he succeeds at robbing a ship. </p><p><img src='run_exp/static/images/tutorial/blue.png' height='500'></p></div>","","","","","","","","","","","","","","","","","",""
"","html-keyboard-response","11","149106","0.0-11.0","""event"",""trial"",""time""
""fullscreenenter"",""0"",""2115""
""blur"",""8"",""90531""
""focus"",""9"",""123523""
","""event"",""trial"",""time""
""blur"",""8"",""90531""
","""event"",""trial"",""time""
""focus"",""9"",""123523""
","""event"",""trial"",""time""
""fullscreenenter"",""0"",""2115""
","
","null","<div class='center'><p><img src='run_exp/static/images/tutorial/blue_win.png' height='500'></p></div>","null","","","","","","","","","","","","","","","","","","","","","","",""
"","html-keyboard-response","12","150238","0.0-12.0","""event"",""trial"",""time""
""fullscreenenter"",""0"",""2115""
""blur"",""8"",""90531""
""focus"",""9"",""123523""
","""event"",""trial"",""time""
""blur"",""8"",""90531""
","""event"",""trial"",""time""
""focus"",""9"",""123523""
","""event"",""trial"",""time""
""fullscreenenter"",""0"",""2115""
","
","1130.7999999970198","<div class='center'><img src='run_exp/static/images/tutorial/blue.png' height='500'></p></div>","49","","","","","","","","","","","","","","","","","","","","","","",""
"","html-keyboard-response","13","151740","0.0-13.0","""event"",""trial"",""time""
""fullscreenenter"",""0"",""2115""
""blur"",""8"",""90531""
""focus"",""9"",""123523""
","""event"",""trial"",""time""
""blur"",""8"",""90531""
","""event"",""trial"",""time""
""focus"",""9"",""123523""
","""event"",""trial"",""time""
""fullscreenenter"",""0"",""2115""
","
","null","<div class='center'><p><img src='run_exp/static/images/tutorial/blue_win.png' height='500'></p></div>","null","","","","","","","","","","","","","","","","","","","","","","",""
"","html-keyboard-response","14","152037","0.0-14.0","""event"",""trial"",""time""
""fullscreenenter"",""0"",""2115""
""blur"",""8"",""90531""
""focus"",""9"",""123523""
","""event"",""trial"",""time""
""blur"",""8"",""90531""
","""event"",""trial"",""time""
""focus"",""9"",""123523""
","""event"",""trial"",""time""
""fullscreenenter"",""0"",""2115""
","
","295","<div class='center'><img src='run_exp/static/images/tutorial/blue.png' height='500'></p></div>","49","","","","","","","","","","","","","","","","","","","","","","",""
"","html-keyboard-response","15","153543","0.0-15.0","""event"",""trial"",""time""
""fullscreenenter"",""0"",""2115""
""blur"",""8"",""90531""
""focus"",""9"",""123523""
","""event"",""trial"",""time""
""blur"",""8"",""90531""
","""event"",""trial"",""time""
""focus"",""9"",""123523""
","""event"",""trial"",""time""
""fullscreenenter"",""0"",""2115""
","
","null","<div class='center'><p><img src='run_exp/static/images/tutorial/blue_win.png' height='500'></p></div>","null","","","","","","","","","","","","","","","","","","","","","","",""
"","html-keyboard-response","16","153831","0.0-16.0","""event"",""trial"",""time""
""fullscreenenter"",""0"",""2115""
""blur"",""8"",""90531""
""focus"",""9"",""123523""
","""event"",""trial"",""time""
""blur"",""8"",""90531""
","""event"",""trial"",""time""
""focus"",""9"",""123523""
","""event"",""trial"",""time""
""fullscreenenter"",""0"",""2115""
","
","286.6000000089407","<div class='center'><img src='run_exp/static/images/tutorial/blue.png' height='500'></p></div>","49","","","","","","","","","","","","","","","","","","","","","","",""
"","html-keyboard-response","17","155332","0.0-17.0","""event"",""trial"",""time""
""fullscreenenter"",""0"",""2115""
""blur"",""8"",""90531""
""focus"",""9"",""123523""
","""event"",""trial"",""time""
""blur"",""8"",""90531""
","""event"",""trial"",""time""
""focus"",""9"",""123523""
","""event"",""trial"",""time""
""fullscreenenter"",""0"",""2115""
","
","null","<div class='center'><p><img src='run_exp/static/images/tutorial/blue_no_win.png' height='500'></p></div>","null","","","","","","","","","","","","","","","","","","","","","","",""
"","html-keyboard-response","18","155880","0.0-18.0","""event"",""trial"",""time""
""fullscreenenter"",""0"",""2115""
""blur"",""8"",""90531""
""focus"",""9"",""123523""
","""event"",""trial"",""time""
""blur"",""8"",""90531""
","""event"",""trial"",""time""
""focus"",""9"",""123523""
","""event"",""trial"",""time""
""fullscreenenter"",""0"",""2115""
","
","545.9000000059605","<div class='center'><img src='run_exp/static/images/tutorial/blue.png' height='500'></p></div>","49","","","","","","","","","","","","","","","","","","","","","","",""
"","html-keyboard-response","19","157386","0.0-19.0","""event"",""trial"",""time""
""fullscreenenter"",""0"",""2115""
""blur"",""8"",""90531""
""focus"",""9"",""123523""
","""event"",""trial"",""time""
""blur"",""8"",""90531""
","""event"",""trial"",""time""
""focus"",""9"",""123523""
","""event"",""trial"",""time""
""fullscreenenter"",""0"",""2115""
","
","null","<div class='center'><p><img src='run_exp/static/images/tutorial/blue_win.png' height='500'></p></div>","null","","","","","","","","","","","","","","","","","","","","","","",""
"","html-keyboard-response","20","157838","0.0-20.0","""event"",""trial"",""time""
""fullscreenenter"",""0"",""2115""
""blur"",""8"",""90531""
""focus"",""9"",""123523""
","""event"",""trial"",""time""
""blur"",""8"",""90531""
","""event"",""trial"",""time""
""focus"",""9"",""123523""
","""event"",""trial"",""time""
""fullscreenenter"",""0"",""2115""
","
","450.20000000298023","<div class='center'><img src='run_exp/static/images/tutorial/blue.png' height='500'></p></div>","49","","","","","","","","","","","","","","","","","","","","","","",""
"","html-keyboard-response","21","159344","0.0-21.0","""event"",""trial"",""time""
""fullscreenenter"",""0"",""2115""
""blur"",""8"",""90531""
""focus"",""9"",""123523""
","""event"",""trial"",""time""
""blur"",""8"",""90531""
","""event"",""trial"",""time""
""focus"",""9"",""123523""
","""event"",""trial"",""time""
""fullscreenenter"",""0"",""2115""
","
","null","<div class='center'><p><img src='run_exp/static/images/tutorial/blue_win.png' height='500'></p></div>","null","","","","","","","","","","","","","","","","","","","","","","",""
"","html-keyboard-response","22","159638","0.0-22.0","""event"",""trial"",""time""
""fullscreenenter"",""0"",""2115""
""blur"",""8"",""90531""
""focus"",""9"",""123523""
","""event"",""trial"",""time""
""blur"",""8"",""90531""
","""event"",""trial"",""time""
""focus"",""9"",""123523""
","""event"",""trial"",""time""
""fullscreenenter"",""0"",""2115""
","
","292.20000000298023","<div class='center'><img src='run_exp/static/images/tutorial/blue.png' height='500'></p></div>","49","","","","","","","","","","","","","","","","","","","","","","",""
"","html-keyboard-response","23","161141","0.0-23.0","""event"",""trial"",""time""
""fullscreenenter"",""0"",""2115""
""blur"",""8"",""90531""
""focus"",""9"",""123523""
","""event"",""trial"",""time""
""blur"",""8"",""90531""
","""event"",""trial"",""time""
""focus"",""9"",""123523""
","""event"",""trial"",""time""
""fullscreenenter"",""0"",""2115""
","
","null","<div class='center'><p><img src='run_exp/static/images/tutorial/blue_win.png' height='500'></p></div>","null","","","","","","","","","","","","","","","","","","","","","","",""
"","html-keyboard-response","24","161442","0.0-24.0","""event"",""trial"",""time""
""fullscreenenter"",""0"",""2115""
""blur"",""8"",""90531""
""focus"",""9"",""123523""
","""event"",""trial"",""time""
""blur"",""8"",""90531""
","""event"",""trial"",""time""
""focus"",""9"",""123523""
","""event"",""trial"",""time""
""fullscreenenter"",""0"",""2115""
","
","300.3999999910593","<div class='center'><img src='run_exp/static/images/tutorial/blue.png' height='500'></p></div>","49","","","","","","","","","","","","","","","","","","","","","","",""
"","html-keyboard-response","25","162948","0.0-25.0","""event"",""trial"",""time""
""fullscreenenter"",""0"",""2115""
""blur"",""8"",""90531""
""focus"",""9"",""123523""
","""event"",""trial"",""time""
""blur"",""8"",""90531""
","""event"",""trial"",""time""
""focus"",""9"",""123523""
","""event"",""trial"",""time""
""fullscreenenter"",""0"",""2115""
","
","null","<div class='center'><p><img src='run_exp/static/images/tutorial/blue_no_win.png' height='500'></p></div>","null","","","","","","","","","","","","","","","","","","","","","","",""
"","html-keyboard-response","26","163238","0.0-26.0","""event"",""trial"",""time""
""fullscreenenter"",""0"",""2115""
""blur"",""8"",""90531""
""focus"",""9"",""123523""
","""event"",""trial"",""time""
""blur"",""8"",""90531""
","""event"",""trial"",""time""
""focus"",""9"",""123523""
","""event"",""trial"",""time""
""fullscreenenter"",""0"",""2115""
","
","287.79999999701977","<div class='center'><img src='run_exp/static/images/tutorial/blue.png' height='500'></p></div>","49","","","","","","","","","","","","","","","","","","","","","","",""
"","html-keyboard-response","27","164740","0.0-27.0","""event"",""trial"",""time""
""fullscreenenter"",""0"",""2115""
""blur"",""8"",""90531""
""focus"",""9"",""123523""
","""event"",""trial"",""time""
""blur"",""8"",""90531""
","""event"",""trial"",""time""
""focus"",""9"",""123523""
","""event"",""trial"",""time""
""fullscreenenter"",""0"",""2115""
","
","null","<div class='center'><p><img src='run_exp/static/images/tutorial/blue_win.png' height='500'></p></div>","null","","","","","","","","","","","","","","","","","","","","","","",""
"","html-keyboard-response","28","165060","0.0-28.0","""event"",""trial"",""time""
""fullscreenenter"",""0"",""2115""
""blur"",""8"",""90531""
""focus"",""9"",""123523""
","""event"",""trial"",""time""
""blur"",""8"",""90531""
","""event"",""trial"",""time""
""focus"",""9"",""123523""
","""event"",""trial"",""time""
""fullscreenenter"",""0"",""2115""
","
","318.69999998807907","<div class='center'><img src='run_exp/static/images/tutorial/blue.png' height='500'></p></div>","49","","","","","","","","","","","","","","","","","","","","","","",""
"","html-keyboard-response","29","166566","0.0-29.0","""event"",""trial"",""time""
""fullscreenenter"",""0"",""2115""
""blur"",""8"",""90531""
""focus"",""9"",""123523""
","""event"",""trial"",""time""
""blur"",""8"",""90531""
","""event"",""trial"",""time""
""focus"",""9"",""123523""
","""event"",""trial"",""time""
""fullscreenenter"",""0"",""2115""
","
","null","<div class='center'><p><img src='run_exp/static/images/tutorial/blue_win.png' height='500'></p></div>","null","","","","","","","","","","","","","","","","","","","","","","",""
"","instruc6","30","172121","0.0-30.0","""event"",""trial"",""time""
""fullscreenenter"",""0"",""2115""
""blur"",""8"",""90531""
""focus"",""9"",""123523""
","""event"",""trial"",""time""
""blur"",""8"",""90531""
","""event"",""trial"",""time""
""focus"",""9"",""123523""
","""event"",""trial"",""time""
""fullscreenenter"",""0"",""2115""
","
","null","run_exp/static/audio/clip_6_blue_beard_outcome.m4a","null","","","","","<div class='center'><p> See, he succeeded in robbing the ships most of the time but not every time. </p></div>","","","","","","","","","","","","","","","","","",""
"","html-keyboard-response","31","172863","0.0-31.0","""event"",""trial"",""time""
""fullscreenenter"",""0"",""2115""
""blur"",""8"",""90531""
""focus"",""9"",""123523""
","""event"",""trial"",""time""
""blur"",""8"",""90531""
","""event"",""trial"",""time""
""focus"",""9"",""123523""
","""event"",""trial"",""time""
""fullscreenenter"",""0"",""2115""
","
","741.0999999940395","<div class='center'><p> See, he succeeded in robbing the ships most of the time but not every time. </p><p><b>[Press the space bar to continue]</b></p></div>","32","","","","","","","","","","","","","","","","","","","","","","",""
"","audio-keyboard-response","32","190457","0.0-32.0","""event"",""trial"",""time""
""fullscreenenter"",""0"",""2115""
""blur"",""8"",""90531""
""focus"",""9"",""123523""
","""event"",""trial"",""time""
""blur"",""8"",""90531""
","""event"",""trial"",""time""
""focus"",""9"",""123523""
","""event"",""trial"",""time""
""fullscreenenter"",""0"",""2115""
","
","17592.40000000596","run_exp/static/audio/clip_7_pick_pirate.m4a","50","","","","","","","","","","","","","","","","","","","","","","",""
"","audio-keyboard-response","33","194286","0.0-33.0-0.0","""event"",""trial"",""time""
""fullscreenenter"",""0"",""2115""
""blur"",""8"",""90531""
""focus"",""9"",""123523""
","""event"",""trial"",""time""
""blur"",""8"",""90531""
","""event"",""trial"",""time""
""focus"",""9"",""123523""
","""event"",""trial"",""time""
""fullscreenenter"",""0"",""2115""
","
","3826.5","run_exp/static/audio/clip_8_chosen_pirate_win.m4a","32","","","","","","","","","","","","","","","","","","","","","","",""
"","audio-keyboard-response","34","196930","0.0-33.0-1.0","""event"",""trial"",""time""
""fullscreenenter"",""0"",""2115""
""blur"",""8"",""90531""
""focus"",""9"",""123523""
","""event"",""trial"",""time""
""blur"",""8"",""90531""
","""event"",""trial"",""time""
""focus"",""9"",""123523""
","""event"",""trial"",""time""
""fullscreenenter"",""0"",""2115""
","
","2642.2000000029802","run_exp/static/audio/clip_9_pick_a_pirate_again.m4a","49","","","","","","","","","","","","","","","","","","","","","","",""
"","audio-keyboard-response","35","201782","0.0-34.0-0.0","""event"",""trial"",""time""
""fullscreenenter"",""0"",""2115""
""blur"",""8"",""90531""
""focus"",""9"",""123523""
","""event"",""trial"",""time""
""blur"",""8"",""90531""
","""event"",""trial"",""time""
""focus"",""9"",""123523""
","""event"",""trial"",""time""
""fullscreenenter"",""0"",""2115""
","
","4849.399999991059","run_exp/static/audio/clip_10_chosen_pirate_loss.m4a","32","","","","","","","","","","","","","","","","","","","","","","",""
"","instruc9","36","207299","0.0-35.0-0.0","""event"",""trial"",""time""
""fullscreenenter"",""0"",""2115""
""blur"",""8"",""90531""
""focus"",""9"",""123523""
","""event"",""trial"",""time""
""blur"",""8"",""90531""
","""event"",""trial"",""time""
""focus"",""9"",""123523""
","""event"",""trial"",""time""
""fullscreenenter"",""0"",""2115""
","
","null","run_exp/static/audio/clip_11_time_out.m4a","null","","","","","<div class='center'><p>If you don’t make your choice fast enough, you’ll have to wait a few seconds before you can make another one. </p><p><img src='run_exp/static/images/miscellaneous/hurry_up.png' height='500'></p></div>","","","","","","","","","","","","","","","","","",""
"","html-keyboard-response","37","207474","0.0-35.0-1.0","""event"",""trial"",""time""
""fullscreenenter"",""0"",""2115""
""blur"",""8"",""90531""
""focus"",""9"",""123523""
","""event"",""trial"",""time""
""blur"",""8"",""90531""
","""event"",""trial"",""time""
""focus"",""9"",""123523""
","""event"",""trial"",""time""
""fullscreenenter"",""0"",""2115""
","
","173","<div class='center'><p>If you don’t make your choice fast enough, you’ll have to wait a few seconds before you can make another one. </p><p><img src='run_exp/static/images/miscellaneous/hurry_up.png' height='500'></p><p><b>[Press the space bar to continue]</b></p></div>","32","","","","","","","","","","","","","","","","","","","","","","",""
"","instruc10","38","246588","0.0-35.0-2.0","""event"",""trial"",""time""
""fullscreenenter"",""0"",""2115""
""blur"",""8"",""90531""
""focus"",""9"",""123523""
","""event"",""trial"",""time""
""blur"",""8"",""90531""
","""event"",""trial"",""time""
""focus"",""9"",""123523""
","""event"",""trial"",""time""
""fullscreenenter"",""0"",""2115""
","
","null","run_exp/static/audio/clip_12_probe.m4a","null","","","","","<div class='center'><p>Once you've chosen a pirate, you’ll be shown the ship they are robbing. You will never rob the same ship twice. Ships can be told apart from one another by the image on them. These are the goods that they sell. See, this ship has a travel mug on it. </p><p> You’ll have to remember which island you saw each ship on. You will win more gold coins and hence more bonus money if you remember correctly! To help you remember, you can imagine a story. For example, here, you could imagine a mug full of water in the desert. Or, as another example, if on the forest island, your pirate robbed a ship with an apple on it, you could imagine an apple falling from a tree in the forest. </p><p><img src='run_exp/static/images/tutorial/example_probe.png' height='500'></p></div>","","","","","","","","","","","","","","","","","",""
"","html-keyboard-response","39","247244","0.0-35.0-3.0","""event"",""trial"",""time""
""fullscreenenter"",""0"",""2115""
""blur"",""8"",""90531""
""focus"",""9"",""123523""
","""event"",""trial"",""time""
""blur"",""8"",""90531""
","""event"",""trial"",""time""
""focus"",""9"",""123523""
","""event"",""trial"",""time""
""fullscreenenter"",""0"",""2115""
","
","653.7000000029802","<div class='center'><p>Once you've chosen a pirate, you’ll be shown the ship they are robbing. You will never rob the same ship twice. Ships can be told apart from one another by the image on them. These are the goods that they sell. See, this ship has a travel mug on it. </p><p> You’ll have to remember which island you saw each ship on. You will win more gold coins and hence more bonus money if you remember correctly! To help you remember, you can imagine a story. For example, here, you could imagine a mug full of water in the desert. Or, as another example, if on the forest island, your pirate robbed a ship with an apple on it, you could imagine an apple falling from a tree in the forest. </p><p><img src='run_exp/static/images/tutorial/example_probe.png' height='500'></p><p><b>[Press the space bar to continue]</b></p></div>","32","","","","","","","","","","","","","","","","","","","","","","",""
"","instruc11","40","263654","0.0-35.0-4.0","""event"",""trial"",""time""
""fullscreenenter"",""0"",""2115""
""blur"",""8"",""90531""
""focus"",""9"",""123523""
","""event"",""trial"",""time""
""blur"",""8"",""90531""
","""event"",""trial"",""time""
""focus"",""9"",""123523""
","""event"",""trial"",""time""
""fullscreenenter"",""0"",""2115""
","
","null","run_exp/static/audio/clip_13_changepoint.m4a","null","","","","","<div class='center'><p>How successful a pirate is at robbing ships will depend on the island you’re on.</p><p> A pirate may have visited this island many times before and gained a lot of practice robbing ships there.</p><p>So, they’re more likely to be successful than a pirate who has never visited the island before.</p></div>","","","","","","","","","","","","","","","","","",""
"","html-keyboard-response","41","264105","0.0-35.0-5.0","""event"",""trial"",""time""
""fullscreenenter"",""0"",""2115""
""blur"",""8"",""90531""
""focus"",""9"",""123523""
","""event"",""trial"",""time""
""blur"",""8"",""90531""
","""event"",""trial"",""time""
""focus"",""9"",""123523""
","""event"",""trial"",""time""
""fullscreenenter"",""0"",""2115""
","
","449.20000000298023","<div class='center'><p>How successful a pirate is at robbing ships will depend on the island you’re on.</p><p> A pirate may have visited this island many times before and gained a lot of practice robbing ships there.</p><p>So, they’re more likely to be successful than a pirate who has never visited the island before.</p><p><b>[Press the space bar to continue]</b></p></div>","32","","","","","","","","","","","","","","","","","","","","","","",""
"","instruc12","42","305219","0.0-35.0-6.0","""event"",""trial"",""time""
""fullscreenenter"",""0"",""2115""
""blur"",""8"",""90531""
""focus"",""9"",""123523""
","""event"",""trial"",""time""
""blur"",""8"",""90531""
","""event"",""trial"",""time""
""focus"",""9"",""123523""
","""event"",""trial"",""time""
""fullscreenenter"",""0"",""2115""
","
","null","run_exp/static/audio/clip_14_drift.m4a","null","","","","","<div class='center'><p>How successful a pirate is at robbing ships can also change over the time spent on the island. </p><p> Ships may hear from islanders about the pirates coming and will improve their protections against the attack. This may make it harder to rob them.</p><p> Ships may also become lazy and weaken the strength of their protections. This may make it easier to rob them.</p><br><p>Things are always changing on the high seas! So, try your best to pay attention!</p><p><img src='run_exp/static/images/tutorial/contingency.png' height='500'></p></div>","","","","","","","","","","","","","","","","","",""
"","html-keyboard-response","43","306889","0.0-35.0-7.0","""event"",""trial"",""time""
""fullscreenenter"",""0"",""2115""
""blur"",""8"",""90531""
""focus"",""9"",""123523""
","""event"",""trial"",""time""
""blur"",""8"",""90531""
","""event"",""trial"",""time""
""focus"",""9"",""123523""
","""event"",""trial"",""time""
""fullscreenenter"",""0"",""2115""
","
","1667.5","<div class='center'><p>How successful a pirate is at robbing ships can also change over the time spent on the island. </p><p> Ships may hear from islanders about the pirates coming and will improve their protections against the attack. This may make it harder to rob them.</p><p> Ships may also become lazy and weaken the strength of their protections. This may make it easier to rob them.</p><br><p>Things are always changing on the high seas! So, try your best to pay attention!</p><p><img src='run_exp/static/images/tutorial/contingency.png' height='500'></p><p><b>[Press the space bar to continue]</b></p></div>","32","","","","","","","","","","","","","","","","","","","","","","",""
"","instruc13","44","342093","0.0-35.0-8.0","""event"",""trial"",""time""
""fullscreenenter"",""0"",""2115""
""blur"",""8"",""90531""
""focus"",""9"",""123523""
","""event"",""trial"",""time""
""blur"",""8"",""90531""
","""event"",""trial"",""time""
""focus"",""9"",""123523""
","""event"",""trial"",""time""
""fullscreenenter"",""0"",""2115""
","
","null","run_exp/static/audio/clip_15_summary.m4a","null","","","","","<div class='center'><p>Let's go over the instructions quickly again. You have two important things to do: </p><b><p> 1. Pick the pirate who is the best at robbing ships on the current island. </p></b><b><p> 2. Remember on which island a ship was robbed.</p> </b><p>The amount of bonus money you can win depends on both.</p><p><br><p>Let’s try a practice game. The game will start by showing you the pirates. First, pick a pirate using the <b> 1, 2, 3 </b> keys on your keyboard. When you are shown a ship, try to remember which island you’re on by making up a story.</p><p>This is just a practice game, so you’re not playing for money. </p><p> Good luck! This game will be very difficult but try your best!</p></div>","","","","","","","","","","","","","","","","","",""
"","html-keyboard-response","45","343114","0.0-35.0-9.0","""event"",""trial"",""time""
""fullscreenenter"",""0"",""2115""
""blur"",""8"",""90531""
""focus"",""9"",""123523""
","""event"",""trial"",""time""
""blur"",""8"",""90531""
","""event"",""trial"",""time""
""focus"",""9"",""123523""
","""event"",""trial"",""time""
""fullscreenenter"",""0"",""2115""
","
","1019.2000000029802","<div class='center'><p>Let's go over the instructions quickly again. You have two important things to do: </p><b><p> 1. Pick the pirate who is the best at robbing ships on the current island. </p></b><b><p> 2. Remember on which island a ship was robbed.</p> </b><p>The amount of bonus money you can win depends on both.</p><p><br><p>Let’s try a practice game. The game will start by showing you the pirates. First, pick a pirate using the <b> 1, 2, 3 </b> keys on your keyboard. When you are shown a ship, try to remember which island you’re on by making up a story.</p><p>This is just a practice game, so you’re not playing for money. </p><p> Good luck! This game will be very difficult but try your best!</p><p><b>[Press the space bar to continue]</b></p></div>","32","","","","","","","","","","","","","","","","","","","","","","",""
"","do_welcome","46","347125","0.0-35.0-10.0","""event"",""trial"",""time""
""fullscreenenter"",""0"",""2115""
""blur"",""8"",""90531""
""focus"",""9"",""123523""
","""event"",""trial"",""time""
""blur"",""8"",""90531""
","""event"",""trial"",""time""
""focus"",""9"",""123523""
","""event"",""trial"",""time""
""fullscreenenter"",""0"",""2115""
","
","null","","","","","","","","null","","","","","","","","","","","","","","","","",""
"","do_trial","47","353141","0.0-35.0-11.0","""event"",""trial"",""time""
""fullscreenenter"",""0"",""2115""
""blur"",""8"",""90531""
""focus"",""9"",""123523""
","""event"",""trial"",""time""
""blur"",""8"",""90531""
","""event"",""trial"",""time""
""focus"",""9"",""123523""
","""event"",""trial"",""time""
""fullscreenenter"",""0"",""2115""
","
","null","","","","","","","","null","1,0,0","","","","","","","","","","","","","","","",""
"","html-keyboard-response","48","354149","0.0-36.0-0.0","""event"",""trial"",""time""
""fullscreenenter"",""0"",""2115""
""blur"",""8"",""90531""
""focus"",""9"",""123523""
","""event"",""trial"",""time""
""blur"",""8"",""90531""
","""event"",""trial"",""time""
""focus"",""9"",""123523""
","""event"",""trial"",""time""
""fullscreenenter"",""0"",""2115""
","
","null","<p></p>","null","","","","","","","","","","","","","","","","","","","","","","",""
"","do_trial","49","359140","0.0-36.0-1.0","""event"",""trial"",""time""
""fullscreenenter"",""0"",""2115""
""blur"",""8"",""90531""
""focus"",""9"",""123523""
","""event"",""trial"",""time""
""blur"",""8"",""90531""
","""event"",""trial"",""time""
""focus"",""9"",""123523""
","""event"",""trial"",""time""
""fullscreenenter"",""0"",""2115""
","
","477.40000000596046","","","","","","","","51","1,0,0","","","","","","","","","","","","","","","",""
"","html-keyboard-response","50","360147","0.0-37.0-0.0","""event"",""trial"",""time""
""fullscreenenter"",""0"",""2115""
""blur"",""8"",""90531""
""focus"",""9"",""123523""
","""event"",""trial"",""time""
""blur"",""8"",""90531""
","""event"",""trial"",""time""
""focus"",""9"",""123523""
","""event"",""trial"",""time""
""fullscreenenter"",""0"",""2115""
","
","null","<p></p>","null","","","","","","","","","","","","","","","","","","","","","","",""
"","do_trial","51","365201","0.0-37.0-1.0","""event"",""trial"",""time""
""fullscreenenter"",""0"",""2115""
""blur"",""8"",""90531""
""focus"",""9"",""123523""
","""event"",""trial"",""time""
""blur"",""8"",""90531""
","""event"",""trial"",""time""
""focus"",""9"",""123523""
","""event"",""trial"",""time""
""fullscreenenter"",""0"",""2115""
","
","542.2999999970198","","","","","","","","50","1,1,0","","","","","","","","","","","","","","","",""
"","html-keyboard-response","52","366204","0.0-38.0-0.0","""event"",""trial"",""time""
""fullscreenenter"",""0"",""2115""
""blur"",""8"",""90531""
""focus"",""9"",""123523""
","""event"",""trial"",""time""
""blur"",""8"",""90531""
","""event"",""trial"",""time""
""focus"",""9"",""123523""
","""event"",""trial"",""time""
""fullscreenenter"",""0"",""2115""
","
","null","<p></p>","null","","","","","","","","","","","","","","","","","","","","","","",""
"","do_trial","53","371265","0.0-38.0-1.0","""event"",""trial"",""time""
""fullscreenenter"",""0"",""2115""
""blur"",""8"",""90531""
""focus"",""9"",""123523""
","""event"",""trial"",""time""
""blur"",""8"",""90531""
","""event"",""trial"",""time""
""focus"",""9"",""123523""
","""event"",""trial"",""time""
""fullscreenenter"",""0"",""2115""
","
","548.5999999940395","","","","","","","","49","1,0,1","","","","","","","","","","","","","","","",""
"","html-keyboard-response","54","372268","0.0-39.0-0.0","""event"",""trial"",""time""
""fullscreenenter"",""0"",""2115""
""blur"",""8"",""90531""
""focus"",""9"",""123523""
","""event"",""trial"",""time""
""blur"",""8"",""90531""
","""event"",""trial"",""time""
""focus"",""9"",""123523""
","""event"",""trial"",""time""
""fullscreenenter"",""0"",""2115""
","
","null","<p></p>","null","","","","","","","","","","","","","","","","","","","","","","",""
"","do_trial","55","377249","0.0-39.0-1.0","""event"",""trial"",""time""
""fullscreenenter"",""0"",""2115""
""blur"",""8"",""90531""
""focus"",""9"",""123523""
","""event"",""trial"",""time""
""blur"",""8"",""90531""
","""event"",""trial"",""time""
""focus"",""9"",""123523""
","""event"",""trial"",""time""
""fullscreenenter"",""0"",""2115""
","
","469.19999998807907","","","","","","","","49","0,1,0","","","","","","","","","","","","","","","",""
"","html-keyboard-response","56","378256","0.0-40.0-0.0","""event"",""trial"",""time""
""fullscreenenter"",""0"",""2115""
""blur"",""8"",""90531""
""focus"",""9"",""123523""
","""event"",""trial"",""time""
""blur"",""8"",""90531""
","""event"",""trial"",""time""
""focus"",""9"",""123523""
","""event"",""trial"",""time""
""fullscreenenter"",""0"",""2115""
","
","null","<p></p>","null","","","","","","","","","","","","","","","","","","","","","","",""
"","do_trial","57","383091","0.0-40.0-1.0","""event"",""trial"",""time""
""fullscreenenter"",""0"",""2115""
""blur"",""8"",""90531""
""focus"",""9"",""123523""
","""event"",""trial"",""time""
""blur"",""8"",""90531""
","""event"",""trial"",""time""
""focus"",""9"",""123523""
","""event"",""trial"",""time""
""fullscreenenter"",""0"",""2115""
","
","319.6000000089407","","","","","","","","50","1,0,0","","","","","","","","","","","","","","","",""
"","do_bye","58","384599","0.0-41.0-0.0","""event"",""trial"",""time""
""fullscreenenter"",""0"",""2115""
""blur"",""8"",""90531""
""focus"",""9"",""123523""
","""event"",""trial"",""time""
""blur"",""8"",""90531""
","""event"",""trial"",""time""
""focus"",""9"",""123523""
","""event"",""trial"",""time""
""fullscreenenter"",""0"",""2115""
","
","null","","","","","","","","null","","","","","","","","","","","","","","","","",""
"","do_travel","59","393611","0.0-41.0-1.0","""event"",""trial"",""time""
""fullscreenenter"",""0"",""2115""
""blur"",""8"",""90531""
""focus"",""9"",""123523""
","""event"",""trial"",""time""
""blur"",""8"",""90531""
","""event"",""trial"",""time""
""focus"",""9"",""123523""
","""event"",""trial"",""time""
""fullscreenenter"",""0"",""2115""
","
","null","","","","","","","","null","","","","","","","","","","","","","","","","",""
"","do_welcome","60","397623","0.0-41.0-2.0","""event"",""trial"",""time""
""fullscreenenter"",""0"",""2115""
""blur"",""8"",""90531""
""focus"",""9"",""123523""
","""event"",""trial"",""time""
""blur"",""8"",""90531""
","""event"",""trial"",""time""
""focus"",""9"",""123523""
","""event"",""trial"",""time""
""fullscreenenter"",""0"",""2115""
","
","null","","","","","","","","null","","","","","","","","","","","","","","","","",""
"","do_trial","61","402984","0.0-41.0-3.0","""event"",""trial"",""time""
""fullscreenenter"",""0"",""2115""
""blur"",""8"",""90531""
""focus"",""9"",""123523""
","""event"",""trial"",""time""
""blur"",""8"",""90531""
","""event"",""trial"",""time""
""focus"",""9"",""123523""
","""event"",""trial"",""time""
""fullscreenenter"",""0"",""2115""
","
","849.7000000029802","","","","","","","","51","1,0,0","","","","","","","","","","","","","","","",""
"","html-keyboard-response","62","403992","0.0-42.0-0.0","""event"",""trial"",""time""
""fullscreenenter"",""0"",""2115""
""blur"",""8"",""90531""
""focus"",""9"",""123523""
","""event"",""trial"",""time""
""blur"",""8"",""90531""
","""event"",""trial"",""time""
""focus"",""9"",""123523""
","""event"",""trial"",""time""
""fullscreenenter"",""0"",""2115""
","
","null","<p></p>","null","","","","","","","","","","","","","","","","","","","","","","",""
"","do_trial","63","408853","0.0-42.0-1.0","""event"",""trial"",""time""
""fullscreenenter"",""0"",""2115""
""blur"",""8"",""90531""
""focus"",""9"",""123523""
","""event"",""trial"",""time""
""blur"",""8"",""90531""
","""event"",""trial"",""time""
""focus"",""9"",""123523""
","""event"",""trial"",""time""
""fullscreenenter"",""0"",""2115""
","
","349.1000000089407","","","","","","","","50","1,0,1","","","","","","","","","","","","","","","",""
"","html-keyboard-response","64","409860","0.0-43.0-0.0","""event"",""trial"",""time""
""fullscreenenter"",""0"",""2115""
""blur"",""8"",""90531""
""focus"",""9"",""123523""
","""event"",""trial"",""time""
""blur"",""8"",""90531""
","""event"",""trial"",""time""
""focus"",""9"",""123523""
","""event"",""trial"",""time""
""fullscreenenter"",""0"",""2115""
","
","null","<p></p>","null","","","","","","","","","","","","","","","","","","","","","","",""
"","do_trial","65","414662","0.0-43.0-1.0","""event"",""trial"",""time""
""fullscreenenter"",""0"",""2115""
""blur"",""8"",""90531""
""focus"",""9"",""123523""
","""event"",""trial"",""time""
""blur"",""8"",""90531""
","""event"",""trial"",""time""
""focus"",""9"",""123523""
","""event"",""trial"",""time""
""fullscreenenter"",""0"",""2115""
","
","292.70000000298023","","","","","","","","49","1,1,0","","","","","","","","","","","","","","","",""
"","html-keyboard-response","66","415670","0.0-44.0-0.0","""event"",""trial"",""time""
""fullscreenenter"",""0"",""2115""
""blur"",""8"",""90531""
""focus"",""9"",""123523""
","""event"",""trial"",""time""
""blur"",""8"",""90531""
","""event"",""trial"",""time""
""focus"",""9"",""123523""
","""event"",""trial"",""time""
""fullscreenenter"",""0"",""2115""
","
","null","<p></p>","null","","","","","","","","","","","","","","","","","","","","","","",""
"","do_trial","67","420471","0.0-44.0-1.0","""event"",""trial"",""time""
""fullscreenenter"",""0"",""2115""
""blur"",""8"",""90531""
""focus"",""9"",""123523""
","""event"",""trial"",""time""
""blur"",""8"",""90531""
","""event"",""trial"",""time""
""focus"",""9"",""123523""
","""event"",""trial"",""time""
""fullscreenenter"",""0"",""2115""
","
","288.40000000596046","","","","","","","","50","0,0,1","","","","","","","","","","","","","","","",""
"","html-keyboard-response","68","421478","0.0-45.0-0.0","""event"",""trial"",""time""
""fullscreenenter"",""0"",""2115""
""blur"",""8"",""90531""
""focus"",""9"",""123523""
","""event"",""trial"",""time""
""blur"",""8"",""90531""
","""event"",""trial"",""time""
""focus"",""9"",""123523""
","""event"",""trial"",""time""
""fullscreenenter"",""0"",""2115""
","
","null","<p></p>","null","","","","","","","","","","","","","","","","","","","","","","",""
"","do_trial","69","426265","0.0-45.0-1.0","""event"",""trial"",""time""
""fullscreenenter"",""0"",""2115""
""blur"",""8"",""90531""
""focus"",""9"",""123523""
","""event"",""trial"",""time""
""blur"",""8"",""90531""
","""event"",""trial"",""time""
""focus"",""9"",""123523""
","""event"",""trial"",""time""
""fullscreenenter"",""0"",""2115""
","
","275.70000000298023","","","","","","","","50","1,0,1","","","","","","","","","","","","","","","",""
"","html-keyboard-response","70","428928","0.0-46.0-0.0","""event"",""trial"",""time""
""fullscreenenter"",""0"",""2115""
""blur"",""8"",""90531""
""focus"",""9"",""123523""
","""event"",""trial"",""time""
""blur"",""8"",""90531""
","""event"",""trial"",""time""
""focus"",""9"",""123523""
","""event"",""trial"",""time""
""fullscreenenter"",""0"",""2115""
","
","2659.7999999970198","<div class='center'><p><img src='run_exp/static/images/tutorial/prac_best_pirate.png'  height='500'></p></div>","49","","","","","","","","","","","","","","","","","","","","","","",""
"","html-keyboard-response","71","430004","0.0-47.0-0.0","""event"",""trial"",""time""
""fullscreenenter"",""0"",""2115""
""blur"",""8"",""90531""
""focus"",""9"",""123523""
","""event"",""trial"",""time""
""blur"",""8"",""90531""
","""event"",""trial"",""time""
""focus"",""9"",""123523""
","""event"",""trial"",""time""
""fullscreenenter"",""0"",""2115""
","
","1074.2999999970198","<div class='center'><p>That's correct! Red beard was the best.</p><p><b>[Press the space bar to continue]</b></p></div>","32","","","","","","","","","","","","","","","","","","","","","","",""
"","html-keyboard-response","72","432791","0.0-47.0-1.0","""event"",""trial"",""time""
""fullscreenenter"",""0"",""2115""
""blur"",""8"",""90531""
""focus"",""9"",""123523""
","""event"",""trial"",""time""
""blur"",""8"",""90531""
","""event"",""trial"",""time""
""focus"",""9"",""123523""
","""event"",""trial"",""time""
""fullscreenenter"",""0"",""2115""
","
","2785.0999999940395","<div class='center'><p><img src='run_exp/static/images/tutorial/prac_source.png'  height='500'></p></div>","50","","","","","","","","","","","","","","","","","","","","","","",""
"","html-keyboard-response","73","433464","0.0-48.0-0.0","""event"",""trial"",""time""
""fullscreenenter"",""0"",""2115""
""blur"",""8"",""90531""
""focus"",""9"",""123523""
","""event"",""trial"",""time""
""blur"",""8"",""90531""
","""event"",""trial"",""time""
""focus"",""9"",""123523""
","""event"",""trial"",""time""
""fullscreenenter"",""0"",""2115""
","
","672.2000000029802","<div class='center'><p>That's correct! You saw this ship on the cavern island.</p><p><b>[Press the space bar to continue]</b></p></div>","32","","","","","","","","","","","","","","","","","","","","","","",""
"","quiz_beginning","74","444825","0.0-48.0-1.0","""event"",""trial"",""time""
""fullscreenenter"",""0"",""2115""
""blur"",""8"",""90531""
""focus"",""9"",""123523""
","""event"",""trial"",""time""
""blur"",""8"",""90531""
","""event"",""trial"",""time""
""focus"",""9"",""123523""
","""event"",""trial"",""time""
""fullscreenenter"",""0"",""2115""
","
","null","run_exp/static/audio/clip_16_quiz_intro.m4a","null","","","","","<div class='center'><p>Good job on the practice game! Now, you will be asked some true or false questions to make sure you really understand the rules of the game.</p><p> Press <b>'1'</b> on the keyboard for true and press <b>'2'</b> for false.</p></div>","","","","","","","","","","","","","","","","","",""
"","audio-keyboard-response","75","453723","0.0-48.0-2.0","""event"",""trial"",""time""
""fullscreenenter"",""0"",""2115""
""blur"",""8"",""90531""
""focus"",""9"",""123523""
","""event"",""trial"",""time""
""blur"",""8"",""90531""
","""event"",""trial"",""time""
""focus"",""9"",""123523""
","""event"",""trial"",""time""
""fullscreenenter"",""0"",""2115""
","
","8896.09999999404","run_exp/static/audio/clip_17_q1.m4a","49","","","","","","","","","","","","","","","","","","","","","","",""
"","correct","76","456133","0.0-49.0-0.0","""event"",""trial"",""time""
""fullscreenenter"",""0"",""2115""
""blur"",""8"",""90531""
""focus"",""9"",""123523""
","""event"",""trial"",""time""
""blur"",""8"",""90531""
","""event"",""trial"",""time""
""focus"",""9"",""123523""
","""event"",""trial"",""time""
""fullscreenenter"",""0"",""2115""
","
","null","run_exp/static/audio/clip_18_correct.m4a","null","","","","","<div class='center'><p>That's correct!</p></div>","","","","","","","","","","","","","","","","","",""
"","html-keyboard-response","77","457327","0.0-49.0-1.0","""event"",""trial"",""time""
""fullscreenenter"",""0"",""2115""
""blur"",""8"",""90531""
""focus"",""9"",""123523""
","""event"",""trial"",""time""
""blur"",""8"",""90531""
","""event"",""trial"",""time""
""focus"",""9"",""123523""
","""event"",""trial"",""time""
""fullscreenenter"",""0"",""2115""
","
","1192.4000000059605","<div class='center'><p>That's correct!</p><p><b>[Press the space bar to continue]</b></p></div>","32","","","","","","","","","","","","","","","","","","","","","","",""
"","audio-keyboard-response","78","463381","0.0-49.0-2.0","""event"",""trial"",""time""
""fullscreenenter"",""0"",""2115""
""blur"",""8"",""90531""
""focus"",""9"",""123523""
","""event"",""trial"",""time""
""blur"",""8"",""90531""
","""event"",""trial"",""time""
""focus"",""9"",""123523""
","""event"",""trial"",""time""
""fullscreenenter"",""0"",""2115""
","
","6052.79999999702","run_exp/static/audio/clip_20_q2.m4a","50","","","","","","","","","","","","","","","","","","","","","","",""
"","correct","79","465793","0.0-50.0-0.0","""event"",""trial"",""time""
""fullscreenenter"",""0"",""2115""
""blur"",""8"",""90531""
""focus"",""9"",""123523""
","""event"",""trial"",""time""
""blur"",""8"",""90531""
","""event"",""trial"",""time""
""focus"",""9"",""123523""
","""event"",""trial"",""time""
""fullscreenenter"",""0"",""2115""
","
","null","run_exp/static/audio/clip_18_correct.m4a","null","","","","","<div class='center'><p>That's correct!</p></div>","","","","","","","","","","","","","","","","","",""
"","html-keyboard-response","80","465894","0.0-50.0-1.0","""event"",""trial"",""time""
""fullscreenenter"",""0"",""2115""
""blur"",""8"",""90531""
""focus"",""9"",""123523""
","""event"",""trial"",""time""
""blur"",""8"",""90531""
","""event"",""trial"",""time""
""focus"",""9"",""123523""
","""event"",""trial"",""time""
""fullscreenenter"",""0"",""2115""
","
","99.90000000596046","<div class='center'><p>That's correct!</p><p><b>[Press the space bar to continue]</b></p></div>","32","","","","","","","","","","","","","","","","","","","","","","",""
"","audio-keyboard-response","81","469153","0.0-50.0-2.0","""event"",""trial"",""time""
""fullscreenenter"",""0"",""2115""
""blur"",""8"",""90531""
""focus"",""9"",""123523""
","""event"",""trial"",""time""
""blur"",""8"",""90531""
","""event"",""trial"",""time""
""focus"",""9"",""123523""
","""event"",""trial"",""time""
""fullscreenenter"",""0"",""2115""
","
","3257.7000000029802","run_exp/static/audio/clip_22_q3.m4a","50","","","","","","","","","","","","","","","","","","","","","","",""
"","correct","82","471551","0.0-51.0-0.0","""event"",""trial"",""time""
""fullscreenenter"",""0"",""2115""
""blur"",""8"",""90531""
""focus"",""9"",""123523""
","""event"",""trial"",""time""
""blur"",""8"",""90531""
","""event"",""trial"",""time""
""focus"",""9"",""123523""
","""event"",""trial"",""time""
""fullscreenenter"",""0"",""2115""
","
","null","run_exp/static/audio/clip_18_correct.m4a","null","","","","","<div class='center'><p>That's correct!</p></div>","","","","","","","","","","","","","","","","","",""
"","html-keyboard-response","83","471842","0.0-51.0-1.0","""event"",""trial"",""time""
""fullscreenenter"",""0"",""2115""
""blur"",""8"",""90531""
""focus"",""9"",""123523""
","""event"",""trial"",""time""
""blur"",""8"",""90531""
","""event"",""trial"",""time""
""focus"",""9"",""123523""
","""event"",""trial"",""time""
""fullscreenenter"",""0"",""2115""
","
","290.19999998807907","<div class='center'><p>That's correct!</p><p><b>[Press the space bar to continue]</b></p></div>","32","","","","","","","","","","","","","","","","","","","","","","",""
"","audio-keyboard-response","84","476349","0.0-51.0-2.0","""event"",""trial"",""time""
""fullscreenenter"",""0"",""2115""
""blur"",""8"",""90531""
""focus"",""9"",""123523""
","""event"",""trial"",""time""
""blur"",""8"",""90531""
","""event"",""trial"",""time""
""focus"",""9"",""123523""
","""event"",""trial"",""time""
""fullscreenenter"",""0"",""2115""
","
","4505.800000011921","run_exp/static/audio/clip_24_q4.m4a","49","","","","","","","","","","","","","","","","","","","","","","",""
"","correct","85","478797","0.0-52.0-0.0","""event"",""trial"",""time""
""fullscreenenter"",""0"",""2115""
""blur"",""8"",""90531""
""focus"",""9"",""123523""
","""event"",""trial"",""time""
""blur"",""8"",""90531""
","""event"",""trial"",""time""
""focus"",""9"",""123523""
","""event"",""trial"",""time""
""fullscreenenter"",""0"",""2115""
","
","null","run_exp/static/audio/clip_18_correct.m4a","null","","","","","<div class='center'><p>That's correct!</p></div>","","","","","","","","","","","","","","","","","",""
"","html-keyboard-response","86","479033","0.0-52.0-1.0","""event"",""trial"",""time""
""fullscreenenter"",""0"",""2115""
""blur"",""8"",""90531""
""focus"",""9"",""123523""
","""event"",""trial"",""time""
""blur"",""8"",""90531""
","""event"",""trial"",""time""
""focus"",""9"",""123523""
","""event"",""trial"",""time""
""fullscreenenter"",""0"",""2115""
","
","234.79999999701977","<div class='center'><p>That's correct!</p><p><b>[Press the space bar to continue]</b></p></div>","32","","","","","","","","","","","","","","","","","","","","","","",""
"","q_all_corr","87","487527","0.0-53.0-0.0","""event"",""trial"",""time""
""fullscreenenter"",""0"",""2115""
""blur"",""8"",""90531""
""focus"",""9"",""123523""
","""event"",""trial"",""time""
""blur"",""8"",""90531""
","""event"",""trial"",""time""
""focus"",""9"",""123523""
","""event"",""trial"",""time""
""fullscreenenter"",""0"",""2115""
","
","null","run_exp/static/audio/clip_27_quiz_all_correct.m4a","null","","","","","<div class='center'><p>Good job! You’re now ready to move on to the real game! Remember this game will be difficult but don't get discouraged and try your best!</p></div>","","","","","","","","","","","","","","","","","",""
"","html-keyboard-response","88","488193","0.0-53.0-1.0","""event"",""trial"",""time""
""fullscreenenter"",""0"",""2115""
""blur"",""8"",""90531""
""focus"",""9"",""123523""
","""event"",""trial"",""time""
""blur"",""8"",""90531""
","""event"",""trial"",""time""
""focus"",""9"",""123523""
","""event"",""trial"",""time""
""fullscreenenter"",""0"",""2115""
","
","664.9000000059605","<div class='center'><p>Good job! You’re now ready to move on to the real game! Remember this game will be difficult but don't get discouraged and try your best!</p><p><b>[Press the space bar to continue]</b></p></div>","32","","","","","","","","","","","","","","","","","","","","","","",""
"","do_welcome","89","492200","0.0-54.0-0.0","""event"",""trial"",""time""
""fullscreenenter"",""0"",""2115""
""blur"",""8"",""90531""
""focus"",""9"",""123523""
","""event"",""trial"",""time""
""blur"",""8"",""90531""
","""event"",""trial"",""time""
""focus"",""9"",""123523""
","""event"",""trial"",""time""
""fullscreenenter"",""0"",""2115""
","
","null","","","","","","","","null","","","","","","","","","","","","","","","","",""
"","do_trial","90","497568","0.0-55.0-0.0","""event"",""trial"",""time""
""fullscreenenter"",""0"",""2115""
""blur"",""8"",""90531""
""focus"",""9"",""123523""
","""event"",""trial"",""time""
""blur"",""8"",""90531""
","""event"",""trial"",""time""
""focus"",""9"",""123523""
","""event"",""trial"",""time""
""fullscreenenter"",""0"",""2115""
","
","822","","","","","","","","49","0,0,0","0","highway","0","probe-218","0.6","0.3","0.1","0","","","","","","","",""
"","html-keyboard-response","91","498576","0.0-55.0-1.0","""event"",""trial"",""time""
""fullscreenenter"",""0"",""2115""
""blur"",""8"",""90531""
""focus"",""9"",""123523""
","""event"",""trial"",""time""
""blur"",""8"",""90531""
","""event"",""trial"",""time""
""focus"",""9"",""123523""
","""event"",""trial"",""time""
""fullscreenenter"",""0"",""2115""
","
","null","<p></p>","null","","","","","","","","","","","","","","","","","","","","","","",""
"","do_trial","92","503453","0.0-56.0-0.0","""event"",""trial"",""time""
""fullscreenenter"",""0"",""2115""
""blur"",""8"",""90531""
""focus"",""9"",""123523""
","""event"",""trial"",""time""
""blur"",""8"",""90531""
","""event"",""trial"",""time""
""focus"",""9"",""123523""
","""event"",""trial"",""time""
""fullscreenenter"",""0"",""2115""
","
","332.20000000298023","","","","","","","","50","1,0,0","0","highway","1","probe-92","0.6176990086161359","0.1332974297070006","0.21052588523328886","0","","","","","","","",""
"","html-keyboard-response","93","504459","0.0-56.0-1.0","""event"",""trial"",""time""
""fullscreenenter"",""0"",""2115""
""blur"",""8"",""90531""
""focus"",""9"",""123523""
","""event"",""trial"",""time""
""blur"",""8"",""90531""
","""event"",""trial"",""time""
""focus"",""9"",""123523""
","""event"",""trial"",""time""
""fullscreenenter"",""0"",""2115""
","
","null","<p></p>","null","","","","","","","","","","","","","","","","","","","","","","",""
"","do_trial","94","509310","0.0-57.0-0.0","""event"",""trial"",""time""
""fullscreenenter"",""0"",""2115""
""blur"",""8"",""90531""
""focus"",""9"",""123523""
","""event"",""trial"",""time""
""blur"",""8"",""90531""
","""event"",""trial"",""time""
""focus"",""9"",""123523""
","""event"",""trial"",""time""
""fullscreenenter"",""0"",""2115""
","
","306.40000000596046","","","","","","","","51","1,1,1","0","highway","2","probe-24","0.5947574819812809","0.2679430376485788","0.22046577387081004","1","","","","","","","",""
"","html-keyboard-response","95","510317","0.0-57.0-1.0","""event"",""trial"",""time""
""fullscreenenter"",""0"",""2115""
""blur"",""8"",""90531""
""focus"",""9"",""123523""
","""event"",""trial"",""time""
""blur"",""8"",""90531""
","""event"",""trial"",""time""
""focus"",""9"",""123523""
","""event"",""trial"",""time""
""fullscreenenter"",""0"",""2115""
","
","null","<p></p>","null","","","","","","","","","","","","","","","","","","","","","","",""
"","do_trial","96","515406","0.0-58.0-0.0","""event"",""trial"",""time""
""fullscreenenter"",""0"",""2115""
""blur"",""8"",""90531""
""focus"",""9"",""123523""
","""event"",""trial"",""time""
""blur"",""8"",""90531""
","""event"",""trial"",""time""
""focus"",""9"",""123523""
","""event"",""trial"",""time""
""fullscreenenter"",""0"",""2115""
","
","545.2999999970198","","","","","","","","50","1,0,0","0","highway","3","probe-83","0.5620497907987513","0.23539564238842137","0.2704648842482254","0","","","","","","","",""
"","html-keyboard-response","97","516413","0.0-58.0-1.0","""event"",""trial"",""time""
""fullscreenenter"",""0"",""2115""
""blur"",""8"",""90531""
""focus"",""9"",""123523""
","""event"",""trial"",""time""
""blur"",""8"",""90531""
","""event"",""trial"",""time""
""focus"",""9"",""123523""
","""event"",""trial"",""time""
""fullscreenenter"",""0"",""2115""
","
","null","<p></p>","null","","","","","","","","","","","","","","","","","","","","","","",""
"","do_trial","98","521890","0.0-59.0-0.0","""event"",""trial"",""time""
""fullscreenenter"",""0"",""2115""
""blur"",""8"",""90531""
""focus"",""9"",""123523""
","""event"",""trial"",""time""
""blur"",""8"",""90531""
","""event"",""trial"",""time""
""focus"",""9"",""123523""
","""event"",""trial"",""time""
""fullscreenenter"",""0"",""2115""
","
","935.8999999910593","","","","","","","","49","1,0,0","0","highway","4","probe-147","0.5033594013858559","0.37670046851874395","0.1775704965311737","1","","","","","","","",""
"","html-keyboard-response","99","522892","0.0-59.0-1.0","""event"",""trial"",""time""
""fullscreenenter"",""0"",""2115""
""blur"",""8"",""90531""
""focus"",""9"",""123523""
","""event"",""trial"",""time""
""blur"",""8"",""90531""
","""event"",""trial"",""time""
""focus"",""9"",""123523""
","""event"",""trial"",""time""
""fullscreenenter"",""0"",""2115""
","
","null","<p></p>","null","","","","","","","","","","","","","","","","","","","","","","",""
"","do_trial","100","527757","0.0-60.0-0.0","""event"",""trial"",""time""
""fullscreenenter"",""0"",""2115""
""blur"",""8"",""90531""
""focus"",""9"",""123523""
","""event"",""trial"",""time""
""blur"",""8"",""90531""
","""event"",""trial"",""time""
""focus"",""9"",""123523""
","""event"",""trial"",""time""
""fullscreenenter"",""0"",""2115""
","
","320.79999999701977","","","","","","","","51","1,0,0","0","highway","5","probe-78","0.5810448828576148","0.2903165426977649","0.19849644690260923","0","","","","","","","",""
"","html-keyboard-response","101","528764","0.0-60.0-1.0","""event"",""trial"",""time""
""fullscreenenter"",""0"",""2115""
""blur"",""8"",""90531""
""focus"",""9"",""123523""
","""event"",""trial"",""time""
""blur"",""8"",""90531""
","""event"",""trial"",""time""
""focus"",""9"",""123523""
","""event"",""trial"",""time""
""fullscreenenter"",""0"",""2115""
","
","null","<p></p>","null","","","","","","","","","","","","","","","","","","","","","","",""
"","do_trial","102","533628","0.0-61.0-0.0","""event"",""trial"",""time""
""fullscreenenter"",""0"",""2115""
""blur"",""8"",""90531""
""focus"",""9"",""123523""
","""event"",""trial"",""time""
""blur"",""8"",""90531""
","""event"",""trial"",""time""
""focus"",""9"",""123523""
","""event"",""trial"",""time""
""fullscreenenter"",""0"",""2115""
","
","321.90000000596046","","","","","","","","50","1,0,0","0","highway","6","probe-148","0.6598127544986615","0.23127169450328997","0.08649859413911408","0","","","","","","","",""
"","html-keyboard-response","103","534633","0.0-61.0-1.0","""event"",""trial"",""time""
""fullscreenenter"",""0"",""2115""
""blur"",""8"",""90531""
""focus"",""9"",""123523""
","""event"",""trial"",""time""
""blur"",""8"",""90531""
","""event"",""trial"",""time""
""focus"",""9"",""123523""
","""event"",""trial"",""time""
""fullscreenenter"",""0"",""2115""
","
","null","<p></p>","null","","","","","","","","","","","","","","","","","","","","","","",""
"","do_trial","104","539567","0.0-62.0-0.0","""event"",""trial"",""time""
""fullscreenenter"",""0"",""2115""
""blur"",""8"",""90531""
""focus"",""9"",""123523""
","""event"",""trial"",""time""
""blur"",""8"",""90531""
","""event"",""trial"",""time""
""focus"",""9"",""123523""
","""event"",""trial"",""time""
""fullscreenenter"",""0"",""2115""
","
","386","","","","","","","","49","0,0,0","0","highway","7","probe-164","0.6321406126168871","0.3830535940214772","0.062171648461033686","0","","","","","","","",""
"","html-keyboard-response","105","540574","0.0-62.0-1.0","""event"",""trial"",""time""
""fullscreenenter"",""0"",""2115""
""blur"",""8"",""90531""
""focus"",""9"",""123523""
","""event"",""trial"",""time""
""blur"",""8"",""90531""
","""event"",""trial"",""time""
""focus"",""9"",""123523""
","""event"",""trial"",""time""
""fullscreenenter"",""0"",""2115""
","
","null","<p></p>","null","","","","","","","","","","","","","","","","","","","","","","",""
"","do_trial","106","545722","0.0-63.0-0.0","""event"",""trial"",""time""
""fullscreenenter"",""0"",""2115""
""blur"",""8"",""90531""
""focus"",""9"",""123523""
","""event"",""trial"",""time""
""blur"",""8"",""90531""
","""event"",""trial"",""time""
""focus"",""9"",""123523""
","""event"",""trial"",""time""
""fullscreenenter"",""0"",""2115""
","
","602.5999999940395","","","","","","","","50","1,0,0","0","highway","8","probe-90","0.6929602419787279","0.3264859717714867","0.15113221377489022","0","","","","","","","",""
"","html-keyboard-response","107","546727","0.0-63.0-1.0","""event"",""trial"",""time""
""fullscreenenter"",""0"",""2115""
""blur"",""8"",""90531""
""focus"",""9"",""123523""
","""event"",""trial"",""time""
""blur"",""8"",""90531""
","""event"",""trial"",""time""
""focus"",""9"",""123523""
","""event"",""trial"",""time""
""fullscreenenter"",""0"",""2115""
","
","null","<p></p>","null","","","","","","","","","","","","","","","","","","","","","","",""
"","do_trial","108","551739","0.0-64.0-0.0","""event"",""trial"",""time""
""fullscreenenter"",""0"",""2115""
""blur"",""8"",""90531""
""focus"",""9"",""123523""
","""event"",""trial"",""time""
""blur"",""8"",""90531""
","""event"",""trial"",""time""
""focus"",""9"",""123523""
","""event"",""trial"",""time""
""fullscreenenter"",""0"",""2115""
","
","465.5","","","","","","","","51","1,1,0","0","highway","9","probe-180","0.5972609965972631","0.3262720581894032","0.06501190264237013","0","","","","","","","",""
"","html-keyboard-response","109","552746","0.0-64.0-1.0","""event"",""trial"",""time""
""fullscreenenter"",""0"",""2115""
""blur"",""8"",""90531""
""focus"",""9"",""123523""
","""event"",""trial"",""time""
""blur"",""8"",""90531""
","""event"",""trial"",""time""
""focus"",""9"",""123523""
","""event"",""trial"",""time""
""fullscreenenter"",""0"",""2115""
","
","null","<p></p>","null","","","","","","","","","","","","","","","","","","","","","","",""
"","do_trial","110","557735","0.0-65.0-0.0","""event"",""trial"",""time""
""fullscreenenter"",""0"",""2115""
""blur"",""8"",""90531""
""focus"",""9"",""123523""
","""event"",""trial"",""time""
""blur"",""8"",""90531""
","""event"",""trial"",""time""
""focus"",""9"",""123523""
","""event"",""trial"",""time""
""fullscreenenter"",""0"",""2115""
","
","443.20000000298023","","","","","","","","49","0,1,0","0","highway","10","probe-229","0.6252735300210969","0.37722109264578174","0.0613926839891443","0","","","","","","","",""
"","html-keyboard-response","111","558742","0.0-65.0-1.0","""event"",""trial"",""time""
""fullscreenenter"",""0"",""2115""
""blur"",""8"",""90531""
""focus"",""9"",""123523""
","""event"",""trial"",""time""
""blur"",""8"",""90531""
","""event"",""trial"",""time""
""focus"",""9"",""123523""
","""event"",""trial"",""time""
""fullscreenenter"",""0"",""2115""
","
","null","<p></p>","null","","","","","","","","","","","","","","","","","","","","","","",""
"","do_trial","112","563856","0.0-66.0-0.0","""event"",""trial"",""time""
""fullscreenenter"",""0"",""2115""
""blur"",""8"",""90531""
""focus"",""9"",""123523""
","""event"",""trial"",""time""
""blur"",""8"",""90531""
","""event"",""trial"",""time""
""focus"",""9"",""123523""
","""event"",""trial"",""time""
""fullscreenenter"",""0"",""2115""
","
","568.7999999970198","","","","","","","","50","0,1,0","0","highway","11","probe-01","0.576518322521683","0.3682997874173815","0.08320206527388009","1","","","","","","","",""
"","html-keyboard-response","113","564863","0.0-66.0-1.0","""event"",""trial"",""time""
""fullscreenenter"",""0"",""2115""
""blur"",""8"",""90531""
""focus"",""9"",""123523""
","""event"",""trial"",""time""
""blur"",""8"",""90531""
","""event"",""trial"",""time""
""focus"",""9"",""123523""
","""event"",""trial"",""time""
""fullscreenenter"",""0"",""2115""
","
","null","<p></p>","null","","","","","","","","","","","","","","","","","","","","","","",""
"","do_trial","114","570990","0.0-67.0-0.0","""event"",""trial"",""time""
""fullscreenenter"",""0"",""2115""
""blur"",""8"",""90531""
""focus"",""9"",""123523""
","""event"",""trial"",""time""
""blur"",""8"",""90531""
","""event"",""trial"",""time""
""focus"",""9"",""123523""
","""event"",""trial"",""time""
""fullscreenenter"",""0"",""2115""
","
","1580.7999999970198","","","","","","","","51","0,0,0","0","highway","12","probe-44","0.4291727894057816","0.38916415224649825","0.18851523209741303","0","","","","","","","",""
"","html-keyboard-response","115","571997","0.0-67.0-1.0","""event"",""trial"",""time""
""fullscreenenter"",""0"",""2115""
""blur"",""8"",""90531""
""focus"",""9"",""123523""
","""event"",""trial"",""time""
""blur"",""8"",""90531""
","""event"",""trial"",""time""
""focus"",""9"",""123523""
","""event"",""trial"",""time""
""fullscreenenter"",""0"",""2115""
","
","null","<p></p>","null","","","","","","","","","","","","","","","","","","","","","","",""
"","do_trial","116","576753","0.0-68.0-0.0","""event"",""trial"",""time""
""fullscreenenter"",""0"",""2115""
""blur"",""8"",""90531""
""focus"",""9"",""123523""
","""event"",""trial"",""time""
""blur"",""8"",""90531""
","""event"",""trial"",""time""
""focus"",""9"",""123523""
","""event"",""trial"",""time""
""fullscreenenter"",""0"",""2115""
","
","210.40000000596046","","","","","","","","50","0,1,0","0","highway","13","probe-212","0.40275309215664934","0.3088154548372524","0.2665861779621215","1","","","","","","","",""
"","html-keyboard-response","117","577760","0.0-68.0-1.0","""event"",""trial"",""time""
""fullscreenenter"",""0"",""2115""
""blur"",""8"",""90531""
""focus"",""9"",""123523""
","""event"",""trial"",""time""
""blur"",""8"",""90531""
","""event"",""trial"",""time""
""focus"",""9"",""123523""
","""event"",""trial"",""time""
""fullscreenenter"",""0"",""2115""
","
","null","<p></p>","null","","","","","","","","","","","","","","","","","","","","","","",""
"","do_trial","118","584095","0.0-69.0-0.0","""event"",""trial"",""time""
""fullscreenenter"",""0"",""2115""
""blur"",""8"",""90531""
""focus"",""9"",""123523""
","""event"",""trial"",""time""
""blur"",""8"",""90531""
","""event"",""trial"",""time""
""focus"",""9"",""123523""
","""event"",""trial"",""time""
""fullscreenenter"",""0"",""2115""
","
","1788.7999999970198","","","","","","","","50","0,0,0","0","highway","14","probe-198","0.6097925374357408","0.5059470101271499","0.2589189790383791","0","","","","","","","",""
"","html-keyboard-response","119","585101","0.0-69.0-1.0","""event"",""trial"",""time""
""fullscreenenter"",""0"",""2115""
""blur"",""8"",""90531""
""focus"",""9"",""123523""
","""event"",""trial"",""time""
""blur"",""8"",""90531""
","""event"",""trial"",""time""
""focus"",""9"",""123523""
","""event"",""trial"",""time""
""fullscreenenter"",""0"",""2115""
","
","null","<p></p>","null","","","","","","","","","","","","","","","","","","","","","","",""
"","do_trial","120","590984","0.0-70.0-0.0","""event"",""trial"",""time""
""fullscreenenter"",""0"",""2115""
""blur"",""8"",""90531""
""focus"",""9"",""123523""
","""event"",""trial"",""time""
""blur"",""8"",""90531""
","""event"",""trial"",""time""
""focus"",""9"",""123523""
","""event"",""trial"",""time""
""fullscreenenter"",""0"",""2115""
","
","1336.9000000059605","","","","","","","","49","1,0,0","0","highway","15","probe-214","0.6670412699437958","0.35046781221966217","0.08896826824961021","1","","","","","","","",""
"","html-keyboard-response","121","591991","0.0-70.0-1.0","""event"",""trial"",""time""
""fullscreenenter"",""0"",""2115""
""blur"",""8"",""90531""
""focus"",""9"",""123523""
","""event"",""trial"",""time""
""blur"",""8"",""90531""
","""event"",""trial"",""time""
""focus"",""9"",""123523""
","""event"",""trial"",""time""
""fullscreenenter"",""0"",""2115""
","
","null","<p></p>","null","","","","","","","","","","","","","","","","","","","","","","",""
"","do_trial","122","597632","0.0-71.0-0.0","""event"",""trial"",""time""
""fullscreenenter"",""0"",""2115""
""blur"",""8"",""90531""
""focus"",""9"",""123523""
","""event"",""trial"",""time""
""blur"",""8"",""90531""
","""event"",""trial"",""time""
""focus"",""9"",""123523""
","""event"",""trial"",""time""
""fullscreenenter"",""0"",""2115""
","
","1095.4000000059605","","","","","","","","50","0,0,0","0","highway","16","probe-62","0.6521345609469806","0.41379520174383067","0.06476672502611859","0","","","","","","","",""
"","html-keyboard-response","123","598636","0.0-71.0-1.0","""event"",""trial"",""time""
""fullscreenenter"",""0"",""2115""
""blur"",""8"",""90531""
""focus"",""9"",""123523""
","""event"",""trial"",""time""
""blur"",""8"",""90531""
","""event"",""trial"",""time""
""focus"",""9"",""123523""
","""event"",""trial"",""time""
""fullscreenenter"",""0"",""2115""
","
","null","<p></p>","null","","","","","","","","","","","","","","","","","","","","","","",""
"","do_trial","124","604488","0.0-72.0-0.0","""event"",""trial"",""time""
""fullscreenenter"",""0"",""2115""
""blur"",""8"",""90531""
""focus"",""9"",""123523""
","""event"",""trial"",""time""
""blur"",""8"",""90531""
","""event"",""trial"",""time""
""focus"",""9"",""123523""
","""event"",""trial"",""time""
""fullscreenenter"",""0"",""2115""
","
","1306.6000000089407","","","","","","","","50","1,1,0","0","highway","17","probe-227","0.7012815276288538","0.4163203979950384","0.08414194368724692","1","","","","","","","",""
"","html-keyboard-response","125","605494","0.0-72.0-1.0","""event"",""trial"",""time""
""fullscreenenter"",""0"",""2115""
""blur"",""8"",""90531""
""focus"",""9"",""123523""
","""event"",""trial"",""time""
""blur"",""8"",""90531""
","""event"",""trial"",""time""
""focus"",""9"",""123523""
","""event"",""trial"",""time""
""fullscreenenter"",""0"",""2115""
","
","null","<p></p>","null","","","","","","","","","","","","","","","","","","","","","","",""
"","do_trial","126","610929","0.0-73.0-0.0","""event"",""trial"",""time""
""fullscreenenter"",""0"",""2115""
""blur"",""8"",""90531""
""focus"",""9"",""123523""
","""event"",""trial"",""time""
""blur"",""8"",""90531""
","""event"",""trial"",""time""
""focus"",""9"",""123523""
","""event"",""trial"",""time""
""fullscreenenter"",""0"",""2115""
","
","889.6000000089407","","","","","","","","49","0,0,0","0","highway","18","probe-108","0.6771953517610066","0.4024348425646275","0.21370220357187236","0","","","","","","","",""
"","html-keyboard-response","127","611936","0.0-73.0-1.0","""event"",""trial"",""time""
""fullscreenenter"",""0"",""2115""
""blur"",""8"",""90531""
""focus"",""9"",""123523""
","""event"",""trial"",""time""
""blur"",""8"",""90531""
","""event"",""trial"",""time""
""focus"",""9"",""123523""
","""event"",""trial"",""time""
""fullscreenenter"",""0"",""2115""
","
","null","<p></p>","null","","","","","","","","","","","","","","","","","","","","","","",""
"","do_trial","128","617525","0.0-74.0-0.0","""event"",""trial"",""time""
""fullscreenenter"",""0"",""2115""
""blur"",""8"",""90531""
""focus"",""9"",""123523""
","""event"",""trial"",""time""
""blur"",""8"",""90531""
","""event"",""trial"",""time""
""focus"",""9"",""123523""
","""event"",""trial"",""time""
""fullscreenenter"",""0"",""2115""
","
","1044.7000000029802","","","","","","","","49","0,0,1","0","highway","19","probe-132","0.5568339152618658","0.305975016255883","0.24495749522718027","0","","","","","","","",""
"","html-keyboard-response","129","618532","0.0-74.0-1.0","""event"",""trial"",""time""
""fullscreenenter"",""0"",""2115""
""blur"",""8"",""90531""
""focus"",""9"",""123523""
","""event"",""trial"",""time""
""blur"",""8"",""90531""
","""event"",""trial"",""time""
""focus"",""9"",""123523""
","""event"",""trial"",""time""
""fullscreenenter"",""0"",""2115""
","
","null","<p></p>","null","","","","","","","","","","","","","","","","","","","","","","",""
"","do_trial","130","625093","0.0-75.0-0.0","""event"",""trial"",""time""
""fullscreenenter"",""0"",""2115""
""blur"",""8"",""90531""
""focus"",""9"",""123523""
","""event"",""trial"",""time""
""blur"",""8"",""90531""
","""event"",""trial"",""time""
""focus"",""9"",""123523""
","""event"",""trial"",""time""
""fullscreenenter"",""0"",""2115""
","
","2014.9000000059605","","","","","","","","50","1,0,1","0","highway","20","probe-10","0.5077390795115833","0.4629229911105294","0.15237134010970935","0","","","","","","","",""
"","html-keyboard-response","131","626095","0.0-75.0-1.0","""event"",""trial"",""time""
""fullscreenenter"",""0"",""2115""
""blur"",""8"",""90531""
""focus"",""9"",""123523""
","""event"",""trial"",""time""
""blur"",""8"",""90531""
","""event"",""trial"",""time""
""focus"",""9"",""123523""
","""event"",""trial"",""time""
""fullscreenenter"",""0"",""2115""
","
","null","<p></p>","null","","","","","","","","","","","","","","","","","","","","","","",""
"","do_trial","132","631068","0.0-76.0-0.0","""event"",""trial"",""time""
""fullscreenenter"",""0"",""2115""
""blur"",""8"",""90531""
""focus"",""9"",""123523""
","""event"",""trial"",""time""
""blur"",""8"",""90531""
","""event"",""trial"",""time""
""focus"",""9"",""123523""
","""event"",""trial"",""time""
""fullscreenenter"",""0"",""2115""
","
","428.29999999701977","","","","","","","","51","0,1,1","0","highway","21","probe-213","0.5341207877572026","0.5145768369307053","0.11431733751381477","1","","","","","","","",""
"","html-keyboard-response","133","632074","0.0-76.0-1.0","""event"",""trial"",""time""
""fullscreenenter"",""0"",""2115""
""blur"",""8"",""90531""
""focus"",""9"",""123523""
","""event"",""trial"",""time""
""blur"",""8"",""90531""
","""event"",""trial"",""time""
""focus"",""9"",""123523""
","""event"",""trial"",""time""
""fullscreenenter"",""0"",""2115""
","
","null","<p></p>","null","","","","","","","","","","","","","","","","","","","","","","",""
"","do_trial","134","636970","0.0-77.0-0.0","""event"",""trial"",""time""
""fullscreenenter"",""0"",""2115""
""blur"",""8"",""90531""
""focus"",""9"",""123523""
","""event"",""trial"",""time""
""blur"",""8"",""90531""
","""event"",""trial"",""time""
""focus"",""9"",""123523""
","""event"",""trial"",""time""
""fullscreenenter"",""0"",""2115""
","
","350.19999998807907","","","","","","","","49","0,0,0","0","highway","22","probe-16","0.6596577166926353","0.4168742448871332","0.06361875165653567","0","","","","","","","",""
"","html-keyboard-response","135","637977","0.0-77.0-1.0","""event"",""trial"",""time""
""fullscreenenter"",""0"",""2115""
""blur"",""8"",""90531""
""focus"",""9"",""123523""
","""event"",""trial"",""time""
""blur"",""8"",""90531""
","""event"",""trial"",""time""
""focus"",""9"",""123523""
","""event"",""trial"",""time""
""fullscreenenter"",""0"",""2115""
","
","null","<p></p>","null","","","","","","","","","","","","","","","","","","","","","","",""
"","do_trial","136","642924","0.0-78.0-0.0","""event"",""trial"",""time""
""fullscreenenter"",""0"",""2115""
""blur"",""8"",""90531""
""focus"",""9"",""123523""
","""event"",""trial"",""time""
""blur"",""8"",""90531""
","""event"",""trial"",""time""
""focus"",""9"",""123523""
","""event"",""trial"",""time""
""fullscreenenter"",""0"",""2115""
","
","401.20000000298023","","","","","","","","50","0,0,0","0","highway","23","probe-11","0.6891846319499838","0.44613013240378757","0.11677160864638221","0","","","","","","","",""
"","html-keyboard-response","137","643931","0.0-78.0-1.0","""event"",""trial"",""time""
""fullscreenenter"",""0"",""2115""
""blur"",""8"",""90531""
""focus"",""9"",""123523""
","""event"",""trial"",""time""
""blur"",""8"",""90531""
","""event"",""trial"",""time""
""focus"",""9"",""123523""
","""event"",""trial"",""time""
""fullscreenenter"",""0"",""2115""
","
","null","<p></p>","null","","","","","","","","","","","","","","","","","","","","","","",""
"","do_trial","138","648870","0.0-79.0-0.0","""event"",""trial"",""time""
""fullscreenenter"",""0"",""2115""
""blur"",""8"",""90531""
""focus"",""9"",""123523""
","""event"",""trial"",""time""
""blur"",""8"",""90531""
","""event"",""trial"",""time""
""focus"",""9"",""123523""
","""event"",""trial"",""time""
""fullscreenenter"",""0"",""2115""
","
","393.19999998807907","","","","","","","","51","1,0,0","0","highway","24","probe-17","0.7085026039583816","0.326362154222265","0.10777424406278512","0","","","","","","","",""
"","html-keyboard-response","139","649872","0.0-79.0-1.0","""event"",""trial"",""time""
""fullscreenenter"",""0"",""2115""
""blur"",""8"",""90531""
""focus"",""9"",""123523""
","""event"",""trial"",""time""
""blur"",""8"",""90531""
","""event"",""trial"",""time""
""focus"",""9"",""123523""
","""event"",""trial"",""time""
""fullscreenenter"",""0"",""2115""
","
","null","<p></p>","null","","","","","","","","","","","","","","","","","","","","","","",""
"","do_trial","140","654689","0.0-80.0-0.0","""event"",""trial"",""time""
""fullscreenenter"",""0"",""2115""
""blur"",""8"",""90531""
""focus"",""9"",""123523""
","""event"",""trial"",""time""
""blur"",""8"",""90531""
","""event"",""trial"",""time""
""focus"",""9"",""123523""
","""event"",""trial"",""time""
""fullscreenenter"",""0"",""2115""
","
","271.1000000089407","","","","","","","","49","1,1,0","0","highway","25","probe-160","0.8056652926730784","0.36566731785428863","0.055062935118660415","1","","","","","","","",""
"","html-keyboard-response","141","655694","0.0-80.0-1.0","""event"",""trial"",""time""
""fullscreenenter"",""0"",""2115""
""blur"",""8"",""90531""
""focus"",""9"",""123523""
","""event"",""trial"",""time""
""blur"",""8"",""90531""
","""event"",""trial"",""time""
""focus"",""9"",""123523""
","""event"",""trial"",""time""
""fullscreenenter"",""0"",""2115""
","
","null","<p></p>","null","","","","","","","","","","","","","","","","","","","","","","",""
"","do_trial","142","661745","0.0-81.0-0.0","""event"",""trial"",""time""
""fullscreenenter"",""0"",""2115""
""blur"",""8"",""90531""
""focus"",""9"",""123523""
","""event"",""trial"",""time""
""blur"",""8"",""90531""
","""event"",""trial"",""time""
""focus"",""9"",""123523""
","""event"",""trial"",""time""
""fullscreenenter"",""0"",""2115""
","
","null","","","","","","","","null","1,1,0","0","highway","26","probe-141","0.8337733787473401","0.5598807539822737","0.0926865396257865","","","","","","","","",""
"","html-keyboard-response","143","662752","0.0-81.0-1.0","""event"",""trial"",""time""
""fullscreenenter"",""0"",""2115""
""blur"",""8"",""90531""
""focus"",""9"",""123523""
","""event"",""trial"",""time""
""blur"",""8"",""90531""
","""event"",""trial"",""time""
""focus"",""9"",""123523""
","""event"",""trial"",""time""
""fullscreenenter"",""0"",""2115""
","
","null","<p></p>","null","","","","","","","","","","","","","","","","","","","","","","",""
"","do_trial","144","667927","0.0-82.0-0.0","""event"",""trial"",""time""
""fullscreenenter"",""0"",""2115""
""blur"",""8"",""90531""
""focus"",""9"",""123523""
","""event"",""trial"",""time""
""blur"",""8"",""90531""
","""event"",""trial"",""time""
""focus"",""9"",""123523""
","""event"",""trial"",""time""
""fullscreenenter"",""0"",""2115""
","
","629.5","","","","","","","","51","1,0,0","0","highway","27","probe-166","0.6454439902161243","0.39878406501155583","0.13122966176447542","0","","","","","","","",""
"","html-keyboard-response","145","668932","0.0-82.0-1.0","""event"",""trial"",""time""
""fullscreenenter"",""0"",""2115""
""blur"",""8"",""90531""
""focus"",""9"",""123523""
","""event"",""trial"",""time""
""blur"",""8"",""90531""
","""event"",""trial"",""time""
""focus"",""9"",""123523""
","""event"",""trial"",""time""
""fullscreenenter"",""0"",""2115""
","
","null","<p></p>","null","","","","","","","","","","","","","","","","","","","","","","",""
"","do_trial","146","674022","0.0-83.0-0.0","""event"",""trial"",""time""
""fullscreenenter"",""0"",""2115""
""blur"",""8"",""90531""
""focus"",""9"",""123523""
","""event"",""trial"",""time""
""blur"",""8"",""90531""
","""event"",""trial"",""time""
""focus"",""9"",""123523""
","""event"",""trial"",""time""
""fullscreenenter"",""0"",""2115""
","
","543.4000000059605","","","","","","","","50","0,1,0","0","highway","28","probe-12","0.6552150686572378","0.36421129738244434","0.09897376266241455","1","","","","","","","",""
"","html-keyboard-response","147","675029","0.0-83.0-1.0","""event"",""trial"",""time""
""fullscreenenter"",""0"",""2115""
""blur"",""8"",""90531""
""focus"",""9"",""123523""
","""event"",""trial"",""time""
""blur"",""8"",""90531""
","""event"",""trial"",""time""
""focus"",""9"",""123523""
","""event"",""trial"",""time""
""fullscreenenter"",""0"",""2115""
","
","null","<p></p>","null","","","","","","","","","","","","","","","","","","","","","","",""
"","do_trial","148","680169","0.0-84.0-0.0","""event"",""trial"",""time""
""fullscreenenter"",""0"",""2115""
""blur"",""8"",""90531""
""focus"",""9"",""123523""
","""event"",""trial"",""time""
""blur"",""8"",""90531""
","""event"",""trial"",""time""
""focus"",""9"",""123523""
","""event"",""trial"",""time""
""fullscreenenter"",""0"",""2115""
","
","594","","","","","","","","49","1,0,0","0","highway","29","probe-25","0.6606924445219257","0.38890590749126885","0.2016183165710846","1","","","","","","","",""
"","html-keyboard-response","149","681173","0.0-84.0-1.0","""event"",""trial"",""time""
""fullscreenenter"",""0"",""2115""
""blur"",""8"",""90531""
""focus"",""9"",""123523""
","""event"",""trial"",""time""
""blur"",""8"",""90531""
","""event"",""trial"",""time""
""focus"",""9"",""123523""
","""event"",""trial"",""time""
""fullscreenenter"",""0"",""2115""
","
","null","<p></p>","null","","","","","","","","","","","","","","","","","","","","","","",""
"","do_bye","150","682684","0.0-85.0-0.0","""event"",""trial"",""time""
""fullscreenenter"",""0"",""2115""
""blur"",""8"",""90531""
""focus"",""9"",""123523""
","""event"",""trial"",""time""
""blur"",""8"",""90531""
","""event"",""trial"",""time""
""focus"",""9"",""123523""
","""event"",""trial"",""time""
""fullscreenenter"",""0"",""2115""
","
","null","","","","","","","","null","","","","","","","","","","","","","","","","",""
"","break","151","682727","0.0-85.0-1.0","""event"",""trial"",""time""
""fullscreenenter"",""0"",""2115""
""blur"",""8"",""90531""
""focus"",""9"",""123523""
","""event"",""trial"",""time""
""blur"",""8"",""90531""
","""event"",""trial"",""time""
""focus"",""9"",""123523""
","""event"",""trial"",""time""
""fullscreenenter"",""0"",""2115""
","
","41.599999994039536","<div class='center'><p>Time to take a quick break! You have 2 minutes to rest, but you can move on sooner if you'd like.</p><p> Press the <b>space bar</b> to continue.</p></div>","32","","","","","","","","","","","","","","","","","","","","","","",""
"","do_travel","152","691736","0.0-86.0-0.0","""event"",""trial"",""time""
""fullscreenenter"",""0"",""2115""
""blur"",""8"",""90531""
""focus"",""9"",""123523""
","""event"",""trial"",""time""
""blur"",""8"",""90531""
","""event"",""trial"",""time""
""focus"",""9"",""123523""
","""event"",""trial"",""time""
""fullscreenenter"",""0"",""2115""
","
","null","","","","","","","","null","","","","","","","","","","","","","","","","",""
"","do_welcome","153","695743","0.0-86.0-1.0","""event"",""trial"",""time""
""fullscreenenter"",""0"",""2115""
""blur"",""8"",""90531""
""focus"",""9"",""123523""
","""event"",""trial"",""time""
""blur"",""8"",""90531""
","""event"",""trial"",""time""
""focus"",""9"",""123523""
","""event"",""trial"",""time""
""fullscreenenter"",""0"",""2115""
","
","null","","","","","","","","null","","","","","","","","","","","","","","","","",""
"","do_trial","154","701543","0.0-87.0-0.0","""event"",""trial"",""time""
""fullscreenenter"",""0"",""2115""
""blur"",""8"",""90531""
""focus"",""9"",""123523""
","""event"",""trial"",""time""
""blur"",""8"",""90531""
","""event"",""trial"",""time""
""focus"",""9"",""123523""
","""event"",""trial"",""time""
""fullscreenenter"",""0"",""2115""
","
","1259.4000000059605","","","","","","","","49","1,0,0","1","coast","30","probe-114","1","0.3229209916504262","0.19931734689865824","1","","","","","","","",""
"","html-keyboard-response","155","702548","0.0-87.0-1.0","""event"",""trial"",""time""
""fullscreenenter"",""0"",""2115""
""blur"",""8"",""90531""
""focus"",""9"",""123523""
","""event"",""trial"",""time""
""blur"",""8"",""90531""
","""event"",""trial"",""time""
""focus"",""9"",""123523""
","""event"",""trial"",""time""
""fullscreenenter"",""0"",""2115""
","
","null","<p></p>","null","","","","","","","","","","","","","","","","","","","","","","",""
"","do_trial","156","707816","0.0-88.0-0.0","""event"",""trial"",""time""
""fullscreenenter"",""0"",""2115""
""blur"",""8"",""90531""
""focus"",""9"",""123523""
","""event"",""trial"",""time""
""blur"",""8"",""90531""
","""event"",""trial"",""time""
""focus"",""9"",""123523""
","""event"",""trial"",""time""
""fullscreenenter"",""0"",""2115""
","
","722.6000000089407","","","","","","","","51","1,1,0","1","coast","31","probe-104","1","0.38270631398691135","0.23012229974037496","0","","","","","","","",""
"","html-keyboard-response","157","708819","0.0-88.0-1.0","""event"",""trial"",""time""
""fullscreenenter"",""0"",""2115""
""blur"",""8"",""90531""
""focus"",""9"",""123523""
","""event"",""trial"",""time""
""blur"",""8"",""90531""
","""event"",""trial"",""time""
""focus"",""9"",""123523""
","""event"",""trial"",""time""
""fullscreenenter"",""0"",""2115""
","
","null","<p></p>","null","","","","","","","","","","","","","","","","","","","","","","",""
"","do_trial","158","713755","0.0-89.0-0.0","""event"",""trial"",""time""
""fullscreenenter"",""0"",""2115""
""blur"",""8"",""90531""
""focus"",""9"",""123523""
","""event"",""trial"",""time""
""blur"",""8"",""90531""
","""event"",""trial"",""time""
""focus"",""9"",""123523""
","""event"",""trial"",""time""
""fullscreenenter"",""0"",""2115""
","
","389.40000000596046","","","","","","","","50","1,1,0","1","coast","32","probe-95","1","0.42582808575168424","0.15065292787447385","1","","","","","","","",""
"","html-keyboard-response","159","714760","0.0-89.0-1.0","""event"",""trial"",""time""
""fullscreenenter"",""0"",""2115""
""blur"",""8"",""90531""
""focus"",""9"",""123523""
","""event"",""trial"",""time""
""blur"",""8"",""90531""
","""event"",""trial"",""time""
""focus"",""9"",""123523""
","""event"",""trial"",""time""
""fullscreenenter"",""0"",""2115""
","
","null","<p></p>","null","","","","","","","","","","","","","","","","","","","","","","",""
"","do_trial","160","720423","0.0-90.0-0.0","""event"",""trial"",""time""
""fullscreenenter"",""0"",""2115""
""blur"",""8"",""90531""
""focus"",""9"",""123523""
","""event"",""trial"",""time""
""blur"",""8"",""90531""
","""event"",""trial"",""time""
""focus"",""9"",""123523""
","""event"",""trial"",""time""
""fullscreenenter"",""0"",""2115""
","
","1117.2000000029802","","","","","","","","51","1,0,0","1","coast","33","probe-08","0.7472491967006228","0.39845824059799695","0.11748216499024769","0","","","","","","","",""
"","html-keyboard-response","161","721430","0.0-90.0-1.0","""event"",""trial"",""time""
""fullscreenenter"",""0"",""2115""
""blur"",""8"",""90531""
""focus"",""9"",""123523""
","""event"",""trial"",""time""
""blur"",""8"",""90531""
","""event"",""trial"",""time""
""focus"",""9"",""123523""
","""event"",""trial"",""time""
""fullscreenenter"",""0"",""2115""
","
","null","<p></p>","null","","","","","","","","","","","","","","","","","","","","","","",""
"","do_trial","162","728286","0.0-91.0-0.0","""event"",""trial"",""time""
""fullscreenenter"",""0"",""2115""
""blur"",""8"",""90531""
""focus"",""9"",""123523""
","""event"",""trial"",""time""
""blur"",""8"",""90531""
","""event"",""trial"",""time""
""focus"",""9"",""123523""
","""event"",""trial"",""time""
""fullscreenenter"",""0"",""2115""
","
","2310.7000000029802","","","","","","","","50","1,1,0","1","coast","34","probe-57","0.6960395960931607","0.42495654831405094","0.05179582698252195","1","","","","","","","",""
"","html-keyboard-response","163","729291","0.0-91.0-1.0","""event"",""trial"",""time""
""fullscreenenter"",""0"",""2115""
""blur"",""8"",""90531""
""focus"",""9"",""123523""
","""event"",""trial"",""time""
""blur"",""8"",""90531""
","""event"",""trial"",""time""
""focus"",""9"",""123523""
","""event"",""trial"",""time""
""fullscreenenter"",""0"",""2115""
","
","null","<p></p>","null","","","","","","","","","","","","","","","","","","","","","","",""
"","do_trial","164","735322","0.0-92.0-0.0","""event"",""trial"",""time""
""fullscreenenter"",""0"",""2115""
""blur"",""8"",""90531""
""focus"",""9"",""123523""
","""event"",""trial"",""time""
""blur"",""8"",""90531""
","""event"",""trial"",""time""
""focus"",""9"",""123523""
","""event"",""trial"",""time""
""fullscreenenter"",""0"",""2115""
","
","1485.6000000089407","","","","","","","","50","1,0,0","1","coast","35","probe-50","0.5639056297361305","0.3927049248900897","0.09484558508884401","0","","","","","","","",""
"","html-keyboard-response","165","736329","0.0-92.0-1.0","""event"",""trial"",""time""
""fullscreenenter"",""0"",""2115""
""blur"",""8"",""90531""
""focus"",""9"",""123523""
","""event"",""trial"",""time""
""blur"",""8"",""90531""
","""event"",""trial"",""time""
""focus"",""9"",""123523""
","""event"",""trial"",""time""
""fullscreenenter"",""0"",""2115""
","
","null","<p></p>","null","","","","","","","","","","","","","","","","","","","","","","",""
"","do_trial","166","743203","0.0-93.0-0.0","""event"",""trial"",""time""
""fullscreenenter"",""0"",""2115""
""blur"",""8"",""90531""
""focus"",""9"",""123523""
","""event"",""trial"",""time""
""blur"",""8"",""90531""
","""event"",""trial"",""time""
""focus"",""9"",""123523""
","""event"",""trial"",""time""
""fullscreenenter"",""0"",""2115""
","
","2327.4000000059605","","","","","","","","50","0,0,0","1","coast","36","probe-177","0.4804874446986688","0.424764402479031","0.18468348910236912","0","","","","","","","",""
"","html-keyboard-response","167","744208","0.0-93.0-1.0","""event"",""trial"",""time""
""fullscreenenter"",""0"",""2115""
""blur"",""8"",""90531""
""focus"",""9"",""123523""
","""event"",""trial"",""time""
""blur"",""8"",""90531""
","""event"",""trial"",""time""
""focus"",""9"",""123523""
","""event"",""trial"",""time""
""fullscreenenter"",""0"",""2115""
","
","null","<p></p>","null","","","","","","","","","","","","","","","","","","","","","","",""
"","do_trial","168","749237","0.0-94.0-0.0","""event"",""trial"",""time""
""fullscreenenter"",""0"",""2115""
""blur"",""8"",""90531""
""focus"",""9"",""123523""
","""event"",""trial"",""time""
""blur"",""8"",""90531""
","""event"",""trial"",""time""
""focus"",""9"",""123523""
","""event"",""trial"",""time""
""fullscreenenter"",""0"",""2115""
","
","482.09999999403954","","","","","","","","50","0,0,0","1","coast","37","probe-94","0.559644547582116","0.42275615636483055","0.15112258738139153","0","","","","","","","",""
"","html-keyboard-response","169","750240","0.0-94.0-1.0","""event"",""trial"",""time""
""fullscreenenter"",""0"",""2115""
""blur"",""8"",""90531""
""focus"",""9"",""123523""
","""event"",""trial"",""time""
""blur"",""8"",""90531""
","""event"",""trial"",""time""
""focus"",""9"",""123523""
","""event"",""trial"",""time""
""fullscreenenter"",""0"",""2115""
","
","null","<p></p>","null","","","","","","","","","","","","","","","","","","","","","","",""
"","do_trial","170","755118","0.0-95.0-0.0","""event"",""trial"",""time""
""fullscreenenter"",""0"",""2115""
""blur"",""8"",""90531""
""focus"",""9"",""123523""
","""event"",""trial"",""time""
""blur"",""8"",""90531""
","""event"",""trial"",""time""
""focus"",""9"",""123523""
","""event"",""trial"",""time""
""fullscreenenter"",""0"",""2115""
","
","329.90000000596046","","","","","","","","49","1,1,0","1","coast","38","probe-72","0.7479564054933084","0.3607676241689806","0.164481811935638","1","","","","","","","",""
"","html-keyboard-response","171","756125","0.0-95.0-1.0","""event"",""trial"",""time""
""fullscreenenter"",""0"",""2115""
""blur"",""8"",""90531""
""focus"",""9"",""123523""
","""event"",""trial"",""time""
""blur"",""8"",""90531""
","""event"",""trial"",""time""
""focus"",""9"",""123523""
","""event"",""trial"",""time""
""fullscreenenter"",""0"",""2115""
","
","null","<p></p>","null","","","","","","","","","","","","","","","","","","","","","","",""
"","do_trial","172","761034","0.0-96.0-0.0","""event"",""trial"",""time""
""fullscreenenter"",""0"",""2115""
""blur"",""8"",""90531""
""focus"",""9"",""123523""
","""event"",""trial"",""time""
""blur"",""8"",""90531""
","""event"",""trial"",""time""
""focus"",""9"",""123523""
","""event"",""trial"",""time""
""fullscreenenter"",""0"",""2115""
","
","365.59999999403954","","","","","","","","51","1,1,0","1","coast","39","probe-173","0.6580115358332677","0.37224416478419853","0.11943801360931897","0","","","","","","","",""
"","html-keyboard-response","173","762040","0.0-96.0-1.0","""event"",""trial"",""time""
""fullscreenenter"",""0"",""2115""
""blur"",""8"",""90531""
""focus"",""9"",""123523""
","""event"",""trial"",""time""
""blur"",""8"",""90531""
","""event"",""trial"",""time""
""focus"",""9"",""123523""
","""event"",""trial"",""time""
""fullscreenenter"",""0"",""2115""
","
","null","<p></p>","null","","","","","","","","","","","","","","","","","","","","","","",""
"","do_trial","174","767721","0.0-97.0-0.0","""event"",""trial"",""time""
""fullscreenenter"",""0"",""2115""
""blur"",""8"",""90531""
""focus"",""9"",""123523""
","""event"",""trial"",""time""
""blur"",""8"",""90531""
","""event"",""trial"",""time""
""focus"",""9"",""123523""
","""event"",""trial"",""time""
""fullscreenenter"",""0"",""2115""
","
","1133.7000000029802","","","","","","","","50","1,1,0","1","coast","40","probe-101","0.5513219866970852","0.4387501476869708","0.15984108810152517","1","","","","","","","",""
"","html-keyboard-response","175","768723","0.0-97.0-1.0","""event"",""trial"",""time""
""fullscreenenter"",""0"",""2115""
""blur"",""8"",""90531""
""focus"",""9"",""123523""
","""event"",""trial"",""time""
""blur"",""8"",""90531""
","""event"",""trial"",""time""
""focus"",""9"",""123523""
","""event"",""trial"",""time""
""fullscreenenter"",""0"",""2115""
","
","null","<p></p>","null","","","","","","","","","","","","","","","","","","","","","","",""
"","do_trial","176","773653","0.0-98.0-0.0","""event"",""trial"",""time""
""fullscreenenter"",""0"",""2115""
""blur"",""8"",""90531""
""focus"",""9"",""123523""
","""event"",""trial"",""time""
""blur"",""8"",""90531""
","""event"",""trial"",""time""
""focus"",""9"",""123523""
","""event"",""trial"",""time""
""fullscreenenter"",""0"",""2115""
","
","383.6000000089407","","","","","","","","49","1,1,1","1","coast","41","probe-136","0.5342027161900262","0.4814359441982321","0.24487542389505243","1","","","","","","","",""
"","html-keyboard-response","177","774657","0.0-98.0-1.0","""event"",""trial"",""time""
""fullscreenenter"",""0"",""2115""
""blur"",""8"",""90531""
""focus"",""9"",""123523""
","""event"",""trial"",""time""
""blur"",""8"",""90531""
","""event"",""trial"",""time""
""focus"",""9"",""123523""
","""event"",""trial"",""time""
""fullscreenenter"",""0"",""2115""
","
","null","<p></p>","null","","","","","","","","","","","","","","","","","","","","","","",""
"","do_trial","178","780067","0.0-99.0-0.0","""event"",""trial"",""time""
""fullscreenenter"",""0"",""2115""
""blur"",""8"",""90531""
""focus"",""9"",""123523""
","""event"",""trial"",""time""
""blur"",""8"",""90531""
","""event"",""trial"",""time""
""focus"",""9"",""123523""
","""event"",""trial"",""time""
""fullscreenenter"",""0"",""2115""
","
