"success","trial_type","trial_index","time_elapsed","internal_node_id","rt","stimulus","key_press","subject_id","participant_id","age","gender","prompt","response","choice_outcomes","context_n","context_img_id","trial_n","probe_img_id","pR_red","pR_white","pR_black","outcome","contextArray_ind","validImageProbes","invalidImageProbes","pRew_Red","pRew_White","pRew_Black","availableForMemProbe","choice_blocks"
"true","fullscreen","0","5180","0.0-0.0","","","","","","","","","","","","","","","","","","","","","","","","","",""
"","pavlovia","1","5186","0.0-1.0","","","","","","","","","","","","","","","","","","","","","","","","","",""
"","instruc1","2","56275","0.0-2.0","null","run_exp/static/audio/clip_1_welcome.m4a","null","109","147","9","Female","<div class='center'><p>Welcome! This is the first part of the experiment. It will last ~30 minutes. In this experiment, you are the head captain of a pirate ship traveling around the world to different islands. You will play a few different games during this experiment. Here is an overview of these games:</p><br><p>Part 1 (today)</p><p>1. Instructions, practice game, and quiz</p><p>2. Pick a pirate game on 6 different islands</p><br><p>Part 2 (1 day later)</p><p>3. Pick a pirate game and memory game</p><p>4. Where did I see this ship? game</p><p>5. Which pirate was the best? game</p><br><p>Part 3 (1 week later)</p><p>6. Memory game</p></div>","","","","","","","","","","","","","","","","","",""
"","html-keyboard-response","3","57298","0.0-3.0","1020.6999999955297","<div class='center'><p>Welcome! This is the first part of the experiment. It will last ~30 minutes. In this experiment, you are the head captain of a pirate ship traveling around the world to different islands. You will play a few different games during this experiment. Here is an overview of these games:</p><br><p>Part 1 (today)</p><p>1. Instructions, practice game, and quiz</p><p>2. Pick a pirate game on 6 different islands</p><br><p>Part 2 (1 day later)</p><p>3. Pick a pirate game and memory game</p><p>4. Where did I see this ship? game</p><p>5. Which pirate was the best? game</p><br><p>Part 3 (1 week later)</p><p>6. Memory game</p><p><b>[Press the space bar to continue]</b></p></div>","32","","","","","","","","","","","","","","","","","","","","","","",""
"","instruc2","4","65307","0.0-4.0","null","run_exp/static/audio/clip_2_different_places.m4a","null","","","","","<div class='center'><p>Today, you’ll visit these 6 islands on your journey. You'll be able to see these islands from your ship.</p><p><img src='run_exp/static/images/contexts/all_contexts.png' height='500'></p></div>","","","","","","","","","","","","","","","","","",""
"","html-keyboard-response","5","67646","0.0-5.0","2336.6999999955297","<div class='center'><p>Today, you’ll visit these 6 islands on your journey. You'll be able to see these islands from your ship.</p><p><img src='run_exp/static/images/contexts/all_contexts.png' height='500'></p><p><b>[Press the space bar to continue]</b></p></div>","32","","","","","","","","","","","","","","","","","","","","","","",""
"","instruc3","6","80237","0.0-6.0","null","run_exp/static/audio/clip_3_goal_of_game_1.m4a","null","","","","","<div class='center'><p> The pirates on your ship will rob other ships as they leave the island</p> These ships have just sold their things to people on the island, so they will be filled with lots and lots of gold.</p><p><img src='run_exp/static/images/tutorial/ship_center.png' height='400'></p></div>","","","","","","","","","","","","","","","","","",""
"","html-keyboard-response","7","81846","0.0-7.0","1606.5","<div class='center'><p> The pirates on your ship will rob other ships as they leave the island</p> These ships have just sold their things to people on the island, so they will be filled with lots and lots of gold.</p><p><img src='run_exp/static/images/tutorial/ship_center.png' height='400'></p><p><b>[Press the space bar to continue]</b></p></div>","32","","","","","","","","","","","","","","","","","","","","","","",""
"","instruc4","8","115092","0.0-8.0","null","run_exp/static/audio/clip_4_goal_of_game_2.m4a","null","","","","","<div class='center'><p>As the head captain, you do not have to rob any ships yourself.</p><p>Another pirate will be doing the robbing for you. </p><p>First, you will  choose a pirate to rob the next ship.</p><p><img src='run_exp/static/images/tutorial/pirates_all_crop.png' height='200'></p><p>Then, you'll see if the pirate successfully robbed the ship of their gold. If they were successful, then you'll  get a stack of gold coins like this:</p><p><img src='run_exp/static/images/tutorial/reward.png' height='150'></p><p> If they were <b>not</b> successful, then you'll get no gold coins, and you'll see a big red x like this: </p><p><img src='run_exp/static/images/tutorial/reward_no.png' height='150'></p><p> How much bonus money you make is based on how many gold coins you collect.</p><div>","","","","","","","","","","","","","","","","","",""
"","html-keyboard-response","9","118143","0.0-9.0","3049.39999999851","<div class='center'><p>As the head captain, you do not have to rob any ships yourself.</p><p>Another pirate will be doing the robbing for you. </p><p>First, you will  choose a pirate to rob the next ship.</p><p><img src='run_exp/static/images/tutorial/pirates_all_crop.png' height='200'></p><p>Then, you'll see if the pirate successfully robbed the ship of their gold. If they were successful, then you'll  get a stack of gold coins like this:</p><p><img src='run_exp/static/images/tutorial/reward.png' height='150'></p><p> If they were <b>not</b> successful, then you'll get no gold coins, and you'll see a big red x like this: </p><p><img src='run_exp/static/images/tutorial/reward_no.png' height='150'></p><p> How much bonus money you make is based on how many gold coins you collect.</p<p><b>[Press the space bar to continue]</b></p></div>","32","","","","","","","","","","","","","","","","","","","","","","",""
"","instruc5","10","299407","0.0-10.0","181259.6000000015","run_exp/static/audio/clip_5_probabilistic.m4a","49","","","","","<div class='center'><p>Even the most skilled pirate can not rob EVERY ship.</p><p> Some ships will have very strong protections against pirate attacks.</p><p> Blue beard, here, is very, very good at robbing ships, but he won't be successful every time he tries to rob one.</p><p> You can press the <b>‘1’</b> key on the keyboard to choose him.</p><p> Try choosing him 10 times to see how often he succeeds at robbing a ship. </p><p><img src='run_exp/static/images/tutorial/blue.png' height='500'></p></div>","","","","","","","","","","","","","","","","","",""
"","html-keyboard-response","11","300909","0.0-11.0","null","<div class='center'><p><img src='run_exp/static/images/tutorial/blue_win.png' height='500'></p></div>","null","","","","","","","","","","","","","","","","","","","","","","",""
"","html-keyboard-response","12","304069","0.0-12.0","3158.2999999970198","<div class='center'><img src='run_exp/static/images/tutorial/blue.png' height='500'></p></div>","49","","","","","","","","","","","","","","","","","","","","","","",""
"","html-keyboard-response","13","305575","0.0-13.0","null","<div class='center'><p><img src='run_exp/static/images/tutorial/blue_win.png' height='500'></p></div>","null","","","","","","","","","","","","","","","","","","","","","","",""
"","html-keyboard-response","14","307978","0.0-14.0","2401.3000000044703","<div class='center'><img src='run_exp/static/images/tutorial/blue.png' height='500'></p></div>","49","","","","","","","","","","","","","","","","","","","","","","",""
"","html-keyboard-response","15","309484","0.0-15.0","null","<div class='center'><p><img src='run_exp/static/images/tutorial/blue_win.png' height='500'></p></div>","null","","","","","","","","","","","","","","","","","","","","","","",""
"","html-keyboard-response","16","310305","0.0-16.0","819.7000000029802","<div class='center'><img src='run_exp/static/images/tutorial/blue.png' height='500'></p></div>","49","","","","","","","","","","","","","","","","","","","","","","",""
"","html-keyboard-response","17","311807","0.0-17.0","null","<div class='center'><p><img src='run_exp/static/images/tutorial/blue_no_win.png' height='500'></p></div>","null","","","","","","","","","","","","","","","","","","","","","","",""
"","html-keyboard-response","18","317849","0.0-18.0","6040.89999999851","<div class='center'><img src='run_exp/static/images/tutorial/blue.png' height='500'></p></div>","49","","","","","","","","","","","","","","","","","","","","","","",""
"","html-keyboard-response","19","319356","0.0-19.0","null","<div class='center'><p><img src='run_exp/static/images/tutorial/blue_win.png' height='500'></p></div>","null","","","","","","","","","","","","","","","","","","","","","","",""
"","html-keyboard-response","20","320160","0.0-20.0","802.5","<div class='center'><img src='run_exp/static/images/tutorial/blue.png' height='500'></p></div>","49","","","","","","","","","","","","","","","","","","","","","","",""
"","html-keyboard-response","21","321666","0.0-21.0","null","<div class='center'><p><img src='run_exp/static/images/tutorial/blue_win.png' height='500'></p></div>","null","","","","","","","","","","","","","","","","","","","","","","",""
"","html-keyboard-response","22","322612","0.0-22.0","943.9000000059605","<div class='center'><img src='run_exp/static/images/tutorial/blue.png' height='500'></p></div>","49","","","","","","","","","","","","","","","","","","","","","","",""
"","html-keyboard-response","23","324118","0.0-23.0","null","<div class='center'><p><img src='run_exp/static/images/tutorial/blue_win.png' height='500'></p></div>","null","","","","","","","","","","","","","","","","","","","","","","",""
"","html-keyboard-response","24","329062","0.0-24.0","4942.19999999553","<div class='center'><img src='run_exp/static/images/tutorial/blue.png' height='500'></p></div>","49","","","","","","","","","","","","","","","","","","","","","","",""
"","html-keyboard-response","25","330568","0.0-25.0","null","<div class='center'><p><img src='run_exp/static/images/tutorial/blue_no_win.png' height='500'></p></div>","null","","","","","","","","","","","","","","","","","","","","","","",""
"","html-keyboard-response","26","332495","0.0-26.0","1925.7999999970198","<div class='center'><img src='run_exp/static/images/tutorial/blue.png' height='500'></p></div>","49","","","","","","","","","","","","","","","","","","","","","","",""
"","html-keyboard-response","27","334002","0.0-27.0","null","<div class='center'><p><img src='run_exp/static/images/tutorial/blue_win.png' height='500'></p></div>","null","","","","","","","","","","","","","","","","","","","","","","",""
"","html-keyboard-response","28","336839","0.0-28.0","2835.1999999955297","<div class='center'><img src='run_exp/static/images/tutorial/blue.png' height='500'></p></div>","49","","","","","","","","","","","","","","","","","","","","","","",""
"","html-keyboard-response","29","338344","0.0-29.0","null","<div class='center'><p><img src='run_exp/static/images/tutorial/blue_win.png' height='500'></p></div>","null","","","","","","","","","","","","","","","","","","","","","","",""
"","instruc6","30","345004","0.0-30.0","null","run_exp/static/audio/clip_6_blue_beard_outcome.m4a","null","","","","","<div class='center'><p> See, he succeeded in robbing the ships most of the time but not every time. </p></div>","","","","","","","","","","","","","","","","","",""
"","html-keyboard-response","31","346496","0.0-31.0","1490.5","<div class='center'><p> See, he succeeded in robbing the ships most of the time but not every time. </p><p><b>[Press the space bar to continue]</b></p></div>","32","","","","","","","","","","","","","","","","","","","","","","",""
"","audio-keyboard-response","32","357571","0.0-32.0","11073.19999999553","run_exp/static/audio/clip_7_pick_pirate.m4a","51","","","","","","","","","","","","","","","","","","","","","","",""
"","audio-keyboard-response","33","359452","0.0-33.0-0.0","1875.1000000014901","run_exp/static/audio/clip_8_chosen_pirate_win.m4a","32","","","","","","","","","","","","","","","","","","","","","","",""
"","audio-keyboard-response","34","364836","0.0-33.0-1.0","5381.9000000059605","run_exp/static/audio/clip_9_pick_a_pirate_again.m4a","49","","","","","","","","","","","","","","","","","","","","","","",""
"","audio-keyboard-response","35","366696","0.0-34.0-0.0","1856.7000000029802","run_exp/static/audio/clip_10_chosen_pirate_loss.m4a","32","","","","","","","","","","","","","","","","","","","","","","",""
"","instruc9","36","373843","0.0-35.0-0.0","null","run_exp/static/audio/clip_11_time_out.m4a","null","","","","","<div class='center'><p>If you don’t make your choice fast enough, you’ll have to wait a few seconds before you can make another one. </p><p><img src='run_exp/static/images/miscellaneous/hurry_up.png' height='500'></p></div>","","","","","","","","","","","","","","","","","",""
"","html-keyboard-response","37","374484","0.0-35.0-1.0","639","<div class='center'><p>If you don’t make your choice fast enough, you’ll have to wait a few seconds before you can make another one. </p><p><img src='run_exp/static/images/miscellaneous/hurry_up.png' height='500'></p><p><b>[Press the space bar to continue]</b></p></div>","32","","","","","","","","","","","","","","","","","","","","","","",""
"","instruc10","38","423117","0.0-35.0-2.0","null","run_exp/static/audio/clip_12_probe.m4a","null","","","","","<div class='center'><p>Once you've choose a pirate, you’ll be shown the ship they are robbing.</p><p>You will never rob the same ship twice. After all, ships that have already been robbed won’t have gold on them. </p><p>Ships can be told apart from one another by the image on them. See, this one has a travel mug on it. </p><p> You’ll have to remember which island you saw each ship on.You will win more bonus money if you remember correctly! To help you remember, you can imagine a story. For example, here, you could imagine a mug full of water in the desert. Or, as another example, if on the forest island, your pirate robbed a ship with an apple on it, you could imagine an apple falling from a tree in the forest. </p><p><img src='run_exp/static/images/tutorial/example_probe.png' height='500'></p></div>","","","","","","","","","","","","","","","","","",""
"","html-keyboard-response","39","435023","0.0-35.0-3.0","11902.69999999553","<div class='center'><p>Once you've choose a pirate, you’ll be shown the ship they are robbing.</p><p>You will never rob the same ship twice. After all, ships that have already been robbed won’t have gold on them. </p><p>Ships can be told apart from one another by the image on them. See, this one has a travel mug on it. </p><p> You’ll have to remember which island you saw each ship on.You will win more bonus money if you remember correctly! To help you remember, you can imagine a story. For example, here, you could imagine a mug full of water in the desert. Or, as another example, if on the forest island, your pirate robbed a ship with an apple on it, you could imagine an apple falling from a tree in the forest. </p><p><img src='run_exp/static/images/tutorial/example_probe.png' height='500'></p><p><b>[Press the space bar to continue]</b></p></div>","32","","","","","","","","","","","","","","","","","","","","","","",""
"","instruc11","40","455916","0.0-35.0-4.0","null","run_exp/static/audio/clip_13_changepoint.m4a","null","","","","","<div class='center'><p>How successful a pirate is at robbing ships will depend on the island you’re on.</p><p> A pirate may have visited this island many times before and gained a lot of practice robbing ships there.</p><p>So, they’re more likely to be successful than a pirate who has never visited the island before.</p></div>","","","","","","","","","","","","","","","","","",""
"","html-keyboard-response","41","458383","0.0-35.0-5.0","2464.2999999970198","<div class='center'><p>How successful a pirate is at robbing ships will depend on the island you’re on.</p><p> A pirate may have visited this island many times before and gained a lot of practice robbing ships there.</p><p>So, they’re more likely to be successful than a pirate who has never visited the island before.</p><p><b>[Press the space bar to continue]</b></p></div>","32","","","","","","","","","","","","","","","","","","","","","","",""
"","instruc12","42","486405","0.0-35.0-6.0","null","run_exp/static/audio/clip_14_drift.m4a","null","","","","","<div class='center'><p>How successful a pirate is at robbing ships can also change over the time spent on the island. </p><p> Ships may hear from islanders about the pirates coming and will improve their protections against the attack. This may make it harder to rob them.</p><p> Ships may also become lazy and weaken the strength of their protections. This may make it easier to rob them.</p><br><p>Things are always changing on the high seas! So, try your best to pay attention!</p><p><img src='run_exp/static/images/tutorial/contingency.png' height='500'></p></div>","","","","","","","","","","","","","","","","","",""
"","html-keyboard-response","43","489406","0.0-35.0-7.0","2998.10000000149","<div class='center'><p>How successful a pirate is at robbing ships can also change over the time spent on the island. </p><p> Ships may hear from islanders about the pirates coming and will improve their protections against the attack. This may make it harder to rob them.</p><p> Ships may also become lazy and weaken the strength of their protections. This may make it easier to rob them.</p><br><p>Things are always changing on the high seas! So, try your best to pay attention!</p><p><img src='run_exp/static/images/tutorial/contingency.png' height='500'></p><p><b>[Press the space bar to continue]</b></p></div>","32","","","","","","","","","","","","","","","","","","","","","","",""
"","instruc13","44","534635","0.0-35.0-8.0","null","run_exp/static/audio/clip_15_summary.m4a","null","","","","","<div class='center'><p>Let's go over the instructions quickly again. You have two important things to do: </p><b><p> 1. Pick the pirate who is the best at robbing ships on the current island. This way you'll collect more gold coins!</p></b><b><p> 2. Remember on which island a ship was robbed.</p> </b><p>The amount of bonus money you can win depends on both.</p><p><br><p>Let’s try a practice game. The game will start by showing you the pirates. First, pick a pirate using the <b> 1, 2, 3 </b> keys on your keyboard. When you are shown a ship, try to remember which island you’re on by making up a story.</p><p>This is just a practice game, so you’re not playing for money. </p><p> Good luck! This game will be very difficult but try your best!</p></div>","","","","","","","","","","","","","","","","","",""
"","html-keyboard-response","45","536158","0.0-35.0-9.0","1519.0999999940395","<div class='center'><p>Let's go over the instructions quickly again. You have two important things to do: </p><b><p> 1. Pick the pirate who is the best at robbing ships on the current island. This way you'll collect more gold coins!</p></b><b><p> 2. Remember on which island a ship was robbed.</p> </b><p>The amount of bonus money you can win depends on both.</p><p><br><p>Let’s try a practice game. The game will start by showing you the pirates. First, pick a pirate using the <b> 1, 2, 3 </b> keys on your keyboard. When you are shown a ship, try to remember which island you’re on by making up a story.</p><p>This is just a practice game, so you’re not playing for money. </p><p> Good luck! This game will be very difficult but try your best!</p><p><b>[Press the space bar to continue]</b></p></div>","32","","","","","","","","","","","","","","","","","","","","","","",""
"","do_welcome","46","540171","0.0-35.0-10.0","null","","","","","","","","null","","","","","","","","","","","","","","","","",""
"","do_trial","47","546189","0.0-35.0-11.0","null","","","","","","","","null","1,0,0","","","","","","","","","","","","","","","",""
"","html-keyboard-response","48","547195","0.0-36.0-0.0","null","<p></p>","null","","","","","","","","","","","","","","","","","","","","","","",""
"","do_trial","49","554297","0.0-36.0-1.0","2589.5999999940395","","","","","","","","49","1,0,0","","","","","","","","","","","","","","","",""
"","html-keyboard-response","50","555301","0.0-37.0-0.0","null","<p></p>","null","","","","","","","","","","","","","","","","","","","","","","",""
"","do_trial","51","562682","0.0-37.0-1.0","2873.8000000044703","","","","","","","","50","1,1,0","","","","","","","","","","","","","","","",""
"","html-keyboard-response","52","563688","0.0-38.0-0.0","null","<p></p>","null","","","","","","","","","","","","","","","","","","","","","","",""
"","do_trial","53","570076","0.0-38.0-1.0","1875.5","","","","","","","","51","1,0,1","","","","","","","","","","","","","","","",""
"","html-keyboard-response","54","571079","0.0-39.0-0.0","null","<p></p>","null","","","","","","","","","","","","","","","","","","","","","","",""
"","do_trial","55","577406","0.0-39.0-1.0","1816.5999999940395","","","","","","","","50","0,1,0","","","","","","","","","","","","","","","",""
"","html-keyboard-response","56","578413","0.0-40.0-0.0","null","<p></p>","null","","","","","","","","","","","","","","","","","","","","","","",""
"","do_trial","57","584431","0.0-40.0-1.0","null","","","","","","","","null","1,0,0","","","","","","","","","","","","","","","",""
"","html-keyboard-response","58","585437","0.0-41.0-0.0","null","<p></p>","null","","","","","","","","","","","","","","","","","","","","","","",""
"","do_trial","59","591755","0.0-41.0-1.0","1804.2999999970198","","","","","","","","49","1,0,0","","","","","","","","","","","","","","","",""
"","do_bye","60","593263","0.0-42.0-0.0","null","","","","","","","","null","","","","","","","","","","","","","","","","",""
"","do_travel","61","602267","0.0-42.0-1.0","null","","","","","","","","null","","","","","","","","","","","","","","","","",""
"","do_welcome","62","606278","0.0-42.0-2.0","null","","","","","","","","null","","","","","","","","","","","","","","","","",""
"","do_trial","63","613120","0.0-42.0-3.0","2329.8000000044703","","","","","","","","51","1,0,0","","","","","","","","","","","","","","","",""
"","html-keyboard-response","64","614126","0.0-43.0-0.0","null","<p></p>","null","","","","","","","","","","","","","","","","","","","","","","",""
"","do_trial","65","621379","0.0-43.0-1.0","2740","","","","","","","","51","1,0,1","","","","","","","","","","","","","","","",""
"","html-keyboard-response","66","622385","0.0-44.0-0.0","null","<p></p>","null","","","","","","","","","","","","","","","","","","","","","","",""
"","do_trial","67","628402","0.0-44.0-1.0","null","","","","","","","","null","1,1,0","","","","","","","","","","","","","","","",""
"","html-keyboard-response","68","629408","0.0-45.0-0.0","null","<p></p>","null","","","","","","","","","","","","","","","","","","","","","","",""
"","do_trial","69","636772","0.0-45.0-1.0","2855.60000000149","","","","","","","","50","1,1,0","","","","","","","","","","","","","","","",""
"","html-keyboard-response","70","637778","0.0-46.0-0.0","null","<p></p>","null","","","","","","","","","","","","","","","","","","","","","","",""
"","do_trial","71","644077","0.0-46.0-1.0","1789","","","","","","","","51","0,0,1","","","","","","","","","","","","","","","",""
"","html-keyboard-response","72","645084","0.0-47.0-0.0","null","<p></p>","null","","","","","","","","","","","","","","","","","","","","","","",""
"","do_trial","73","651099","0.0-47.0-1.0","null","","","","","","","","null","1,0,1","","","","","","","","","","","","","","","",""
"","html-keyboard-response","74","652105","0.0-48.0-0.0","null","<p></p>","null","","","","","","","","","","","","","","","","","","","","","","",""
"","do_trial","75","658290","0.0-48.0-1.0","1671.6999999955297","","","","","","","","50","1,0,1","","","","","","","","","","","","","","","",""
"","html-keyboard-response","76","681830","0.0-49.0-0.0","23535.09999999404","<div class='center'><p><img src='run_exp/static/images/tutorial/prac_best_pirate.png'  height='500'></p></div>","51","","","","","","","","","","","","","","","","","","","","","","",""
"","html-keyboard-response","77","691004","0.0-50.0-0.0","9172.30000000447","<div class='center'><p>That's incorrect! Red beard was the best.</p><p><b>[Press the space bar to continue]</b></p></div>","32","","","","","","","","","","","","","","","","","","","","","","",""
"","html-keyboard-response","78","703291","0.0-50.0-1.0","12284.89999999851","<div class='center'><p><img src='run_exp/static/images/tutorial/prac_source.png'  height='500'></p></div>","50","","","","","","","","","","","","","","","","","","","","","","",""
"","html-keyboard-response","79","706004","0.0-51.0-0.0","2711.10000000149","<div class='center'><p>That's correct! You saw this ship on the cavern island.</p><p><b>[Press the space bar to continue]</b></p></div>","32","","","","","","","","","","","","","","","","","","","","","","",""
"","quiz_beginning","80","719440","0.0-51.0-1.0","null","run_exp/static/audio/clip_16_quiz_intro.m4a","null","","","","","<div class='center'><p>Good job on the practice game! Now, you will be asked some true or false questions to make sure you really understand the rules of the game.</p><p> Press <b>'1'</b> on the keyboard for true and press <b>'2'</b> for false.</p></div>","","","","","","","","","","","","","","","","","",""
"","audio-keyboard-response","81","758799","0.0-51.0-2.0","39354.69999999553","run_exp/static/audio/clip_17_q1.m4a","49","","","","","","","","","","","","","","","","","","","","","","",""
"","q1_err","82","766429","0.0-52.0-0.0","null","run_exp/static/audio/clip_19_wrong_q1.m4a","null","","","","","<div class='center'><p>That’s incorrect! You win bonus money by collecting as many gold coins as possible!</p></div>","","","","","","","","","","","","","","","","","",""
"","html-keyboard-response","83","768178","0.0-52.0-1.0","1747.3999999985099","<div class='center'><p>That’s incorrect! You win bonus money by collecting as many gold coins as possible!</p><p><b>[Press the space bar to continue]</b></p></div>","32","","","","","","","","","","","","","","","","","","","","","","",""
"","audio-keyboard-response","84","782308","0.0-52.0-2.0","14128.60000000149","run_exp/static/audio/clip_20_q2.m4a","49","","","","","","","","","","","","","","","","","","","","","","",""
"","q2_err","85","787839","0.0-53.0-0.0","null","run_exp/static/audio/clip_21_wrong_q2.m4a","null","","","","","<div class='center'><p>That’s incorrect! You win bonus money by collecting as many gold coins as possible!</p></div>","","","","","","","","","","","","","","","","","",""
"","html-keyboard-response","86","789182","0.0-53.0-1.0","1342.1000000014901","<div class='center'><p>That’s incorrect! You win bonus money by collecting as many gold coins as possible!</p><p><b>[Press the space bar to continue]</b></p></div>","32","","","","","","","","","","","","","","","","","","","","","","",""
"","audio-keyboard-response","87","798144","0.0-53.0-2.0","8960.60000000149","run_exp/static/audio/clip_22_q3.m4a","50","","","","","","","","","","","","","","","","","","","","","","",""
"","correct","88","801121","0.0-54.0-0.0","null","run_exp/static/audio/clip_18_correct.m4a","null","","","","","<div class='center'><p>That's correct!</p></div>","","","","","","","","","","","","","","","","","",""
"","html-keyboard-response","89","803239","0.0-54.0-1.0","2116.8000000044703","<div class='center'><p>That's correct!</p><p><b>[Press the space bar to continue]</b></p></div>","32","","","","","","","","","","","","","","","","","","","","","","",""
"","audio-keyboard-response","90","808330","0.0-54.0-2.0","5088.89999999851","run_exp/static/audio/clip_24_q4.m4a","49","","","","","","","","","","","","","","","","","","","","","","",""
"","correct","91","811291","0.0-55.0-0.0","null","run_exp/static/audio/clip_18_correct.m4a","null","","","","","<div class='center'><p>That's correct!</p></div>","","","","","","","","","","","","","","","","","",""
"","html-keyboard-response","92","812752","0.0-55.0-1.0","1459.4000000059605","<div class='center'><p>That's correct!</p><p><b>[Press the space bar to continue]</b></p></div>","32","","","","","","","","","","","","","","","","","","","","","","",""
"","q_all_err","93","820301","0.0-56.0-0.0","null","run_exp/static/audio/clip_26_quiz_redo.m4a","null","","","","","<div class='center'><p>Oops, you missed some questions. Now that you’ve heard the correct answers. Try the quiz again! </p></div>","","","","","","","","","","","","","","","","","",""
"","html-keyboard-response","94","821509","0.0-56.0-1.0","1206.2000000029802","<div class='center'><p>Oops, you missed some questions. Now that you’ve heard the correct answers. Try the quiz again! </p><p><b>[Press the space bar to continue]</b></p></div>","32","","","","","","","","","","","","","","","","","","","","","","",""
"","audio-keyboard-response","95","826813","0.0-56.0-2.0","5302.30000000447","run_exp/static/audio/clip_17_q1.m4a","49","","","","","","","","","","","","","","","","","","","","","","",""
"","q1_err","96","834443","0.0-57.0-0.0","null","run_exp/static/audio/clip_19_wrong_q1.m4a","null","","","","","<div class='center'><p>That’s incorrect! You win bonus money by collecting as many gold coins as possible!</p></div>","","","","","","","","","","","","","","","","","",""
"","html-keyboard-response","97","835008","0.0-57.0-1.0","564.3000000044703","<div class='center'><p>That’s incorrect! You win bonus money by collecting as many gold coins as possible!</p><p><b>[Press the space bar to continue]</b></p></div>","32","","","","","","","","","","","","","","","","","","","","","","",""
"","audio-keyboard-response","98","840539","0.0-57.0-2.0","5529.29999999702","run_exp/static/audio/clip_20_q2.m4a","49","","","","","","","","","","","","","","","","","","","","","","",""
"","q2_err","99","846076","0.0-58.0-0.0","null","run_exp/static/audio/clip_21_wrong_q2.m4a","null","","","","","<div class='center'><p>That’s incorrect! You win bonus money by collecting as many gold coins as possible!</p></div>","","","","","","","","","","","","","","","","","",""
"","html-keyboard-response","100","846766","0.0-58.0-1.0","688.4000000059605","<div class='center'><p>That’s incorrect! You win bonus money by collecting as many gold coins as possible!</p><p><b>[Press the space bar to continue]</b></p></div>","32","","","","","","","","","","","","","","","","","","","","","","",""
"","audio-keyboard-response","101","850362","0.0-58.0-2.0","3594","run_exp/static/audio/clip_22_q3.m4a","50","","","","","","","","","","","","","","","","","","","","","","",""
"","correct","102","853344","0.0-59.0-0.0","null","run_exp/static/audio/clip_18_correct.m4a","null","","","","","<div class='center'><p>That's correct!</p></div>","","","","","","","","","","","","","","","","","",""
"","html-keyboard-response","103","854186","0.0-59.0-1.0","840.8999999985099","<div class='center'><p>That's correct!</p><p><b>[Press the space bar to continue]</b></p></div>","32","","","","","","","","","","","","","","","","","","","","","","",""
"","audio-keyboard-response","104","856711","0.0-59.0-2.0","2522.4000000059605","run_exp/static/audio/clip_24_q4.m4a","49","","","","","","","","","","","","","","","","","","","","","","",""
"","correct","105","859683","0.0-60.0-0.0","null","run_exp/static/audio/clip_18_correct.m4a","null","","","","","<div class='center'><p>That's correct!</p></div>","","","","","","","","","","","","","","","","","",""
"","html-keyboard-response","106","861118","0.0-60.0-1.0","1433.3999999985099","<div class='center'><p>That's correct!</p><p><b>[Press the space bar to continue]</b></p></div>","32","","","","","","","","","","","","","","","","","","","","","","",""
"","q_all_err","107","868670","0.0-61.0-0.0","null","run_exp/static/audio/clip_26_quiz_redo.m4a","null","","","","","<div class='center'><p>Oops, you missed some questions. Now that you’ve heard the correct answers. Try the quiz again! </p></div>","","","","","","","","","","","","","","","","","",""
"","html-keyboard-response","108","869660","0.0-61.0-1.0","988.5999999940395","<div class='center'><p>Oops, you missed some questions. Now that you’ve heard the correct answers. Try the quiz again! </p><p><b>[Press the space bar to continue]</b></p></div>","32","","","","","","","","","","","","","","","","","","","","","","",""
"","audio-keyboard-response","109","873861","0.0-61.0-2.0","4199.10000000149","run_exp/static/audio/clip_17_q1.m4a","50","","","","","","","","","","","","","","","","","","","","","","",""
"","correct","110","876820","0.0-62.0-0.0","null","run_exp/static/audio/clip_18_correct.m4a","null","","","","","<div class='center'><p>That's correct!</p></div>","","","","","","","","","","","","","","","","","",""
"","html-keyboard-response","111","877254","0.0-62.0-1.0","432.5","<div class='center'><p>That's correct!</p><p><b>[Press the space bar to continue]</b></p></div>","32","","","","","","","","","","","","","","","","","","","","","","",""
"","audio-keyboard-response","112","880866","0.0-62.0-2.0","3610.5999999940395","run_exp/static/audio/clip_20_q2.m4a","50","","","","","","","","","","","","","","","","","","","","","","",""
"","correct","113","883833","0.0-63.0-0.0","null","run_exp/static/audio/clip_18_correct.m4a","null","","","","","<div class='center'><p>That's correct!</p></div>","","","","","","","","","","","","","","","","","",""
"","html-keyboard-response","114","884566","0.0-63.0-1.0","732.3999999985099","<div class='center'><p>That's correct!</p><p><b>[Press the space bar to continue]</b></p></div>","32","","","","","","","","","","","","","","","","","","","","","","",""
"","audio-keyboard-response","115","887652","0.0-63.0-2.0","3083.7999999970198","run_exp/static/audio/clip_22_q3.m4a","50","","","","","","","","","","","","","","","","","","","","","","",""
"","correct","116","890613","0.0-64.0-0.0","null","run_exp/static/audio/clip_18_correct.m4a","null","","","","","<div class='center'><p>That's correct!</p></div>","","","","","","","","","","","","","","","","","",""
"","html-keyboard-response","117","891319","0.0-64.0-1.0","704.7999999970198","<div class='center'><p>That's correct!</p><p><b>[Press the space bar to continue]</b></p></div>","32","","","","","","","","","","","","","","","","","","","","","","",""
"","audio-keyboard-response","118","893198","0.0-64.0-2.0","1877.1000000014901","run_exp/static/audio/clip_24_q4.m4a","49","","","","","","","","","","","","","","","","","","","","","","",""
"","correct","119","896210","0.0-65.0-0.0","null","run_exp/static/audio/clip_18_correct.m4a","null","","","","","<div class='center'><p>That's correct!</p></div>","","","","","","","","","","","","","","","","","",""
"","html-keyboard-response","120","896600","0.0-65.0-1.0","389.3999999985099","<div class='center'><p>That's correct!</p><p><b>[Press the space bar to continue]</b></p></div>","32","","","","","","","","","","","","","","","","","","","","","","",""
"","q_all_corr","121","905521","0.0-66.0-0.0","null","run_exp/static/audio/clip_27_quiz_all_correct.m4a","null","","","","","<div class='center'><p>Good job! You’re now ready to move on to the real game! Remember this game will be difficult but don't get discouraged and try your best!</p></div>","","","","","","","","","","","","","","","","","",""
"","html-keyboard-response","122","917243","0.0-66.0-1.0","11720.20000000298","<div class='center'><p>Good job! You’re now ready to move on to the real game! Remember this game will be difficult but don't get discouraged and try your best!</p><p><b>[Press the space bar to continue]</b></p></div>","32","","","","","","","","","","","","","","","","","","","","","","",""
"","do_welcome","123","921251","0.0-67.0-0.0","null","","","","","","","","null","","","","","","","","","","","","","","","","",""
"","do_trial","124","927321","0.0-68.0-0.0","null","","","","","","","","null","0,0,1","0","forest","0","probe-189","0.6","0.3","0.1","","","","","","","","",""
"","html-keyboard-response","125","928323","0.0-68.0-1.0","null","<p></p>","null","","","","","","","","","","","","","","","","","","","","","","",""
"","do_trial","126","934371","0.0-69.0-0.0","null","","","","","","","","null","1,0,0","0","forest","1","probe-166","0.480050850476436","0.34961247260795825","0.11928014955103466","","","","","","","","",""
"","html-keyboard-response","127","935377","0.0-69.0-1.0","null","<p></p>","null","","","","","","","","","","","","","","","","","","","","","","",""
"","do_trial","128","940974","0.0-70.0-0.0","1047.7999999970198","","","","","","","","49","0,0,0","0","forest","2","probe-101","0.6508179377676621","0.4619586693907341","0.19776089443369543","0","","","","","","","",""
"","html-keyboard-response","129","941977","0.0-70.0-1.0","null","<p></p>","null","","","","","","","","","","","","","","","","","","","","","","",""
"","do_trial","130","948031","0.0-71.0-0.0","null","","","","","","","","null","1,0,0","0","forest","3","probe-187","0.673988737835553","0.40517492844094644","0.30414980821551124","","","","","","","","",""
"","html-keyboard-response","131","949036","0.0-71.0-1.0","null","<p></p>","null","","","","","","","","","","","","","","","","","","","","","","",""
"","do_trial","132","955661","0.0-72.0-0.0","2076.89999999851","","","","","","","","51","1,0,1","0","forest","4","probe-228","0.6158501757099027","0.36323377945163626","0.22112471489780125","1","","","","","","","",""
"","html-keyboard-response","133","956665","0.0-72.0-1.0","null","<p></p>","null","","","","","","","","","","","","","","","","","","","","","","",""
"","do_trial","134","963570","0.0-73.0-0.0","2355.10000000149","","","","","","","","50","0,0,1","0","forest","5","probe-222","0.5297331265428644","0.33393519953964884","0.21812248572559245","0","","","","","","","",""
"","html-keyboard-response","135","964571","0.0-73.0-1.0","null","<p></p>","null","","","","","","","","","","","","","","","","","","","","","","",""
"","do_trial","136","971085","0.0-74.0-0.0","1963.8000000044703","","","","","","","","51","0,0,0","0","forest","6","probe-24","0.5717564205300287","0.2722271679864785","0.12704668702978736","0","","","","","","","",""
"","html-keyboard-response","137","972086","0.0-74.0-1.0","null","<p></p>","null","","","","","","","","","","","","","","","","","","","","","","",""
"","do_trial","138","978142","0.0-75.0-0.0","null","","","","","","","","null","1,0,0","0","forest","7","probe-186","0.5563801312318776","0.34398604807715233","0.13749291817577966","","","","","","","","",""
"","html-keyboard-response","139","979144","0.0-75.0-1.0","null","<p></p>","null","","","","","","","","","","","","","","","","","","","","","","",""
"","do_trial","140","986500","0.0-76.0-0.0","2806.2000000029802","","","","","","","","51","1,0,0","0","forest","8","probe-22","0.8106217045490912","0.3548888542793352","0.11840738410468603","0","","","","","","","",""
"","html-keyboard-response","141","987506","0.0-76.0-1.0","null","<p></p>","null","","","","","","","","","","","","","","","","","","","","","","",""
"","do_trial","142","993815","0.0-77.0-0.0","1758.4000000059605","","","","","","","","50","1,1,0","0","forest","9","probe-23","0.7983088602163936","0.3185630336972342","0.1750958655660363","1","","","","","","","",""
"","html-keyboard-response","143","994822","0.0-77.0-1.0","null","<p></p>","null","","","","","","","","","","","","","","","","","","","","","","",""
"","do_trial","144","1000874","0.0-78.0-0.0","null","","","","","","","","null","1,1,0","0","forest","10","probe-182","0.6868189110467712","0.3585817441112947","0.18647049449212355","","","","","","","","",""
"","html-keyboard-response","145","1001878","0.0-78.0-1.0","null","<p></p>","null","","","","","","","","","","","","","","","","","","","","","","",""
"","do_trial","146","1008513","0.0-79.0-0.0","2085.8000000044703","","","","","","","","50","1,0,0","0","forest","11","probe-32","0.6453705015388702","0.18289698676033944","0.1992344688123059","0","","","","","","","",""
"","html-keyboard-response","147","1009519","0.0-79.0-1.0","null","<p></p>","null","","","","","","","","","","","","","","","","","","","","","","",""
"","do_trial","148","1016690","0.0-80.0-0.0","2621.6999999955297","","","","","","","","49","1,0,0","0","forest","12","probe-44","0.5224395800430642","0.2587727355110009","0.0913197184971938","1","","","","","","","",""
"","html-keyboard-response","149","1017692","0.0-80.0-1.0","null","<p></p>","null","","","","","","","","","","","","","","","","","","","","","","",""
"","do_trial","150","1023944","0.0-81.0-0.0","1703.5","","","","","","","","49","0,0,0","0","forest","13","probe-74","0.5420329571936546","0.27091181477896137","0.12014541354993723","0","","","","","","","",""
"","html-keyboard-response","151","1024950","0.0-81.0-1.0","null","<p></p>","null","","","","","","","","","","","","","","","","","","","","","","",""
"","do_trial","152","1031664","0.0-82.0-0.0","2164.60000000149","","","","","","","","51","1,0,0","0","forest","14","probe-229","0.6119206267405933","0.2650063994320046","0.062488198870241034","0","","","","","","","",""
"","html-keyboard-response","153","1032666","0.0-82.0-1.0","null","<p></p>","null","","","","","","","","","","","","","","","","","","","","","","",""
"","do_trial","154","1039871","0.0-83.0-0.0","2655.39999999851","","","","","","","","49","1,0,0","0","forest","15","probe-167","0.7531785761110302","0.07145084655325651","0.05097013481927065","1","","","","","","","",""
"","html-keyboard-response","155","1040873","0.0-83.0-1.0","null","<p></p>","null","","","","","","","","","","","","","","","","","","","","","","",""
"","do_trial","156","1047646","0.0-84.0-0.0","2224.3000000044703","","","","","","","","49","1,0,0","0","forest","16","probe-27","0.7762625875344145","0.19564593682161766","0.10202134940833378","1","","","","","","","",""
"","html-keyboard-response","157","1048648","0.0-84.0-1.0","null","<p></p>","null","","","","","","","","","","","","","","","","","","","","","","",""
"","do_trial","158","1054818","0.0-85.0-0.0","1609.1000000014901","","","","","","","","49","0,0,1","0","forest","17","probe-20","0.7332191409662879","0.11533827356978257","0.13324990439497428","0","","","","","","","",""
"","html-keyboard-response","159","1055823","0.0-85.0-1.0","null","<p></p>","null","","","","","","","","","","","","","","","","","","","","","","",""
"","do_trial","160","1062173","0.0-86.0-0.0","1797.6000000014901","","","","","","","","51","1,1,1","0","forest","18","probe-41","0.6518645720537637","0.22283212594661084","0.09215094419635944","1","","","","","","","",""
"","html-keyboard-response","161","1063176","0.0-86.0-1.0","null","<p></p>","null","","","","","","","","","","","","","","","","","","","","","","",""
"","do_trial","162","1069916","0.0-87.0-0.0","2191.1999999955297","","","","","","","","51","0,0,0","0","forest","19","probe-153","0.6200725880969802","0.3073379561559516","0.12315026721518667","0","","","","","","","",""
"","html-keyboard-response","163","1070922","0.0-87.0-1.0","null","<p></p>","null","","","","","","","","","","","","","","","","","","","","","","",""
"","do_trial","164","1076976","0.0-88.0-0.0","null","","","","","","","","null","1,0,1","0","forest","20","probe-60","0.6662372117925851","0.25054869877731195","0.1816385321879835","","","","","","","","",""
"","html-keyboard-response","165","1077981","0.0-88.0-1.0","null","<p></p>","null","","","","","","","","","","","","","","","","","","","","","","",""
"","do_trial","166","1084014","0.0-89.0-0.0","1484","","","","","","","","49","1,1,0","0","forest","21","probe-181","0.5609119996701517","0.389584631524078","0.06383065208541223","1","","","","","","","",""
"","html-keyboard-response","167","1085017","0.0-89.0-1.0","null","<p></p>","null","","","","","","","","","","","","","","","","","","","","","","",""
"","do_trial","168","1091526","0.0-90.0-0.0","1963.8999999985099","","","","","","","","51","0,0,0","0","forest","22","probe-130","0.68953830913434","0.2429701201866584","0.08654551260971584","0","","","","","","","",""
"","html-keyboard-response","169","1092532","0.0-90.0-1.0","null","<p></p>","null","","","","","","","","","","","","","","","","","","","","","","",""
"","do_trial","170","1098640","0.0-91.0-0.0","1558.7000000029802","","","","","","","","49","0,0,0","0","forest","23","probe-63","0.7216052357915439","0.21048646270243637","0.12598220514425112","0","","","","","","","",""
"","html-keyboard-response","171","1099646","0.0-91.0-1.0","null","<p></p>","null","","","","","","","","","","","","","","","","","","","","","","",""
"","do_trial","172","1105612","0.0-92.0-0.0","1419.8999999985099","","","","","","","","51","1,1,0","0","forest","24","probe-185","0.6562706969189073","0.26196513329462917","0.08633031747170501","0","","","","","","","",""
"","html-keyboard-response","173","1106617","0.0-92.0-1.0","null","<p></p>","null","","","","","","","","","","","","","","","","","","","","","","",""
"","do_trial","174","1112128","0.0-93.0-0.0","960.1000000014901","","","","","","","","50","1,0,0","0","forest","25","probe-120","0.7641954141933026","0.2952445075132182","0.07024298392011691","0","","","","","","","",""
"","html-keyboard-response","175","1113130","0.0-93.0-1.0","null","<p></p>","null","","","","","","","","","","","","","","","","","","","","","","",""
"","do_trial","176","1119632","0.0-94.0-0.0","1951.6000000014901","","","","","","","","51","1,0,0","0","forest","26","probe-164","0.6329415129463969","0.30183466318024355","0.168973808386467","0","","","","","","","",""
"","html-keyboard-response","177","1120639","0.0-94.0-1.0","null","<p></p>","null","","","","","","","","","","","","","","","","","","","","","","",""
"","do_trial","178","1126338","0.0-95.0-0.0","1153.2000000029802","","","","","","","","49","1,0,0","0","forest","27","probe-117","0.6430385203209044","0.3654937391187339","0.250094240116947","1","","","","","","","",""
"","html-keyboard-response","179","1127340","0.0-95.0-1.0","null","<p></p>","null","","","","","","","","","","","","","","","","","","","","","","",""
"","do_trial","180","1132713","0.0-96.0-0.0","827.2999999970198","","","","","","","","49","1,0,0","0","forest","28","probe-165","0.6812473919413969","0.3294314252228243","0.3079200521854303","1","","","","","","","",""
"","html-keyboard-response","181","1133720","0.0-96.0-1.0","null","<p></p>","null","","","","","","","","","","","","","","","","","","","","","","",""
"","do_trial","182","1139535","0.0-97.0-0.0","1266.1000000014901","","","","","","","","49","1,1,0","0","forest","29","probe-21","0.46268331319246714","0.4651678440758164","0.05418183213824768","1","","","","","","","",""
"","html-keyboard-response","183","1140540","0.0-97.0-1.0","null","<p></p>","null","","","","","","","","","","","","","","","","","","","","","","",""
"","do_bye","184","1142051","0.0-98.0-0.0","null","","","","","","","","null","","","","","","","","","","","","","","","","",""
"","break","185","1166093","0.0-98.0-1.0","24039.70000000298","<div class='center'><p>Time to take a quick break! You have 2 minutes to rest, but you can move on sooner if you'd like.</p><p> Press the <b>space bar</b> to continue.</p></div>","32","","","","","","","","","","","","","","","","","","","","","","",""
"","do_travel","186","1175103","0.0-99.0-0.0","null","","","","","","","","null","","","","","","","","","","","","","","","","",""
"","do_welcome","187","1179115","0.0-99.0-1.0","null","","","","","","","","null","","","","","","","","","","","","","","","","",""
"","do_trial","188","1185615","0.0-100.0-0.0","1944.3999999985099","","","","","","","","49","1,0,0","1","countryside","30","probe-37","1","0.3699007586756504","0.09139196468241188","1","","","","","","","",""
"","html-keyboard-response","189","1186619","0.0-100.0-1.0","null","<p></p>","null","","","","","","","","","","","","","","","","","","","","","","",""
"","do_trial","190","1192712","0.0-101.0-0.0","1543.3999999985099","","","","","","","","49","1,0,0","1","countryside","31","probe-52","1","0.3561464095147093","0.05342819874451937","1","","","","","","","",""
"","html-keyboard-response","191","1193718","0.0-101.0-1.0","null","<p></p>","null","","","","","","","","","","","","","","","","","","","","","","",""
"","do_trial","192","1198654","0.0-102.0-0.0","388.70000000298023","","","","","","","","49","1,0,0","1","countryside","32","probe-183","1","0.17440648564848174","0.25332502049661787","1","","","","","","","",""
"","html-keyboard-response","193","1199659","0.0-102.0-1.0","null","<p></p>","null","","","","","","","","","","","","","","","","","","","","","","",""
"","do_trial","194","1204686","0.0-103.0-0.0","484.5","","","","","","","","49","1,1,0","1","countryside","33","probe-223","0.9159299747874884","0.25498875268110033","0.24636891771645006","1","","","","","","","",""
"","html-keyboard-response","195","1205692","0.0-103.0-1.0","null","<p></p>","null","","","","","","","","","","","","","","","","","","","","","","",""
"","do_trial","196","1210636","0.0-104.0-0.0","395.29999999701977","","","","","","","","51","1,0,0","1","countryside","34","probe-106","0.7573060368111287","0.20354141907485251","0.1823048514919239","0","","","","","","","",""
"","html-keyboard-response","197","1211639","0.0-104.0-1.0","null","<p></p>","null","","","","","","","","","","","","","","","","","","","","","","",""
"","do_trial","198","1216535","0.0-105.0-0.0","345.5","","","","","","","","49","1,0,0","1","countryside","35","probe-35","0.6206723091767552","0.14277903176166362","0.1232097942765484","1","","","","","","","",""
"","html-keyboard-response","199","1217541","0.0-105.0-1.0","null","<p></p>","null","","","","","","","","","","","","","","","","","","","","","","",""
"","do_trial","200","1222478","0.0-106.0-0.0","387.40000000596046","","","","","","","","49","0,0,0","1","countryside","36","probe-178","0.5679487428725521","0.07822690409924805","0.20872853480071563","0","","","","","","","",""
"","html-keyboard-response","201","1223484","0.0-106.0-1.0","null","<p></p>","null","","","","","","","","","","","","","","","","","","","","","","",""
"","do_trial","202","1229168","0.0-107.0-0.0","1140.6000000014901","","","","","","","","49","1,0,0","1","countryside","37","probe-198","0.7038677905237694","0.15687542487080708","0.13671057865199543","1","","","","","","","",""
"","html-keyboard-response","203","1230173","0.0-107.0-1.0","null","<p></p>","null","","","","","","","","","","","","","","","","","","","","","","",""
"","do_trial","204","1236509","0.0-108.0-0.0","1786.3999999985099","","","","","","","","49","0,0,0","1","countryside","38","probe-192","0.7235495944670342","0.21479026152618777","0.19390000555542156","0","","","","","","","",""
"","html-keyboard-response","205","1237515","0.0-108.0-1.0","null","<p></p>","null","","","","","","","","","","","","","","","","","","","","","","",""
"","do_trial","206","1242720","0.0-109.0-0.0","654.6000000014901","","","","","","","","51","0,1,1","1","countryside","39","probe-93","0.6916979375356498","0.20433620191818563","0.1339213496418156","1","","","","","","","",""
"","html-keyboard-response","207","1243725","0.0-109.0-1.0","null","<p></p>","null","","","","","","","","","","","","","","","","","","","","","","",""
"","do_trial","208","1249022","0.0-110.0-0.0","750.5","","","","","","","","50","1,0,0","1","countryside","40","probe-179","0.6240087645256444","0.1489436689464588","0.21159683869957355","0","","","","","","","",""
"","html-keyboard-response","209","1250026","0.0-110.0-1.0","null","<p></p>","null","","","","","","","","","","","","","","","","","","","","","","",""
"","do_trial","210","1255167","0.0-111.0-0.0","591.6999999955297","","","","","","","","51","0,0,0","1","countryside","41","probe-102","0.6489398238662849","0.09368643050090426","0.22010919542927823","0","","","","","","","",""
"","html-keyboard-response","211","1256171","0.0-111.0-1.0","null","<p></p>","null","","","","","","","","","","","","","","","","","","","","","","",""
"","do_trial","212","1261294","0.0-112.0-0.0","576.6000000014901","","","","","","","","49","0,0,0","1","countryside","42","probe-207","0.4553392790427854","0.18858465163011837","0.07042538826629391","0","","","","","","","",""
"","html-keyboard-response","213","1262301","0.0-112.0-1.0","null","<p></p>","null","","","","","","","","","","","","","","","","","","","","","","",""
"","do_trial","214","1269153","0.0-113.0-0.0","2305.5","","","","","","","","51","0,0,0","1","countryside","43","probe-04","0.415257512864692","0.4068997340903563","0.14620116174381817","0","","","","","","","",""
"","html-keyboard-response","215","1270159","0.0-113.0-1.0","null","<p></p>","null","","","","","","","","","","","","","","","","","","","","","","",""
"","do_trial","216","1275127","0.0-114.0-0.0","419.6000000014901","","","","","","","","49","0,0,0","1","countryside","44","probe-143","0.4044733493946881","0.42363298025411583","0.21422710804487402","0","","","","","","","",""
"","html-keyboard-response","217","1276133","0.0-114.0-1.0","null","<p></p>","null","","","","","","","","","","","","","","","","","","","","","","",""
"","do_trial","218","1281190","0.0-115.0-0.0","506.30000000447035","","","","","","","","50","0,1,1","1","countryside","45","probe-135","0.4721468620266842","0.36567903663108353","0.22753486666786468","1","","","","","","","",""
"","html-keyboard-response","219","1282195","0.0-115.0-1.0","null","<p></p>","null","","","","","","","","","","","","","","","","","","","","","","",""
"","do_trial","220","1287131","0.0-116.0-0.0","380.8999999985099","","","","","","","","50","0,0,0","1","countryside","46","probe-89","0.48579200401118033","0.5013618936079827","0.21447066197165449","0","","","","","","","",""
"","html-keyboard-response","221","1288137","0.0-116.0-1.0","null","<p></p>","null","","","","","","","","","","","","","","","","","","","","","","",""
"","do_trial","222","1294556","0.0-117.0-0.0","1869.5","","","","","","","","49","1,0,0","1","countryside","47","probe-113","0.36222703614930757","0.5168004293070616","0.1685987051378946","1","","","","","","","",""
"","html-keyboard-response","223","1295559","0.0-117.0-1.0","null","<p></p>","null","","","","","","","","","","","","","","","","","","","","","","",""
"","do_trial","224","1300631","0.0-118.0-0.0","528","","","","","","","","49","0,1,0","1","countryside","48","probe-158","0.45936725858229666","0.551983846000057","0.16097236523192263","0","","","","","","","",""
"","html-keyboard-response","225","1301636","0.0-118.0-1.0","null","<p></p>","null","","","","","","","","","","","","","","","","","","","","","","",""
"","do_trial","226","1307222","0.0-119.0-0.0","1041","","","","","","","","50","0,1,1","1","countryside","49","probe-03","0.25235211740466773","0.5170533901240364","0.22995072274062608","1","","","","","","","",""
"","html-keyboard-response","227","1308229","0.0-119.0-1.0","null","<p></p>","null","","","","","","","","","","","","","","","","","","","","","","",""
"","do_trial","228","1314318","0.0-120.0-0.0","1539","","","","","","","","49","1,1,0","1","countryside","50","probe-88","0.3891671054981999","0.44316142344629","0.1038419774067052","1","","","","","","","",""
"","html-keyboard-response","229","1315323","0.0-120.0-1.0","null","<p></p>","null","","","","","","","","","","","","","","","","","","","","","","",""
"","do_trial","230","1320505","0.0-121.0-0.0","630.8999999985099","","","","","","","","49","0,0,0","1","countryside","51","probe-75","0.33797232505264563","0.405024653648227","0.12265898378759917","0","","","","","","","",""
"","html-keyboard-response","231","1321511","0.0-121.0-1.0","null","<p></p>","null","","","","","","","","","","","","","","","","","","","","","","",""
"","do_trial","232","1327537","0.0-122.0-0.0","1476.8999999985099","","","","","","","","49","0,1,1","1","countryside","52","probe-217","0.33231794069405296","0.6073530066335655","0.24164199969094488","0","","","","","","","",""
"","html-keyboard-response","233","1328540","0.0-122.0-1.0","null","<p></p>","null","","","","","","","","","","","","","","","","","","","","","","",""
"","do_trial","234","1334358","0.0-123.0-0.0","1261.8999999985099","","","","","","","","51","0,1,0","1","countryside","53","probe-104","0.24691336721324597","0.6333425346128739","0.07816981538658889","0","","","","","","","",""
"","html-keyboard-response","235","1335364","0.0-123.0-1.0","null","<p></p>","null","","","","","","","","","","","","","","","","","","","","","","",""
"","do_trial","236","1341448","0.0-124.0-0.0","1536.1000000014901","","","","","","","","50","0,0,0","1","countryside","54","probe-145","0.25592445814371767","0.6779775475646078","0.17078640667987002","0","","","","","","","",""
"","html-keyboard-response","237","1342454","0.0-124.0-1.0","null","<p></p>","null","","","","","","","","","","","","","","","","","","","","","","",""
"","do_trial","238","1347656","0.0-125.0-0.0","653.2000000029802","","","","","","","","49","1,1,0","1","countryside","55","probe-58","0.22978145347725176","0.628865158111746","0.1920503122433037","1","","","","","","","",""
"","html-keyboard-response","239","1348660","0.0-125.0-1.0","null","<p></p>","null","","","","","","","","","","","","","","","","","","","","","","",""
"","do_trial","240","1353430","0.0-126.0-0.0","222.69999999552965","","","","","","","","49","0,1,0","1","countryside","56","probe-139","0.13218884307444456","0.5944668375929427","0.11704572754008659","0","","","","","","","",""
"","html-keyboard-response","241","1354433","0.0-126.0-1.0","null","<p></p>","null","","","","","","","","","","","","","","","","","","","","","","",""
"","do_trial","242","1360648","0.0-127.0-0.0","1662.8000000044703","","","","","","","","49","0,1,1","1","countryside","57","probe-147","0.27852912481159303","0.6174190905986083","0.20171378756249148","0","","","","","","","",""
"","html-keyboard-response","243","1361653","0.0-127.0-1.0","null","<p></p>","null","","","","","","","","","","","","","","","","","","","","","","",""
"","do_trial","244","1366592","0.0-128.0-0.0","390.1000000014901","","","","","","","","51","0,1,0","1","countryside","58","probe-77","0.2441033729286225","0.6122968758466331","0.05079798060189937","0","","","","","","","",""
"","html-keyboard-response","245","1367597","0.0-128.0-1.0","null","<p></p>","null","","","","","","","","","","","","","","","","","","","","","","",""
"","do_trial","246","1373818","0.0-129.0-0.0","1679.3000000044703","","","","","","","","50","0,1,1","1","countryside","59","probe-73","0.12224308387731947","0.6990380842595327","0.056769775720351134","1","","","","","","","",""
"","html-keyboard-response","247","1374824","0.0-129.0-1.0","null","<p></p>","null","","","","","","","","","","","","","","","","","","","","","","",""
"","do_trial","248","1381122","0.0-130.0-0.0","1752.5","","","","","","","","50","0,0,1","1","countryside","60","probe-146","0.3135607807713903","0.5835526545900518","0.059009964996812346","0","","","","","","","",""
"","html-keyboard-response","249","1382123","0.0-130.0-1.0","null","<p></p>","null","","","","","","","","","","","","","","","","","","","","","","",""
"","do_trial","250","1388346","0.0-131.0-0.0","1674.6000000014901","","","","","","","","51","0,0,0","1","countryside","61","probe-61","0.22361781548338897","0.623677069989453","0.16780283548092778","0","","","","","","","",""
"","html-keyboard-response","251","1389348","0.0-131.0-1.0","null","<p></p>","null","","","","","","","","","","","","","","","","","","","","","","",""
"","do_trial","252","1394339","0.0-132.0-0.0","441.80000000447035","","","","","","","","49","0,1,0","1","countryside","62","probe-216","0.28195040762559165","0.5435431350834214","0.13091546585933683","0","","","","","","","",""
"","html-keyboard-response","253","1395344","0.0-132.0-1.0","null","<p></p>","null","","","","","","","","","","","","","","","","","","","","","","",""
"","do_trial","254","1400417","0.0-133.0-0.0","525.8999999985099","","","","","","","","50","0,1,0","1","countryside","63","probe-97","0.34980371074850525","0.5656565357452837","0.13549543989028437","1","","","","","","","",""
"","html-keyboard-response","255","1401423","0.0-133.0-1.0","null","<p></p>","null","","","","","","","","","","","","","","","","","","","","","","",""
"","do_trial","256","1406368","0.0-134.0-0.0","391.29999999701977","","","","","","","","50","0,1,0","1","countryside","64","probe-43","0.34874228030911625","0.5681763487698425","0.17283953994078272","1","","","","","","","",""
"","html-keyboard-response","257","1407374","0.0-134.0-1.0","null","<p></p>","null","","","","","","","","","","","","","","","","","","","","","","",""
"","do_trial","258","1413225","0.0-135.0-0.0","1295.7999999970198","","","","","","","","50","0,0,0","1","countryside","65","probe-06","0.31673478895461143","0.5360997960638264","0.1769749890796746","0","","","","","","","",""
"","html-keyboard-response","259","1414231","0.0-135.0-1.0","null","<p></p>","null","","","","","","","","","","","","","","","","","","","","","","",""
"","do_trial","260","1420283","0.0-136.0-0.0","null","","","","","","","","null","0,0,0","1","countryside","66","probe-168","0.32618584474410667","0.5489371394931926","0.28566120808591455","","","","","","","","",""
"","html-keyboard-response","261","1421288","0.0-136.0-1.0","null","<p></p>","null","","","","","","","","","","","","","","","","","","","","","","",""
"","do_trial","262","1427421","0.0-137.0-0.0","1582.9000000059605","","","","","","","","49","0,1,0","1","countryside","67","probe-112","0.31173268949228555","0.5310781945572773","0.3143643251517171","0","","","","","","","",""
"","html-keyboard-response","263","1428425","0.0-137.0-1.0","null","<p></p>","null","","","","","","","","","","","","","","","","","","","","","","",""
"","do_trial","264","1433410","0.0-138.0-0.0","435","","","","","","","","49","0,1,1","1","countryside","68","probe-19","0.2634719221480914","0.5622431714851177","0.30567185435374067","0","","","","","","","",""
"","html-keyboard-response","265","1434411","0.0-138.0-1.0","null","<p></p>","null","","","","","","","","","","","","","","","","","","","","","","",""
"","do_trial","266","1439323","0.0-139.0-0.0","362.6000000014901","","","","","","","","51","0,1,0","1","countryside","69","probe-94","0.20523889452897456","0.5326570835809192","0.2470818577894691","0","","","","","","","",""
"","html-keyboard-response","267","1440327","0.0-139.0-1.0","null","<p></p>","null","","","","","","","","","","","","","","","","","","","","","","",""
"","do_bye","268","1441836","0.0-140.0-0.0","null","","","","","","","","null","","","","","","","","","","","","","","","","",""
"","break","269","1445610","0.0-140.0-1.0","3771.60000000149","<div class='center'><p>Time to take a quick break! You have 2 minutes to rest, but you can move on sooner if you'd like.</p><p> Press the <b>space bar</b> to continue.</p></div>","32","","","","","","","","","","","","","","","","","","","","","","",""
"","do_travel","270","1454619","0.0-141.0-0.0","null","","","","","","","","null","","","","","","","","","","","","","","","","",""
"","do_welcome","271","1458633","0.0-141.0-1.0","null","","","","","","","","null","","","","","","","","","","","","","","","","",""
"","do_trial","272","1466026","0.0-142.0-0.0","2846.2000000029802","","","","","","","","51","0,1,0","2","coast","70","probe-57","0.19396158912043127","1","0.07068590978513742","0","","","","","","","",""
"","html-keyboard-response","273","1467030","0.0-142.0-1.0","null","<p></p>","null","","","","","","","","","","","","","","","","","","","","","","",""
"","do_trial","274","1471827","0.0-143.0-0.0","251.29999999701977","","","","","","","","50","1,1,0","2","coast","71","probe-56","0.20578831104304512","1","0.10869351432223798","1","","","","","","","",""
"","html-keyboard-response","275","1472833","0.0-143.0-1.0","null","<p></p>","null","","","","","","","","","","","","","","","","","","","","","","",""
"","do_trial","276","1477762","0.0-144.0-0.0","383.29999999701977","","","","","","","","49","0,1,0","2","coast","72","probe-126","0.1541625342337312","0.657755608857379","0.18064404874033965","0","","","","","","","",""
"","html-keyboard-response","277","1478768","0.0-144.0-1.0","null","<p></p>","null","","","","","","","","","","","","","","","","","","","","","","",""
"","do_trial","278","1483784","0.0-145.0-0.0","467.19999999552965","","","","","","","","49","0,0,0","2","coast","73","probe-11","0.3344296493199495","0.5855829992576679","0.1925946781929581","0","","","","","","","",""
"","html-keyboard-response","279","1484789","0.0-145.0-1.0","null","<p></p>","null","","","","","","","","","","","","","","","","","","","","","","",""
"","do_trial","280","1492030","0.0-146.0-0.0","2695.60000000149","","","","","","","","51","1,0,0","2","coast","74","probe-51","0.3599077531025868","0.47122595426033576","0.10045576266594637","0","","","","","","","",""
"","html-keyboard-response","281","1493035","0.0-146.0-1.0","null","<p></p>","null","","","","","","","","","","","","","","","","","","","","","","",""
"","do_trial","282","1498517","0.0-147.0-0.0","935.1000000014901","","","","","","","","49","0,0,1","2","coast","75","probe-42","0.18305449911506239","0.5638974318877911","0.06564766295748144","0","","","","","","","",""
"","html-keyboard-response","283","1499523","0.0-147.0-1.0","null","<p></p>","null","","","","","","","","","","","","","","","","","","","","","","",""
"","do_trial","284","1506542","0.0-148.0-0.0","2472.6999999955297","","","","","","","","50","1,1,0","2","coast","76","probe-141","0.3241637873762535","0.6912005111892525","0.10977163707642033","1","","","","","","","",""
"","html-keyboard-response","285","1507548","0.0-148.0-1.0","null","<p></p>","null","","","","","","","","","","","","","","","","","","","","","","",""
"","do_trial","286","1512399","0.0-149.0-0.0","300.79999999701977","","","","","","","","50","0,1,0","2","coast","77","probe-16","0.3289891265672787","0.630937334435127","0.24756454632292865","1","","","","","","","",""
"","html-keyboard-response","287","1513402","0.0-149.0-1.0","null","<p></p>","null","","","","","","","","","","","","","","","","","","","","","","",""
"","do_trial","288","1519326","0.0-150.0-0.0","1377.8999999985099","","","","","","","","49","0,1,1","2","coast","78","probe-29","0.19260742659601712","0.5857775911366743","0.2895958225976567","0","","","","","","","",""
"","html-keyboard-response","289","1520330","0.0-150.0-1.0","null","<p></p>","null","","","","","","","","","","","","","","","","","","","","","","",""
"","do_trial","290","1526137","0.0-151.0-0.0","1256.3000000044703","","","","","","","","50","0,0,0","2","coast","79","probe-209","0.0705353395474539","0.5897998438067156","0.06358446853401241","0","","","","","","","",""
"","html-keyboard-response","291","1527142","0.0-151.0-1.0","null","<p></p>","null","","","","","","","","","","","","","","","","","","","","","","",""
"","do_trial","292","1532302","0.0-152.0-0.0","613","","","","","","","","51","0,0,1","2","coast","80","probe-220","0.2852163461313288","0.5106633457829711","0.06341680326621715","1","","","","","","","",""
"","html-keyboard-response","293","1533307","0.0-152.0-1.0","null","<p></p>","null","","","","","","","","","","","","","","","","","","","","","","",""
"","do_trial","294","1539092","0.0-153.0-0.0","1234.8999999985099","","","","","","","","50","0,0,0","2","coast","81","probe-212","0.27675166227684633","0.5038611822115918","0.07342568284989984","0","","","","","","","",""
"","html-keyboard-response","295","1540097","0.0-153.0-1.0","null","<p></p>","null","","","","","","","","","","","","","","","","","","","","","","",""
"","do_trial","296","1545695","0.0-154.0-0.0","1039.1000000014901","","","","","","","","49","0,1,1","2","coast","82","probe-204","0.46504426920917186","0.46740045538902786","0.27792823574286735","0","","","","","","","",""
"","html-keyboard-response","297","1546702","0.0-154.0-1.0","null","<p></p>","null","","","","","","","","","","","","","","","","","","","","","","",""
"","do_trial","298","1552208","0.0-155.0-0.0","960.7999999970198","","","","","","","","51","1,0,0","2","coast","83","probe-46","0.4769256840906488","0.2316707824283931","0.3437606786338451","0","","","","","","","",""
"","html-keyboard-response","299","1553213","0.0-155.0-1.0","null","<p></p>","null","","","","","","","","","","","","","","","","","","","","","","",""
"","do_trial","300","1558139","0.0-156.0-0.0","379.8999999985099","","","","","","","","50","1,0,0","2","coast","84","probe-65","0.587623709235229","0.19976305948026724","0.3732787512985243","0","","","","","","","",""
"","html-keyboard-response","301","1559145","0.0-156.0-1.0","null","<p></p>","null","","","","","","","","","","","","","","","","","","","","","","",""
"","do_trial","302","1565864","0.0-157.0-0.0","2169.4000000059605","","","","","","","","50","1,0,0","2","coast","85","probe-70","0.5861722368673719","0.19823293018682503","0.3544493291545671","0","","","","","","","",""
"","html-keyboard-response","303","1566870","0.0-157.0-1.0","null","<p></p>","null","","","","","","","","","","","","","","","","","","","","","","",""
"","do_trial","304","1572013","0.0-158.0-0.0","594","","","","","","","","49","1,0,0","2","coast","86","probe-176","0.7038358600834682","0.1011175208831242","0.23069510432633858","1","","","","","","","",""
"","html-keyboard-response","305","1573020","0.0-158.0-1.0","null","<p></p>","null","","","","","","","","","","","","","","","","","","","","","","",""
"","do_trial","306","1580078","0.0-159.0-0.0","2511.10000000149","","","","","","","","49","1,0,0","2","coast","87","probe-210","0.7051862156214342","0.11237821964887008","0.23234732029542024","1","","","","","","","",""
"","html-keyboard-response","307","1581083","0.0-159.0-1.0","null","<p></p>","null","","","","","","","","","","","","","","","","","","","","","","",""
"","do_trial","308","1587222","0.0-160.0-0.0","1589.6000000014901","","","","","","","","50","0,1,0","2","coast","88","probe-227","0.781250805766907","0.17821923785960012","0.3060760943866707","1","","","","","","","",""
"","html-keyboard-response","309","1588228","0.0-160.0-1.0","null","<p></p>","null","","","","","","","","","","","","","","","","","","","","","","",""
"","do_trial","310","1594067","0.0-161.0-0.0","1286.8999999985099","","","","","","","","49","1,1,0","2","coast","89","probe-173","0.8496359428693434","0.1318777737459476","0.2881027933142873","1","","","","","","","",""
"","html-keyboard-response","311","1595072","0.0-161.0-1.0","null","<p></p>","null","","","","","","","","","","","","","","","","","","","","","","",""
"","do_trial","312","1600054","0.0-162.0-0.0","432.29999999701977","","","","","","","","49","0,0,0","2","coast","90","probe-155","0.6951211843852741","0.14518046984992725","0.42552812224318737","0","","","","","","","",""
"","html-keyboard-response","313","1601061","0.0-162.0-1.0","null","<p></p>","null","","","","","","","","","","","","","","","","","","","","","","",""
"","do_trial","314","1606210","0.0-163.0-0.0","599.8999999985099","","","","","","","","50","1,0,0","2","coast","91","probe-80","0.577233842608664","0.10666697883835281","0.2181633315313564","0","","","","","","","",""
"","html-keyboard-response","315","1607215","0.0-163.0-1.0","null","<p></p>","null","","","","","","","","","","","","","","","","","","","","","","",""
"","do_trial","316","1612505","0.0-164.0-0.0","734.8999999985099","","","","","","","","51","0,0,0","2","coast","92","probe-103","0.5436973711623346","0.06268169799705307","0.2545120117260583","0","","","","","","","",""
"","html-keyboard-response","317","1613508","0.0-164.0-1.0","null","<p></p>","null","","","","","","","","","","","","","","","","","","","","","","",""
"","do_trial","318","1619104","0.0-165.0-0.0","1046.3999999985099","","","","","","","","50","0,0,0","2","coast","93","probe-69","0.5548201104995545","0.07733385887564015","0.22050869006230522","0","","","","","","","",""
"","html-keyboard-response","319","1620106","0.0-165.0-1.0","null","<p></p>","null","","","","","","","","","","","","","","","","","","","","","","",""
"","do_trial","320","1625174","0.0-166.0-0.0","518.7999999970198","","","","","","","","49","0,0,1","2","coast","94","probe-123","0.5165349203126823","0.08804721704663665","0.3249583820643826","0","","","","","","","",""
"","html-keyboard-response","321","1626180","0.0-166.0-1.0","null","<p></p>","null","","","","","","","","","","","","","","","","","","","","","","",""
"","do_trial","322","1631106","0.0-167.0-0.0","380.6000000014901","","","","","","","","51","0,0,0","2","coast","95","probe-174","0.5405063803376308","0.08245691997591278","0.4057778716358036","0","","","","","","","",""
"","html-keyboard-response","323","1632109","0.0-167.0-1.0","null","<p></p>","null","","","","","","","","","","","","","","","","","","","","","","",""
"","do_trial","324","1637232","0.0-168.0-0.0","573.5999999940395","","","","","","","","50","0,0,0","2","coast","96","probe-110","0.645267367166623","0.06348691606807465","0.34235724088244196","0","","","","","","","",""
"","html-keyboard-response","325","1638239","0.0-168.0-1.0","null","<p></p>","null","","","","","","","","","","","","","","","","","","","","","","",""
"","do_trial","326","1643248","0.0-169.0-0.0","461.8999999985099","","","","","","","","49","1,0,0","2","coast","97","probe-30","0.6399156756855476","0.052078235886667684","0.24077978930032654","1","","","","","","","",""
"","html-keyboard-response","327","1644255","0.0-169.0-1.0","null","<p></p>","null","","","","","","","","","","","","","","","","","","","","","","",""
"","do_trial","328","1649275","0.0-170.0-0.0","471.70000000298023","","","","","","","","51","1,0,0","2","coast","98","probe-45","0.6025415069167311","0.07981680460691697","0.18965615064690397","0","","","","","","","",""
"","html-keyboard-response","329","1650282","0.0-170.0-1.0","null","<p></p>","null","","","","","","","","","","","","","","","","","","","","","","",""
"","do_trial","330","1655392","0.0-171.0-0.0","564.3999999985099","","","","","","","","49","0,0,1","2","coast","99","probe-59","0.5525799984878726","0.08971640483204305","0.29522218596401567","0","","","","","","","",""
"","html-keyboard-response","331","1656398","0.0-171.0-1.0","null","<p></p>","null","","","","","","","","","","","","","","","","","","","","","","",""
"","do_trial","332","1661452","0.0-172.0-0.0","509.19999999552965","","","","","","","","50","0,0,0","2","coast","100","probe-194","0.5612996120517223","0.07748343313575608","0.3336552907810921","0","","","","","","","",""
"","html-keyboard-response","333","1662458","0.0-172.0-1.0","null","<p></p>","null","","","","","","","","","","","","","","","","","","","","","","",""
"","do_trial","334","1667306","0.0-173.0-0.0","302.5","","","","","","","","51","0,0,1","2","coast","101","probe-131","0.6717724441996729","0.15315563507533306","0.24219278931678417","1","","","","","","","",""
"","html-keyboard-response","335","1668313","0.0-173.0-1.0","null","<p></p>","null","","","","","","","","","","","","","","","","","","","","","","",""
"","do_trial","336","1673299","0.0-174.0-0.0","440.5","","","","","","","","51","0,0,0","2","coast","102","probe-95","0.5902033010062835","0.16294738447185098","0.2788060211765252","0","","","","","","","",""
"","html-keyboard-response","337","1674302","0.0-174.0-1.0","null","<p></p>","null","","","","","","","","","","","","","","","","","","","","","","",""
"","do_trial","338","1679894","0.0-175.0-0.0","1048.5","","","","","","","","50","0,0,1","2","coast","103","probe-169","0.5510547559436719","0.1511766632618896","0.2788094613888492","0","","","","","","","",""
"","html-keyboard-response","339","1680899","0.0-175.0-1.0","null","<p></p>","null","","","","","","","","","","","","","","","","","","","","","","",""
"","do_trial","340","1686598","0.0-176.0-0.0","1147.8999999985099","","","","","","","","50","0,0,1","2","coast","104","probe-163","0.3841125671693924","0.060144195872987714","0.3218541036751042","0","","","","","","","",""
"","html-keyboard-response","341","1687604","0.0-176.0-1.0","null","<p></p>","null","","","","","","","","","","","","","","","","","","","","","","",""
"","do_trial","342","1692722","0.0-177.0-0.0","565.2999999970198","","","","","","","","49","1,0,0","2","coast","105","probe-218","0.6038091602954705","0.06863711159955015","0.48968284779852","1","","","","","","","",""
"","html-keyboard-response","343","1693728","0.0-177.0-1.0","null","<p></p>","null","","","","","","","","","","","","","","","","","","","","","","",""
"","do_trial","344","1699899","0.0-178.0-0.0","1619.7999999970198","","","","","","","","49","1,0,0","2","coast","106","probe-49","0.6847017403948121","0.09957741642317318","0.4208584789684452","1","","","","","","","",""
"","html-keyboard-response","345","1700905","0.0-178.0-1.0","null","<p></p>","null","","","","","","","","","","","","","","","","","","","","","","",""
"","do_trial","346","1705827","0.0-179.0-0.0","376.79999999701977","","","","","","","","50","0,0,0","2","coast","107","probe-205","0.6584205072901083","0.2503287192793955","0.3822918582682546","0","","","","","","","",""
"","html-keyboard-response","347","1706832","0.0-179.0-1.0","null","<p></p>","null","","","","","","","","","","","","","","","","","","","","","","",""
"","do_trial","348","1712162","0.0-180.0-0.0","776.5","","","","","","","","49","1,0,1","2","coast","108","probe-197","0.5743958462723445","0.23074640146220862","0.3630104941075409","1","","","","","","","",""
"","html-keyboard-response","349","1713169","0.0-180.0-1.0","null","<p></p>","null","","","","","","","","","","","","","","","","","","","","","","",""
"","do_trial","350","1718174","0.0-181.0-0.0","457","","","","","","","","50","0,0,1","2","coast","109","probe-219","0.7531635763318394","0.06794927566038046","0.559324337873901","0","","","","","","","",""
"","html-keyboard-response","351","1719179","0.0-181.0-1.0","null","<p></p>","null","","","","","","","","","","","","","","","","","","","","","","",""
"","do_bye","352","1720688","0.0-182.0-0.0","null","","","","","","","","null","","","","","","","","","","","","","","","","",""
"","break","353","1765289","0.0-182.0-1.0","44596.70000000298","<div class='center'><p>Time to take a quick break! You have 2 minutes to rest, but you can move on sooner if you'd like.</p><p> Press the <b>space bar</b> to continue.</p></div>","32","","","","","","","","","","","","","","","","","","","","","","",""
"","do_travel","354","1774299","0.0-183.0-0.0","null","","","","","","","","null","","","","","","","","","","","","","","","","",""
"","do_welcome","355","1778308","0.0-183.0-1.0","null","","","","","","","","null","","","","","","","","","","","","","","","","",""
"","do_trial","356","1785017","0.0-184.0-0.0","2160.7999999970198","","","","","","","","50","1,0,1","3","highway","110","probe-92","1","0.0747455669692123","0.4574710046380448","0","","","","","","","",""
"","html-keyboard-response","357","1786022","0.0-184.0-1.0","null","<p></p>","null","","","","","","","","","","","","","","","","","","","","","","",""
"","do_trial","358","1791086","0.0-185.0-0.0","483.79999999701977","","","","","","","","49","1,0,1","3","highway","111","probe-213","1","0.06940619505831461","0.35066980847564816","1","","","","","","","",""
"","html-keyboard-response","359","1792093","0.0-185.0-1.0","null","<p></p>","null","","","","","","","","","","","","","","","","","","","","","","",""
"","do_trial","360","1798677","0.0-186.0-0.0","2030.6999999955297","","","","","","","","50","1,0,1","3","highway","112","probe-190","0.8119904389614213","0.05544483643242122","0.3602237591658004","0","","","","","","","",""
"","html-keyboard-response","361","1799683","0.0-186.0-1.0","null","<p></p>","null","","","","","","","","","","","","","","","","","","","","","","",""
"","do_trial","362","1804539","0.0-187.0-0.0","308","","","","","","","","49","1,1,0","3","highway","113","probe-33","0.7273659779349094","0.054684518549121916","0.3549968750067007","1","","","","","","","",""
"","html-keyboard-response","363","1805545","0.0-187.0-1.0","null","<p></p>","null","","","","","","","","","","","","","","","","","","","","","","",""
"","do_trial","364","1810452","0.0-188.0-0.0","357.3999999985099","","","","","","","","51","1,0,1","3","highway","114","probe-157","0.6175412794969815","0.06161546167195653","0.4248339230133092","1","","","","","","","",""
"","html-keyboard-response","365","1811454","0.0-188.0-1.0","null","<p></p>","null","","","","","","","","","","","","","","","","","","","","","","",""
"","do_trial","366","1816445","0.0-189.0-0.0","441.79999999701977","","","","","","","","51","1,0,0","3","highway","115","probe-125","0.6069983674774418","0.08629770950303359","0.22782103175341042","0","","","","","","","",""
"","html-keyboard-response","367","1817450","0.0-189.0-1.0","null","<p></p>","null","","","","","","","","","","","","","","","","","","","","","","",""
"","do_trial","368","1822373","0.0-190.0-0.0","371.3999999985099","","","","","","","","49","1,0,0","3","highway","116","probe-108","0.5147277768694495","0.09814813929925649","0.28864910876598715","1","","","","","","","",""
"","html-keyboard-response","369","1823375","0.0-190.0-1.0","null","<p></p>","null","","","","","","","","","","","","","","","","","","","","","","",""
"","do_trial","370","1829147","0.0-191.0-0.0","1224.1000000014901","","","","","","","","49","0,0,1","3","highway","117","probe-196","0.6024874192250421","0.0939288578831416","0.3157659201536233","0","","","","","","","",""
"","html-keyboard-response","371","1830150","0.0-191.0-1.0","null","<p></p>","null","","","","","","","","","","","","","","","","","","","","","","",""
"","do_trial","372","1835477","0.0-192.0-0.0","785.9000000059605","","","","","","","","50","0,0,0","3","highway","118","probe-76","0.6677661454575301","0.11738399932463743","0.3313931927752985","0","","","","","","","",""
"","html-keyboard-response","373","1836480","0.0-192.0-1.0","null","<p></p>","null","","","","","","","","","","","","","","","","","","","","","","",""
"","do_trial","374","1841849","0.0-193.0-0.0","821","","","","","","","","49","0,1,1","3","highway","119","probe-15","0.5447323971969181","0.16806286867088935","0.2625076477757","0","","","","","","","",""
"","html-keyboard-response","375","1842854","0.0-193.0-1.0","null","<p></p>","null","","","","","","","","","","","","","","","","","","","","","","",""
"","do_trial","376","1847460","0.0-194.0-0.0","59.099999994039536","","","","","","","","51","1,0,1","3","highway","120","probe-55","0.49903526850747254","0.11552625290338249","0.23384021311385916","1","","","","","","","",""
"","html-keyboard-response","377","1848467","0.0-194.0-1.0","null","<p></p>","null","","","","","","","","","","","","","","","","","","","","","","",""
"","do_trial","378","1855097","0.0-195.0-0.0","2077.10000000149","","","","","","","","49","0,0,0","3","highway","121","probe-132","0.504276896290378","0.12824608136329232","0.22382030756181162","0","","","","","","","",""
"","html-keyboard-response","379","1856104","0.0-195.0-1.0","null","<p></p>","null","","","","","","","","","","","","","","","","","","","","","","",""
"","do_trial","380","1861131","0.0-196.0-0.0","480.59999999403954","","","","","","","","50","0,1,0","3","highway","122","probe-200","0.5004134610828336","0.2113517074819918","0.16223027537624282","1","","","","","","","",""
"","html-keyboard-response","381","1862137","0.0-196.0-1.0","null","<p></p>","null","","","","","","","","","","","","","","","","","","","","","","",""
"","do_trial","382","1867156","0.0-197.0-0.0","475.1000000014901","","","","","","","","50","1,0,0","3","highway","123","probe-138","0.461101022779917","0.28008717835463137","0.10953686012791664","0","","","","","","","",""
"","html-keyboard-response","383","1868161","0.0-197.0-1.0","null","<p></p>","null","","","","","","","","","","","","","","","","","","","","","","",""
"","do_trial","384","1874224","0.0-198.0-0.0","1514.2000000029802","","","","","","","","49","0,1,0","3","highway","124","probe-54","0.4953412673711196","0.4088075187119646","0.10482515657535954","0","","","","","","","",""
"","html-keyboard-response","385","1875231","0.0-198.0-1.0","null","<p></p>","null","","","","","","","","","","","","","","","","","","","","","","",""
"","do_trial","386","1880172","0.0-199.0-0.0","392.1000000014901","","","","","","","","51","0,0,0","3","highway","125","probe-122","0.34205174700380225","0.503987608204603","0.09280403640553829","0","","","","","","","",""
"","html-keyboard-response","387","1881178","0.0-199.0-1.0","null","<p></p>","null","","","","","","","","","","","","","","","","","","","","","","",""
"","do_trial","388","1886055","0.0-200.0-0.0","321.30000000447035","","","","","","","","49","0,1,0","3","highway","126","probe-82","0.2574522648855838","0.5524906380792516","0.0763252145870143","0","","","","","","","",""
"","html-keyboard-response","389","1887059","0.0-200.0-1.0","null","<p></p>","null","","","","","","","","","","","","","","","","","","","","","","",""
"","do_trial","390","1892126","0.0-201.0-0.0","517.5","","","","","","","","50","0,0,0","3","highway","127","probe-172","0.198585890124776","0.53669269456975","0.11911987898000663","0","","","","","","","",""
"","html-keyboard-response","391","1893130","0.0-201.0-1.0","null","<p></p>","null","","","","","","","","","","","","","","","","","","","","","","",""
"","do_trial","392","1898532","0.0-202.0-0.0","858.8000000044703","","","","","","","","51","0,1,0","3","highway","128","probe-99","0.20306008687010293","0.6208196741649115","0.17806908211675865","0","","","","","","","",""
"","html-keyboard-response","393","1899537","0.0-202.0-1.0","null","<p></p>","null","","","","","","","","","","","","","","","","","","","","","","",""
"","do_trial","394","1904610","0.0-203.0-0.0","527.6000000014901","","","","","","","","49","0,1,1","3","highway","129","probe-07","0.34225170786654807","0.6387432698671666","0.2701397780007251","0","","","","","","","",""
"","html-keyboard-response","395","1905614","0.0-203.0-1.0","null","<p></p>","null","","","","","","","","","","","","","","","","","","","","","","",""
"","do_trial","396","1910583","0.0-204.0-0.0","418.20000000298023","","","","","","","","49","1,1,0","3","highway","130","probe-50","0.27674538413494887","0.6804646533285091","0.24316501426282178","1","","","","","","","",""
"","html-keyboard-response","397","1911588","0.0-204.0-1.0","null","<p></p>","null","","","","","","","","","","","","","","","","","","","","","","",""
"","do_trial","398","1917641","0.0-205.0-0.0","null","","","","","","","","null","0,1,0","3","highway","131","probe-116","0.39172815900305424","0.5326350237819003","0.08619948250290117","","","","","","","","",""
"","html-keyboard-response","399","1918647","0.0-205.0-1.0","null","<p></p>","null","","","","","","","","","","","","","","","","","","","","","","",""
"","do_trial","400","1924448","0.0-206.0-0.0","1250.8999999985099","","","","","","","","49","0,0,0","3","highway","132","probe-81","0.4096376008248434","0.4396360663221968","0.10907227700469316","0","","","","","","","",""
"","html-keyboard-response","401","1925454","0.0-206.0-1.0","null","<p></p>","null","","","","","","","","","","","","","","","","","","","","","","",""
"","do_trial","402","1931614","0.0-207.0-0.0","1611.7999999970198","","","","","","","","50","1,1,0","3","highway","133","probe-161","0.40351070382288096","0.5817679308487255","0.1960817415600237","1","","","","","","","",""
"","html-keyboard-response","403","1932621","0.0-207.0-1.0","null","<p></p>","null","","","","","","","","","","","","","","","","","","","","","","",""
"","do_trial","404","1937553","0.0-208.0-0.0","382.6000000014901","","","","","","","","50","0,1,1","3","highway","134","probe-91","0.500209798225856","0.5958584667980739","0.22901766616272162","1","","","","","","","",""
"","html-keyboard-response","405","1938554","0.0-208.0-1.0","null","<p></p>","null","","","","","","","","","","","","","","","","","","","","","","",""
"","do_trial","406","1944852","0.0-209.0-0.0","1751.8999999985099","","","","","","","","51","1,0,0","3","highway","135","probe-150","0.3690002578046582","0.7124729643343173","0.24896399041254427","0","","","","","","","",""
"","html-keyboard-response","407","1945857","0.0-209.0-1.0","null","<p></p>","null","","","","","","","","","","","","","","","","","","","","","","",""
"","do_trial","408","1951705","0.0-210.0-0.0","1301","","","","","","","","50","1,0,0","3","highway","136","probe-171","0.3889682296079964","0.5506890286610114","0.23332102255655265","0","","","","","","","",""
"","html-keyboard-response","409","1952712","0.0-210.0-1.0","null","<p></p>","null","","","","","","","","","","","","","","","","","","","","","","",""
"","do_trial","410","1958053","0.0-211.0-0.0","789.1000000014901","","","","","","","","49","0,0,0","3","highway","137","probe-90","0.21734786857989818","0.45451639114886905","0.1601987047296754","0","","","","","","","",""
"","html-keyboard-response","411","1959054","0.0-211.0-1.0","null","<p></p>","null","","","","","","","","","","","","","","","","","","","","","","",""
"","do_trial","412","1964946","0.0-212.0-0.0","1339.3999999985099","","","","","","","","50","0,1,0","3","highway","138","probe-159","0.28258169838689967","0.4032890661201587","0.1345551575576185","1","","","","","","","",""
"","html-keyboard-response","413","1965952","0.0-212.0-1.0","null","<p></p>","null","","","","","","","","","","","","","","","","","","","","","","",""
"","do_trial","414","1971998","0.0-213.0-0.0","null","","","","","","","","null","0,0,0","3","highway","139","probe-162","0.35787469021851104","0.3698905201544209","0.07951274947752095","","","","","","","","",""
"","html-keyboard-response","415","1973004","0.0-213.0-1.0","null","<p></p>","null","","","","","","","","","","","","","","","","","","","","","","",""
"","do_trial","416","1979079","0.0-214.0-0.0","1527.5","","","","","","","","49","1,0,0","3","highway","140","probe-115","0.35364385677675986","0.31898353530724616","0.1647218605644811","1","","","","","","","",""
"","html-keyboard-response","417","1980084","0.0-214.0-1.0","null","<p></p>","null","","","","","","","","","","","","","","","","","","","","","","",""
"","do_trial","418","1986118","0.0-215.0-0.0","1484.8000000044703","","","","","","","","49","1,0,0","3","highway","141","probe-08","0.45749569317010186","0.5109243103321671","0.15348346686164369","1","","","","","","","",""
"","html-keyboard-response","419","1987124","0.0-215.0-1.0","null","<p></p>","null","","","","","","","","","","","","","","","","","","","","","","",""
"","do_trial","420","1993309","0.0-216.0-0.0","1636.2999999970198","","","","","","","","49","1,0,0","3","highway","142","probe-114","0.48918894387978706","0.39326101069528824","0.12896010169174724","1","","","","","","","",""
"","html-keyboard-response","421","1994311","0.0-216.0-1.0","null","<p></p>","null","","","","","","","","","","","","","","","","","","","","","","",""
"","do_trial","422","2000902","0.0-217.0-0.0","2041.8999999985099","","","","","","","","50","0,0,0","3","highway","143","probe-215","0.5266874779840175","0.6087868543992717","0.12249790062393862","0","","","","","","","",""
"","html-keyboard-response","423","2001903","0.0-217.0-1.0","null","<p></p>","null","","","","","","","","","","","","","","","","","","","","","","",""
"","do_trial","424","2006746","0.0-218.0-0.0","299.40000000596046","","","","","","","","49","0,1,0","3","highway","144","probe-129","0.4557277540951336","0.5930526984329977","0.0917115259307123","0","","","","","","","",""
"","html-keyboard-response","425","2007752","0.0-218.0-1.0","null","<p></p>","null","","","","","","","","","","","","","","","","","","","","","","",""
"","do_trial","426","2012673","0.0-219.0-0.0","369.19999999552965","","","","","","","","51","0,1,0","3","highway","145","probe-02","0.4612341350162772","0.6236843520837281","0.06517739121074392","0","","","","","","","",""
"","html-keyboard-response","427","2013680","0.0-219.0-1.0","null","<p></p>","null","","","","","","","","","","","","","","","","","","","","","","",""
"","do_trial","428","2018586","0.0-220.0-0.0","358.8999999985099","","","","","","","","50","0,0,1","3","highway","146","probe-66","0.48734767780143756","0.46916939253435147","0.2318302234148446","0","","","","","","","",""
"","html-keyboard-response","429","2019592","0.0-220.0-1.0","null","<p></p>","null","","","","","","","","","","","","","","","","","","","","","","",""
"","do_trial","430","2025486","0.0-221.0-0.0","1348.7000000029802","","","","","","","","49","0,1,0","3","highway","147","probe-72","0.5034550440332134","0.5650863806519799","0.1380451643156987","0","","","","","","","",""
"","html-keyboard-response","431","2026493","0.0-221.0-1.0","null","<p></p>","null","","","","","","","","","","","","","","","","","","","","","","",""
"","do_trial","432","2033785","0.0-222.0-0.0","2744.5","","","","","","","","49","0,1,0","3","highway","148","probe-221","0.4923272770772632","0.5049047999693052","0.0770885904181384","0","","","","","","","",""
"","html-keyboard-response","433","2034787","0.0-222.0-1.0","null","<p></p>","null","","","","","","","","","","","","","","","","","","","","","","",""
"","do_trial","434","2040619","0.0-223.0-0.0","1276","","","","","","","","49","1,1,0","3","highway","149","probe-201","0.22165645429532468","0.45213491982179976","0.08762030438689268","1","","","","","","","",""
"","html-keyboard-response","435","2041624","0.0-223.0-1.0","null","<p></p>","null","","","","","","","","","","","","","","","","","","","","","","",""
"","do_bye","436","2043130","0.0-224.0-0.0","null","","","","","","","","null","","","","","","","","","","","","","","","","",""
"","break","437","2143356","0.0-224.0-1.0","100221","<div class='center'><p>Time to take a quick break! You have 2 minutes to rest, but you can move on sooner if you'd like.</p><p> Press the <b>space bar</b> to continue.</p></div>","32","","","","","","","","","","","","","","","","","","","","","","",""
"","do_travel","438","2152363","0.0-225.0-0.0","null","","","","","","","","null","","","","","","","","","","","","","","","","",""
"","do_welcome","439","2156374","0.0-225.0-1.0","null","","","","","","","","null","","","","","","","","","","","","","","","","",""
"","do_trial","440","2162429","0.0-226.0-0.0","1504.3999999985099","","","","","","","","49","0,1,0","4","mountain","150","probe-208","0.31594668487881344","1","0.1321870355698128","0","","","","","","","",""
"","html-keyboard-response","441","2163435","0.0-226.0-1.0","null","<p></p>","null","","","","","","","","","","","","","","","","","","","","","","",""
"","do_trial","442","2168336","0.0-227.0-0.0","352.29999999701977","","","","","","","","50","0,1,0","4","mountain","151","probe-31","0.2589823655713548","1","0.3344525171555999","1","","","","","","","",""
"","html-keyboard-response","443","2169339","0.0-227.0-1.0","null","<p></p>","null","","","","","","","","","","","","","","","","","","","","","","",""
"","do_trial","444","2174345","0.0-228.0-0.0","449.09999999403954","","","","","","","","51","0,1,1","4","mountain","152","probe-180","0.24899958783801882","0.9042035790694312","0.19376915661929558","1","","","","","","","",""
"","html-keyboard-response","445","2175348","0.0-228.0-1.0","null","<p></p>","null","","","","","","","","","","","","","","","","","","","","","","",""
"","do_trial","446","2180699","0.0-229.0-0.0","806","","","","","","","","50","0,1,1","4","mountain","153","probe-211","0.3035121736831363","0.7551055639382327","0.1643681564381131","1","","","","","","","",""
"","html-keyboard-response","447","2181704","0.0-229.0-1.0","null","<p></p>","null","","","","","","","","","","","","","","","","","","","","","","",""
"","do_trial","448","2186981","0.0-230.0-0.0","732.8999999985099","","","","","","","","49","0,1,0","4","mountain","154","probe-160","0.248516528569143","0.638802825208569","0.21758029663755757","0","","","","","","","",""
"","html-keyboard-response","449","2187986","0.0-230.0-1.0","null","<p></p>","null","","","","","","","","","","","","","","","","","","","","","","",""
"","do_trial","450","2193007","0.0-231.0-0.0","464.3999999985099","","","","","","","","50","0,0,1","4","mountain","155","probe-226","0.3159542541182094","0.5366082329547323","0.1168082691983938","0","","","","","","","",""
"","html-keyboard-response","451","2194013","0.0-231.0-1.0","null","<p></p>","null","","","","","","","","","","","","","","","","","","","","","","",""
"","do_trial","452","2198889","0.0-232.0-0.0","326.80000000447035","","","","","","","","51","0,0,1","4","mountain","156","probe-148","0.20594909989484705","0.538846593825921","0.08079249301177957","1","","","","","","","",""
"","html-keyboard-response","453","2199895","0.0-232.0-1.0","null","<p></p>","null","","","","","","","","","","","","","","","","","","","","","","",""
"","do_trial","454","2204969","0.0-233.0-0.0","524.8999999985099","","","","","","","","50","0,1,0","4","mountain","157","probe-154","0.33457586652166527","0.44616568458939787","0.15452533559784398","1","","","","","","","",""
"","html-keyboard-response","455","2205975","0.0-233.0-1.0","null","<p></p>","null","","","","","","","","","","","","","","","","","","","","","","",""
"","do_trial","456","2210954","0.0-234.0-0.0","432.5","","","","","","","","50","0,0,0","4","mountain","158","probe-177","0.36863697718786403","0.5644893279101297","0.16894292185776355","0","","","","","","","",""
"","html-keyboard-response","457","2211960","0.0-234.0-1.0","null","<p></p>","null","","","","","","","","","","","","","","","","","","","","","","",""
"","do_trial","458","2217384","0.0-235.0-0.0","872.5","","","","","","","","51","0,1,0","4","mountain","159","probe-78","0.313562841007264","0.7187943441778676","0.18154358691269282","0","","","","","","","",""
"","html-keyboard-response","459","2218388","0.0-235.0-1.0","null","<p></p>","null","","","","","","","","","","","","","","","","","","","","","","",""
"","do_trial","460","2223464","0.0-236.0-0.0","531.5","","","","","","","","49","0,1,0","4","mountain","160","probe-124","0.3102425814928839","0.6686103940791727","0.16751674046526305","0","","","","","","","",""
"","html-keyboard-response","461","2224466","0.0-236.0-1.0","null","<p></p>","null","","","","","","","","","","","","","","","","","","","","","","",""
"","do_trial","462","2230137","0.0-237.0-0.0","1122.8999999985099","","","","","","","","50","0,1,1","4","mountain","161","probe-202","0.33767806998910965","0.6573235241599596","0.27767375309815306","1","","","","","","","",""
"","html-keyboard-response","463","2231142","0.0-237.0-1.0","null","<p></p>","null","","","","","","","","","","","","","","","","","","","","","","",""
