"success","trial_type","trial_index","time_elapsed","internal_node_id","rt","stimulus","key_press","subject_id","response","choice_outcomes","context_n","context_img_id","trial_n","probe_img_id","pR_red","pR_white","pR_black","outcome","contextArray_ind","validImageProbes","invalidImageProbes","pRew_Red","pRew_White","pRew_Black","availableForMemProbe","choice_blocks"
"true","fullscreen","0","6155","0.0-0.0","","","","","","","","","","","","","","","","","","","","","",""
"","pavlovia","1","6157","0.0-1.0","","","","","","","","","","","","","","","","","","","","","",""
"","html-keyboard-response","2","14544","0.0-2.0","8386.5","<div class='center'><p>Welcome! This is the first day of the experiment which will last ~30 minutes. In this experiment, you are the head captain of a pirate ship traveling around the world to different places. You will complete several different tasks during this experiment. Here is an overview of these tasks:</p><br><p>Day 1</p><p>1. Tutorial and quiz</p><p>2. Pick a pirate game in 6 different places</p><br><p>Day 2</p><p>3. Pick a pirate game and memory game</p><p>4. Final questions and payment</p><br><p>If you complete the entire experiment, you will receive $15 and a possible bonus payment.</p><p><b>[Press the space bar to begin the tutorial]</b></p></div>","32","61006c4980155934192a124f","","","","","","","","","","","","","","","","","",""
"","html-keyboard-response","3","20756","0.0-3.0","6211.100000008941","<div class='center'><p>You’ll stop at these 6 islands on your journey. You'll be able to see them in the distance from your ship.</p><p><img src='run_exp/static/images/contexts/all_contexts.png' height='500'></p><p><b>[Press the space bar to continue]</b></p></div>","32","","","","","","","","","","","","","","","","","","",""
"","html-keyboard-response","4","28535","0.0-4.0","7778.600000008941","<div class='center'><p> The pirates on your ship will rob other ships as they leave island</p> These ships have just sold their things to the people living on the island, so they will have lots and lots of gold on them.</p><p><img src='run_exp/static/images/tutorial/ship_center.png' height='400'></p><p><b>[Press the space bar to continue]</b></p></div>","32","","","","","","","","","","","","","","","","","","",""
"","html-keyboard-response","5","38656","0.0-5.0","10120.10000000894","<div class='center'><p>As the head captain, you do not have to rob any ships yourself.</p><p>Another pirate will be doing the robbing for you. </p><p><img src='run_exp/static/images/tutorial/pirates_all_crop.png' height='200'></p><p>If they could rob the ship, then you will get a stack of gold coins like this:</p><p><img src='run_exp/static/images/tutorial/reward.png' height='150'></p><p> If they couldn't rob the ship, then you will get no gold coins and you'll see a big red x like this: </p><p><img src='run_exp/static/images/tutorial/reward_no.png' height='150'></p><p> How much bonus money you make is based on how many gold coins you collect.</p><p><b>[Press the space bar to continue]</b></p><div>","32","","","","","","","","","","","","","","","","","","",""
"","html-keyboard-response","6","48471","0.0-6.0","9814","<div class='center'><p>Even the most skilled pirate can not rob EVERY ship.</p><p> Some ships will have very strong defenses against pirate attacks.</p><p> For example, blue beard, here, is very, very good at robbing ships.</p><p> You can press the <b>‘1’</b> button on the keyboard to choose him.</p><p> Try choosing him 10 times to see how often he can rob a ship. </p><p><img src='run_exp/static/images/tutorial/blue.png' height='500'></p></div>","49","","","","","","","","","","","","","","","","","","",""
"","html-keyboard-response","7","49975","0.0-7.0","null","<div class='center'><p><img src='run_exp/static/images/tutorial/blue_win.png' height='500'></p></div>","null","","","","","","","","","","","","","","","","","","",""
"","html-keyboard-response","8","50558","0.0-8.0","583.5999999940395","<div class='center'><img src='run_exp/static/images/tutorial/blue.png' height='500'></p></div>","49","","","","","","","","","","","","","","","","","","",""
"","html-keyboard-response","9","52072","0.0-9.0","null","<div class='center'><p><img src='run_exp/static/images/tutorial/blue_win.png' height='500'></p></div>","null","","","","","","","","","","","","","","","","","","",""
"","html-keyboard-response","10","52334","0.0-10.0","260.59999999403954","<div class='center'><img src='run_exp/static/images/tutorial/blue.png' height='500'></p></div>","49","","","","","","","","","","","","","","","","","","",""
"","html-keyboard-response","11","53837","0.0-11.0","null","<div class='center'><p><img src='run_exp/static/images/tutorial/blue_win.png' height='500'></p></div>","null","","","","","","","","","","","","","","","","","","",""
"","html-keyboard-response","12","54129","0.0-12.0","291.70000000298023","<div class='center'><img src='run_exp/static/images/tutorial/blue.png' height='500'></p></div>","49","","","","","","","","","","","","","","","","","","",""
"","html-keyboard-response","13","55639","0.0-13.0","null","<div class='center'><p><img src='run_exp/static/images/tutorial/blue_no_win.png' height='500'></p></div>","null","","","","","","","","","","","","","","","","","","",""
"","html-keyboard-response","14","55898","0.0-14.0","258.30000001192093","<div class='center'><img src='run_exp/static/images/tutorial/blue.png' height='500'></p></div>","49","","","","","","","","","","","","","","","","","","",""
"","html-keyboard-response","15","57406","0.0-15.0","null","<div class='center'><p><img src='run_exp/static/images/tutorial/blue_win.png' height='500'></p></div>","null","","","","","","","","","","","","","","","","","","",""
"","html-keyboard-response","16","57414","0.0-16.0","7.299999997019768","<div class='center'><img src='run_exp/static/images/tutorial/blue.png' height='500'></p></div>","49","","","","","","","","","","","","","","","","","","",""
"","html-keyboard-response","17","58918","0.0-17.0","null","<div class='center'><p><img src='run_exp/static/images/tutorial/blue_win.png' height='500'></p></div>","null","","","","","","","","","","","","","","","","","","",""
"","html-keyboard-response","18","59179","0.0-18.0","260.5","<div class='center'><img src='run_exp/static/images/tutorial/blue.png' height='500'></p></div>","49","","","","","","","","","","","","","","","","","","",""
"","html-keyboard-response","19","60680","0.0-19.0","null","<div class='center'><p><img src='run_exp/static/images/tutorial/blue_win.png' height='500'></p></div>","null","","","","","","","","","","","","","","","","","","",""
"","html-keyboard-response","20","61054","0.0-20.0","374.29999999701977","<div class='center'><img src='run_exp/static/images/tutorial/blue.png' height='500'></p></div>","49","","","","","","","","","","","","","","","","","","",""
"","html-keyboard-response","21","62563","0.0-21.0","null","<div class='center'><p><img src='run_exp/static/images/tutorial/blue_no_win.png' height='500'></p></div>","null","","","","","","","","","","","","","","","","","","",""
"","html-keyboard-response","22","63424","0.0-22.0","860.3999999910593","<div class='center'><img src='run_exp/static/images/tutorial/blue.png' height='500'></p></div>","49","","","","","","","","","","","","","","","","","","",""
"","html-keyboard-response","23","64935","0.0-23.0","null","<div class='center'><p><img src='run_exp/static/images/tutorial/blue_win.png' height='500'></p></div>","null","","","","","","","","","","","","","","","","","","",""
"","html-keyboard-response","24","65336","0.0-24.0","400.40000000596046","<div class='center'><img src='run_exp/static/images/tutorial/blue.png' height='500'></p></div>","49","","","","","","","","","","","","","","","","","","",""
"","html-keyboard-response","25","66852","0.0-25.0","null","<div class='center'><p><img src='run_exp/static/images/tutorial/blue_win.png' height='500'></p></div>","null","","","","","","","","","","","","","","","","","","",""
"","html-keyboard-response","26","69916","0.0-26.0","3063.5","<div class='center'><p> See, he could rob the ships most of the time but not every time. </p><p><b>[Press the space bar to continue]</b></p></div>","32","","","","","","","","","","","","","","","","","","",""
"","html-keyboard-response","27","74879","0.0-27.0","4962.100000008941","<div class='center'><p>You will get to choose which of three pirates you want to rob the next ship. <p>Press the <b>‘1’</b> button on your keyboard to pick the pirate with the red beard.</p><p> Press <b>‘2’</b> to pick the pirate with the white beard.</p><p> Press <b>‘3’</b> to pick the pirate with the black beard.</p><p>Try picking a pirate now!</p><p><img src='run_exp/static/images/tutorial/all_pirates.png' height='500'></p></div>","51","","","","","","","","","","","","","","","","","","",""
"","html-keyboard-response","28","77268","0.0-28.0-0.0","2387.9000000059605","<div class='center'><p>This pirate could rob the ship!</p><p><img src='run_exp/static/images/tutorial/black_win.png' height='500'></p><p><b>[Press the space bar to continue]</b></p></div>","32","","","","","","","","","","","","","","","","","","",""
"","html-keyboard-response","29","78385","0.0-28.0-1.0","1117","<div class='center'><p>Now try choosing another</p><p><img src='run_exp/static/images/tutorial/all_pirates.png' height='500'></p></div>","50","","","","","","","","","","","","","","","","","","",""
"","html-keyboard-response","30","79466","0.0-29.0-0.0","1080.3999999910593","<div class='center'><p>This pirate could not rob the ship!</p><p><img src='run_exp/static/images/tutorial/white_no_win.png' height='500'></p><p><b>[Press the space bar to continue]</b></p></div>","32","","","","","","","","","","","","","","","","","","",""
"","html-keyboard-response","31","85617","0.0-30.0-0.0","6150.5","<div class='center'><p>If you don’t make your choice fast enough, you’ll have to wait a few seconds before you can make another one. </p><p>You can’t collect more gold coins. You just have to sit and wait.</p><p><img src='run_exp/static/images/miscellaneous/hurry_up.png' height='500'></p><p><b>[Press the space bar to continue]</b></p></div>","32","","","","","","","","","","","","","","","","","","",""
"","html-keyboard-response","32","111843","0.0-30.0-1.0","26227.30000001192","<div class='center'><p>Once you choose a pirate, you’ll be shown the ship they are robbing.</p><p>You will never rob the same ship twice.</p><p>Ships can be told apart from one another by the image on them.</p><p> Every time you see a ship, you will have to remember on which island you saw it.</p><p> Remembering correctly will help you win more bonus money!</p><p>A helpful strategy is to try to come up with a story of the object on the ship interacting with the current island scene.</p><p> For example, here, you could imagine a mug full of water in the desert. </p><p>For a ship with an apple on it on the forest island, you could imagine an apple falling from a tree in the forest.</p><p><img src='run_exp/static/images/tutorial/example_probe.png' height='500'></p><p><b>[Press the space bar to continue]</b></p></div>","32","","","","","","","","","","","","","","","","","","",""
"","html-keyboard-response","33","125528","0.0-30.0-2.0","13684.39999999106","<div class='center'><p>How good a pirate is at robbing ships will depend on the current island.</p><p> A pirate may have visited the island many times before and gained a lot of practice robbing ships there.</p><p>So, they're more likely to bring back gold coins than a pirate who has never visited this island before. </p><p><b>[Press the space bar to continue]</b></p></div>","32","","","","","","","","","","","","","","","","","","",""
"","html-keyboard-response","34","131697","0.0-30.0-3.0","6168.70000000298","<div class='center'><p>How good a pirate is at robbing ships can also change over the time spent on the island<p> Ships may hear from islanders about the pirates coming and will improve their protection against the attack. This may make it harder to rob them.</p><p> Ships may also become lazy and lower their protection. This may make it easier to rob them.</p><br><p>Things are always changing on the high seas! So, try your best to pay attention!</p><p><img src='run_exp/static/images/tutorial/contingency.png' height='500'></p><p><b>[Press the space bar to continue]</b></p></div>","32","","","","","","","","","","","","","","","","","","",""
"","html-keyboard-response","35","168811","0.0-30.0-4.0","37113.29999999702","<div class='center'><p>Let's go over the instructions quickly again.You have two important things to do: </p><b><p> 1. Pick the pirate who is the best at robbing ships on the current island.</p></b><b><p> 2. Remember on which island a ship was robbed.</p> </b><p>How much bonus money you make is based on both. </p><br><p>Let’s try a practice game. The game will start by showing you the pirates. First pick a pirate using the <b> 1, 2, 3 </b> buttons on your keyboard. When you are shown a ship, try to remember the island you’re on by making up a story.</p><p> You only have 3 seconds to pick a pirate, so please make a choice quickly! If you are too slow, you’ll have to wait a bit during the time out.</p><p> Don’t feel rushed, but please do try to make a choice every time.</p><p>This is just a practice game, so you’re not playing for money. </p><p> Good luck, remember press <b>'1'</b> to choose red beard, <b>'2'</b> to choose white beard, and <b>'3'</b> to choose black beard</p><p><b>[Press the space bar to begin the practice game]</b></p></div>","32","","","","","","","","","","","","","","","","","","",""
"","do_welcome","36","170328","0.0-30.0-5.0","null","","","","null","","","","","","","","","","","","","","","","",""
"","do_trial","37","175657","0.0-30.0-6.0","820.5999999940395","","","","50","1,0,0","","","","","","","","","","","","","","","",""
"","html-keyboard-response","38","176672","0.0-31.0-0.0","null","<p></p>","null","","","","","","","","","","","","","","","","","","",""
"","do_trial","39","181943","0.0-31.0-1.0","753","","","","49","1,1,0","","","","","","","","","","","","","","","",""
"","html-keyboard-response","40","182952","0.0-32.0-0.0","null","<p></p>","null","","","","","","","","","","","","","","","","","","",""
"","do_trial","41","188038","0.0-32.0-1.0","576.2999999970198","","","","49","1,0,1","","","","","","","","","","","","","","","",""
"","html-keyboard-response","42","189053","0.0-33.0-0.0","null","<p></p>","null","","","","","","","","","","","","","","","","","","",""
"","do_trial","43","193936","0.0-33.0-1.0","373","","","","49","0,1,0","","","","","","","","","","","","","","","",""
"","html-keyboard-response","44","194945","0.0-34.0-0.0","null","<p></p>","null","","","","","","","","","","","","","","","","","","",""
"","do_trial","45","199972","0.0-34.0-1.0","512.1999999880791","","","","49","1,0,0","","","","","","","","","","","","","","","",""
"","do_bye","46","201481","0.0-35.0-0.0","null","","","","null","","","","","","","","","","","","","","","","",""
"","do_travel","47","207487","0.0-35.0-1.0","null","","","","null","","","","","","","","","","","","","","","","",""
"","do_welcome","48","209001","0.0-35.0-2.0","null","","","","null","","","","","","","","","","","","","","","","",""
"","do_trial","49","214272","0.0-35.0-3.0","754.1000000089407","","","","50","1,0,0","","","","","","","","","","","","","","","",""
"","html-keyboard-response","50","215278","0.0-36.0-0.0","null","<p></p>","null","","","","","","","","","","","","","","","","","","",""
"","do_trial","51","220195","0.0-36.0-1.0","400.90000000596046","","","","51","1,0,1","","","","","","","","","","","","","","","",""
"","html-keyboard-response","52","221203","0.0-37.0-0.0","null","<p></p>","null","","","","","","","","","","","","","","","","","","",""
"","do_trial","53","226434","0.0-37.0-1.0","722.2999999970198","","","","51","1,1,0","","","","","","","","","","","","","","","",""
"","html-keyboard-response","54","227444","0.0-38.0-0.0","null","<p></p>","null","","","","","","","","","","","","","","","","","","",""
"","do_trial","55","232558","0.0-38.0-1.0","603.2999999970198","","","","49","0,0,1","","","","","","","","","","","","","","","",""
"","html-keyboard-response","56","233566","0.0-39.0-0.0","null","<p></p>","null","","","","","","","","","","","","","","","","","","",""
"","do_trial","57","238403","0.0-39.0-1.0","330.29999999701977","","","","51","1,0,1","","","","","","","","","","","","","","","",""
"","html-keyboard-response","58","242679","0.0-40.0-0.0","4274.899999991059","<div class='center'><p><img src='run_exp/static/images/tutorial/prac_best_pirate.png'  height='500'></p></div>","49","","","","","","","","","","","","","","","","","","",""
"","html-keyboard-response","59","244126","0.0-41.0-0.0","1447.0999999940395","<div class='center'><p>That's correct! Red beard was the best.</p><p><b>[Press the space bar to continue]</b></p></div>","32","","","","","","","","","","","","","","","","","","",""
"","html-keyboard-response","60","246553","0.0-41.0-1.0","2425.5999999940395","<div class='center'><p><img src='run_exp/static/images/tutorial/prac_source.png'  height='500'></p></div>","50","","","","","","","","","","","","","","","","","","",""
"","html-keyboard-response","61","247663","0.0-42.0-0.0","1110","<div class='center'><p>That's correct! You saw this ship on the cavern island.</p><p><b>[Press the space bar to continue]</b></p></div>","32","","","","","","","","","","","","","","","","","","",""
"","html-keyboard-response","62","252546","0.0-42.0-1.0","4883","<div class='center'><p>Good job on the practice game! Now, you will be asked you some true or false questions to make sure you really understand the rules of the game.</p><p> Press <b>'1'</b> on the keyboard for true and press <b>'2'</b> for false.</p><p><b>[Press the space bar to begin the quiz]</b></p></div>","32","","","","","","","","","","","","","","","","","","",""
"","html-keyboard-response","63","255521","0.0-42.0-2.0","2973.7999999970198","<div class='center'><p>You win bonus money by making choices as fast as possible.</p><p>Press 1 for true and press  2 for false.</p></div>","50","","","","","","","","","","","","","","","","","","",""
"","html-keyboard-response","64","256159","0.0-43.0-0.0","637.3999999910593","<div class='center'><p>That's correct!</p> <p><b>[press the space bar to continue with the quiz]</b></p></div>","32","","","","","","","","","","","","","","","","","","",""
"","html-keyboard-response","65","259951","0.0-43.0-1.0","3791.2999999970198","<div class='center'><p>You press the <b>‘3’</b> button on the keyboard to choose the red bearded pirate. </p><p>Press 1 for true and press  2 for false.</p></div>","50","","","","","","","","","","","","","","","","","","",""
"","html-keyboard-response","66","260476","0.0-44.0-0.0","524.7000000029802","<div class='center'><p>That's correct!</p> <p><b>[press the space bar to continue with the quiz]</b></p></div>","32","","","","","","","","","","","","","","","","","","",""
"","html-keyboard-response","67","263693","0.0-44.0-1.0","3216.7000000029802","<div class='center'><p>The pirate who is the best at robbing ships on the first island will be the best on every other island.</p><p>Press 1 for true and press  2 for false.</p></div>","50","","","","","","","","","","","","","","","","","","",""
"","html-keyboard-response","68","264181","0.0-45.0-0.0","487.8999999910593","<div class='center'><p>That's correct!</p> <p><b>[press the space bar to continue with the quiz]</b></p></div>","32","","","","","","","","","","","","","","","","","","",""
"","html-keyboard-response","69","266861","0.0-45.0-1.0","2679.2999999970198","<div class='center'><p>You should remember the island where a pirate robbed a ship.</p><p>Press 1 for true and press  2 for false.</p></div>","49","","","","","","","","","","","","","","","","","","",""
"","html-keyboard-response","70","267394","0.0-46.0-0.0","528","<div class='center'><p>That's correct!</p> <p><b>[press the space bar to continue with the quiz]</b></p></div>","32","","","","","","","","","","","","","","","","","","",""
"","html-keyboard-response","71","268405","0.0-47.0-0.0","1010.2000000029802","<div class='center'><p>Good job! You’re now ready to move on to the real game!</p> <p><br>[press the space bar to begin!]</br></p></div>","32","","","","","","","","","","","","","","","","","","",""
"","do_welcome","72","269908","0.0-48.0-0.0","null","","","","null","","","","","","","","","","","","","","","","",""
"","do_trial","73","275298","0.0-49.0-0.0","845.2000000029802","","","","50","1,0,1","0","mountain","0","probe-155","0.6","0.3","0.1","0","","","","","","","",""
"","html-keyboard-response","74","276312","0.0-49.0-1.0","null","<p></p>","null","","","","","","","","","","","","","","","","","","",""
"","do_trial","75","281188","0.0-50.0-0.0","328","","","","49","0,0,0","0","mountain","1","probe-110","0.579378434260213","0.360517698903329","0.05216661704555243","0","","","","","","","",""
"","html-keyboard-response","76","282197","0.0-50.0-1.0","null","<p></p>","null","","","","","","","","","","","","","","","","","","",""
"","do_trial","77","287022","0.0-51.0-0.0","290.8999999910593","","","","51","0,0,0","0","mountain","2","probe-133","0.6264741951606846","0.3599368250921215","0.12957674264807978","0","","","","","","","",""
"","html-keyboard-response","78","288037","0.0-51.0-1.0","null","<p></p>","null","","","","","","","","","","","","","","","","","","",""
"","do_trial","79","293284","0.0-52.0-0.0","709.9000000059605","","","","50","0,0,0","0","mountain","3","probe-62","0.6144251860317389","0.25779718586948663","0.11337349906508706","0","","","","","","","",""
"","html-keyboard-response","80","294287","0.0-52.0-1.0","null","<p></p>","null","","","","","","","","","","","","","","","","","","",""
"","do_trial","81","299152","0.0-53.0-0.0","326.79999999701977","","","","49","0,0,0","0","mountain","4","probe-130","0.7255832718685131","0.3360718245783207","0.05695357535921107","0","","","","","","","",""
"","html-keyboard-response","82","300156","0.0-53.0-1.0","null","<p></p>","null","","","","","","","","","","","","","","","","","","",""
"","do_trial","83","305725","0.0-54.0-0.0","1027.0999999940395","","","","51","0,0,0","0","mountain","5","probe-06","0.7518282864578406","0.1446344436919196","0.13924135664752801","0","","","","","","","",""
"","html-keyboard-response","84","306735","0.0-54.0-1.0","null","<p></p>","null","","","","","","","","","","","","","","","","","","",""
"","do_trial","85","311778","0.0-55.0-0.0","498","","","","49","1,0,0","0","mountain","6","probe-23","0.7351800204155454","0.17998753255500713","0.14342623866436696","1","","","","","","","",""
"","html-keyboard-response","86","312784","0.0-55.0-1.0","null","<p></p>","null","","","","","","","","","","","","","","","","","","",""
"","do_trial","87","317683","0.0-56.0-0.0","355.1000000089407","","","","49","1,0,0","0","mountain","7","probe-168","0.6618071184296512","0.26108881477819357","0.13202077051622238","1","","","","","","","",""
"","html-keyboard-response","88","318691","0.0-56.0-1.0","null","<p></p>","null","","","","","","","","","","","","","","","","","","",""
"","do_trial","89","323562","0.0-57.0-0.0","334","","","","49","0,0,0","0","mountain","8","probe-04","0.5567906960734608","0.3148667408414195","0.15136859724503704","0","","","","","","","",""
"","html-keyboard-response","90","324565","0.0-57.0-1.0","null","<p></p>","null","","","","","","","","","","","","","","","","","","",""
"","do_trial","91","329444","0.0-58.0-0.0","330.40000000596046","","","","49","1,0,0","0","mountain","9","probe-05","0.7082477649576226","0.3973382719249363","0.07810400008736008","1","","","","","","","",""
"","html-keyboard-response","92","330452","0.0-58.0-1.0","null","<p></p>","null","","","","","","","","","","","","","","","","","","",""
"","do_trial","93","335325","0.0-59.0-0.0","336.8999999910593","","","","49","0,0,0","0","mountain","10","probe-222","0.6798743971414504","0.3019084632068662","0.08957817013433372","0","","","","","","","",""
"","html-keyboard-response","94","336335","0.0-59.0-1.0","null","<p></p>","null","","","","","","","","","","","","","","","","","","",""
"","do_trial","95","341247","0.0-60.0-0.0","366.09999999403954","","","","49","1,0,0","0","mountain","11","probe-75","0.5756843366071783","0.1990416929480623","0.09779114447941328","1","","","","","","","",""
"","html-keyboard-response","96","342255","0.0-60.0-1.0","null","<p></p>","null","","","","","","","","","","","","","","","","","","",""
"","do_trial","97","347123","0.0-61.0-0.0","322.6000000089407","","","","49","1,0,0","0","mountain","12","probe-195","0.5081586968391428","0.2313939690861695","0.19202400520429938","1","","","","","","","",""
"","html-keyboard-response","98","348130","0.0-61.0-1.0","null","<p></p>","null","","","","","","","","","","","","","","","","","","",""
"","do_trial","99","353010","0.0-62.0-0.0","334.1000000089407","","","","49","0,1,0","0","mountain","13","probe-230","0.4765536311100301","0.24884487883860015","0.2950745174777761","0","","","","","","","",""
"","html-keyboard-response","100","354011","0.0-62.0-1.0","null","<p></p>","null","","","","","","","","","","","","","","","","","","",""
"","do_trial","101","358954","0.0-63.0-0.0","407.70000000298023","","","","49","0,0,1","0","mountain","14","probe-127","0.504824617298131","0.2975880781559879","0.08367235504421981","0","","","","","","","",""
"","html-keyboard-response","102","359962","0.0-63.0-1.0","null","<p></p>","null","","","","","","","","","","","","","","","","","","",""
"","do_trial","103","364874","0.0-64.0-0.0","376.79999999701977","","","","49","1,1,0","0","mountain","15","probe-149","0.4357828549285621","0.3938977351048108","0.0671790278028515","1","","","","","","","",""
"","html-keyboard-response","104","365881","0.0-64.0-1.0","null","<p></p>","null","","","","","","","","","","","","","","","","","","",""
"","do_trial","105","370801","0.0-65.0-0.0","378.40000000596046","","","","49","1,0,0","0","mountain","16","probe-154","0.6535089245378967","0.3331625770945189","0.0518831869934543","1","","","","","","","",""
"","html-keyboard-response","106","371809","0.0-65.0-1.0","null","<p></p>","null","","","","","","","","","","","","","","","","","","",""
"","do_trial","107","377388","0.0-66.0-0.0","1047.2000000029802","","","","49","0,0,0","0","mountain","17","probe-55","0.6902619811643248","0.39348474427958224","0.11882764123793797","0","","","","","","","",""
"","html-keyboard-response","108","378395","0.0-66.0-1.0","null","<p></p>","null","","","","","","","","","","","","","","","","","","",""
"","do_trial","109","383371","0.0-67.0-0.0","445.70000000298023","","","","49","1,0,0","0","mountain","18","probe-145","0.6760420944469665","0.3736708667680598","0.08134039550019596","1","","","","","","","",""
"","html-keyboard-response","110","384379","0.0-67.0-1.0","null","<p></p>","null","","","","","","","","","","","","","","","","","","",""
"","do_trial","111","389307","0.0-68.0-0.0","394.79999999701977","","","","49","0,0,1","0","mountain","19","probe-66","0.6192494851326003","0.28450597789928744","0.06768854420795538","0","","","","","","","",""
"","html-keyboard-response","112","390316","0.0-68.0-1.0","null","<p></p>","null","","","","","","","","","","","","","","","","","","",""
"","do_trial","113","395269","0.0-69.0-0.0","417.59999999403954","","","","49","0,1,0","0","mountain","20","probe-80","0.6360207490103046","0.42944894841203335","0.08703338077339053","0","","","","","","","",""
"","html-keyboard-response","114","396284","0.0-69.0-1.0","null","<p></p>","null","","","","","","","","","","","","","","","","","","",""
"","do_trial","115","401116","0.0-70.0-0.0","294.79999999701977","","","","51","1,0,0","0","mountain","21","probe-121","0.6538623439627385","0.29561790468267696","0.13405855407456663","0","","","","","","","",""
"","html-keyboard-response","116","402121","0.0-70.0-1.0","null","<p></p>","null","","","","","","","","","","","","","","","","","","",""
"","do_trial","117","406965","0.0-71.0-0.0","304.3999999910593","","","","50","1,0,0","0","mountain","22","probe-13","0.6041606470222257","0.1767209112970125","0.2831584204923152","0","","","","","","","",""
"","html-keyboard-response","118","407975","0.0-71.0-1.0","null","<p></p>","null","","","","","","","","","","","","","","","","","","",""
"","do_trial","119","412811","0.0-72.0-0.0","296.20000000298023","","","","49","1,0,0","0","mountain","23","probe-79","0.6156337691971672","0.15351647133818258","0.16621446706886786","1","","","","","","","",""
"","html-keyboard-response","120","413823","0.0-72.0-1.0","null","<p></p>","null","","","","","","","","","","","","","","","","","","",""
"","do_trial","121","418725","0.0-73.0-0.0","364.29999999701977","","","","49","0,0,1","0","mountain","24","probe-46","0.4911846616582669","0.16545622734482496","0.1516036222862453","0","","","","","","","",""
"","html-keyboard-response","122","419741","0.0-73.0-1.0","null","<p></p>","null","","","","","","","","","","","","","","","","","","",""
"","do_trial","123","424690","0.0-74.0-0.0","414.20000000298023","","","","49","0,0,0","0","mountain","25","probe-68","0.47641637054882274","0.14084785176168663","0.15728257300589382","0","","","","","","","",""
"","html-keyboard-response","124","425694","0.0-74.0-1.0","null","<p></p>","null","","","","","","","","","","","","","","","","","","",""
"","do_trial","125","430510","0.0-75.0-0.0","276.20000000298023","","","","49","0,0,0","0","mountain","26","probe-125","0.6654351819161224","0.2902252186687255","0.15783045694100317","0","","","","","","","",""
"","html-keyboard-response","126","431520","0.0-75.0-1.0","null","<p></p>","null","","","","","","","","","","","","","","","","","","",""
"","do_trial","127","436451","0.0-76.0-0.0","393.70000000298023","","","","49","0,1,0","0","mountain","27","probe-109","0.6062040606434883","0.28763905017228264","0.21537747164706125","0","","","","","","","",""
"","html-keyboard-response","128","437457","0.0-76.0-1.0","null","<p></p>","null","","","","","","","","","","","","","","","","","","",""
"","do_trial","129","442385","0.0-77.0-0.0","390.29999999701977","","","","49","1,0,0","0","mountain","28","probe-83","0.6986838445832296","0.18176109885655956","0.14591782574736908","1","","","","","","","",""
"","html-keyboard-response","130","443391","0.0-77.0-1.0","null","<p></p>","null","","","","","","","","","","","","","","","","","","",""
"","do_trial","131","448286","0.0-78.0-0.0","364.70000000298023","","","","49","1,0,0","0","mountain","29","probe-10","0.7092934955008492","0.23625673948231632","0.28025217775195843","1","","","","","","","",""
"","html-keyboard-response","132","449297","0.0-78.0-1.0","null","<p></p>","null","","","","","","","","","","","","","","","","","","",""
"","do_bye","133","450809","0.0-79.0-0.0","null","","","","null","","","","","","","","","","","","","","","","",""
"","do_travel","134","456812","0.0-80.0-0.0","null","","","","null","","","","","","","","","","","","","","","","",""
"","do_welcome","135","458323","0.0-80.0-1.0","null","","","","null","","","","","","","","","","","","","","","","",""
"","do_trial","136","463589","0.0-81.0-0.0","728.9000000059605","","","","50","1,0,1","1","forest","30","probe-73","1","0.1907186779251489","0.2899964742821461","0","","","","","","","",""
"","html-keyboard-response","137","464604","0.0-81.0-1.0","null","<p></p>","null","","","","","","","","","","","","","","","","","","",""
"","do_trial","138","469510","0.0-82.0-0.0","372.79999999701977","","","","51","1,0,0","1","forest","31","probe-135","1","0.19755908156059218","0.2791899247517359","0","","","","","","","",""
"","html-keyboard-response","139","470515","0.0-82.0-1.0","null","<p></p>","null","","","","","","","","","","","","","","","","","","",""
"","do_trial","140","475548","0.0-83.0-0.0","495.59999999403954","","","","49","1,0,1","1","forest","32","probe-59","1","0.24538024700181355","0.1686528120387555","1","","","","","","","",""
"","html-keyboard-response","141","476556","0.0-83.0-1.0","null","<p></p>","null","","","","","","","","","","","","","","","","","","",""
"","do_trial","142","481604","0.0-84.0-0.0","508.5","","","","49","1,0,1","1","forest","33","probe-14","0.9310785796062899","0.2673225512597297","0.32290617052787196","1","","","","","","","",""
"","html-keyboard-response","143","482613","0.0-84.0-1.0","null","<p></p>","null","","","","","","","","","","","","","","","","","","",""
"","do_trial","144","487684","0.0-85.0-0.0","526.2999999970198","","","","49","1,0,0","1","forest","34","probe-88","0.7635631044916786","0.32187461896185576","0.13836290886683061","1","","","","","","","",""
"","html-keyboard-response","145","488691","0.0-85.0-1.0","null","<p></p>","null","","","","","","","","","","","","","","","","","","",""
"","do_trial","146","493614","0.0-86.0-0.0","392.70000000298023","","","","49","0,0,0","1","forest","35","probe-182","0.8187930865950304","0.28363722982696443","0.05151589905509137","0","","","","","","","",""
"","html-keyboard-response","147","494623","0.0-86.0-1.0","null","<p></p>","null","","","","","","","","","","","","","","","","","","",""
"","do_trial","148","499534","0.0-87.0-0.0","377.70000000298023","","","","49","1,0,0","1","forest","36","probe-36","0.6137905106759193","0.17357957737599558","0.1473918201340553","1","","","","","","","",""
"","html-keyboard-response","149","500543","0.0-87.0-1.0","null","<p></p>","null","","","","","","","","","","","","","","","","","","",""
"","do_trial","150","505380","0.0-88.0-0.0","301","","","","49","1,0,1","1","forest","37","probe-223","0.670477224982555","0.23066869878611607","0.21848974837274335","1","","","","","","","",""
"","html-keyboard-response","151","506387","0.0-88.0-1.0","null","<p></p>","null","","","","","","","","","","","","","","","","","","",""
"","do_trial","152","511410","0.0-89.0-0.0","491","","","","49","1,1,0","1","forest","38","probe-117","0.7924004725865845","0.2485750755149779","0.21002901448530112","1","","","","","","","",""
"","html-keyboard-response","153","512419","0.0-89.0-1.0","null","<p></p>","null","","","","","","","","","","","","","","","","","","",""
"","do_trial","154","517290","0.0-90.0-0.0","332.20000000298023","","","","49","0,1,0","1","forest","39","probe-132","0.7781526670401937","0.20978727435839425","0.07758629294890607","0","","","","","","","",""
"","html-keyboard-response","155","518300","0.0-90.0-1.0","null","<p></p>","null","","","","","","","","","","","","","","","","","","",""
"","do_trial","156","523147","0.0-91.0-0.0","303.70000000298023","","","","49","1,0,0","1","forest","40","probe-188","0.8924739984145473","0.263340116049889","0.16541489170151963","1","","","","","","","",""
"","html-keyboard-response","157","524159","0.0-91.0-1.0","null","<p></p>","null","","","","","","","","","","","","","","","","","","",""
"","do_trial","158","529180","0.0-92.0-0.0","481.40000000596046","","","","49","1,0,1","1","forest","41","probe-21","0.9199886334672049","0.21229723965572603","0.22105844421841528","1","","","","","","","",""
"","html-keyboard-response","159","530191","0.0-92.0-1.0","null","<p></p>","null","","","","","","","","","","","","","","","","","","",""
"","do_trial","160","535307","0.0-93.0-0.0","574.0999999940395","","","","49","1,0,0","1","forest","42","probe-116","0.7607959922087024","0.41653269386363984","0.156128685940473","1","","","","","","","",""
"","html-keyboard-response","161","536315","0.0-93.0-1.0","null","<p></p>","null","","","","","","","","","","","","","","","","","","",""
"","do_trial","162","541530","0.0-94.0-0.0","681","","","","49","1,0,0","1","forest","43","probe-187","0.5831999650201888","0.4657041932140756","0.14497098662175753","1","","","","","","","",""
"","html-keyboard-response","163","542545","0.0-94.0-1.0","null","<p></p>","null","","","","","","","","","","","","","","","","","","",""
"","do_trial","164","547512","0.0-95.0-0.0","421","","","","49","1,0,0","1","forest","44","probe-180","0.48089608813584384","0.6496349734271746","0.20547395094890145","1","","","","","","","",""
"","html-keyboard-response","165","548528","0.0-95.0-1.0","null","<p></p>","null","","","","","","","","","","","","","","","","","","",""
"","do_trial","166","553838","0.0-96.0-0.0","769.9000000059605","","","","49","0,1,0","1","forest","45","probe-50","0.3642293088872327","0.5671639560579699","0.14531262091037467","0","","","","","","","",""
"","html-keyboard-response","167","554854","0.0-96.0-1.0","null","<p></p>","null","","","","","","","","","","","","","","","","","","",""
"","do_trial","168","559776","0.0-97.0-0.0","385.59999999403954","","","","49","0,1,0","1","forest","46","probe-104","0.4661124923971028","0.49751035947021804","0.08363567102786813","0","","","","","","","",""
"","html-keyboard-response","169","560779","0.0-97.0-1.0","null","<p></p>","null","","","","","","","","","","","","","","","","","","",""
"","do_trial","170","565799","0.0-98.0-0.0","474","","","","49","1,1,0","1","forest","47","probe-192","0.4100075084015907","0.7144528645231057","0.1827602981989196","1","","","","","","","",""
"","html-keyboard-response","171","566810","0.0-98.0-1.0","null","<p></p>","null","","","","","","","","","","","","","","","","","","",""
"","do_trial","172","571693","0.0-99.0-0.0","348.90000000596046","","","","49","1,0,0","1","forest","48","probe-103","0.4009536024191852","0.6172043463576072","0.10246689101347231","1","","","","","","","",""
"","html-keyboard-response","173","572709","0.0-99.0-1.0","null","<p></p>","null","","","","","","","","","","","","","","","","","","",""
"","do_trial","174","577601","0.0-100.0-0.0","358","","","","49","1,1,0","1","forest","49","probe-69","0.3883677217567062","0.4644163801675654","0.16798750982890734","1","","","","","","","",""
"","html-keyboard-response","175","578616","0.0-100.0-1.0","null","<p></p>","null","","","","","","","","","","","","","","","","","","",""
"","do_trial","176","583734","0.0-101.0-0.0","581.0999999940395","","","","49","0,1,0","1","forest","50","probe-206","0.13694014390700243","0.5871451811788704","0.20282619755590528","0","","","","","","","",""
"","html-keyboard-response","177","584744","0.0-101.0-1.0","null","<p></p>","null","","","","","","","","","","","","","","","","","","",""
"","do_trial","178","589449","0.0-102.0-0.0","159.79999999701977","","","","49","1,1,0","1","forest","51","probe-209","0.20787199627338013","0.6102323039811732","0.05360974470691028","1","","","","","","","",""
"","html-keyboard-response","179","590457","0.0-102.0-1.0","null","<p></p>","null","","","","","","","","","","","","","","","","","","",""
"","do_trial","180","595325","0.0-103.0-0.0","331.79999999701977","","","","49","0,0,0","1","forest","52","probe-40","0.3557533878246095","0.4260188685829708","0.056336224932088785","0","","","","","","","",""
"","html-keyboard-response","181","596329","0.0-103.0-1.0","null","<p></p>","null","","","","","","","","","","","","","","","","","","",""
"","do_trial","182","601150","0.0-104.0-0.0","288.30000001192093","","","","49","1,1,0","1","forest","53","probe-122","0.31280249171943086","0.5252953780711922","0.1368168847949934","1","","","","","","","",""
"","html-keyboard-response","183","602153","0.0-104.0-1.0","null","<p></p>","null","","","","","","","","","","","","","","","","","","",""
"","do_trial","184","607319","0.0-105.0-0.0","618.3000000119209","","","","49","0,1,0","1","forest","54","probe-52","0.25588728168164565","0.6232289019325383","0.20566801261780746","0","","","","","","","",""
"","html-keyboard-response","185","608332","0.0-105.0-1.0","null","<p></p>","null","","","","","","","","","","","","","","","","","","",""
"","do_trial","186","613263","0.0-106.0-0.0","383.80000001192093","","","","49","0,0,0","1","forest","55","probe-32","0.2890367308921946","0.6022717710644246","0.19167466540425335","0","","","","","","","",""
"","html-keyboard-response","187","614264","0.0-106.0-1.0","null","<p></p>","null","","","","","","","","","","","","","","","","","","",""
"","do_trial","188","619258","0.0-107.0-0.0","453.79999999701977","","","","49","0,1,0","1","forest","56","probe-228","0.34291334967199744","0.6567429452918789","0.2322679221575807","0","","","","","","","",""
"","html-keyboard-response","189","620271","0.0-107.0-1.0","null","<p></p>","null","","","","","","","","","","","","","","","","","","",""
"","do_trial","190","625377","0.0-108.0-0.0","563.2000000029802","","","","49","0,1,0","1","forest","57","probe-84","0.2645930713251151","0.7889364939423118","0.13105139481467326","0","","","","","","","",""
"","html-keyboard-response","191","626389","0.0-108.0-1.0","null","<p></p>","null","","","","","","","","","","","","","","","","","","",""
"","do_trial","192","631957","0.0-109.0-0.0","1037.1000000089407","","","","49","1,0,0","1","forest","58","probe-194","0.2588407645094832","0.666077529537357","0.10518857092876305","1","","","","","","","",""
"","html-keyboard-response","193","632968","0.0-109.0-1.0","null","<p></p>","null","","","","","","","","","","","","","","","","","","",""
"","do_trial","194","638069","0.0-110.0-0.0","559.2000000029802","","","","49","0,0,0","1","forest","59","probe-184","0.18535568277021228","0.6042277759381149","0.11996913946769074","0","","","","","","","",""
"","html-keyboard-response","195","639080","0.0-110.0-1.0","null","<p></p>","null","","","","","","","","","","","","","","","","","","",""
"","do_trial","196","645198","0.0-111.0-0.0","1583.5","","","","49","1,1,0","1","forest","60","probe-31","0.29768871900812455","0.5468430431819695","0.1124795015680626","1","","","","","","","",""
"","html-keyboard-response","197","646204","0.0-111.0-1.0","null","<p></p>","null","","","","","","","","","","","","","","","","","","",""
"","do_trial","198","651935","0.0-112.0-0.0","1195.5","","","","49","1,1,1","1","forest","61","probe-164","0.5314906583584912","0.5107068524898818","0.17719385974424282","1","","","","","","","",""
"","html-keyboard-response","199","652944","0.0-112.0-1.0","null","<p></p>","null","","","","","","","","","","","","","","","","","","",""
"","do_trial","200","658023","0.0-113.0-0.0","541","","","","49","1,0,1","1","forest","62","probe-91","0.41296742340845244","0.6061381055530628","0.245509187156241","1","","","","","","","",""
"","html-keyboard-response","201","659039","0.0-113.0-1.0","null","<p></p>","null","","","","","","","","","","","","","","","","","","",""
"","do_trial","202","664062","0.0-114.0-0.0","481.19999998807907","","","","49","1,1,0","1","forest","63","probe-224","0.37075035842797455","0.6036409659119972","0.16575395661288703","1","","","","","","","",""
"","html-keyboard-response","203","665075","0.0-114.0-1.0","null","<p></p>","null","","","","","","","","","","","","","","","","","","",""
"","do_trial","204","669931","0.0-115.0-0.0","312.5","","","","49","0,0,0","1","forest","64","probe-26","0.29152220465467443","0.61039953787852","0.11094845558940683","0","","","","","","","",""
"","html-keyboard-response","205","670946","0.0-115.0-1.0","null","<p></p>","null","","","","","","","","","","","","","","","","","","",""
"","do_trial","206","675878","0.0-116.0-0.0","383.09999999403954","","","","49","0,0,0","1","forest","65","probe-167","0.33603792285654444","0.5199257239552803","0.10232269898959481","0","","","","","","","",""
"","html-keyboard-response","207","676885","0.0-116.0-1.0","null","<p></p>","null","","","","","","","","","","","","","","","","","","",""
"","do_trial","208","681806","0.0-117.0-0.0","370.8999999910593","","","","49","1,0,0","1","forest","66","probe-144","0.2496719948173586","0.37592752471928903","0.19984644874835347","1","","","","","","","",""
"","html-keyboard-response","209","682817","0.0-117.0-1.0","null","<p></p>","null","","","","","","","","","","","","","","","","","","",""
"","do_trial","210","687782","0.0-118.0-0.0","419.1000000089407","","","","49","1,1,1","1","forest","67","probe-166","0.25058873062705045","0.3804216015827322","0.17958846133489165","1","","","","","","","",""
"","html-keyboard-response","211","688795","0.0-118.0-1.0","null","<p></p>","null","","","","","","","","","","","","","","","","","","",""
"","do_trial","212","693791","0.0-119.0-0.0","455.19999998807907","","","","49","0,1,0","1","forest","68","probe-170","0.28079277864861213","0.5398345317110235","0.2261493004639108","0","","","","","","","",""
"","html-keyboard-response","213","694805","0.0-119.0-1.0","null","<p></p>","null","","","","","","","","","","","","","","","","","","",""
"","do_trial","214","699614","0.0-120.0-0.0","266.70000000298023","","","","49","0,1,0","1","forest","69","probe-81","0.3257622434666639","0.5323186473374422","0.1585828949749636","0","","","","","","","",""
"","html-keyboard-response","215","700627","0.0-120.0-1.0","null","<p></p>","null","","","","","","","","","","","","","","","","","","",""
"","do_bye","216","702139","0.0-121.0-0.0","null","","","","null","","","","","","","","","","","","","","","","",""
"","do_travel","217","708142","0.0-122.0-0.0","null","","","","null","","","","","","","","","","","","","","","","",""
"","do_welcome","218","709653","0.0-122.0-1.0","null","","","","null","","","","","","","","","","","","","","","","",""
"","do_trial","219","714670","0.0-123.0-0.0","466.29999999701977","","","","51","0,1,0","2","highway","70","probe-193","0.24061225619570067","1","0.3053253131574727","0","","","","","","","",""
"","html-keyboard-response","220","715680","0.0-123.0-1.0","null","<p></p>","null","","","","","","","","","","","","","","","","","","",""
"","do_trial","221","720505","0.0-124.0-0.0","286.3999999910593","","","","50","1,1,1","2","highway","71","probe-161","0.459610707896734","1","0.24091020964338214","1","","","","","","","",""
"","html-keyboard-response","222","721514","0.0-124.0-1.0","null","<p></p>","null","","","","","","","","","","","","","","","","","","",""
"","do_trial","223","726489","0.0-125.0-0.0","436.70000000298023","","","","49","0,1,0","2","highway","72","probe-129","0.3364316060556197","0.7278277262228855","0.13775569103349344","0","","","","","","","",""
"","html-keyboard-response","224","727493","0.0-125.0-1.0","null","<p></p>","null","","","","","","","","","","","","","","","","","","",""
"","do_trial","225","732336","0.0-126.0-0.0","296.09999999403954","","","","50","0,1,0","2","highway","73","probe-113","0.23532994579598537","0.6522983807807821","0.15440109401480567","1","","","","","","","",""
"","html-keyboard-response","226","733351","0.0-126.0-1.0","null","<p></p>","null","","","","","","","","","","","","","","","","","","",""
"","do_trial","227","738211","0.0-127.0-0.0","309.79999999701977","","","","50","0,1,1","2","highway","74","probe-12","0.22994019879359925","0.5105716558047553","0.13430402517105142","1","","","","","","","",""
"","html-keyboard-response","228","739223","0.0-127.0-1.0","null","<p></p>","null","","","","","","","","","","","","","","","","","","",""
"","do_trial","229","744053","0.0-128.0-0.0","293.90000000596046","","","","50","0,1,0","2","highway","75","probe-218","0.24909975192874143","0.5058457690465883","0.15135977892217992","1","","","","","","","",""
"","html-keyboard-response","230","745063","0.0-128.0-1.0","null","<p></p>","null","","","","","","","","","","","","","","","","","","",""
"","do_trial","231","750045","0.0-129.0-0.0","439.09999999403954","","","","50","0,0,0","2","highway","76","probe-102","0.3227597817386228","0.5022305494622895","0.18706181353436485","0","","","","","","","",""
"","html-keyboard-response","232","751056","0.0-129.0-1.0","null","<p></p>","null","","","","","","","","","","","","","","","","","","",""
"","do_trial","233","755929","0.0-130.0-0.0","328.6000000089407","","","","50","0,1,0","2","highway","77","probe-150","0.22312606832415774","0.49103277695806674","0.06006569584986359","1","","","","","","","",""
"","html-keyboard-response","234","756939","0.0-130.0-1.0","null","<p></p>","null","","","","","","","","","","","","","","","","","","",""
"","do_trial","235","761823","0.0-131.0-0.0","344.40000000596046","","","","50","0,0,0","2","highway","78","probe-74","0.3277664101289473","0.6575317097733882","0.0812527536204953","0","","","","","","","",""
"","html-keyboard-response","236","762834","0.0-131.0-1.0","null","<p></p>","null","","","","","","","","","","","","","","","","","","",""
"","do_trial","237","768192","0.0-132.0-0.0","829.0999999940395","","","","50","1,0,0","2","highway","79","probe-115","0.2988591592449458","0.7431761233104383","0.2393935489981415","0","","","","","","","",""
"","html-keyboard-response","238","769199","0.0-132.0-1.0","null","<p></p>","null","","","","","","","","","","","","","","","","","","",""
"","do_trial","239","774320","0.0-133.0-0.0","585.7000000029802","","","","50","0,1,0","2","highway","80","probe-227","0.2708976758749596","0.7723094788635599","0.32593502901520993","1","","","","","","","",""
"","html-keyboard-response","240","775331","0.0-133.0-1.0","null","<p></p>","null","","","","","","","","","","","","","","","","","","",""
"","do_trial","241","780277","0.0-134.0-0.0","402.29999999701977","","","","50","0,1,0","2","highway","81","probe-92","0.45291248646500903","0.6921343003389341","0.38702257684909414","1","","","","","","","",""
"","html-keyboard-response","242","781290","0.0-134.0-1.0","null","<p></p>","null","","","","","","","","","","","","","","","","","","",""
"","do_trial","243","786543","0.0-135.0-0.0","711","","","","50","1,0,0","2","highway","82","probe-77","0.3918185295305711","0.2781045992771024","0.4989592150976398","0","","","","","","","",""
"","html-keyboard-response","244","787550","0.0-135.0-1.0","null","<p></p>","null","","","","","","","","","","","","","","","","","","",""
"","do_trial","245","792257","0.0-136.0-0.0","170.5","","","","50","1,0,1","2","highway","83","probe-143","0.28443702393189674","0.2526499785572977","0.501686872526575","0","","","","","","","",""
"","html-keyboard-response","246","793269","0.0-136.0-1.0","null","<p></p>","null","","","","","","","","","","","","","","","","","","",""
"","do_trial","247","798319","0.0-137.0-0.0","506.70000000298023","","","","50","0,1,0","2","highway","84","probe-27","0.14839075190662587","0.232196693907782","0.5214031120440125","1","","","","","","","",""
"","html-keyboard-response","248","799328","0.0-137.0-1.0","null","<p></p>","null","","","","","","","","","","","","","","","","","","",""
"","do_trial","249","804186","0.0-138.0-0.0","322","","","","50","0,1,1","2","highway","85","probe-34","0.17491741043156478","0.14791603229496142","0.6679899071149744","1","","","","","","","",""
"","html-keyboard-response","250","805194","0.0-138.0-1.0","null","<p></p>","null","","","","","","","","","","","","","","","","","","",""
"","do_trial","251","810032","0.0-139.0-0.0","301.80000001192093","","","","50","0,0,0","2","highway","86","probe-90","0.12595391681237975","0.2510329657134992","0.6695593538752401","0","","","","","","","",""
"","html-keyboard-response","252","811043","0.0-139.0-1.0","null","<p></p>","null","","","","","","","","","","","","","","","","","","",""
"","do_trial","253","815858","0.0-140.0-0.0","281","","","","50","0,0,1","2","highway","87","probe-148","0.24445031516289614","0.12650344162491245","0.6335554897025119","0","","","","","","","",""
"","html-keyboard-response","254","816871","0.0-140.0-1.0","null","<p></p>","null","","","","","","","","","","","","","","","","","","",""
"","do_trial","255","821770","0.0-141.0-0.0","352.40000000596046","","","","50","1,0,0","2","highway","88","probe-196","0.4570490623205434","0.10223885181862861","0.6602099303008909","0","","","","","","","",""
"","html-keyboard-response","256","822780","0.0-141.0-1.0","null","<p></p>","null","","","","","","","","","","","","","","","","","","",""
"","do_trial","257","827700","0.0-142.0-0.0","378.40000000596046","","","","50","1,1,0","2","highway","89","probe-220","0.3989314073400642","0.3802555124161148","0.7223403615042211","1","","","","","","","",""
"","html-keyboard-response","258","828715","0.0-142.0-1.0","null","<p></p>","null","","","","","","","","","","","","","","","","","","",""
"","do_trial","259","833606","0.0-143.0-0.0","347.20000000298023","","","","50","0,0,1","2","highway","90","probe-169","0.42879918710276743","0.3530935078274363","0.6604249905249975","0","","","","","","","",""
"","html-keyboard-response","260","834620","0.0-143.0-1.0","null","<p></p>","null","","","","","","","","","","","","","","","","","","",""
"","do_trial","261","839693","0.0-144.0-0.0","537.0999999940395","","","","50","0,1,0","2","highway","91","probe-29","0.29904842439785595","0.17941284769453414","0.648336830473657","1","","","","","","","",""
"","html-keyboard-response","262","840704","0.0-144.0-1.0","null","<p></p>","null","","","","","","","","","","","","","","","","","","",""
"","do_trial","263","845685","0.0-145.0-0.0","442.1000000089407","","","","50","1,0,0","2","highway","92","probe-112","0.26317405369982433","0.05301513271710736","0.6647681169603616","0","","","","","","","",""
"","html-keyboard-response","264","846691","0.0-145.0-1.0","null","<p></p>","null","","","","","","","","","","","","","","","","","","",""
"","do_trial","265","851492","0.0-146.0-0.0","264.40000000596046","","","","50","0,0,1","2","highway","93","probe-95","0.39258634850841406","0.07409902888736111","0.5684499027316946","0","","","","","","","",""
"","html-keyboard-response","266","852503","0.0-146.0-1.0","null","<p></p>","null","","","","","","","","","","","","","","","","","","",""
"","do_trial","267","857413","0.0-147.0-0.0","368.5","","","","50","0,0,1","2","highway","94","probe-229","0.35848064517325084","0.08095167075693041","0.4905912931859541","0","","","","","","","",""
"","html-keyboard-response","268","858418","0.0-147.0-1.0","null","<p></p>","null","","","","","","","","","","","","","","","","","","",""
"","do_trial","269","863310","0.0-148.0-0.0","349.5","","","","50","1,0,0","2","highway","95","probe-217","0.4079223850308407","0.08905385146926516","0.5080366046705806","0","","","","","","","",""
"","html-keyboard-response","270","864320","0.0-148.0-1.0","null","<p></p>","null","","","","","","","","","","","","","","","","","","",""
"","do_trial","271","869203","0.0-149.0-0.0","339.1000000089407","","","","50","0,0,0","2","highway","96","probe-138","0.3607032256131519","0.12650928640435935","0.5069607980472232","0","","","","","","","",""
"","html-keyboard-response","272","870206","0.0-149.0-1.0","null","<p></p>","null","","","","","","","","","","","","","","","","","","",""
"","do_trial","273","875050","0.0-150.0-0.0","309.8999999910593","","","","50","0,0,0","2","highway","97","probe-22","0.40339265826190235","0.113633898042591","0.5096154477521635","0","","","","","","","",""
"","html-keyboard-response","274","876060","0.0-150.0-1.0","null","<p></p>","null","","","","","","","","","","","","","","","","","","",""
"","do_trial","275","881056","0.0-151.0-0.0","460.20000000298023","","","","50","1,0,1","2","highway","98","probe-60","0.48788891080051017","0.15529826596893573","0.37342545515298325","0","","","","","","","",""
"","html-keyboard-response","276","882060","0.0-151.0-1.0","null","<p></p>","null","","","","","","","","","","","","","","","","","","",""
"","do_trial","277","886953","0.0-152.0-0.0","358.3999999910593","","","","50","0,0,1","2","highway","99","probe-153","0.43649458456772194","0.1177938202304763","0.5084899825478513","0","","","","","","","",""
"","html-keyboard-response","278","887964","0.0-152.0-1.0","null","<p></p>","null","","","","","","","","","","","","","","","","","","",""
"","do_trial","279","892885","0.0-153.0-0.0","388.79999999701977","","","","50","0,0,1","2","highway","100","probe-53","0.3248513803368027","0.11125321720378831","0.5081463897639936","0","","","","","","","",""
"","html-keyboard-response","280","893890","0.0-153.0-1.0","null","<p></p>","null","","","","","","","","","","","","","","","","","","",""
"","do_trial","281","899874","0.0-154.0-0.0","1448.2999999970198","","","","50","1,0,0","2","highway","101","probe-181","0.14584902884166817","0.07438563108074218","0.5633579030844942","0","","","","","","","",""
"","html-keyboard-response","282","900877","0.0-154.0-1.0","null","<p></p>","null","","","","","","","","","","","","","","","","","","",""
"","do_trial","283","905732","0.0-155.0-0.0","310.70000000298023","","","","50","1,0,1","2","highway","102","probe-56","0.3527229027074243","0.06305185843165056","0.5423133442308532","0","","","","","","","",""
"","html-keyboard-response","284","906739","0.0-155.0-1.0","null","<p></p>","null","","","","","","","","","","","","","","","","","","",""
"","do_trial","285","911538","0.0-156.0-0.0","258","","","","50","0,0,1","2","highway","103","probe-08","0.2499403732000495","0.10165698017009599","0.5898289241215638","0","","","","","","","",""
"","html-keyboard-response","286","912539","0.0-156.0-1.0","null","<p></p>","null","","","","","","","","","","","","","","","","","","",""
"","do_trial","287","917511","0.0-157.0-0.0","428.59999999403954","","","","50","0,0,1","2","highway","104","probe-114","0.35878165259959716","0.09874203025722322","0.5934076485955968","0","","","","","","","",""
"","html-keyboard-response","288","918522","0.0-157.0-1.0","null","<p></p>","null","","","","","","","","","","","","","","","","","","",""
"","do_trial","289","923672","0.0-158.0-0.0","605.9000000059605","","","","50","0,0,0","2","highway","105","probe-33","0.3390728076567315","0.11559473410381968","0.5105219060759953","0","","","","","","","",""
"","html-keyboard-response","290","924683","0.0-158.0-1.0","null","<p></p>","null","","","","","","","","","","","","","","","","","","",""
"","do_trial","291","929802","0.0-159.0-0.0","577.3999999910593","","","","50","0,0,0","2","highway","106","probe-174","0.26655558626616177","0.13048528692883182","0.722662423958738","0","","","","","","","",""
"","html-keyboard-response","292","930816","0.0-159.0-1.0","null","<p></p>","null","","","","","","","","","","","","","","","","","","",""
"","do_trial","293","936350","0.0-160.0-0.0","1002.5","","","","50","0,0,1","2","highway","107","probe-204","0.19717404528633545","0.26044268802316284","0.6451197503580565","0","","","","","","","",""
"","html-keyboard-response","294","937361","0.0-160.0-1.0","null","<p></p>","null","","","","","","","","","","","","","","","","","","",""
"","do_trial","295","943128","0.0-161.0-0.0","1221","","","","50","0,0,0","2","highway","108","probe-45","0.26610437585840996","0.15021807800522385","0.6529491007618066","0","","","","","","","",""
"","html-keyboard-response","296","944129","0.0-161.0-1.0","null","<p></p>","null","","","","","","","","","","","","","","","","","","",""
"","do_trial","297","949820","0.0-162.0-0.0","1160.2000000029802","","","","50","1,0,1","2","highway","109","probe-41","0.33989436246702304","0.05500410775621026","0.735913106844676","0","","","","","","","",""
"","html-keyboard-response","298","950825","0.0-162.0-1.0","null","<p></p>","null","","","","","","","","","","","","","","","","","","",""
"","do_bye","299","952341","0.0-163.0-0.0","null","","","","null","","","","","","","","","","","","","","","","",""
"","do_travel","300","958355","0.0-164.0-0.0","null","","","","null","","","","","","","","","","","","","","","","",""
"","do_welcome","301","959859","0.0-164.0-1.0","null","","","","null","","","","","","","","","","","","","","","","",""
"","do_trial","302","965606","0.0-165.0-0.0","1207.5","","","","51","0,0,1","3","coast","110","probe-197","0.3033060466163677","0.12664171319712464","1","1","","","","","","","",""
"","html-keyboard-response","303","966614","0.0-165.0-1.0","null","<p></p>","null","","","","","","","","","","","","","","","","","","",""
"","do_trial","304","971506","0.0-166.0-0.0","358.6000000089407","","","","50","0,0,1","3","coast","111","probe-107","0.2140533718973899","0.18034529563641896","1","0","","","","","","","",""
"","html-keyboard-response","305","972520","0.0-166.0-1.0","null","<p></p>","null","","","","","","","","","","","","","","","","","","",""
"","do_trial","306","977364","0.0-167.0-0.0","296.40000000596046","","","","49","0,0,1","3","coast","112","probe-111","0.32958057788124684","0.11929318107568414","0.9246860514887726","0","","","","","","","",""
"","html-keyboard-response","307","978375","0.0-167.0-1.0","null","<p></p>","null","","","","","","","","","","","","","","","","","","",""
"","do_trial","308","983187","0.0-168.0-0.0","281.1000000089407","","","","51","1,1,1","3","coast","113","probe-178","0.23502803770267047","0.20434073143448367","0.8441795089647736","1","","","","","","","",""
"","html-keyboard-response","309","984191","0.0-168.0-1.0","null","<p></p>","null","","","","","","","","","","","","","","","","","","",""
"","do_trial","310","988976","0.0-169.0-0.0","246.8999999910593","","","","51","0,0,1","3","coast","114","probe-101","0.24969939315170409","0.22804570618072412","0.8717336641462423","1","","","","","","","",""
"","html-keyboard-response","311","989988","0.0-169.0-1.0","null","<p></p>","null","","","","","","","","","","","","","","","","","","",""
"","do_trial","312","994917","0.0-170.0-0.0","383.79999999701977","","","","51","1,0,0","3","coast","115","probe-54","0.369236439129808","0.17626688399455318","0.6579911302982694","0","","","","","","","",""
"","html-keyboard-response","313","995926","0.0-170.0-1.0","null","<p></p>","null","","","","","","","","","","","","","","","","","","",""
"","do_trial","314","1000756","0.0-171.0-0.0","298.70000000298023","","","","51","1,0,1","3","coast","116","probe-205","0.41139266981983535","0.24339800538857106","0.5663441990641179","1","","","","","","","",""
"","html-keyboard-response","315","1001763","0.0-171.0-1.0","null","<p></p>","null","","","","","","","","","","","","","","","","","","",""
"","do_trial","316","1006769","0.0-172.0-0.0","457.09999999403954","","","","51","1,0,1","3","coast","117","probe-51","0.2883400378029424","0.10674006913820203","0.5789521991593941","1","","","","","","","",""
"","html-keyboard-response","317","1007782","0.0-172.0-1.0","null","<p></p>","null","","","","","","","","","","","","","","","","","","",""
"","do_trial","318","1013443","0.0-173.0-0.0","1117.5","","","","51","0,0,1","3","coast","118","probe-106","0.28064374430808625","0.15827183454560323","0.7050646789146602","1","","","","","","","",""
"","html-keyboard-response","319","1014453","0.0-173.0-1.0","null","<p></p>","null","","","","","","","","","","","","","","","","","","",""
"","do_trial","320","1019324","0.0-174.0-0.0","337.79999999701977","","","","51","0,0,1","3","coast","119","probe-118","0.2998453850978075","0.0732516837100352","0.7796339784304788","1","","","","","","","",""
"","html-keyboard-response","321","1020337","0.0-174.0-1.0","null","<p></p>","null","","","","","","","","","","","","","","","","","","",""
"","do_trial","322","1025559","0.0-175.0-0.0","678.5","","","","51","1,0,0","3","coast","120","probe-211","0.3118626761004207","0.11850179417175281","0.6538746731405815","0","","","","","","","",""
"","html-keyboard-response","323","1026570","0.0-175.0-1.0","null","<p></p>","null","","","","","","","","","","","","","","","","","","",""
"","do_trial","324","1031541","0.0-176.0-0.0","437.1000000089407","","","","51","1,1,1","3","coast","121","probe-162","0.23566694694921198","0.13629369619414153","0.6049157016488609","1","","","","","","","",""
"","html-keyboard-response","325","1032547","0.0-176.0-1.0","null","<p></p>","null","","","","","","","","","","","","","","","","","","",""
"","do_trial","326","1037640","0.0-177.0-0.0","559.3000000119209","","","","51","0,0,0","3","coast","122","probe-172","0.39651516422188865","0.1355752608868467","0.4532791269158505","0","","","","","","","",""
"","html-keyboard-response","327","1038650","0.0-177.0-1.0","null","<p></p>","null","","","","","","","","","","","","","","","","","","",""
"","do_trial","328","1043486","0.0-178.0-0.0","296","","","","51","0,0,1","3","coast","123","probe-38","0.4491080472989121","0.21335338735383197","0.4152895133006823","1","","","","","","","",""
"","html-keyboard-response","329","1044498","0.0-178.0-1.0","null","<p></p>","null","","","","","","","","","","","","","","","","","","",""
"","do_trial","330","1049915","0.0-179.0-0.0","879.3999999910593","","","","51","1,0,0","3","coast","124","probe-18","0.5172733823320045","0.09169956234479329","0.3630043502166443","0","","","","","","","",""
"","html-keyboard-response","331","1050930","0.0-179.0-1.0","null","<p></p>","null","","","","","","","","","","","","","","","","","","",""
"","do_trial","332","1056019","0.0-180.0-0.0","558.8999999910593","","","","51","0,0,0","3","coast","125","probe-137","0.5060186420911557","0.21357057756432568","0.39304969774841025","0","","","","","","","",""
"","html-keyboard-response","333","1057034","0.0-180.0-1.0","null","<p></p>","null","","","","","","","","","","","","","","","","","","",""
"","do_trial","334","1062347","0.0-181.0-0.0","766","","","","51","1,0,0","3","coast","126","probe-01","0.6914171351845625","0.15632859921460435","0.4639058393284627","0","","","","","","","",""
"","html-keyboard-response","335","1063360","0.0-181.0-1.0","null","<p></p>","null","","","","","","","","","","","","","","","","","","",""
"","do_trial","336","1069524","0.0-182.0-0.0","1630.8999999910593","","","","51","1,0,0","3","coast","127","probe-134","0.5673728545413144","0.13321183985218382","0.40568018776640635","0","","","","","","","",""
"","html-keyboard-response","337","1070536","0.0-182.0-1.0","null","<p></p>","null","","","","","","","","","","","","","","","","","","",""
"","do_trial","338","1075443","0.0-183.0-0.0","364.09999999403954","","","","51","0,0,0","3","coast","128","probe-163","0.5551723452295494","0.11225464234603147","0.40584819992667187","0","","","","","","","",""
"","html-keyboard-response","339","1076453","0.0-183.0-1.0","null","<p></p>","null","","","","","","","","","","","","","","","","","","",""
"","do_trial","340","1081329","0.0-184.0-0.0","338.29999999701977","","","","51","0,0,0","3","coast","129","probe-24","0.5830270702962977","0.07233876165912421","0.3708065107676007","0","","","","","","","",""
"","html-keyboard-response","341","1082342","0.0-184.0-1.0","null","<p></p>","null","","","","","","","","","","","","","","","","","","",""
"","do_trial","342","1087177","0.0-185.0-0.0","290.59999999403954","","","","51","1,0,1","3","coast","130","probe-17","0.5968751262359374","0.10966854311209248","0.4174393858183716","1","","","","","","","",""
"","html-keyboard-response","343","1088186","0.0-185.0-1.0","null","<p></p>","null","","","","","","","","","","","","","","","","","","",""
"","do_trial","344","1093254","0.0-186.0-0.0","505.5","","","","51","1,1,1","3","coast","131","probe-156","0.6729261699309619","0.13925387555141697","0.3626916949315721","1","","","","","","","",""
"","html-keyboard-response","345","1094260","0.0-186.0-1.0","null","<p></p>","null","","","","","","","","","","","","","","","","","","",""
"","do_trial","346","1099203","0.0-187.0-0.0","389.40000000596046","","","","51","1,0,0","3","coast","132","probe-203","0.6309911145108801","0.05071114286977619","0.44566810257516276","0","","","","","","","",""
"","html-keyboard-response","347","1100209","0.0-187.0-1.0","null","<p></p>","null","","","","","","","","","","","","","","","","","","",""
"","do_trial","348","1106285","0.0-188.0-0.0","1531.4000000059605","","","","51","1,0,0","3","coast","133","probe-171","0.531294844156703","0.15467320825883785","0.34589534115330567","0","","","","","","","",""
"","html-keyboard-response","349","1107292","0.0-188.0-1.0","null","<p></p>","null","","","","","","","","","","","","","","","","","","",""
"","do_trial","350","1112194","0.0-189.0-0.0","348.29999999701977","","","","51","1,1,0","3","coast","134","probe-72","0.5370775135930294","0.29890162307174983","0.35634068803257796","0","","","","","","","",""
"","html-keyboard-response","351","1113208","0.0-189.0-1.0","null","<p></p>","null","","","","","","","","","","","","","","","","","","",""
"","do_trial","352","1118225","0.0-190.0-0.0","471.29999999701977","","","","51","0,0,1","3","coast","135","probe-71","0.5330012620621014","0.2814898954161641","0.2545774327584029","1","","","","","","","",""
"","html-keyboard-response","353","1119241","0.0-190.0-1.0","null","<p></p>","null","","","","","","","","","","","","","","","","","","",""
"","do_trial","354","1124377","0.0-191.0-0.0","581","","","","51","1,0,0","3","coast","136","probe-82","0.5151631339087759","0.20373777407082544","0.1441622208463264","0","","","","","","","",""
"","html-keyboard-response","355","1125385","0.0-191.0-1.0","null","<p></p>","null","","","","","","","","","","","","","","","","","","",""
"","do_trial","356","1130483","0.0-192.0-0.0","552.5","","","","51","0,0,0","3","coast","137","probe-124","0.7511348226591263","0.24175802138372443","0.15851060312243292","0","","","","","","","",""
"","html-keyboard-response","357","1131492","0.0-192.0-1.0","null","<p></p>","null","","","","","","","","","","","","","","","","","","",""
"","do_trial","358","1137782","0.0-193.0-0.0","1754.5","","","","51","1,0,0","3","coast","138","probe-202","0.5965767394660534","0.1354477440657755","0.293273990472942","0","","","","","","","",""
"","html-keyboard-response","359","1138791","0.0-193.0-1.0","null","<p></p>","null","","","","","","","","","","","","","","","","","","",""
"","do_trial","360","1143663","0.0-194.0-0.0","332.5","","","","51","1,0,0","3","coast","139","probe-159","0.5855602741121692","0.1817114195808132","0.26102932767745396","0","","","","","","","",""
"","html-keyboard-response","361","1144676","0.0-194.0-1.0","null","<p></p>","null","","","","","","","","","","","","","","","","","","",""
"","do_trial","362","1149744","0.0-195.0-0.0","527.5","","","","51","0,0,1","3","coast","140","probe-207","0.5743193904360276","0.18499730259239122","0.340939714386873","1","","","","","","","",""
"","html-keyboard-response","363","1150754","0.0-195.0-1.0","null","<p></p>","null","","","","","","","","","","","","","","","","","","",""
"","do_trial","364","1156600","0.0-196.0-0.0","1296.6000000089407","","","","51","1,0,0","3","coast","141","probe-126","0.48818130745507504","0.29415131174979997","0.31439215715211233","0","","","","","","","",""
"","html-keyboard-response","365","1157609","0.0-196.0-1.0","null","<p></p>","null","","","","","","","","","","","","","","","","","","",""
"","do_trial","366","1162571","0.0-197.0-0.0","429.70000000298023","","","","51","0,0,1","3","coast","142","probe-48","0.5813129750082563","0.1926191855376801","0.271774094550164","1","","","","","","","",""
"","html-keyboard-response","367","1163579","0.0-197.0-1.0","null","<p></p>","null","","","","","","","","","","","","","","","","","","",""
"","do_trial","368","1168465","0.0-198.0-0.0","345.6000000089407","","","","51","0,0,0","3","coast","143","probe-86","0.5783778434881323","0.15350114828906525","0.35735712024108174","0","","","","","","","",""
"","html-keyboard-response","369","1169481","0.0-198.0-1.0","null","<p></p>","null","","","","","","","","","","","","","","","","","","",""
"","do_trial","370","1174423","0.0-199.0-0.0","396.5","","","","51","0,0,0","3","coast","144","probe-89","0.556018693161873","0.1434701014154509","0.304081220705652","0","","","","","","","",""
"","html-keyboard-response","371","1175434","0.0-199.0-1.0","null","<p></p>","null","","","","","","","","","","","","","","","","","","",""
"","do_trial","372","1180455","0.0-200.0-0.0","481.5","","","","51","0,0,0","3","coast","145","probe-225","0.6259376619402373","0.09835022623240726","0.2668306734753449","0","","","","","","","",""
"","html-keyboard-response","373","1181468","0.0-200.0-1.0","null","<p></p>","null","","","","","","","","","","","","","","","","","","",""
"","do_trial","374","1186383","0.0-201.0-0.0","370.5","","","","51","1,0,0","3","coast","146","probe-131","0.5809678848889771","0.0829158385075216","0.14614724677021756","0","","","","","","","",""
"","html-keyboard-response","375","1187395","0.0-201.0-1.0","null","<p></p>","null","","","","","","","","","","","","","","","","","","",""
"","do_trial","376","1192380","0.0-202.0-0.0","442.6000000089407","","","","51","1,0,0","3","coast","147","probe-191","0.4990269975843421","0.0794323058342934","0.11118781434941429","0","","","","","","","",""
"","html-keyboard-response","377","1193385","0.0-202.0-1.0","null","<p></p>","null","","","","","","","","","","","","","","","","","","",""
"","do_trial","378","1198147","0.0-203.0-0.0","230.79999999701977","","","","51","1,0,0","3","coast","148","probe-177","0.5705973687924811","0.08828265335817705","0.1297765483411931","0","","","","","","","",""
"","html-keyboard-response","379","1199158","0.0-203.0-1.0","null","<p></p>","null","","","","","","","","","","","","","","","","","","",""
"","do_trial","380","1204130","0.0-204.0-0.0","436.20000000298023","","","","51","0,1,1","3","coast","149","probe-39","0.4733196421582964","0.14167232193668927","0.16937001247567154","1","","","","","","","",""
"","html-keyboard-response","381","1205142","0.0-204.0-1.0","null","<p></p>","null","","","","","","","","","","","","","","","","","","",""
"","do_bye","382","1206658","0.0-205.0-0.0","null","","","","null","","","","","","","","","","","","","","","","",""
"","do_travel","383","1212659","0.0-206.0-0.0","null","","","","null","","","","","","","","","","","","","","","","",""
"","do_welcome","384","1214172","0.0-206.0-1.0","null","","","","null","","","","","","","","","","","","","","","","",""
"","do_trial","385","1219533","0.0-207.0-0.0","818.2999999970198","","","","49","1,0,0","4","city","150","probe-70","1","0.05667946301309316","0.2594272384534819","1","","","","","","","",""
"","html-keyboard-response","386","1220547","0.0-207.0-1.0","null","<p></p>","null","","","","","","","","","","","","","","","","","","",""
"","do_trial","387","1225430","0.0-208.0-0.0","341","","","","49","1,0,0","4","city","151","probe-35","1","0.06371615041550556","0.2966223811072632","1","","","","","","","",""
"","html-keyboard-response","388","1226445","0.0-208.0-1.0","null","<p></p>","null","","","","","","","","","","","","","","","","","","",""
"","do_trial","389","1231283","0.0-209.0-0.0","299","","","","49","1,0,0","4","city","152","probe-212","0.8159581124933561","0.1302379744480283","0.5605909148660578","1","","","","","","","",""
"","html-keyboard-response","390","1232292","0.0-209.0-1.0","null","<p></p>","null","","","","","","","","","","","","","","","","","","",""
"","do_trial","391","1237157","0.0-210.0-0.0","330.80000001192093","","","","49","1,0,0","4","city","153","probe-190","0.7566666376491048","0.2269995590175258","0.4746625005439569","1","","","","","","","",""
"","html-keyboard-response","392","1238167","0.0-210.0-1.0","null","<p></p>","null","","","","","","","","","","","","","","","","","","",""
"","do_trial","393","1242982","0.0-211.0-0.0","274.29999999701977","","","","49","1,0,1","4","city","154","probe-183","0.7057678019260853","0.23198582077557206","0.3463170770816847","1","","","","","","","",""
"","html-keyboard-response","394","1243987","0.0-211.0-1.0","null","<p></p>","null","","","","","","","","","","","","","","","","","","",""
"","do_trial","395","1248815","0.0-212.0-0.0","295.70000000298023","","","","49","0,0,0","4","city","155","probe-216","0.6923019332218624","0.22945732676077818","0.45133641552688913","0","","","","","","","",""
"","html-keyboard-response","396","1249827","0.0-212.0-1.0","null","<p></p>","null","","","","","","","","","","","","","","","","","","",""
"","do_trial","397","1254596","0.0-213.0-0.0","239.20000000298023","","","","49","1,0,0","4","city","156","probe-64","0.5742452995960674","0.16285249772238866","0.36341744542294757","1","","","","","","","",""
"","html-keyboard-response","398","1255601","0.0-213.0-1.0","null","<p></p>","null","","","","","","","","","","","","","","","","","","",""
"","do_trial","399","1260482","0.0-214.0-0.0","340","","","","49","1,0,1","4","city","157","probe-186","0.694610707898672","0.12473620744076604","0.4802130975199029","1","","","","","","","",""
"","html-keyboard-response","400","1261492","0.0-214.0-1.0","null","<p></p>","null","","","","","","","","","","","","","","","","","","",""
"","do_trial","401","1266359","0.0-215.0-0.0","322.90000000596046","","","","49","1,1,1","4","city","158","probe-98","0.6253292628086312","0.1222488203974727","0.4338171227197492","1","","","","","","","",""
"","html-keyboard-response","402","1267367","0.0-215.0-1.0","null","<p></p>","null","","","","","","","","","","","","","","","","","","",""
"","do_trial","403","1272228","0.0-216.0-0.0","323.8999999910593","","","","49","0,0,1","4","city","159","probe-19","0.41131293067186603","0.1159714129181603","0.33469523320015654","0","","","","","","","",""
"","html-keyboard-response","404","1273237","0.0-216.0-1.0","null","<p></p>","null","","","","","","","","","","","","","","","","","","",""
"","do_trial","405","1278056","0.0-217.0-0.0","285.5","","","","49","0,1,0","4","city","160","probe-61","0.49472599954539265","0.07776660697066393","0.2169396032314505","0","","","","","","","",""
"","html-keyboard-response","406","1279070","0.0-217.0-1.0","null","<p></p>","null","","","","","","","","","","","","","","","","","","",""
"","do_trial","407","1284710","0.0-218.0-0.0","1105.7000000029802","","","","49","1,0,1","4","city","161","probe-158","0.4214917204566105","0.12220239000762324","0.14072339305159393","1","","","","","","","",""
"","html-keyboard-response","408","1285719","0.0-218.0-1.0","null","<p></p>","null","","","","","","","","","","","","","","","","","","",""
"","do_trial","409","1291605","0.0-219.0-0.0","1349.5","","","","49","0,1,0","4","city","162","probe-176","0.3786534713797154","0.45287379480309886","0.10406993656994587","0","","","","","","","",""
"","html-keyboard-response","410","1292613","0.0-219.0-1.0","null","<p></p>","null","","","","","","","","","","","","","","","","","","",""
"","do_trial","411","1297946","0.0-220.0-0.0","797","","","","49","0,1,0","4","city","163","probe-160","0.2117334873339984","0.5380323096328575","0.2252830021598508","0","","","","","","","",""
"","html-keyboard-response","412","1298947","0.0-220.0-1.0","null","<p></p>","null","","","","","","","","","","","","","","","","","","",""
"","do_trial","413","1305068","0.0-221.0-0.0","1576.9000000059605","","","","49","0,0,1","4","city","164","probe-58","0.27168712040091025","0.3825155603415881","0.23177394572325236","0","","","","","","","",""
"","html-keyboard-response","414","1306074","0.0-221.0-1.0","null","<p></p>","null","","","","","","","","","","","","","","","","","","",""
"","do_trial","415","1311532","0.0-222.0-0.0","913","","","","49","0,1,0","4","city","165","probe-221","0.16966724902096217","0.44847529059772034","0.3084033873441436","0","","","","","","","",""
"","html-keyboard-response","416","1312545","0.0-222.0-1.0","null","<p></p>","null","","","","","","","","","","","","","","","","","","",""
"","do_trial","417","1317608","0.0-223.0-0.0","530.1000000089407","","","","49","1,0,0","4","city","166","probe-199","0.25940972807173057","0.5138314451055288","0.2987285037862617","1","","","","","","","",""
"","html-keyboard-response","418","1318623","0.0-223.0-1.0","null","<p></p>","null","","","","","","","","","","","","","","","","","","",""
"","do_trial","419","1323521","0.0-224.0-0.0","356","","","","49","0,1,0","4","city","167","probe-94","0.22905935742376143","0.5773578839955296","0.23846629041903522","0","","","","","","","",""
"","html-keyboard-response","420","1324534","0.0-224.0-1.0","null","<p></p>","null","","","","","","","","","","","","","","","","","","",""
"","do_trial","421","1331088","0.0-225.0-0.0","2012.5","","","","49","0,0,0","4","city","168","probe-189","0.3072188150512784","0.5630458805617903","0.25560513362594645","0","","","","","","","",""
"","html-keyboard-response","422","1332100","0.0-225.0-1.0","null","<p></p>","null","","","","","","","","","","","","","","","","","","",""
"","do_trial","423","1338042","0.0-226.0-0.0","1408.5","","","","49","1,1,0","4","city","169","probe-15","0.3592005177419329","0.6624463932172521","0.07951352658054983","1","","","","","","","",""
"","html-keyboard-response","424","1339050","0.0-226.0-1.0","null","<p></p>","null","","","","","","","","","","","","","","","","","","",""
"","do_trial","425","1344317","0.0-227.0-0.0","731.3999999910593","","","","49","1,0,0","4","city","170","probe-210","0.2767037861386261","0.6204086720558915","0.08658111920169652","1","","","","","","","",""
"","html-keyboard-response","426","1345331","0.0-227.0-1.0","null","<p></p>","null","","","","","","","","","","","","","","","","","","",""
"","do_trial","427","1350265","0.0-228.0-0.0","398.70000000298023","","","","49","0,0,1","4","city","171","probe-140","0.3536849515361272","0.5780013703721683","0.24568017042324214","0","","","","","","","",""
"","html-keyboard-response","428","1351278","0.0-228.0-1.0","null","<p></p>","null","","","","","","","","","","","","","","","","","","",""
"","do_trial","429","1356458","0.0-229.0-0.0","647.2999999970198","","","","49","0,1,0","4","city","172","probe-141","0.5424678606933026","0.6880751184505607","0.17563806280813934","0","","","","","","","",""
"","html-keyboard-response","430","1357467","0.0-229.0-1.0","null","<p></p>","null","","","","","","","","","","","","","","","","","","",""
"","do_trial","431","1363548","0.0-230.0-0.0","1554.0999999940395","","","","49","0,0,0","4","city","173","probe-42","0.439512347155264","0.7311650609661483","0.10154286594988195","0","","","","","","","",""
"","html-keyboard-response","432","1364563","0.0-230.0-1.0","null","<p></p>","null","","","","","","","","","","","","","","","","","","",""
"","do_trial","433","1369814","0.0-231.0-0.0","714.0999999940395","","","","49","0,0,0","4","city","174","probe-16","0.4178012414045164","0.6778502378039292","0.11586409882159923","0","","","","","","","",""
"","html-keyboard-response","434","1370826","0.0-231.0-1.0","null","<p></p>","null","","","","","","","","","","","","","","","","","","",""
"","do_trial","435","1375946","0.0-232.0-0.0","589.9000000059605","","","","49","1,1,1","4","city","175","probe-28","0.31558987564726193","0.7191534394864695","0.2527463919231509","1","","","","","","","",""
"","html-keyboard-response","436","1376960","0.0-232.0-1.0","null","<p></p>","null","","","","","","","","","","","","","","","","","","",""
"","do_trial","437","1381909","0.0-233.0-0.0","409.59999999403954","","","","49","0,1,1","4","city","176","probe-37","0.40654467142091255","0.6097183864347536","0.25177415925498237","0","","","","","","","",""
"","html-keyboard-response","438","1382920","0.0-233.0-1.0","null","<p></p>","null","","","","","","","","","","","","","","","","","","",""
"","do_trial","439","1387996","0.0-234.0-0.0","523.5999999940395","","","","49","0,1,0","4","city","177","probe-185","0.3245638822689281","0.6305692660027137","0.12095994231218446","0","","","","","","","",""
"","html-keyboard-response","440","1389009","0.0-234.0-1.0","null","<p></p>","null","","","","","","","","","","","","","","","","","","",""
"","do_trial","441","1394036","0.0-235.0-0.0","491.8999999910593","","","","49","0,1,1","4","city","178","probe-47","0.28104635029824515","0.578315709213863","0.20547140216084414","0","","","","","","","",""
"","html-keyboard-response","442","1395045","0.0-235.0-1.0","null","<p></p>","null","","","","","","","","","","","","","","","","","","",""
"","do_trial","443","1400035","0.0-236.0-0.0","455.59999999403954","","","","49","1,0,0","4","city","179","probe-179","0.444371948925302","0.6403686416250852","0.1868572970974989","1","","","","","","","",""
"","html-keyboard-response","444","1401044","0.0-236.0-1.0","null","<p></p>","null","","","","","","","","","","","","","","","","","","",""
"","do_trial","445","1405982","0.0-237.0-0.0","397.8999999910593","","","","49","0,1,0","4","city","180","probe-213","0.34036509162686224","0.6630812425061509","0.07913131760309793","0","","","","","","","",""
"","html-keyboard-response","446","1406992","0.0-237.0-1.0","null","<p></p>","null","","","","","","","","","","","","","","","","","","",""
"","do_trial","447","1411845","0.0-238.0-0.0","308.79999999701977","","","","49","0,1,0","4","city","181","probe-43","0.32253274349102007","0.6556002709244138","0.12052289897087878","0","","","","","","","",""
"","html-keyboard-response","448","1412855","0.0-238.0-1.0","null","<p></p>","null","","","","","","","","","","","","","","","","","","",""
"","do_trial","449","1417843","0.0-239.0-0.0","440.8999999910593","","","","49","0,1,0","4","city","182","probe-67","0.3031581513779904","0.7047295081071032","0.10401126768016805","0","","","","","","","",""
"","html-keyboard-response","450","1418852","0.0-239.0-1.0","null","<p></p>","null","","","","","","","","","","","","","","","","","","",""
"","do_trial","451","1423800","0.0-240.0-0.0","404.29999999701977","","","","49","0,0,0","4","city","183","probe-63","0.09279062079242227","0.63124162430182","0.08547600281377482","0","","","","","","","",""
"","html-keyboard-response","452","1424815","0.0-240.0-1.0","null","<p></p>","null","","","","","","","","","","","","","","","","","","",""
"","do_trial","453","1429631","0.0-241.0-0.0","276","","","","49","0,0,0","4","city","184","probe-152","0.11527086082515701","0.608515519311499","0.0952831731177455","0","","","","","","","",""
"","html-keyboard-response","454","1430640","0.0-241.0-1.0","null","<p></p>","null","","","","","","","","","","","","","","","","","","",""
"","do_trial","455","1435577","0.0-242.0-0.0","392.1000000089407","","","","49","0,0,0","4","city","185","probe-147","0.3948943987017705","0.5070771561191448","0.21971172092999047","0","","","","","","","",""
"","html-keyboard-response","456","1436592","0.0-242.0-1.0","null","<p></p>","null","","","","","","","","","","","","","","","","","","",""
"","do_trial","457","1441808","0.0-243.0-0.0","682.1000000089407","","","","49","0,0,0","4","city","186","probe-93","0.3248781771076967","0.547804696662547","0.14574007005657133","0","","","","","","","",""
"","html-keyboard-response","458","1442822","0.0-243.0-1.0","null","<p></p>","null","","","","","","","","","","","","","","","","","","",""
"","do_trial","459","1448408","0.0-244.0-0.0","1046.2000000029802","","","","49","1,0,0","4","city","187","probe-02","0.3772061809639037","0.5133759976906818","0.1976532377356655","1","","","","","","","",""
"","html-keyboard-response","460","1449419","0.0-244.0-1.0","null","<p></p>","null","","","","","","","","","","","","","","","","","","",""
"","do_trial","461","1454224","0.0-245.0-0.0","262.8999999910593","","","","49","0,1,0","4","city","188","probe-208","0.25330276784647543","0.6111783932399476","0.2712901779934021","0","","","","","","","",""
"","html-keyboard-response","462","1455230","0.0-245.0-1.0","null","<p></p>","null","","","","","","","","","","","","","","","","","","",""
"","do_trial","463","1460103","0.0-246.0-0.0","334.5","","","","49","0,1,1","4","city","189","probe-96","0.3455393470581077","0.48540738459768246","0.11848884840808264","0","","","","","","","",""
"","html-keyboard-response","464","1461115","0.0-246.0-1.0","null","<p></p>","null","","","","","","","","","","","","","","","","","","",""
"","do_bye","465","1462627","0.0-247.0-0.0","null","","","","null","","","","","","","","","","","","","","","","",""
"","do_travel","466","1468633","0.0-248.0-0.0","null","","","","null","","","","","","","","","","","","","","","","",""
"","do_welcome","467","1470140","0.0-248.0-1.0","null","","","","null","","","","","","","","","","","","","","","","",""
"","do_trial","468","1475666","0.0-249.0-0.0","987","","","","50","0,1,0","5","countryside","190","probe-136","0.21631354911219824","1","0.10104065666982763","1","","","","","","","",""
"","html-keyboard-response","469","1476675","0.0-249.0-1.0","null","<p></p>","null","","","","","","","","","","","","","","","","","","",""
"","do_trial","470","1481542","0.0-250.0-0.0","326.70000000298023","","","","50","1,1,0","5","countryside","191","probe-99","0.2516012078269613","1","0.12344441311550786","1","","","","","","","",""
"","html-keyboard-response","471","1482552","0.0-250.0-1.0","null","<p></p>","null","","","","","","","","","","","","","","","","","","",""
"","do_trial","472","1487147","0.0-251.0-0.0","58","","","","50","0,1,0","5","countryside","192","probe-65","0.18363058911982427","0.7417208589085169","0.052327504237955694","1","","","","","","","",""
"","html-keyboard-response","473","1488155","0.0-251.0-1.0","null","<p></p>","null","","","","","","","","","","","","","","","","","","",""
"","do_trial","474","1493106","0.0-252.0-0.0","412.09999999403954","","","","50","1,1,0","5","countryside","193","probe-09","0.2550206607958181","0.6360424200542006","0.06017845971627336","1","","","","","","","",""
"","html-keyboard-response","475","1494118","0.0-252.0-1.0","null","<p></p>","null","","","","","","","","","","","","","","","","","","",""
"","do_trial","476","1498971","0.0-253.0-0.0","319.6000000089407","","","","50","0,0,0","5","countryside","194","probe-157","0.28891997287868476","0.6019132162456562","0.07592963832382686","0","","","","","","","",""
"","html-keyboard-response","477","1499975","0.0-253.0-1.0","null","<p></p>","null","","","","","","","","","","","","","","","","","","",""
"","do_trial","478","1504821","0.0-254.0-0.0","305.70000000298023","","","","50","0,1,0","5","countryside","195","probe-11","0.2923047532911766","0.6599490902514081","0.13270383639478633","1","","","","","","","",""
"","html-keyboard-response","479","1505837","0.0-254.0-1.0","null","<p></p>","null","","","","","","","","","","","","","","","","","","",""
"","do_trial","480","1510930","0.0-255.0-0.0","552","","","","50","1,1,0","5","countryside","196","probe-57","0.19282413890518035","0.563405030539546","0.18603236877160814","1","","","","","","","",""
"","html-keyboard-response","481","1511931","0.0-255.0-1.0","null","<p></p>","null","","","","","","","","","","","","","","","","","","",""
"","do_trial","482","1516873","0.0-256.0-0.0","409.5","","","","50","0,1,1","5","countryside","197","probe-44","0.16162919035527445","0.5830727961362357","0.1723238213601495","1","","","","","","","",""
"","html-keyboard-response","483","1517888","0.0-256.0-1.0","null","<p></p>","null","","","","","","","","","","","","","","","","","","",""
"","do_trial","484","1522925","0.0-257.0-0.0","495","","","","50","1,1,1","5","countryside","198","probe-100","0.3118279106851741","0.4534697305632864","0.11850115741997405","1","","","","","","","",""
"","html-keyboard-response","485","1523935","0.0-257.0-1.0","null","<p></p>","null","","","","","","","","","","","","","","","","","","",""
"","do_trial","486","1528864","0.0-258.0-0.0","392.29999999701977","","","","50","1,0,0","5","countryside","199","probe-120","0.24302624091865416","0.41640651284616753","0.20270502902053328","0","","","","","","","",""
"","html-keyboard-response","487","1529874","0.0-258.0-1.0","null","<p></p>","null","","","","","","","","","","","","","","","","","","",""
"","do_trial","488","1534847","0.0-259.0-0.0","435.6000000089407","","","","50","0,1,0","5","countryside","200","probe-142","0.30514147973770994","0.4649923982951603","0.18949865117977072","1","","","","","","","",""
"","html-keyboard-response","489","1535853","0.0-259.0-1.0","null","<p></p>","null","","","","","","","","","","","","","","","","","","",""
"","do_trial","490","1540812","0.0-260.0-0.0","420.40000000596046","","","","50","0,1,0","5","countryside","201","probe-03","0.45772825999848793","0.4192074896762201","0.11926614634267604","1","","","","","","","",""
"","html-keyboard-response","491","1541823","0.0-260.0-1.0","null","<p></p>","null","","","","","","","","","","","","","","","","","","",""
"","do_trial","492","1546931","0.0-261.0-0.0","575.7999999970198","","","","50","1,0,0","5","countryside","202","probe-200","0.47463225768844075","0.3161204209826702","0.12009280455088288","0","","","","","","","",""
"","html-keyboard-response","493","1547943","0.0-261.0-1.0","null","<p></p>","null","","","","","","","","","","","","","","","","","","",""
"","do_trial","494","1552722","0.0-262.0-0.0","235.6000000089407","","","","50","1,0,0","5","countryside","203","probe-20","0.4961002738895314","0.3357218105722173","0.13909718791465026","0","","","","","","","",""
"","html-keyboard-response","495","1553734","0.0-262.0-1.0","null","<p></p>","null","","","","","","","","","","","","","","","","","","",""
"","do_trial","496","1558629","0.0-263.0-0.0","345.5","","","","50","1,0,0","5","countryside","204","probe-78","0.6409865391978492","0.2641263159846982","0.10789163444172947","0","","","","","","","",""
"","html-keyboard-response","497","1559641","0.0-263.0-1.0","null","<p></p>","null","","","","","","","","","","","","","","","","","","",""
"","do_trial","498","1564583","0.0-264.0-0.0","401.29999999701977","","","","50","0,1,0","5","countryside","205","probe-165","0.5547841565397169","0.13669277248132958","0.15790390944207913","1","","","","","","","",""
"","html-keyboard-response","499","1565598","0.0-264.0-1.0","null","<p></p>","null","","","","","","","","","","","","","","","","","","",""
"","do_trial","500","1570414","0.0-265.0-0.0","279.70000000298023","","","","50","1,0,0","5","countryside","206","probe-105","0.7067364680043208","0.21241652527144742","0.1191508213401732","0","","","","","","","",""
"","html-keyboard-response","501","1571426","0.0-265.0-1.0","null","<p></p>","null","","","","","","","","","","","","","","","","","","",""
"","do_trial","502","1576308","0.0-266.0-0.0","347.20000000298023","","","","50","1,1,0","5","countryside","207","probe-49","0.6134541882691835","0.32121639090304027","0.09470568351905888","1","","","","","","","",""
"","html-keyboard-response","503","1577315","0.0-266.0-1.0","null","<p></p>","null","","","","","","","","","","","","","","","","","","",""
"","do_trial","504","1582252","0.0-267.0-0.0","391.6000000089407","","","","50","1,1,0","5","countryside","208","probe-97","0.5437206646394555","0.39937472085542447","0.19265324574451229","1","","","","","","","",""
"","html-keyboard-response","505","1583265","0.0-267.0-1.0","null","<p></p>","null","","","","","","","","","","","","","","","","","","",""
"","do_trial","506","1588261","0.0-268.0-0.0","461.5","","","","50","1,0,0","5","countryside","209","probe-198","0.589429823123904","0.3090419604183725","0.05098305126131772","0","","","","","","","",""
"","html-keyboard-response","507","1589275","0.0-268.0-1.0","null","<p></p>","null","","","","","","","","","","","","","","","","","","",""
"","do_trial","508","1594255","0.0-269.0-0.0","438","","","","50","0,0,0","5","countryside","210","probe-214","0.5820405058855338","0.18475550792928996","0.14019389936922547","0","","","","","","","",""
"","html-keyboard-response","509","1595261","0.0-269.0-1.0","null","<p></p>","null","","","","","","","","","","","","","","","","","","",""
"","do_trial","510","1600171","0.0-270.0-0.0","366.8999999910593","","","","50","0,0,0","5","countryside","211","probe-87","0.5244049626247131","0.06306871548790152","0.12754221357209125","0","","","","","","","",""
"","html-keyboard-response","511","1601177","0.0-270.0-1.0","null","<p></p>","null","","","","","","","","","","","","","","","","","","",""
"","do_trial","512","1605986","0.0-271.0-0.0","260.20000000298023","","","","50","0,0,0","5","countryside","212","probe-119","0.64878785933006","0.24276686105974685","0.10514988122655879","0","","","","","","","",""
"","html-keyboard-response","513","1607000","0.0-271.0-1.0","null","<p></p>","null","","","","","","","","","","","","","","","","","","",""
"","do_trial","514","1612018","0.0-272.0-0.0","479.19999998807907","","","","50","0,0,1","5","countryside","213","probe-173","0.5493498848344566","0.2975253150555028","0.09868432915493008","0","","","","","","","",""
"","html-keyboard-response","515","1613029","0.0-272.0-1.0","null","<p></p>","null","","","","","","","","","","","","","","","","","","",""
"","do_trial","516","1618119","0.0-273.0-0.0","549.2999999970198","","","","50","1,0,0","5","countryside","214","probe-85","0.6413659945726845","0.1651315138114223","0.24520851553230913","0","","","","","","","",""
"","html-keyboard-response","517","1619129","0.0-273.0-1.0","null","<p></p>","null","","","","","","","","","","","","","","","","","","",""
"","do_trial","518","1624049","0.0-274.0-0.0","381.20000000298023","","","","50","1,0,1","5","countryside","215","probe-175","0.5813324740361504","0.11765542824987314","0.1747608153843816","0","","","","","","","",""
"","html-keyboard-response","519","1625060","0.0-274.0-1.0","null","<p></p>","null","","","","","","","","","","","","","","","","","","",""
"","do_trial","520","1629983","0.0-275.0-0.0","380.5","","","","50","0,0,0","5","countryside","216","probe-215","0.6834873890161787","0.28399194030043495","0.12323498898209959","0","","","","","","","",""
"","html-keyboard-response","521","1630992","0.0-275.0-1.0","null","<p></p>","null","","","","","","","","","","","","","","","","","","",""
"","do_trial","522","1635861","0.0-276.0-0.0","338.8999999910593","","","","50","1,0,0","5","countryside","217","probe-201","0.43478083310023374","0.08931840958944122","0.07314766496266642","0","","","","","","","",""
"","html-keyboard-response","523","1636862","0.0-276.0-1.0","null","<p></p>","null","","","","","","","","","","","","","","","","","","",""
"","do_trial","524","1641698","0.0-277.0-0.0","295.20000000298023","","","","50","0,0,0","5","countryside","218","probe-07","0.4817596095807706","0.29132903037257196","0.10152129196468948","0","","","","","","","",""
"","html-keyboard-response","525","1642706","0.0-277.0-1.0","null","<p></p>","null","","","","","","","","","","","","","","","","","","",""
"","do_trial","526","1647574","0.0-278.0-0.0","330.40000000596046","","","","50","1,0,0","5","countryside","219","probe-139","0.521605817077639","0.16783794462137977","0.1131214608582801","0","","","","","","","",""
"","html-keyboard-response","527","1648583","0.0-278.0-1.0","null","<p></p>","null","","","","","","","","","","","","","","","","","","",""
"","do_trial","528","1653410","0.0-279.0-0.0","288.40000000596046","","","","50","1,0,0","5","countryside","220","probe-123","0.7126191796579184","0.07347644107974212","0.11924026009306023","0","","","","","","","",""
"","html-keyboard-response","529","1654417","0.0-279.0-1.0","null","<p></p>","null","","","","","","","","","","","","","","","","","","",""
"","do_trial","530","1659848","0.0-280.0-0.0","892.4000000059605","","","","50","1,1,1","5","countryside","221","probe-76","0.7941937179021212","0.24120308116781786","0.12721466926502617","1","","","","","","","",""
"","html-keyboard-response","531","1660861","0.0-280.0-1.0","null","<p></p>","null","","","","","","","","","","","","","","","","","","",""
