"success","trial_type","trial_index","time_elapsed","internal_node_id","interactions","blur_events","focus_events","fullscreenenter_events","fullscreenexit_events","rt","stimulus","key_press","subject_id","participant_id","age","gender","prompt","response","choice_outcomes","context_n","context_img_id","trial_n","probe_img_id","pR_red","pR_white","pR_black","outcome","contextArray_ind","validImageProbes","invalidImageProbes","pRew_Red","pRew_White","pRew_Black","availableForMemProbe","choice_blocks"
"true","fullscreen","0","2840364","0.0-0.0","""event"",""trial"",""time""
""blur"",""0"",""459557""
""focus"",""0"",""460828""
""blur"",""0"",""1061566""
""focus"",""0"",""1686083""
""blur"",""0"",""2288461""
""focus"",""0"",""2335008""
""fullscreenenter"",""0"",""2839373""
","""event"",""trial"",""time""
""blur"",""0"",""459557""
""blur"",""0"",""1061566""
""blur"",""0"",""2288461""
","""event"",""trial"",""time""
""focus"",""0"",""460828""
""focus"",""0"",""1686083""
""focus"",""0"",""2335008""
","""event"",""trial"",""time""
""fullscreenenter"",""0"",""2839373""
","
","","","","","","","","","","","","","","","","","","","","","","","","","",""
"","pavlovia","1","2840371","0.0-1.0","""event"",""trial"",""time""
""blur"",""0"",""459557""
""focus"",""0"",""460828""
""blur"",""0"",""1061566""
""focus"",""0"",""1686083""
""blur"",""0"",""2288461""
""focus"",""0"",""2335008""
""fullscreenenter"",""0"",""2839373""
","""event"",""trial"",""time""
""blur"",""0"",""459557""
""blur"",""0"",""1061566""
""blur"",""0"",""2288461""
","""event"",""trial"",""time""
""focus"",""0"",""460828""
""focus"",""0"",""1686083""
""focus"",""0"",""2335008""
","""event"",""trial"",""time""
""fullscreenenter"",""0"",""2839373""
","
","","","","","","","","","","","","","","","","","","","","","","","","","",""
"","instruc1","2","2886156","0.0-2.0","""event"",""trial"",""time""
""blur"",""0"",""459557""
""focus"",""0"",""460828""
""blur"",""0"",""1061566""
""focus"",""0"",""1686083""
""blur"",""0"",""2288461""
""focus"",""0"",""2335008""
""fullscreenenter"",""0"",""2839373""
","""event"",""trial"",""time""
""blur"",""0"",""459557""
""blur"",""0"",""1061566""
""blur"",""0"",""2288461""
","""event"",""trial"",""time""
""focus"",""0"",""460828""
""focus"",""0"",""1686083""
""focus"",""0"",""2335008""
","""event"",""trial"",""time""
""fullscreenenter"",""0"",""2839373""
","
","null","run_exp/static/audio/clip_1_welcome.m4a","null","265","897","23","female","<div class='center'><p>Welcome! This is the first part of the study. It will last ~30 minutes. In part 1 and part 2 of the study, you are the head captain of a pirate ship traveling around the world to different islands. You will play a few different games throughout these two parts. Here is an overview of them:</p><br><p>Part 1 (today)</p><p>1. Instructions, practice game, and quiz</p><p>2. Pick a pirate game on 6 different islands</p><br><p>Part 2 (tomorrow)</p><p>3. Pick a pirate game and memory game</p><p>4. Where did you see this ship? </p></div>","","","","","","","","","","","","","","","","","",""
"","html-keyboard-response","3","2889318","0.0-3.0","""event"",""trial"",""time""
""blur"",""0"",""459557""
""focus"",""0"",""460828""
""blur"",""0"",""1061566""
""focus"",""0"",""1686083""
""blur"",""0"",""2288461""
""focus"",""0"",""2335008""
""fullscreenenter"",""0"",""2839373""
","""event"",""trial"",""time""
""blur"",""0"",""459557""
""blur"",""0"",""1061566""
""blur"",""0"",""2288461""
","""event"",""trial"",""time""
""focus"",""0"",""460828""
""focus"",""0"",""1686083""
""focus"",""0"",""2335008""
","""event"",""trial"",""time""
""fullscreenenter"",""0"",""2839373""
","
","3157.7999999523163","<div class='center'><p>Welcome! This is the first part of the study. It will last ~30 minutes. In part 1 and part 2 of the study, you are the head captain of a pirate ship traveling around the world to different islands. You will play a few different games throughout these two parts. Here is an overview of them:</p><br><p>Part 1 (today)</p><p>1. Instructions, practice game, and quiz</p><p>2. Pick a pirate game on 6 different islands</p><br><p>Part 2 (tomorrow)</p><p>3. Pick a pirate game and memory game</p><p>4. Where did you see this ship? </p><p><b>[Press the space bar to continue]</b></p></div>","32","","","","","","","","","","","","","","","","","","","","","","",""
"","instruc2","4","2894635","0.0-4.0","""event"",""trial"",""time""
""blur"",""0"",""459557""
""focus"",""0"",""460828""
""blur"",""0"",""1061566""
""focus"",""0"",""1686083""
""blur"",""0"",""2288461""
""focus"",""0"",""2335008""
""fullscreenenter"",""0"",""2839373""
","""event"",""trial"",""time""
""blur"",""0"",""459557""
""blur"",""0"",""1061566""
""blur"",""0"",""2288461""
","""event"",""trial"",""time""
""focus"",""0"",""460828""
""focus"",""0"",""1686083""
""focus"",""0"",""2335008""
","""event"",""trial"",""time""
""fullscreenenter"",""0"",""2839373""
","
","null","run_exp/static/audio/clip_2_different_places.m4a","null","","","","","<div class='center'><p>Today, you’ll visit these 6 islands on your journey. You'll be able to see these islands from your ship.</p><p><img src='run_exp/static/images/contexts/all_contexts.png' height='500'></p></div>","","","","","","","","","","","","","","","","","",""
"","html-keyboard-response","5","2896066","0.0-5.0","""event"",""trial"",""time""
""blur"",""0"",""459557""
""focus"",""0"",""460828""
""blur"",""0"",""1061566""
""focus"",""0"",""1686083""
""blur"",""0"",""2288461""
""focus"",""0"",""2335008""
""fullscreenenter"",""0"",""2839373""
","""event"",""trial"",""time""
""blur"",""0"",""459557""
""blur"",""0"",""1061566""
""blur"",""0"",""2288461""
","""event"",""trial"",""time""
""focus"",""0"",""460828""
""focus"",""0"",""1686083""
""focus"",""0"",""2335008""
","""event"",""trial"",""time""
""fullscreenenter"",""0"",""2839373""
","
","1428.5","<div class='center'><p>Today, you’ll visit these 6 islands on your journey. You'll be able to see these islands from your ship.</p><p><img src='run_exp/static/images/contexts/all_contexts.png' height='500'></p><p><b>[Press the space bar to continue]</b></p></div>","32","","","","","","","","","","","","","","","","","","","","","","",""
"","instruc3","6","2905755","0.0-6.0","""event"",""trial"",""time""
""blur"",""0"",""459557""
""focus"",""0"",""460828""
""blur"",""0"",""1061566""
""focus"",""0"",""1686083""
""blur"",""0"",""2288461""
""focus"",""0"",""2335008""
""fullscreenenter"",""0"",""2839373""
","""event"",""trial"",""time""
""blur"",""0"",""459557""
""blur"",""0"",""1061566""
""blur"",""0"",""2288461""
","""event"",""trial"",""time""
""focus"",""0"",""460828""
""focus"",""0"",""1686083""
""focus"",""0"",""2335008""
","""event"",""trial"",""time""
""fullscreenenter"",""0"",""2839373""
","
","null","run_exp/static/audio/clip_3_goal_of_game_1.m4a","null","","","","","<div class='center'><p> The pirates on your ship will rob other ships as they leave the island.</p> These ships have just sold their goods to the islanders, so they will be filled with lots and lots of gold.</p><p><img src='run_exp/static/images/tutorial/ship_center.png' height='400'></p></div>","","","","","","","","","","","","","","","","","",""
"","html-keyboard-response","7","2911097","0.0-7.0","""event"",""trial"",""time""
""blur"",""0"",""459557""
""focus"",""0"",""460828""
""blur"",""0"",""1061566""
""focus"",""0"",""1686083""
""blur"",""0"",""2288461""
""focus"",""0"",""2335008""
""fullscreenenter"",""0"",""2839373""
","""event"",""trial"",""time""
""blur"",""0"",""459557""
""blur"",""0"",""1061566""
""blur"",""0"",""2288461""
","""event"",""trial"",""time""
""focus"",""0"",""460828""
""focus"",""0"",""1686083""
""focus"",""0"",""2335008""
","""event"",""trial"",""time""
""fullscreenenter"",""0"",""2839373""
","
","5338.800000011921","<div class='center'><p> The pirates on your ship will rob other ships as they leave the island.</p> These ships have just sold their goods to the islanders, so they will be filled with lots and lots of gold.</p><p><img src='run_exp/static/images/tutorial/ship_center.png' height='400'></p><p><b>[Press the space bar to continue]</b></p></div>","32","","","","","","","","","","","","","","","","","","","","","","",""
"","instruc4","8","2939096","0.0-8.0","""event"",""trial"",""time""
""blur"",""0"",""459557""
""focus"",""0"",""460828""
""blur"",""0"",""1061566""
""focus"",""0"",""1686083""
""blur"",""0"",""2288461""
""focus"",""0"",""2335008""
""fullscreenenter"",""0"",""2839373""
","""event"",""trial"",""time""
""blur"",""0"",""459557""
""blur"",""0"",""1061566""
""blur"",""0"",""2288461""
","""event"",""trial"",""time""
""focus"",""0"",""460828""
""focus"",""0"",""1686083""
""focus"",""0"",""2335008""
","""event"",""trial"",""time""
""fullscreenenter"",""0"",""2839373""
","
","null","run_exp/static/audio/clip_4_goal_of_game_2.m4a","null","","","","","<div class='center'><p>As the head captain, you do not have to rob any ships yourself. Another pirate will be doing the robbing for you. First, you will choose a pirate to rob the next ship.</p><p><img src='run_exp/static/images/tutorial/pirates_all_crop.png' height='200'></p><p>Then, you'll see if the pirate successfully robbed the ship of their gold. If they were successful, then you'll get a stack of gold coins like this:</p><p><img src='run_exp/static/images/tutorial/reward.png' height='150'></p><p> If they were <b>not</b> successful, then you'll get no gold coins, and you'll see a big red x like this: </p><p><img src='run_exp/static/images/tutorial/reward_no.png' height='150'></p><p> How much bonus money you make is based on how many gold coins you collect.</p><div>","","","","","","","","","","","","","","","","","",""
"","html-keyboard-response","9","2940864","0.0-9.0","""event"",""trial"",""time""
""blur"",""0"",""459557""
""focus"",""0"",""460828""
""blur"",""0"",""1061566""
""focus"",""0"",""1686083""
""blur"",""0"",""2288461""
""focus"",""0"",""2335008""
""fullscreenenter"",""0"",""2839373""
","""event"",""trial"",""time""
""blur"",""0"",""459557""
""blur"",""0"",""1061566""
""blur"",""0"",""2288461""
","""event"",""trial"",""time""
""focus"",""0"",""460828""
""focus"",""0"",""1686083""
""focus"",""0"",""2335008""
","""event"",""trial"",""time""
""fullscreenenter"",""0"",""2839373""
","
","1765.300000011921","<div class='center'><p>As the head captain, you do not have to rob any ships yourself. Another pirate will be doing the robbing for you. First, you will choose a pirate to rob the next ship.</p><p><img src='run_exp/static/images/tutorial/pirates_all_crop.png' height='200'></p><p>Then, you'll see if the pirate successfully robbed the ship of their gold. If they were successful, then you'll get a stack of gold coins like this:</p><p><img src='run_exp/static/images/tutorial/reward.png' height='150'></p><p> If they were <b>not</b> successful, then you'll get no gold coins, and you'll see a big red x like this: </p><p><img src='run_exp/static/images/tutorial/reward_no.png' height='150'></p><p> How much bonus money you make is based on how many gold coins you collect.</p<p><b>[Press the space bar to continue]</b></p></div>","32","","","","","","","","","","","","","","","","","","","","","","",""
"","instruc5","10","2962718","0.0-10.0","""event"",""trial"",""time""
""blur"",""0"",""459557""
""focus"",""0"",""460828""
""blur"",""0"",""1061566""
""focus"",""0"",""1686083""
""blur"",""0"",""2288461""
""focus"",""0"",""2335008""
""fullscreenenter"",""0"",""2839373""
","""event"",""trial"",""time""
""blur"",""0"",""459557""
""blur"",""0"",""1061566""
""blur"",""0"",""2288461""
","""event"",""trial"",""time""
""focus"",""0"",""460828""
""focus"",""0"",""1686083""
""focus"",""0"",""2335008""
","""event"",""trial"",""time""
""fullscreenenter"",""0"",""2839373""
","
","21852.80000001192","run_exp/static/audio/clip_5_probabilistic.m4a","49","","","","","<div class='center'><p>Even the most skilled pirate can not rob EVERY ship.</p><p> Some ships will have very strong protections against pirate attacks.</p><p> Blue beard, here, is very, very good at robbing ships, but he won't be successful every time he tries to rob one.</p><p> You can press the <b>‘1’</b> key on the keyboard to choose him.</p><p> Try choosing him 10 times to see how often he succeeds at robbing a ship. </p><p><img src='run_exp/static/images/tutorial/blue.png' height='500'></p></div>","","","","","","","","","","","","","","","","","",""
"","html-keyboard-response","11","2964232","0.0-11.0","""event"",""trial"",""time""
""blur"",""0"",""459557""
""focus"",""0"",""460828""
""blur"",""0"",""1061566""
""focus"",""0"",""1686083""
""blur"",""0"",""2288461""
""focus"",""0"",""2335008""
""fullscreenenter"",""0"",""2839373""
","""event"",""trial"",""time""
""blur"",""0"",""459557""
""blur"",""0"",""1061566""
""blur"",""0"",""2288461""
","""event"",""trial"",""time""
""focus"",""0"",""460828""
""focus"",""0"",""1686083""
""focus"",""0"",""2335008""
","""event"",""trial"",""time""
""fullscreenenter"",""0"",""2839373""
","
","null","<div class='center'><p><img src='run_exp/static/images/tutorial/blue_win.png' height='500'></p></div>","null","","","","","","","","","","","","","","","","","","","","","","",""
"","html-keyboard-response","12","2965109","0.0-12.0","""event"",""trial"",""time""
""blur"",""0"",""459557""
""focus"",""0"",""460828""
""blur"",""0"",""1061566""
""focus"",""0"",""1686083""
""blur"",""0"",""2288461""
""focus"",""0"",""2335008""
""fullscreenenter"",""0"",""2839373""
","""event"",""trial"",""time""
""blur"",""0"",""459557""
""blur"",""0"",""1061566""
""blur"",""0"",""2288461""
","""event"",""trial"",""time""
""focus"",""0"",""460828""
""focus"",""0"",""1686083""
""focus"",""0"",""2335008""
","""event"",""trial"",""time""
""fullscreenenter"",""0"",""2839373""
","
","875.8000000119209","<div class='center'><img src='run_exp/static/images/tutorial/blue.png' height='500'></p></div>","49","","","","","","","","","","","","","","","","","","","","","","",""
"","html-keyboard-response","13","2966619","0.0-13.0","""event"",""trial"",""time""
""blur"",""0"",""459557""
""focus"",""0"",""460828""
""blur"",""0"",""1061566""
""focus"",""0"",""1686083""
""blur"",""0"",""2288461""
""focus"",""0"",""2335008""
""fullscreenenter"",""0"",""2839373""
","""event"",""trial"",""time""
""blur"",""0"",""459557""
""blur"",""0"",""1061566""
""blur"",""0"",""2288461""
","""event"",""trial"",""time""
""focus"",""0"",""460828""
""focus"",""0"",""1686083""
""focus"",""0"",""2335008""
","""event"",""trial"",""time""
""fullscreenenter"",""0"",""2839373""
","
","null","<div class='center'><p><img src='run_exp/static/images/tutorial/blue_win.png' height='500'></p></div>","null","","","","","","","","","","","","","","","","","","","","","","",""
"","html-keyboard-response","14","2966999","0.0-14.0","""event"",""trial"",""time""
""blur"",""0"",""459557""
""focus"",""0"",""460828""
""blur"",""0"",""1061566""
""focus"",""0"",""1686083""
""blur"",""0"",""2288461""
""focus"",""0"",""2335008""
""fullscreenenter"",""0"",""2839373""
","""event"",""trial"",""time""
""blur"",""0"",""459557""
""blur"",""0"",""1061566""
""blur"",""0"",""2288461""
","""event"",""trial"",""time""
""focus"",""0"",""460828""
""focus"",""0"",""1686083""
""focus"",""0"",""2335008""
","""event"",""trial"",""time""
""fullscreenenter"",""0"",""2839373""
","
","378.80000001192093","<div class='center'><img src='run_exp/static/images/tutorial/blue.png' height='500'></p></div>","49","","","","","","","","","","","","","","","","","","","","","","",""
"","html-keyboard-response","15","2968509","0.0-15.0","""event"",""trial"",""time""
""blur"",""0"",""459557""
""focus"",""0"",""460828""
""blur"",""0"",""1061566""
""focus"",""0"",""1686083""
""blur"",""0"",""2288461""
""focus"",""0"",""2335008""
""fullscreenenter"",""0"",""2839373""
","""event"",""trial"",""time""
""blur"",""0"",""459557""
""blur"",""0"",""1061566""
""blur"",""0"",""2288461""
","""event"",""trial"",""time""
""focus"",""0"",""460828""
""focus"",""0"",""1686083""
""focus"",""0"",""2335008""
","""event"",""trial"",""time""
""fullscreenenter"",""0"",""2839373""
","
","null","<div class='center'><p><img src='run_exp/static/images/tutorial/blue_win.png' height='500'></p></div>","null","","","","","","","","","","","","","","","","","","","","","","",""
"","html-keyboard-response","16","2969190","0.0-16.0","""event"",""trial"",""time""
""blur"",""0"",""459557""
""focus"",""0"",""460828""
""blur"",""0"",""1061566""
""focus"",""0"",""1686083""
""blur"",""0"",""2288461""
""focus"",""0"",""2335008""
""fullscreenenter"",""0"",""2839373""
","""event"",""trial"",""time""
""blur"",""0"",""459557""
""blur"",""0"",""1061566""
""blur"",""0"",""2288461""
","""event"",""trial"",""time""
""focus"",""0"",""460828""
""focus"",""0"",""1686083""
""focus"",""0"",""2335008""
","""event"",""trial"",""time""
""fullscreenenter"",""0"",""2839373""
","
","679.5999999642372","<div class='center'><img src='run_exp/static/images/tutorial/blue.png' height='500'></p></div>","49","","","","","","","","","","","","","","","","","","","","","","",""
"","html-keyboard-response","17","2970692","0.0-17.0","""event"",""trial"",""time""
""blur"",""0"",""459557""
""focus"",""0"",""460828""
""blur"",""0"",""1061566""
""focus"",""0"",""1686083""
""blur"",""0"",""2288461""
""focus"",""0"",""2335008""
""fullscreenenter"",""0"",""2839373""
","""event"",""trial"",""time""
""blur"",""0"",""459557""
""blur"",""0"",""1061566""
""blur"",""0"",""2288461""
","""event"",""trial"",""time""
""focus"",""0"",""460828""
""focus"",""0"",""1686083""
""focus"",""0"",""2335008""
","""event"",""trial"",""time""
""fullscreenenter"",""0"",""2839373""
","
","null","<div class='center'><p><img src='run_exp/static/images/tutorial/blue_no_win.png' height='500'></p></div>","null","","","","","","","","","","","","","","","","","","","","","","",""
"","html-keyboard-response","18","2971127","0.0-18.0","""event"",""trial"",""time""
""blur"",""0"",""459557""
""focus"",""0"",""460828""
""blur"",""0"",""1061566""
""focus"",""0"",""1686083""
""blur"",""0"",""2288461""
""focus"",""0"",""2335008""
""fullscreenenter"",""0"",""2839373""
","""event"",""trial"",""time""
""blur"",""0"",""459557""
""blur"",""0"",""1061566""
""blur"",""0"",""2288461""
","""event"",""trial"",""time""
""focus"",""0"",""460828""
""focus"",""0"",""1686083""
""focus"",""0"",""2335008""
","""event"",""trial"",""time""
""fullscreenenter"",""0"",""2839373""
","
","433.19999998807907","<div class='center'><img src='run_exp/static/images/tutorial/blue.png' height='500'></p></div>","49","","","","","","","","","","","","","","","","","","","","","","",""
"","html-keyboard-response","19","2972636","0.0-19.0","""event"",""trial"",""time""
""blur"",""0"",""459557""
""focus"",""0"",""460828""
""blur"",""0"",""1061566""
""focus"",""0"",""1686083""
""blur"",""0"",""2288461""
""focus"",""0"",""2335008""
""fullscreenenter"",""0"",""2839373""
","""event"",""trial"",""time""
""blur"",""0"",""459557""
""blur"",""0"",""1061566""
""blur"",""0"",""2288461""
","""event"",""trial"",""time""
""focus"",""0"",""460828""
""focus"",""0"",""1686083""
""focus"",""0"",""2335008""
","""event"",""trial"",""time""
""fullscreenenter"",""0"",""2839373""
","
","null","<div class='center'><p><img src='run_exp/static/images/tutorial/blue_win.png' height='500'></p></div>","null","","","","","","","","","","","","","","","","","","","","","","",""
"","html-keyboard-response","20","2972818","0.0-20.0","""event"",""trial"",""time""
""blur"",""0"",""459557""
""focus"",""0"",""460828""
""blur"",""0"",""1061566""
""focus"",""0"",""1686083""
""blur"",""0"",""2288461""
""focus"",""0"",""2335008""
""fullscreenenter"",""0"",""2839373""
","""event"",""trial"",""time""
""blur"",""0"",""459557""
""blur"",""0"",""1061566""
""blur"",""0"",""2288461""
","""event"",""trial"",""time""
""focus"",""0"",""460828""
""focus"",""0"",""1686083""
""focus"",""0"",""2335008""
","""event"",""trial"",""time""
""fullscreenenter"",""0"",""2839373""
","
","180.5","<div class='center'><img src='run_exp/static/images/tutorial/blue.png' height='500'></p></div>","49","","","","","","","","","","","","","","","","","","","","","","",""
"","html-keyboard-response","21","2974327","0.0-21.0","""event"",""trial"",""time""
""blur"",""0"",""459557""
""focus"",""0"",""460828""
""blur"",""0"",""1061566""
""focus"",""0"",""1686083""
""blur"",""0"",""2288461""
""focus"",""0"",""2335008""
""fullscreenenter"",""0"",""2839373""
","""event"",""trial"",""time""
""blur"",""0"",""459557""
""blur"",""0"",""1061566""
""blur"",""0"",""2288461""
","""event"",""trial"",""time""
""focus"",""0"",""460828""
""focus"",""0"",""1686083""
""focus"",""0"",""2335008""
","""event"",""trial"",""time""
""fullscreenenter"",""0"",""2839373""
","
","null","<div class='center'><p><img src='run_exp/static/images/tutorial/blue_win.png' height='500'></p></div>","null","","","","","","","","","","","","","","","","","","","","","","",""
"","html-keyboard-response","22","2974612","0.0-22.0","""event"",""trial"",""time""
""blur"",""0"",""459557""
""focus"",""0"",""460828""
""blur"",""0"",""1061566""
""focus"",""0"",""1686083""
""blur"",""0"",""2288461""
""focus"",""0"",""2335008""
""fullscreenenter"",""0"",""2839373""
","""event"",""trial"",""time""
""blur"",""0"",""459557""
""blur"",""0"",""1061566""
""blur"",""0"",""2288461""
","""event"",""trial"",""time""
""focus"",""0"",""460828""
""focus"",""0"",""1686083""
""focus"",""0"",""2335008""
","""event"",""trial"",""time""
""fullscreenenter"",""0"",""2839373""
","
","283.19999998807907","<div class='center'><img src='run_exp/static/images/tutorial/blue.png' height='500'></p></div>","49","","","","","","","","","","","","","","","","","","","","","","",""
"","html-keyboard-response","23","2976123","0.0-23.0","""event"",""trial"",""time""
""blur"",""0"",""459557""
""focus"",""0"",""460828""
""blur"",""0"",""1061566""
""focus"",""0"",""1686083""
""blur"",""0"",""2288461""
""focus"",""0"",""2335008""
""fullscreenenter"",""0"",""2839373""
","""event"",""trial"",""time""
""blur"",""0"",""459557""
""blur"",""0"",""1061566""
""blur"",""0"",""2288461""
","""event"",""trial"",""time""
""focus"",""0"",""460828""
""focus"",""0"",""1686083""
""focus"",""0"",""2335008""
","""event"",""trial"",""time""
""fullscreenenter"",""0"",""2839373""
","
","null","<div class='center'><p><img src='run_exp/static/images/tutorial/blue_win.png' height='500'></p></div>","null","","","","","","","","","","","","","","","","","","","","","","",""
"","html-keyboard-response","24","2976361","0.0-24.0","""event"",""trial"",""time""
""blur"",""0"",""459557""
""focus"",""0"",""460828""
""blur"",""0"",""1061566""
""focus"",""0"",""1686083""
""blur"",""0"",""2288461""
""focus"",""0"",""2335008""
""fullscreenenter"",""0"",""2839373""
","""event"",""trial"",""time""
""blur"",""0"",""459557""
""blur"",""0"",""1061566""
""blur"",""0"",""2288461""
","""event"",""trial"",""time""
""focus"",""0"",""460828""
""focus"",""0"",""1686083""
""focus"",""0"",""2335008""
","""event"",""trial"",""time""
""fullscreenenter"",""0"",""2839373""
","
","237.0999999642372","<div class='center'><img src='run_exp/static/images/tutorial/blue.png' height='500'></p></div>","49","","","","","","","","","","","","","","","","","","","","","","",""
"","html-keyboard-response","25","2977869","0.0-25.0","""event"",""trial"",""time""
""blur"",""0"",""459557""
""focus"",""0"",""460828""
""blur"",""0"",""1061566""
""focus"",""0"",""1686083""
""blur"",""0"",""2288461""
""focus"",""0"",""2335008""
""fullscreenenter"",""0"",""2839373""
","""event"",""trial"",""time""
""blur"",""0"",""459557""
""blur"",""0"",""1061566""
""blur"",""0"",""2288461""
","""event"",""trial"",""time""
""focus"",""0"",""460828""
""focus"",""0"",""1686083""
""focus"",""0"",""2335008""
","""event"",""trial"",""time""
""fullscreenenter"",""0"",""2839373""
","
","null","<div class='center'><p><img src='run_exp/static/images/tutorial/blue_no_win.png' height='500'></p></div>","null","","","","","","","","","","","","","","","","","","","","","","",""
"","html-keyboard-response","26","2978154","0.0-26.0","""event"",""trial"",""time""
""blur"",""0"",""459557""
""focus"",""0"",""460828""
""blur"",""0"",""1061566""
""focus"",""0"",""1686083""
""blur"",""0"",""2288461""
""focus"",""0"",""2335008""
""fullscreenenter"",""0"",""2839373""
","""event"",""trial"",""time""
""blur"",""0"",""459557""
""blur"",""0"",""1061566""
""blur"",""0"",""2288461""
","""event"",""trial"",""time""
""focus"",""0"",""460828""
""focus"",""0"",""1686083""
""focus"",""0"",""2335008""
","""event"",""trial"",""time""
""fullscreenenter"",""0"",""2839373""
","
","283.80000001192093","<div class='center'><img src='run_exp/static/images/tutorial/blue.png' height='500'></p></div>","49","","","","","","","","","","","","","","","","","","","","","","",""
"","html-keyboard-response","27","2979664","0.0-27.0","""event"",""trial"",""time""
""blur"",""0"",""459557""
""focus"",""0"",""460828""
""blur"",""0"",""1061566""
""focus"",""0"",""1686083""
""blur"",""0"",""2288461""
""focus"",""0"",""2335008""
""fullscreenenter"",""0"",""2839373""
","""event"",""trial"",""time""
""blur"",""0"",""459557""
""blur"",""0"",""1061566""
""blur"",""0"",""2288461""
","""event"",""trial"",""time""
""focus"",""0"",""460828""
""focus"",""0"",""1686083""
""focus"",""0"",""2335008""
","""event"",""trial"",""time""
""fullscreenenter"",""0"",""2839373""
","
","null","<div class='center'><p><img src='run_exp/static/images/tutorial/blue_win.png' height='500'></p></div>","null","","","","","","","","","","","","","","","","","","","","","","",""
"","html-keyboard-response","28","2979942","0.0-28.0","""event"",""trial"",""time""
""blur"",""0"",""459557""
""focus"",""0"",""460828""
""blur"",""0"",""1061566""
""focus"",""0"",""1686083""
""blur"",""0"",""2288461""
""focus"",""0"",""2335008""
""fullscreenenter"",""0"",""2839373""
","""event"",""trial"",""time""
""blur"",""0"",""459557""
""blur"",""0"",""1061566""
""blur"",""0"",""2288461""
","""event"",""trial"",""time""
""focus"",""0"",""460828""
""focus"",""0"",""1686083""
""focus"",""0"",""2335008""
","""event"",""trial"",""time""
""fullscreenenter"",""0"",""2839373""
","
","277.30000001192093","<div class='center'><img src='run_exp/static/images/tutorial/blue.png' height='500'></p></div>","49","","","","","","","","","","","","","","","","","","","","","","",""
"","html-keyboard-response","29","2981454","0.0-29.0","""event"",""trial"",""time""
""blur"",""0"",""459557""
""focus"",""0"",""460828""
""blur"",""0"",""1061566""
""focus"",""0"",""1686083""
""blur"",""0"",""2288461""
""focus"",""0"",""2335008""
""fullscreenenter"",""0"",""2839373""
","""event"",""trial"",""time""
""blur"",""0"",""459557""
""blur"",""0"",""1061566""
""blur"",""0"",""2288461""
","""event"",""trial"",""time""
""focus"",""0"",""460828""
""focus"",""0"",""1686083""
""focus"",""0"",""2335008""
","""event"",""trial"",""time""
""fullscreenenter"",""0"",""2839373""
","
","null","<div class='center'><p><img src='run_exp/static/images/tutorial/blue_win.png' height='500'></p></div>","null","","","","","","","","","","","","","","","","","","","","","","",""
"","instruc6","30","2987310","0.0-30.0","""event"",""trial"",""time""
""blur"",""0"",""459557""
""focus"",""0"",""460828""
""blur"",""0"",""1061566""
""focus"",""0"",""1686083""
""blur"",""0"",""2288461""
""focus"",""0"",""2335008""
""fullscreenenter"",""0"",""2839373""
","""event"",""trial"",""time""
""blur"",""0"",""459557""
""blur"",""0"",""1061566""
""blur"",""0"",""2288461""
","""event"",""trial"",""time""
""focus"",""0"",""460828""
""focus"",""0"",""1686083""
""focus"",""0"",""2335008""
","""event"",""trial"",""time""
""fullscreenenter"",""0"",""2839373""
","
","null","run_exp/static/audio/clip_6_blue_beard_outcome.m4a","null","","","","","<div class='center'><p> See, he succeeded in robbing the ships most of the time but not every time. </p></div>","","","","","","","","","","","","","","","","","",""
"","html-keyboard-response","31","2991916","0.0-31.0","""event"",""trial"",""time""
""blur"",""0"",""459557""
""focus"",""0"",""460828""
""blur"",""0"",""1061566""
""focus"",""0"",""1686083""
""blur"",""0"",""2288461""
""focus"",""0"",""2335008""
""fullscreenenter"",""0"",""2839373""
","""event"",""trial"",""time""
""blur"",""0"",""459557""
""blur"",""0"",""1061566""
""blur"",""0"",""2288461""
","""event"",""trial"",""time""
""focus"",""0"",""460828""
""focus"",""0"",""1686083""
""focus"",""0"",""2335008""
","""event"",""trial"",""time""
""fullscreenenter"",""0"",""2839373""
","
","4605","<div class='center'><p> See, he succeeded in robbing the ships most of the time but not every time. </p><p><b>[Press the space bar to continue]</b></p></div>","32","","","","","","","","","","","","","","","","","","","","","","",""
"","audio-keyboard-response","32","3009313","0.0-32.0","""event"",""trial"",""time""
""blur"",""0"",""459557""
""focus"",""0"",""460828""
""blur"",""0"",""1061566""
""focus"",""0"",""1686083""
""blur"",""0"",""2288461""
""focus"",""0"",""2335008""
""fullscreenenter"",""0"",""2839373""
","""event"",""trial"",""time""
""blur"",""0"",""459557""
""blur"",""0"",""1061566""
""blur"",""0"",""2288461""
","""event"",""trial"",""time""
""focus"",""0"",""460828""
""focus"",""0"",""1686083""
""focus"",""0"",""2335008""
","""event"",""trial"",""time""
""fullscreenenter"",""0"",""2839373""
","
","17395.80000001192","run_exp/static/audio/clip_7_pick_pirate.m4a","51","","","","","","","","","","","","","","","","","","","","","","",""
"","audio-keyboard-response","33","3019567","0.0-33.0-0.0","""event"",""trial"",""time""
""blur"",""0"",""459557""
""focus"",""0"",""460828""
""blur"",""0"",""1061566""
""focus"",""0"",""1686083""
""blur"",""0"",""2288461""
""focus"",""0"",""2335008""
""fullscreenenter"",""0"",""2839373""
","""event"",""trial"",""time""
""blur"",""0"",""459557""
""blur"",""0"",""1061566""
""blur"",""0"",""2288461""
","""event"",""trial"",""time""
""focus"",""0"",""460828""
""focus"",""0"",""1686083""
""focus"",""0"",""2335008""
","""event"",""trial"",""time""
""fullscreenenter"",""0"",""2839373""
","
","10251.300000011921","run_exp/static/audio/clip_8_chosen_pirate_win.m4a","32","","","","","","","","","","","","","","","","","","","","","","",""
"","audio-keyboard-response","34","3022010","0.0-33.0-1.0","""event"",""trial"",""time""
""blur"",""0"",""459557""
""focus"",""0"",""460828""
""blur"",""0"",""1061566""
""focus"",""0"",""1686083""
""blur"",""0"",""2288461""
""focus"",""0"",""2335008""
""fullscreenenter"",""0"",""2839373""
","""event"",""trial"",""time""
""blur"",""0"",""459557""
""blur"",""0"",""1061566""
""blur"",""0"",""2288461""
","""event"",""trial"",""time""
""focus"",""0"",""460828""
""focus"",""0"",""1686083""
""focus"",""0"",""2335008""
","""event"",""trial"",""time""
""fullscreenenter"",""0"",""2839373""
","
","2441.199999988079","run_exp/static/audio/clip_9_pick_a_pirate_again.m4a","49","","","","","","","","","","","","","","","","","","","","","","",""
"","audio-keyboard-response","35","3039967","0.0-34.0-0.0","""event"",""trial"",""time""
""blur"",""0"",""459557""
""focus"",""0"",""460828""
""blur"",""0"",""1061566""
""focus"",""0"",""1686083""
""blur"",""0"",""2288461""
""focus"",""0"",""2335008""
""fullscreenenter"",""0"",""2839373""
","""event"",""trial"",""time""
""blur"",""0"",""459557""
""blur"",""0"",""1061566""
""blur"",""0"",""2288461""
","""event"",""trial"",""time""
""focus"",""0"",""460828""
""focus"",""0"",""1686083""
""focus"",""0"",""2335008""
","""event"",""trial"",""time""
""fullscreenenter"",""0"",""2839373""
","
","17955","run_exp/static/audio/clip_10_chosen_pirate_loss.m4a","32","","","","","","","","","","","","","","","","","","","","","","",""
"","instruc9","36","3045429","0.0-35.0-0.0","""event"",""trial"",""time""
""blur"",""0"",""459557""
""focus"",""0"",""460828""
""blur"",""0"",""1061566""
""focus"",""0"",""1686083""
""blur"",""0"",""2288461""
""focus"",""0"",""2335008""
""fullscreenenter"",""0"",""2839373""
","""event"",""trial"",""time""
""blur"",""0"",""459557""
""blur"",""0"",""1061566""
""blur"",""0"",""2288461""
","""event"",""trial"",""time""
""focus"",""0"",""460828""
""focus"",""0"",""1686083""
""focus"",""0"",""2335008""
","""event"",""trial"",""time""
""fullscreenenter"",""0"",""2839373""
","
","null","run_exp/static/audio/clip_11_time_out.m4a","null","","","","","<div class='center'><p>If you don’t make your choice fast enough, you’ll have to wait a few seconds before you can make another one. </p><p><img src='run_exp/static/images/miscellaneous/hurry_up.png' height='500'></p></div>","","","","","","","","","","","","","","","","","",""
"","html-keyboard-response","37","3067030","0.0-35.0-1.0","""event"",""trial"",""time""
""blur"",""0"",""459557""
""focus"",""0"",""460828""
""blur"",""0"",""1061566""
""focus"",""0"",""1686083""
""blur"",""0"",""2288461""
""focus"",""0"",""2335008""
""fullscreenenter"",""0"",""2839373""
","""event"",""trial"",""time""
""blur"",""0"",""459557""
""blur"",""0"",""1061566""
""blur"",""0"",""2288461""
","""event"",""trial"",""time""
""focus"",""0"",""460828""
""focus"",""0"",""1686083""
""focus"",""0"",""2335008""
","""event"",""trial"",""time""
""fullscreenenter"",""0"",""2839373""
","
","21599.69999998808","<div class='center'><p>If you don’t make your choice fast enough, you’ll have to wait a few seconds before you can make another one. </p><p><img src='run_exp/static/images/miscellaneous/hurry_up.png' height='500'></p><p><b>[Press the space bar to continue]</b></p></div>","32","","","","","","","","","","","","","","","","","","","","","","",""
"","instruc10","38","3106564","0.0-35.0-2.0","""event"",""trial"",""time""
""blur"",""0"",""459557""
""focus"",""0"",""460828""
""blur"",""0"",""1061566""
""focus"",""0"",""1686083""
""blur"",""0"",""2288461""
""focus"",""0"",""2335008""
""fullscreenenter"",""0"",""2839373""
","""event"",""trial"",""time""
""blur"",""0"",""459557""
""blur"",""0"",""1061566""
""blur"",""0"",""2288461""
","""event"",""trial"",""time""
""focus"",""0"",""460828""
""focus"",""0"",""1686083""
""focus"",""0"",""2335008""
","""event"",""trial"",""time""
""fullscreenenter"",""0"",""2839373""
","
","null","run_exp/static/audio/clip_12_probe.m4a","null","","","","","<div class='center'><p>Once you've chosen a pirate, you’ll be shown the ship they are robbing. You will never rob the same ship twice. Ships can be told apart from one another by the image on them. These are the goods that they sell. See, this ship has a travel mug on it. </p><p> You’ll have to remember which island you saw each ship on. You will win more gold coins and hence more bonus money if you remember correctly! To help you remember, you can imagine a story. For example, here, you could imagine a mug full of water in the desert. Or, as another example, if on the forest island, your pirate robbed a ship with an apple on it, you could imagine an apple falling from a tree in the forest. </p><p><img src='run_exp/static/images/tutorial/example_probe.png' height='500'></p></div>","","","","","","","","","","","","","","","","","",""
"","html-keyboard-response","39","3110733","0.0-35.0-3.0","""event"",""trial"",""time""
""blur"",""0"",""459557""
""focus"",""0"",""460828""
""blur"",""0"",""1061566""
""focus"",""0"",""1686083""
""blur"",""0"",""2288461""
""focus"",""0"",""2335008""
""fullscreenenter"",""0"",""2839373""
","""event"",""trial"",""time""
""blur"",""0"",""459557""
""blur"",""0"",""1061566""
""blur"",""0"",""2288461""
","""event"",""trial"",""time""
""focus"",""0"",""460828""
""focus"",""0"",""1686083""
""focus"",""0"",""2335008""
","""event"",""trial"",""time""
""fullscreenenter"",""0"",""2839373""
","
","4167.100000023842","<div class='center'><p>Once you've chosen a pirate, you’ll be shown the ship they are robbing. You will never rob the same ship twice. Ships can be told apart from one another by the image on them. These are the goods that they sell. See, this ship has a travel mug on it. </p><p> You’ll have to remember which island you saw each ship on. You will win more gold coins and hence more bonus money if you remember correctly! To help you remember, you can imagine a story. For example, here, you could imagine a mug full of water in the desert. Or, as another example, if on the forest island, your pirate robbed a ship with an apple on it, you could imagine an apple falling from a tree in the forest. </p><p><img src='run_exp/static/images/tutorial/example_probe.png' height='500'></p><p><b>[Press the space bar to continue]</b></p></div>","32","","","","","","","","","","","","","","","","","","","","","","",""
"","instruc11","40","3127144","0.0-35.0-4.0","""event"",""trial"",""time""
""blur"",""0"",""459557""
""focus"",""0"",""460828""
""blur"",""0"",""1061566""
""focus"",""0"",""1686083""
""blur"",""0"",""2288461""
""focus"",""0"",""2335008""
""fullscreenenter"",""0"",""2839373""
","""event"",""trial"",""time""
""blur"",""0"",""459557""
""blur"",""0"",""1061566""
""blur"",""0"",""2288461""
","""event"",""trial"",""time""
""focus"",""0"",""460828""
""focus"",""0"",""1686083""
""focus"",""0"",""2335008""
","""event"",""trial"",""time""
""fullscreenenter"",""0"",""2839373""
","
","null","run_exp/static/audio/clip_13_changepoint.m4a","null","","","","","<div class='center'><p>How successful a pirate is at robbing ships will depend on the island you’re on.</p><p> A pirate may have visited this island many times before and gained a lot of practice robbing ships there.</p><p>So, they’re more likely to be successful than a pirate who has never visited the island before.</p></div>","","","","","","","","","","","","","","","","","",""
"","html-keyboard-response","41","3131479","0.0-35.0-5.0","""event"",""trial"",""time""
""blur"",""0"",""459557""
""focus"",""0"",""460828""
""blur"",""0"",""1061566""
""focus"",""0"",""1686083""
""blur"",""0"",""2288461""
""focus"",""0"",""2335008""
""fullscreenenter"",""0"",""2839373""
","""event"",""trial"",""time""
""blur"",""0"",""459557""
""blur"",""0"",""1061566""
""blur"",""0"",""2288461""
","""event"",""trial"",""time""
""focus"",""0"",""460828""
""focus"",""0"",""1686083""
""focus"",""0"",""2335008""
","""event"",""trial"",""time""
""fullscreenenter"",""0"",""2839373""
","
","4334.300000011921","<div class='center'><p>How successful a pirate is at robbing ships will depend on the island you’re on.</p><p> A pirate may have visited this island many times before and gained a lot of practice robbing ships there.</p><p>So, they’re more likely to be successful than a pirate who has never visited the island before.</p><p><b>[Press the space bar to continue]</b></p></div>","32","","","","","","","","","","","","","","","","","","","","","","",""
"","instruc12","42","3172564","0.0-35.0-6.0","""event"",""trial"",""time""
""blur"",""0"",""459557""
""focus"",""0"",""460828""
""blur"",""0"",""1061566""
""focus"",""0"",""1686083""
""blur"",""0"",""2288461""
""focus"",""0"",""2335008""
""fullscreenenter"",""0"",""2839373""
","""event"",""trial"",""time""
""blur"",""0"",""459557""
""blur"",""0"",""1061566""
""blur"",""0"",""2288461""
","""event"",""trial"",""time""
""focus"",""0"",""460828""
""focus"",""0"",""1686083""
""focus"",""0"",""2335008""
","""event"",""trial"",""time""
""fullscreenenter"",""0"",""2839373""
","
","null","run_exp/static/audio/clip_14_drift.m4a","null","","","","","<div class='center'><p>How successful a pirate is at robbing ships can also change over the time spent on the island. </p><p> Ships may hear from islanders about the pirates coming and will improve their protections against the attack. This may make it harder to rob them.</p><p> Ships may also become lazy and weaken the strength of their protections. This may make it easier to rob them.</p><br><p>Things are always changing on the high seas! So, try your best to pay attention!</p><p><img src='run_exp/static/images/tutorial/contingency.png' height='500'></p></div>","","","","","","","","","","","","","","","","","",""
"","html-keyboard-response","43","3181528","0.0-35.0-7.0","""event"",""trial"",""time""
""blur"",""0"",""459557""
""focus"",""0"",""460828""
""blur"",""0"",""1061566""
""focus"",""0"",""1686083""
""blur"",""0"",""2288461""
""focus"",""0"",""2335008""
""fullscreenenter"",""0"",""2839373""
","""event"",""trial"",""time""
""blur"",""0"",""459557""
""blur"",""0"",""1061566""
""blur"",""0"",""2288461""
","""event"",""trial"",""time""
""focus"",""0"",""460828""
""focus"",""0"",""1686083""
""focus"",""0"",""2335008""
","""event"",""trial"",""time""
""fullscreenenter"",""0"",""2839373""
","
","8963.200000047684","<div class='center'><p>How successful a pirate is at robbing ships can also change over the time spent on the island. </p><p> Ships may hear from islanders about the pirates coming and will improve their protections against the attack. This may make it harder to rob them.</p><p> Ships may also become lazy and weaken the strength of their protections. This may make it easier to rob them.</p><br><p>Things are always changing on the high seas! So, try your best to pay attention!</p><p><img src='run_exp/static/images/tutorial/contingency.png' height='500'></p><p><b>[Press the space bar to continue]</b></p></div>","32","","","","","","","","","","","","","","","","","","","","","","",""
"","instruc13","44","3216724","0.0-35.0-8.0","""event"",""trial"",""time""
""blur"",""0"",""459557""
""focus"",""0"",""460828""
""blur"",""0"",""1061566""
""focus"",""0"",""1686083""
""blur"",""0"",""2288461""
""focus"",""0"",""2335008""
""fullscreenenter"",""0"",""2839373""
","""event"",""trial"",""time""
""blur"",""0"",""459557""
""blur"",""0"",""1061566""
""blur"",""0"",""2288461""
","""event"",""trial"",""time""
""focus"",""0"",""460828""
""focus"",""0"",""1686083""
""focus"",""0"",""2335008""
","""event"",""trial"",""time""
""fullscreenenter"",""0"",""2839373""
","
","null","run_exp/static/audio/clip_15_summary.m4a","null","","","","","<div class='center'><p>Let's go over the instructions quickly again. You have two important things to do: </p><b><p> 1. Pick the pirate who is the best at robbing ships on the current island. </p></b><b><p> 2. Remember on which island a ship was robbed.</p> </b><p>The amount of bonus money you can win depends on both.</p><p><br><p>Let’s try a practice game. The game will start by showing you the pirates. First, pick a pirate using the <b> 1, 2, 3 </b> keys on your keyboard. When you are shown a ship, try to remember which island you’re on by making up a story.</p><p>This is just a practice game, so you’re not playing for money. </p><p> Good luck! This game will be very difficult but try your best!</p></div>","","","","","","","","","","","","","","","","","",""
"","html-keyboard-response","45","3879204","0.0-35.0-9.0","""event"",""trial"",""time""
""blur"",""0"",""459557""
""focus"",""0"",""460828""
""blur"",""0"",""1061566""
""focus"",""0"",""1686083""
""blur"",""0"",""2288461""
""focus"",""0"",""2335008""
""fullscreenenter"",""0"",""2839373""
","""event"",""trial"",""time""
""blur"",""0"",""459557""
""blur"",""0"",""1061566""
""blur"",""0"",""2288461""
","""event"",""trial"",""time""
""focus"",""0"",""460828""
""focus"",""0"",""1686083""
""focus"",""0"",""2335008""
","""event"",""trial"",""time""
""fullscreenenter"",""0"",""2839373""
","
","662479","<div class='center'><p>Let's go over the instructions quickly again. You have two important things to do: </p><b><p> 1. Pick the pirate who is the best at robbing ships on the current island. </p></b><b><p> 2. Remember on which island a ship was robbed.</p> </b><p>The amount of bonus money you can win depends on both.</p><p><br><p>Let’s try a practice game. The game will start by showing you the pirates. First, pick a pirate using the <b> 1, 2, 3 </b> keys on your keyboard. When you are shown a ship, try to remember which island you’re on by making up a story.</p><p>This is just a practice game, so you’re not playing for money. </p><p> Good luck! This game will be very difficult but try your best!</p><p><b>[Press the space bar to continue]</b></p></div>","32","","","","","","","","","","","","","","","","","","","","","","",""
"","do_welcome","46","3883222","0.0-35.0-10.0","""event"",""trial"",""time""
""blur"",""0"",""459557""
""focus"",""0"",""460828""
""blur"",""0"",""1061566""
""focus"",""0"",""1686083""
""blur"",""0"",""2288461""
""focus"",""0"",""2335008""
""fullscreenenter"",""0"",""2839373""
","""event"",""trial"",""time""
""blur"",""0"",""459557""
""blur"",""0"",""1061566""
""blur"",""0"",""2288461""
","""event"",""trial"",""time""
""focus"",""0"",""460828""
""focus"",""0"",""1686083""
""focus"",""0"",""2335008""
","""event"",""trial"",""time""
""fullscreenenter"",""0"",""2839373""
","
","null","","","","","","","","null","","","","","","","","","","","","","","","","",""
"","do_trial","47","3890445","0.0-35.0-11.0","""event"",""trial"",""time""
""blur"",""0"",""459557""
""focus"",""0"",""460828""
""blur"",""0"",""1061566""
""focus"",""0"",""1686083""
""blur"",""0"",""2288461""
""focus"",""0"",""2335008""
""fullscreenenter"",""0"",""2839373""
","""event"",""trial"",""time""
""blur"",""0"",""459557""
""blur"",""0"",""1061566""
""blur"",""0"",""2288461""
","""event"",""trial"",""time""
""focus"",""0"",""460828""
""focus"",""0"",""1686083""
""focus"",""0"",""2335008""
","""event"",""trial"",""time""
""fullscreenenter"",""0"",""2839373""
","
","2700.899999976158","","","","","","","","50","1,0,0","","","","","","","","","","","","","","","",""
"","html-keyboard-response","48","3891462","0.0-36.0-0.0","""event"",""trial"",""time""
""blur"",""0"",""459557""
""focus"",""0"",""460828""
""blur"",""0"",""1061566""
""focus"",""0"",""1686083""
""blur"",""0"",""2288461""
""focus"",""0"",""2335008""
""fullscreenenter"",""0"",""2839373""
","""event"",""trial"",""time""
""blur"",""0"",""459557""
""blur"",""0"",""1061566""
""blur"",""0"",""2288461""
","""event"",""trial"",""time""
""focus"",""0"",""460828""
""focus"",""0"",""1686083""
""focus"",""0"",""2335008""
","""event"",""trial"",""time""
""fullscreenenter"",""0"",""2839373""
","
","null","<p></p>","null","","","","","","","","","","","","","","","","","","","","","","",""
"","do_trial","49","3897492","0.0-36.0-1.0","""event"",""trial"",""time""
""blur"",""0"",""459557""
""focus"",""0"",""460828""
""blur"",""0"",""1061566""
""focus"",""0"",""1686083""
""blur"",""0"",""2288461""
""focus"",""0"",""2335008""
""fullscreenenter"",""0"",""2839373""
","""event"",""trial"",""time""
""blur"",""0"",""459557""
""blur"",""0"",""1061566""
""blur"",""0"",""2288461""
","""event"",""trial"",""time""
""focus"",""0"",""460828""
""focus"",""0"",""1686083""
""focus"",""0"",""2335008""
","""event"",""trial"",""time""
""fullscreenenter"",""0"",""2839373""
","
","null","","","","","","","","null","1,1,0","","","","","","","","","","","","","","","",""
"","html-keyboard-response","50","3898497","0.0-37.0-0.0","""event"",""trial"",""time""
""blur"",""0"",""459557""
""focus"",""0"",""460828""
""blur"",""0"",""1061566""
""focus"",""0"",""1686083""
""blur"",""0"",""2288461""
""focus"",""0"",""2335008""
""fullscreenenter"",""0"",""2839373""
","""event"",""trial"",""time""
""blur"",""0"",""459557""
""blur"",""0"",""1061566""
""blur"",""0"",""2288461""
","""event"",""trial"",""time""
""focus"",""0"",""460828""
""focus"",""0"",""1686083""
""focus"",""0"",""2335008""
","""event"",""trial"",""time""
""fullscreenenter"",""0"",""2839373""
","
","null","<p></p>","null","","","","","","","","","","","","","","","","","","","","","","",""
"","do_trial","51","3903445","0.0-37.0-1.0","""event"",""trial"",""time""
""blur"",""0"",""459557""
""focus"",""0"",""460828""
""blur"",""0"",""1061566""
""focus"",""0"",""1686083""
""blur"",""0"",""2288461""
""focus"",""0"",""2335008""
""fullscreenenter"",""0"",""2839373""
","""event"",""trial"",""time""
""blur"",""0"",""459557""
""blur"",""0"",""1061566""
""blur"",""0"",""2288461""
","""event"",""trial"",""time""
""focus"",""0"",""460828""
""focus"",""0"",""1686083""
""focus"",""0"",""2335008""
","""event"",""trial"",""time""
""fullscreenenter"",""0"",""2839373""
","
","424.9000000357628","","","","","","","","51","1,1,0","","","","","","","","","","","","","","","",""
"","html-keyboard-response","52","3904449","0.0-38.0-0.0","""event"",""trial"",""time""
""blur"",""0"",""459557""
""focus"",""0"",""460828""
""blur"",""0"",""1061566""
""focus"",""0"",""1686083""
""blur"",""0"",""2288461""
""focus"",""0"",""2335008""
""fullscreenenter"",""0"",""2839373""
","""event"",""trial"",""time""
""blur"",""0"",""459557""
""blur"",""0"",""1061566""
""blur"",""0"",""2288461""
","""event"",""trial"",""time""
""focus"",""0"",""460828""
""focus"",""0"",""1686083""
""focus"",""0"",""2335008""
","""event"",""trial"",""time""
""fullscreenenter"",""0"",""2839373""
","
","null","<p></p>","null","","","","","","","","","","","","","","","","","","","","","","",""
"","do_trial","53","3909674","0.0-38.0-1.0","""event"",""trial"",""time""
""blur"",""0"",""459557""
""focus"",""0"",""460828""
""blur"",""0"",""1061566""
""focus"",""0"",""1686083""
""blur"",""0"",""2288461""
""focus"",""0"",""2335008""
""fullscreenenter"",""0"",""2839373""
","""event"",""trial"",""time""
""blur"",""0"",""459557""
""blur"",""0"",""1061566""
""blur"",""0"",""2288461""
","""event"",""trial"",""time""
""focus"",""0"",""460828""
""focus"",""0"",""1686083""
""focus"",""0"",""2335008""
","""event"",""trial"",""time""
""fullscreenenter"",""0"",""2839373""
","
","710.2000000476837","","","","","","","","49","1,0,1","","","","","","","","","","","","","","","",""
"","html-keyboard-response","54","3910679","0.0-39.0-0.0","""event"",""trial"",""time""
""blur"",""0"",""459557""
""focus"",""0"",""460828""
""blur"",""0"",""1061566""
""focus"",""0"",""1686083""
""blur"",""0"",""2288461""
""focus"",""0"",""2335008""
""fullscreenenter"",""0"",""2839373""
","""event"",""trial"",""time""
""blur"",""0"",""459557""
""blur"",""0"",""1061566""
""blur"",""0"",""2288461""
","""event"",""trial"",""time""
""focus"",""0"",""460828""
""focus"",""0"",""1686083""
""focus"",""0"",""2335008""
","""event"",""trial"",""time""
""fullscreenenter"",""0"",""2839373""
","
","null","<p></p>","null","","","","","","","","","","","","","","","","","","","","","","",""
"","do_trial","55","3915623","0.0-39.0-1.0","""event"",""trial"",""time""
""blur"",""0"",""459557""
""focus"",""0"",""460828""
""blur"",""0"",""1061566""
""focus"",""0"",""1686083""
""blur"",""0"",""2288461""
""focus"",""0"",""2335008""
""fullscreenenter"",""0"",""2839373""
","""event"",""trial"",""time""
""blur"",""0"",""459557""
""blur"",""0"",""1061566""
""blur"",""0"",""2288461""
","""event"",""trial"",""time""
""focus"",""0"",""460828""
""focus"",""0"",""1686083""
""focus"",""0"",""2335008""
","""event"",""trial"",""time""
""fullscreenenter"",""0"",""2839373""
","
","421.19999998807907","","","","","","","","49","0,1,0","","","","","","","","","","","","","","","",""
"","html-keyboard-response","56","3916630","0.0-40.0-0.0","""event"",""trial"",""time""
""blur"",""0"",""459557""
""focus"",""0"",""460828""
""blur"",""0"",""1061566""
""focus"",""0"",""1686083""
""blur"",""0"",""2288461""
""focus"",""0"",""2335008""
""fullscreenenter"",""0"",""2839373""
","""event"",""trial"",""time""
""blur"",""0"",""459557""
""blur"",""0"",""1061566""
""blur"",""0"",""2288461""
","""event"",""trial"",""time""
""focus"",""0"",""460828""
""focus"",""0"",""1686083""
""focus"",""0"",""2335008""
","""event"",""trial"",""time""
""fullscreenenter"",""0"",""2839373""
","
","null","<p></p>","null","","","","","","","","","","","","","","","","","","","","","","",""
"","do_trial","57","3921443","0.0-40.0-1.0","""event"",""trial"",""time""
""blur"",""0"",""459557""
""focus"",""0"",""460828""
""blur"",""0"",""1061566""
""focus"",""0"",""1686083""
""blur"",""0"",""2288461""
""focus"",""0"",""2335008""
""fullscreenenter"",""0"",""2839373""
","""event"",""trial"",""time""
""blur"",""0"",""459557""
""blur"",""0"",""1061566""
""blur"",""0"",""2288461""
","""event"",""trial"",""time""
""focus"",""0"",""460828""
""focus"",""0"",""1686083""
""focus"",""0"",""2335008""
","""event"",""trial"",""time""
""fullscreenenter"",""0"",""2839373""
","
","299.4000000357628","","","","","","","","51","1,0,0","","","","","","","","","","","","","","","",""
"","do_bye","58","3922957","0.0-41.0-0.0","""event"",""trial"",""time""
""blur"",""0"",""459557""
""focus"",""0"",""460828""
""blur"",""0"",""1061566""
""focus"",""0"",""1686083""
""blur"",""0"",""2288461""
""focus"",""0"",""2335008""
""fullscreenenter"",""0"",""2839373""
","""event"",""trial"",""time""
""blur"",""0"",""459557""
""blur"",""0"",""1061566""
""blur"",""0"",""2288461""
","""event"",""trial"",""time""
""focus"",""0"",""460828""
""focus"",""0"",""1686083""
""focus"",""0"",""2335008""
","""event"",""trial"",""time""
""fullscreenenter"",""0"",""2839373""
","
","null","","","","","","","","null","","","","","","","","","","","","","","","","",""
"","do_travel","59","3931965","0.0-41.0-1.0","""event"",""trial"",""time""
""blur"",""0"",""459557""
""focus"",""0"",""460828""
""blur"",""0"",""1061566""
""focus"",""0"",""1686083""
""blur"",""0"",""2288461""
""focus"",""0"",""2335008""
""fullscreenenter"",""0"",""2839373""
","""event"",""trial"",""time""
""blur"",""0"",""459557""
""blur"",""0"",""1061566""
""blur"",""0"",""2288461""
","""event"",""trial"",""time""
""focus"",""0"",""460828""
""focus"",""0"",""1686083""
""focus"",""0"",""2335008""
","""event"",""trial"",""time""
""fullscreenenter"",""0"",""2839373""
","
","null","","","","","","","","null","","","","","","","","","","","","","","","","",""
"","do_welcome","60","3935981","0.0-41.0-2.0","""event"",""trial"",""time""
""blur"",""0"",""459557""
""focus"",""0"",""460828""
""blur"",""0"",""1061566""
""focus"",""0"",""1686083""
""blur"",""0"",""2288461""
""focus"",""0"",""2335008""
""fullscreenenter"",""0"",""2839373""
","""event"",""trial"",""time""
""blur"",""0"",""459557""
""blur"",""0"",""1061566""
""blur"",""0"",""2288461""
","""event"",""trial"",""time""
""focus"",""0"",""460828""
""focus"",""0"",""1686083""
""focus"",""0"",""2335008""
","""event"",""trial"",""time""
""fullscreenenter"",""0"",""2839373""
","
","null","","","","","","","","null","","","","","","","","","","","","","","","","",""
"","do_trial","61","3941430","0.0-41.0-3.0","""event"",""trial"",""time""
""blur"",""0"",""459557""
""focus"",""0"",""460828""
""blur"",""0"",""1061566""
""focus"",""0"",""1686083""
""blur"",""0"",""2288461""
""focus"",""0"",""2335008""
""fullscreenenter"",""0"",""2839373""
","""event"",""trial"",""time""
""blur"",""0"",""459557""
""blur"",""0"",""1061566""
""blur"",""0"",""2288461""
","""event"",""trial"",""time""
""focus"",""0"",""460828""
""focus"",""0"",""1686083""
""focus"",""0"",""2335008""
","""event"",""trial"",""time""
""fullscreenenter"",""0"",""2839373""
","
","928.8999999761581","","","","","","","","50","1,0,0","","","","","","","","","","","","","","","",""
"","html-keyboard-response","62","3942432","0.0-42.0-0.0","""event"",""trial"",""time""
""blur"",""0"",""459557""
""focus"",""0"",""460828""
""blur"",""0"",""1061566""
""focus"",""0"",""1686083""
""blur"",""0"",""2288461""
""focus"",""0"",""2335008""
""fullscreenenter"",""0"",""2839373""
","""event"",""trial"",""time""
""blur"",""0"",""459557""
""blur"",""0"",""1061566""
""blur"",""0"",""2288461""
","""event"",""trial"",""time""
""focus"",""0"",""460828""
""focus"",""0"",""1686083""
""focus"",""0"",""2335008""
","""event"",""trial"",""time""
""fullscreenenter"",""0"",""2839373""
","
","null","<p></p>","null","","","","","","","","","","","","","","","","","","","","","","",""
"","do_trial","63","3947231","0.0-42.0-1.0","""event"",""trial"",""time""
""blur"",""0"",""459557""
""focus"",""0"",""460828""
""blur"",""0"",""1061566""
""focus"",""0"",""1686083""
""blur"",""0"",""2288461""
""focus"",""0"",""2335008""
""fullscreenenter"",""0"",""2839373""
","""event"",""trial"",""time""
""blur"",""0"",""459557""
""blur"",""0"",""1061566""
""blur"",""0"",""2288461""
","""event"",""trial"",""time""
""focus"",""0"",""460828""
""focus"",""0"",""1686083""
""focus"",""0"",""2335008""
","""event"",""trial"",""time""
""fullscreenenter"",""0"",""2839373""
","
","278.89999997615814","","","","","","","","51","1,0,1","","","","","","","","","","","","","","","",""
"","html-keyboard-response","64","3948248","0.0-43.0-0.0","""event"",""trial"",""time""
""blur"",""0"",""459557""
""focus"",""0"",""460828""
""blur"",""0"",""1061566""
""focus"",""0"",""1686083""
""blur"",""0"",""2288461""
""focus"",""0"",""2335008""
""fullscreenenter"",""0"",""2839373""
","""event"",""trial"",""time""
""blur"",""0"",""459557""
""blur"",""0"",""1061566""
""blur"",""0"",""2288461""
","""event"",""trial"",""time""
""focus"",""0"",""460828""
""focus"",""0"",""1686083""
""focus"",""0"",""2335008""
","""event"",""trial"",""time""
""fullscreenenter"",""0"",""2839373""
","
","null","<p></p>","null","","","","","","","","","","","","","","","","","","","","","","",""
"","do_trial","65","3953026","0.0-43.0-1.0","""event"",""trial"",""time""
""blur"",""0"",""459557""
""focus"",""0"",""460828""
""blur"",""0"",""1061566""
""focus"",""0"",""1686083""
""blur"",""0"",""2288461""
""focus"",""0"",""2335008""
""fullscreenenter"",""0"",""2839373""
","""event"",""trial"",""time""
""blur"",""0"",""459557""
""blur"",""0"",""1061566""
""blur"",""0"",""2288461""
","""event"",""trial"",""time""
""focus"",""0"",""460828""
""focus"",""0"",""1686083""
""focus"",""0"",""2335008""
","""event"",""trial"",""time""
""fullscreenenter"",""0"",""2839373""
","
","270.5","","","","","","","","51","1,1,0","","","","","","","","","","","","","","","",""
"","html-keyboard-response","66","3954032","0.0-44.0-0.0","""event"",""trial"",""time""
""blur"",""0"",""459557""
""focus"",""0"",""460828""
""blur"",""0"",""1061566""
""focus"",""0"",""1686083""
""blur"",""0"",""2288461""
""focus"",""0"",""2335008""
""fullscreenenter"",""0"",""2839373""
","""event"",""trial"",""time""
""blur"",""0"",""459557""
""blur"",""0"",""1061566""
""blur"",""0"",""2288461""
","""event"",""trial"",""time""
""focus"",""0"",""460828""
""focus"",""0"",""1686083""
""focus"",""0"",""2335008""
","""event"",""trial"",""time""
""fullscreenenter"",""0"",""2839373""
","
","null","<p></p>","null","","","","","","","","","","","","","","","","","","","","","","",""
"","do_trial","67","3959044","0.0-44.0-1.0","""event"",""trial"",""time""
""blur"",""0"",""459557""
""focus"",""0"",""460828""
""blur"",""0"",""1061566""
""focus"",""0"",""1686083""
""blur"",""0"",""2288461""
""focus"",""0"",""2335008""
""fullscreenenter"",""0"",""2839373""
","""event"",""trial"",""time""
""blur"",""0"",""459557""
""blur"",""0"",""1061566""
""blur"",""0"",""2288461""
","""event"",""trial"",""time""
""focus"",""0"",""460828""
""focus"",""0"",""1686083""
""focus"",""0"",""2335008""
","""event"",""trial"",""time""
""fullscreenenter"",""0"",""2839373""
","
","501.9000000357628","","","","","","","","49","0,0,1","","","","","","","","","","","","","","","",""
"","html-keyboard-response","68","3960050","0.0-45.0-0.0","""event"",""trial"",""time""
""blur"",""0"",""459557""
""focus"",""0"",""460828""
""blur"",""0"",""1061566""
""focus"",""0"",""1686083""
""blur"",""0"",""2288461""
""focus"",""0"",""2335008""
""fullscreenenter"",""0"",""2839373""
","""event"",""trial"",""time""
""blur"",""0"",""459557""
""blur"",""0"",""1061566""
""blur"",""0"",""2288461""
","""event"",""trial"",""time""
""focus"",""0"",""460828""
""focus"",""0"",""1686083""
""focus"",""0"",""2335008""
","""event"",""trial"",""time""
""fullscreenenter"",""0"",""2839373""
","
","null","<p></p>","null","","","","","","","","","","","","","","","","","","","","","","",""
"","do_trial","69","3964922","0.0-45.0-1.0","""event"",""trial"",""time""
""blur"",""0"",""459557""
""focus"",""0"",""460828""
""blur"",""0"",""1061566""
""focus"",""0"",""1686083""
""blur"",""0"",""2288461""
""focus"",""0"",""2335008""
""fullscreenenter"",""0"",""2839373""
","""event"",""trial"",""time""
""blur"",""0"",""459557""
""blur"",""0"",""1061566""
""blur"",""0"",""2288461""
","""event"",""trial"",""time""
""focus"",""0"",""460828""
""focus"",""0"",""1686083""
""focus"",""0"",""2335008""
","""event"",""trial"",""time""
""fullscreenenter"",""0"",""2839373""
","
","350.69999998807907","","","","","","","","50","1,0,1","","","","","","","","","","","","","","","",""
"","html-keyboard-response","70","3966869","0.0-46.0-0.0","""event"",""trial"",""time""
""blur"",""0"",""459557""
""focus"",""0"",""460828""
""blur"",""0"",""1061566""
""focus"",""0"",""1686083""
""blur"",""0"",""2288461""
""focus"",""0"",""2335008""
""fullscreenenter"",""0"",""2839373""
","""event"",""trial"",""time""
""blur"",""0"",""459557""
""blur"",""0"",""1061566""
""blur"",""0"",""2288461""
","""event"",""trial"",""time""
""focus"",""0"",""460828""
""focus"",""0"",""1686083""
""focus"",""0"",""2335008""
","""event"",""trial"",""time""
""fullscreenenter"",""0"",""2839373""
","
","1944.800000011921","<div class='center'><p><img src='run_exp/static/images/tutorial/prac_best_pirate.png'  height='500'></p></div>","51","","","","","","","","","","","","","","","","","","","","","","",""
"","html-keyboard-response","71","3969271","0.0-47.0-0.0","""event"",""trial"",""time""
""blur"",""0"",""459557""
""focus"",""0"",""460828""
""blur"",""0"",""1061566""
""focus"",""0"",""1686083""
""blur"",""0"",""2288461""
""focus"",""0"",""2335008""
""fullscreenenter"",""0"",""2839373""
","""event"",""trial"",""time""
""blur"",""0"",""459557""
""blur"",""0"",""1061566""
""blur"",""0"",""2288461""
","""event"",""trial"",""time""
""focus"",""0"",""460828""
""focus"",""0"",""1686083""
""focus"",""0"",""2335008""
","""event"",""trial"",""time""
""fullscreenenter"",""0"",""2839373""
","
","2401.5","<div class='center'><p>That's incorrect! Red beard was the best.</p><p><b>[Press the space bar to continue]</b></p></div>","32","","","","","","","","","","","","","","","","","","","","","","",""
"","html-keyboard-response","72","3972179","0.0-47.0-1.0","""event"",""trial"",""time""
""blur"",""0"",""459557""
""focus"",""0"",""460828""
""blur"",""0"",""1061566""
""focus"",""0"",""1686083""
""blur"",""0"",""2288461""
""focus"",""0"",""2335008""
""fullscreenenter"",""0"",""2839373""
","""event"",""trial"",""time""
""blur"",""0"",""459557""
""blur"",""0"",""1061566""
""blur"",""0"",""2288461""
","""event"",""trial"",""time""
""focus"",""0"",""460828""
""focus"",""0"",""1686083""
""focus"",""0"",""2335008""
","""event"",""trial"",""time""
""fullscreenenter"",""0"",""2839373""
","
","2906.7999999523163","<div class='center'><p><img src='run_exp/static/images/tutorial/prac_source.png'  height='500'></p></div>","50","","","","","","","","","","","","","","","","","","","","","","",""
"","html-keyboard-response","73","3973298","0.0-48.0-0.0","""event"",""trial"",""time""
""blur"",""0"",""459557""
""focus"",""0"",""460828""
""blur"",""0"",""1061566""
""focus"",""0"",""1686083""
""blur"",""0"",""2288461""
""focus"",""0"",""2335008""
""fullscreenenter"",""0"",""2839373""
","""event"",""trial"",""time""
""blur"",""0"",""459557""
""blur"",""0"",""1061566""
""blur"",""0"",""2288461""
","""event"",""trial"",""time""
""focus"",""0"",""460828""
""focus"",""0"",""1686083""
""focus"",""0"",""2335008""
","""event"",""trial"",""time""
""fullscreenenter"",""0"",""2839373""
","
","1118.1000000238419","<div class='center'><p>That's correct! You saw this ship on the cavern island.</p><p><b>[Press the space bar to continue]</b></p></div>","32","","","","","","","","","","","","","","","","","","","","","","",""
"","quiz_beginning","74","3985274","0.0-48.0-1.0","""event"",""trial"",""time""
""blur"",""0"",""459557""
""focus"",""0"",""460828""
""blur"",""0"",""1061566""
""focus"",""0"",""1686083""
""blur"",""0"",""2288461""
""focus"",""0"",""2335008""
""fullscreenenter"",""0"",""2839373""
","""event"",""trial"",""time""
""blur"",""0"",""459557""
""blur"",""0"",""1061566""
""blur"",""0"",""2288461""
","""event"",""trial"",""time""
""focus"",""0"",""460828""
""focus"",""0"",""1686083""
""focus"",""0"",""2335008""
","""event"",""trial"",""time""
""fullscreenenter"",""0"",""2839373""
","
","null","run_exp/static/audio/clip_16_quiz_intro.m4a","null","","","","","<div class='center'><p>Good job on the practice game! Now, you will be asked some true or false questions to make sure you really understand the rules of the game.</p><p> Press <b>'1'</b> on the keyboard for true and press <b>'2'</b> for false.</p></div>","","","","","","","","","","","","","","","","","",""
"","audio-keyboard-response","75","3993193","0.0-48.0-2.0","""event"",""trial"",""time""
""blur"",""0"",""459557""
""focus"",""0"",""460828""
""blur"",""0"",""1061566""
""focus"",""0"",""1686083""
""blur"",""0"",""2288461""
""focus"",""0"",""2335008""
""fullscreenenter"",""0"",""2839373""
","""event"",""trial"",""time""
""blur"",""0"",""459557""
""blur"",""0"",""1061566""
""blur"",""0"",""2288461""
","""event"",""trial"",""time""
""focus"",""0"",""460828""
""focus"",""0"",""1686083""
""focus"",""0"",""2335008""
","""event"",""trial"",""time""
""fullscreenenter"",""0"",""2839373""
","
","7917.700000047684","run_exp/static/audio/clip_17_q1.m4a","49","","","","","","","","","","","","","","","","","","","","","","",""
"","correct","76","3995593","0.0-49.0-0.0","""event"",""trial"",""time""
""blur"",""0"",""459557""
""focus"",""0"",""460828""
""blur"",""0"",""1061566""
""focus"",""0"",""1686083""
""blur"",""0"",""2288461""
""focus"",""0"",""2335008""
""fullscreenenter"",""0"",""2839373""
","""event"",""trial"",""time""
""blur"",""0"",""459557""
""blur"",""0"",""1061566""
""blur"",""0"",""2288461""
","""event"",""trial"",""time""
""focus"",""0"",""460828""
""focus"",""0"",""1686083""
""focus"",""0"",""2335008""
","""event"",""trial"",""time""
""fullscreenenter"",""0"",""2839373""
","
","null","run_exp/static/audio/clip_18_correct.m4a","null","","","","","<div class='center'><p>That's correct!</p></div>","","","","","","","","","","","","","","","","","",""
"","html-keyboard-response","77","3996618","0.0-49.0-1.0","""event"",""trial"",""time""
""blur"",""0"",""459557""
""focus"",""0"",""460828""
""blur"",""0"",""1061566""
""focus"",""0"",""1686083""
""blur"",""0"",""2288461""
""focus"",""0"",""2335008""
""fullscreenenter"",""0"",""2839373""
","""event"",""trial"",""time""
""blur"",""0"",""459557""
""blur"",""0"",""1061566""
""blur"",""0"",""2288461""
","""event"",""trial"",""time""
""focus"",""0"",""460828""
""focus"",""0"",""1686083""
""focus"",""0"",""2335008""
","""event"",""trial"",""time""
""fullscreenenter"",""0"",""2839373""
","
","1024","<div class='center'><p>That's correct!</p><p><b>[Press the space bar to continue]</b></p></div>","32","","","","","","","","","","","","","","","","","","","","","","",""
"","audio-keyboard-response","78","4004170","0.0-49.0-2.0","""event"",""trial"",""time""
""blur"",""0"",""459557""
""focus"",""0"",""460828""
""blur"",""0"",""1061566""
""focus"",""0"",""1686083""
""blur"",""0"",""2288461""
""focus"",""0"",""2335008""
""fullscreenenter"",""0"",""2839373""
","""event"",""trial"",""time""
""blur"",""0"",""459557""
""blur"",""0"",""1061566""
""blur"",""0"",""2288461""
","""event"",""trial"",""time""
""focus"",""0"",""460828""
""focus"",""0"",""1686083""
""focus"",""0"",""2335008""
","""event"",""trial"",""time""
""fullscreenenter"",""0"",""2839373""
","
","7550.800000011921","run_exp/static/audio/clip_20_q2.m4a","50","","","","","","","","","","","","","","","","","","","","","","",""
"","correct","79","4006553","0.0-50.0-0.0","""event"",""trial"",""time""
""blur"",""0"",""459557""
""focus"",""0"",""460828""
""blur"",""0"",""1061566""
""focus"",""0"",""1686083""
""blur"",""0"",""2288461""
""focus"",""0"",""2335008""
""fullscreenenter"",""0"",""2839373""
","""event"",""trial"",""time""
""blur"",""0"",""459557""
""blur"",""0"",""1061566""
""blur"",""0"",""2288461""
","""event"",""trial"",""time""
""focus"",""0"",""460828""
""focus"",""0"",""1686083""
""focus"",""0"",""2335008""
","""event"",""trial"",""time""
""fullscreenenter"",""0"",""2839373""
","
","null","run_exp/static/audio/clip_18_correct.m4a","null","","","","","<div class='center'><p>That's correct!</p></div>","","","","","","","","","","","","","","","","","",""
"","html-keyboard-response","80","4007214","0.0-50.0-1.0","""event"",""trial"",""time""
""blur"",""0"",""459557""
""focus"",""0"",""460828""
""blur"",""0"",""1061566""
""focus"",""0"",""1686083""
""blur"",""0"",""2288461""
""focus"",""0"",""2335008""
""fullscreenenter"",""0"",""2839373""
","""event"",""trial"",""time""
""blur"",""0"",""459557""
""blur"",""0"",""1061566""
""blur"",""0"",""2288461""
","""event"",""trial"",""time""
""focus"",""0"",""460828""
""focus"",""0"",""1686083""
""focus"",""0"",""2335008""
","""event"",""trial"",""time""
""fullscreenenter"",""0"",""2839373""
","
","659.5","<div class='center'><p>That's correct!</p><p><b>[Press the space bar to continue]</b></p></div>","32","","","","","","","","","","","","","","","","","","","","","","",""
"","audio-keyboard-response","81","4010201","0.0-50.0-2.0","""event"",""trial"",""time""
""blur"",""0"",""459557""
""focus"",""0"",""460828""
""blur"",""0"",""1061566""
""focus"",""0"",""1686083""
""blur"",""0"",""2288461""
""focus"",""0"",""2335008""
""fullscreenenter"",""0"",""2839373""
","""event"",""trial"",""time""
""blur"",""0"",""459557""
""blur"",""0"",""1061566""
""blur"",""0"",""2288461""
","""event"",""trial"",""time""
""focus"",""0"",""460828""
""focus"",""0"",""1686083""
""focus"",""0"",""2335008""
","""event"",""trial"",""time""
""fullscreenenter"",""0"",""2839373""
","
","2986.5","run_exp/static/audio/clip_22_q3.m4a","50","","","","","","","","","","","","","","","","","","","","","","",""
"","correct","82","4012593","0.0-51.0-0.0","""event"",""trial"",""time""
""blur"",""0"",""459557""
""focus"",""0"",""460828""
""blur"",""0"",""1061566""
""focus"",""0"",""1686083""
""blur"",""0"",""2288461""
""focus"",""0"",""2335008""
""fullscreenenter"",""0"",""2839373""
","""event"",""trial"",""time""
""blur"",""0"",""459557""
""blur"",""0"",""1061566""
""blur"",""0"",""2288461""
","""event"",""trial"",""time""
""focus"",""0"",""460828""
""focus"",""0"",""1686083""
""focus"",""0"",""2335008""
","""event"",""trial"",""time""
""fullscreenenter"",""0"",""2839373""
","
","null","run_exp/static/audio/clip_18_correct.m4a","null","","","","","<div class='center'><p>That's correct!</p></div>","","","","","","","","","","","","","","","","","",""
"","html-keyboard-response","83","4013690","0.0-51.0-1.0","""event"",""trial"",""time""
""blur"",""0"",""459557""
""focus"",""0"",""460828""
""blur"",""0"",""1061566""
""focus"",""0"",""1686083""
""blur"",""0"",""2288461""
""focus"",""0"",""2335008""
""fullscreenenter"",""0"",""2839373""
","""event"",""trial"",""time""
""blur"",""0"",""459557""
""blur"",""0"",""1061566""
""blur"",""0"",""2288461""
","""event"",""trial"",""time""
""focus"",""0"",""460828""
""focus"",""0"",""1686083""
""focus"",""0"",""2335008""
","""event"",""trial"",""time""
""fullscreenenter"",""0"",""2839373""
","
","1096.699999988079","<div class='center'><p>That's correct!</p><p><b>[Press the space bar to continue]</b></p></div>","32","","","","","","","","","","","","","","","","","","","","","","",""
"","audio-keyboard-response","84","4017588","0.0-51.0-2.0","""event"",""trial"",""time""
""blur"",""0"",""459557""
""focus"",""0"",""460828""
""blur"",""0"",""1061566""
""focus"",""0"",""1686083""
""blur"",""0"",""2288461""
""focus"",""0"",""2335008""
""fullscreenenter"",""0"",""2839373""
","""event"",""trial"",""time""
""blur"",""0"",""459557""
""blur"",""0"",""1061566""
""blur"",""0"",""2288461""
","""event"",""trial"",""time""
""focus"",""0"",""460828""
""focus"",""0"",""1686083""
""focus"",""0"",""2335008""
","""event"",""trial"",""time""
""fullscreenenter"",""0"",""2839373""
","
","3896.5","run_exp/static/audio/clip_24_q4.m4a","49","","","","","","","","","","","","","","","","","","","","","","",""
"","correct","85","4020013","0.0-52.0-0.0","""event"",""trial"",""time""
""blur"",""0"",""459557""
""focus"",""0"",""460828""
""blur"",""0"",""1061566""
""focus"",""0"",""1686083""
""blur"",""0"",""2288461""
""focus"",""0"",""2335008""
""fullscreenenter"",""0"",""2839373""
","""event"",""trial"",""time""
""blur"",""0"",""459557""
""blur"",""0"",""1061566""
""blur"",""0"",""2288461""
","""event"",""trial"",""time""
""focus"",""0"",""460828""
""focus"",""0"",""1686083""
""focus"",""0"",""2335008""
","""event"",""trial"",""time""
""fullscreenenter"",""0"",""2839373""
","
","null","run_exp/static/audio/clip_18_correct.m4a","null","","","","","<div class='center'><p>That's correct!</p></div>","","","","","","","","","","","","","","","","","",""
"","html-keyboard-response","86","4020741","0.0-52.0-1.0","""event"",""trial"",""time""
""blur"",""0"",""459557""
""focus"",""0"",""460828""
""blur"",""0"",""1061566""
""focus"",""0"",""1686083""
""blur"",""0"",""2288461""
""focus"",""0"",""2335008""
""fullscreenenter"",""0"",""2839373""
","""event"",""trial"",""time""
""blur"",""0"",""459557""
""blur"",""0"",""1061566""
""blur"",""0"",""2288461""
","""event"",""trial"",""time""
""focus"",""0"",""460828""
""focus"",""0"",""1686083""
""focus"",""0"",""2335008""
","""event"",""trial"",""time""
""fullscreenenter"",""0"",""2839373""
","
","727","<div class='center'><p>That's correct!</p><p><b>[Press the space bar to continue]</b></p></div>","32","","","","","","","","","","","","","","","","","","","","","","",""
"","q_all_corr","87","4029233","0.0-53.0-0.0","""event"",""trial"",""time""
""blur"",""0"",""459557""
""focus"",""0"",""460828""
""blur"",""0"",""1061566""
""focus"",""0"",""1686083""
""blur"",""0"",""2288461""
""focus"",""0"",""2335008""
""fullscreenenter"",""0"",""2839373""
","""event"",""trial"",""time""
""blur"",""0"",""459557""
""blur"",""0"",""1061566""
""blur"",""0"",""2288461""
","""event"",""trial"",""time""
""focus"",""0"",""460828""
""focus"",""0"",""1686083""
""focus"",""0"",""2335008""
","""event"",""trial"",""time""
""fullscreenenter"",""0"",""2839373""
","
","null","run_exp/static/audio/clip_27_quiz_all_correct.m4a","null","","","","","<div class='center'><p>Good job! You’re now ready to move on to the real game! Remember this game will be difficult but don't get discouraged and try your best!</p></div>","","","","","","","","","","","","","","","","","",""
"","html-keyboard-response","88","4036433","0.0-53.0-1.0","""event"",""trial"",""time""
""blur"",""0"",""459557""
""focus"",""0"",""460828""
""blur"",""0"",""1061566""
""focus"",""0"",""1686083""
""blur"",""0"",""2288461""
""focus"",""0"",""2335008""
""fullscreenenter"",""0"",""2839373""
","""event"",""trial"",""time""
""blur"",""0"",""459557""
""blur"",""0"",""1061566""
""blur"",""0"",""2288461""
","""event"",""trial"",""time""
""focus"",""0"",""460828""
""focus"",""0"",""1686083""
""focus"",""0"",""2335008""
","""event"",""trial"",""time""
""fullscreenenter"",""0"",""2839373""
","
","7199","<div class='center'><p>Good job! You’re now ready to move on to the real game! Remember this game will be difficult but don't get discouraged and try your best!</p><p><b>[Press the space bar to continue]</b></p></div>","32","","","","","","","","","","","","","","","","","","","","","","",""
"","do_welcome","89","4040449","0.0-54.0-0.0","""event"",""trial"",""time""
""blur"",""0"",""459557""
""focus"",""0"",""460828""
""blur"",""0"",""1061566""
""focus"",""0"",""1686083""
""blur"",""0"",""2288461""
""focus"",""0"",""2335008""
""fullscreenenter"",""0"",""2839373""
","""event"",""trial"",""time""
""blur"",""0"",""459557""
""blur"",""0"",""1061566""
""blur"",""0"",""2288461""
","""event"",""trial"",""time""
""focus"",""0"",""460828""
""focus"",""0"",""1686083""
""focus"",""0"",""2335008""
","""event"",""trial"",""time""
""fullscreenenter"",""0"",""2839373""
","
","null","","","","","","","","null","","","","","","","","","","","","","","","","",""
"","do_trial","90","4045707","0.0-55.0-0.0","""event"",""trial"",""time""
""blur"",""0"",""459557""
""focus"",""0"",""460828""
""blur"",""0"",""1061566""
""focus"",""0"",""1686083""
""blur"",""0"",""2288461""
""focus"",""0"",""2335008""
""fullscreenenter"",""0"",""2839373""
","""event"",""trial"",""time""
""blur"",""0"",""459557""
""blur"",""0"",""1061566""
""blur"",""0"",""2288461""
","""event"",""trial"",""time""
""focus"",""0"",""460828""
""focus"",""0"",""1686083""
""focus"",""0"",""2335008""
","""event"",""trial"",""time""
""fullscreenenter"",""0"",""2839373""
","
","711.6999999880791","","","","","","","","49","0,0,0","0","mountain","0","probe-212","0.6","0.3","0.1","0","","","","","","","",""
"","html-keyboard-response","91","4046709","0.0-55.0-1.0","""event"",""trial"",""time""
""blur"",""0"",""459557""
""focus"",""0"",""460828""
""blur"",""0"",""1061566""
""focus"",""0"",""1686083""
""blur"",""0"",""2288461""
""focus"",""0"",""2335008""
""fullscreenenter"",""0"",""2839373""
","""event"",""trial"",""time""
""blur"",""0"",""459557""
""blur"",""0"",""1061566""
""blur"",""0"",""2288461""
","""event"",""trial"",""time""
""focus"",""0"",""460828""
""focus"",""0"",""1686083""
""focus"",""0"",""2335008""
","""event"",""trial"",""time""
""fullscreenenter"",""0"",""2839373""
","
","null","<p></p>","null","","","","","","","","","","","","","","","","","","","","","","",""
"","do_trial","92","4051618","0.0-56.0-0.0","""event"",""trial"",""time""
""blur"",""0"",""459557""
""focus"",""0"",""460828""
""blur"",""0"",""1061566""
""focus"",""0"",""1686083""
""blur"",""0"",""2288461""
""focus"",""0"",""2335008""
""fullscreenenter"",""0"",""2839373""
","""event"",""trial"",""time""
""blur"",""0"",""459557""
""blur"",""0"",""1061566""
""blur"",""0"",""2288461""
","""event"",""trial"",""time""
""focus"",""0"",""460828""
""focus"",""0"",""1686083""
""focus"",""0"",""2335008""
","""event"",""trial"",""time""
""fullscreenenter"",""0"",""2839373""
","
","373.5999999642372","","","","","","","","49","0,1,1","0","mountain","1","probe-44","0.6047803016714044","0.5116168733148301","0.2134801239912536","0","","","","","","","",""
"","html-keyboard-response","93","4052626","0.0-56.0-1.0","""event"",""trial"",""time""
""blur"",""0"",""459557""
""focus"",""0"",""460828""
""blur"",""0"",""1061566""
""focus"",""0"",""1686083""
""blur"",""0"",""2288461""
""focus"",""0"",""2335008""
""fullscreenenter"",""0"",""2839373""
","""event"",""trial"",""time""
""blur"",""0"",""459557""
""blur"",""0"",""1061566""
""blur"",""0"",""2288461""
","""event"",""trial"",""time""
""focus"",""0"",""460828""
""focus"",""0"",""1686083""
""focus"",""0"",""2335008""
","""event"",""trial"",""time""
""fullscreenenter"",""0"",""2839373""
","
","null","<p></p>","null","","","","","","","","","","","","","","","","","","","","","","",""
"","do_trial","94","4057447","0.0-57.0-0.0","""event"",""trial"",""time""
""blur"",""0"",""459557""
""focus"",""0"",""460828""
""blur"",""0"",""1061566""
""focus"",""0"",""1686083""
""blur"",""0"",""2288461""
""focus"",""0"",""2335008""
""fullscreenenter"",""0"",""2839373""
","""event"",""trial"",""time""
""blur"",""0"",""459557""
""blur"",""0"",""1061566""
""blur"",""0"",""2288461""
","""event"",""trial"",""time""
""focus"",""0"",""460828""
""focus"",""0"",""1686083""
""focus"",""0"",""2335008""
","""event"",""trial"",""time""
""fullscreenenter"",""0"",""2839373""
","
","276.69999998807907","","","","","","","","51","1,0,0","0","mountain","2","probe-114","0.6726756419306373","0.4857312523851839","0.1766157798073733","0","","","","","","","",""
"","html-keyboard-response","95","4058452","0.0-57.0-1.0","""event"",""trial"",""time""
""blur"",""0"",""459557""
""focus"",""0"",""460828""
""blur"",""0"",""1061566""
""focus"",""0"",""1686083""
""blur"",""0"",""2288461""
""focus"",""0"",""2335008""
""fullscreenenter"",""0"",""2839373""
","""event"",""trial"",""time""
""blur"",""0"",""459557""
""blur"",""0"",""1061566""
""blur"",""0"",""2288461""
","""event"",""trial"",""time""
""focus"",""0"",""460828""
""focus"",""0"",""1686083""
""focus"",""0"",""2335008""
","""event"",""trial"",""time""
""fullscreenenter"",""0"",""2839373""
","
","null","<p></p>","null","","","","","","","","","","","","","","","","","","","","","","",""
"","do_trial","96","4063280","0.0-58.0-0.0","""event"",""trial"",""time""
""blur"",""0"",""459557""
""focus"",""0"",""460828""
""blur"",""0"",""1061566""
""focus"",""0"",""1686083""
""blur"",""0"",""2288461""
""focus"",""0"",""2335008""
""fullscreenenter"",""0"",""2839373""
","""event"",""trial"",""time""
""blur"",""0"",""459557""
""blur"",""0"",""1061566""
""blur"",""0"",""2288461""
","""event"",""trial"",""time""
""focus"",""0"",""460828""
""focus"",""0"",""1686083""
""focus"",""0"",""2335008""
","""event"",""trial"",""time""
""fullscreenenter"",""0"",""2839373""
","
","283.2000000476837","","","","","","","","50","1,0,0","0","mountain","3","probe-210","0.5427915050247987","0.39056598775317647","0.11157621273177798","0","","","","","","","",""
"","html-keyboard-response","97","4064287","0.0-58.0-1.0","""event"",""trial"",""time""
""blur"",""0"",""459557""
""focus"",""0"",""460828""
""blur"",""0"",""1061566""
""focus"",""0"",""1686083""
""blur"",""0"",""2288461""
""focus"",""0"",""2335008""
""fullscreenenter"",""0"",""2839373""
","""event"",""trial"",""time""
""blur"",""0"",""459557""
""blur"",""0"",""1061566""
""blur"",""0"",""2288461""
","""event"",""trial"",""time""
""focus"",""0"",""460828""
""focus"",""0"",""1686083""
""focus"",""0"",""2335008""
","""event"",""trial"",""time""
""fullscreenenter"",""0"",""2839373""
","
","null","<p></p>","null","","","","","","","","","","","","","","","","","","","","","","",""
"","do_trial","98","4069114","0.0-59.0-0.0","""event"",""trial"",""time""
""blur"",""0"",""459557""
""focus"",""0"",""460828""
""blur"",""0"",""1061566""
""focus"",""0"",""1686083""
""blur"",""0"",""2288461""
""focus"",""0"",""2335008""
""fullscreenenter"",""0"",""2839373""
","""event"",""trial"",""time""
""blur"",""0"",""459557""
""blur"",""0"",""1061566""
""blur"",""0"",""2288461""
","""event"",""trial"",""time""
""focus"",""0"",""460828""
""focus"",""0"",""1686083""
""focus"",""0"",""2335008""
","""event"",""trial"",""time""
""fullscreenenter"",""0"",""2839373""
","
","282.10000002384186","","","","","","","","51","0,0,0","0","mountain","4","probe-90","0.5872110995292966","0.4011186374727393","0.07525829544746096","0","","","","","","","",""
"","html-keyboard-response","99","4070119","0.0-59.0-1.0","""event"",""trial"",""time""
""blur"",""0"",""459557""
""focus"",""0"",""460828""
""blur"",""0"",""1061566""
""focus"",""0"",""1686083""
""blur"",""0"",""2288461""
""focus"",""0"",""2335008""
""fullscreenenter"",""0"",""2839373""
","""event"",""trial"",""time""
""blur"",""0"",""459557""
""blur"",""0"",""1061566""
""blur"",""0"",""2288461""
","""event"",""trial"",""time""
""focus"",""0"",""460828""
""focus"",""0"",""1686083""
""focus"",""0"",""2335008""
","""event"",""trial"",""time""
""fullscreenenter"",""0"",""2839373""
","
","null","<p></p>","null","","","","","","","","","","","","","","","","","","","","","","",""
"","do_trial","100","4074916","0.0-60.0-0.0","""event"",""trial"",""time""
""blur"",""0"",""459557""
""focus"",""0"",""460828""
""blur"",""0"",""1061566""
""focus"",""0"",""1686083""
""blur"",""0"",""2288461""
""focus"",""0"",""2335008""
""fullscreenenter"",""0"",""2839373""
","""event"",""trial"",""time""
""blur"",""0"",""459557""
""blur"",""0"",""1061566""
""blur"",""0"",""2288461""
","""event"",""trial"",""time""
""focus"",""0"",""460828""
""focus"",""0"",""1686083""
""focus"",""0"",""2335008""
","""event"",""trial"",""time""
""fullscreenenter"",""0"",""2839373""
","
","259.5999999642372","","","","","","","","49","1,0,0","0","mountain","5","probe-204","0.5511296542161346","0.3078747927127714","0.10149691477561079","1","","","","","","","",""
"","html-keyboard-response","101","4075924","0.0-60.0-1.0","""event"",""trial"",""time""
""blur"",""0"",""459557""
""focus"",""0"",""460828""
""blur"",""0"",""1061566""
""focus"",""0"",""1686083""
""blur"",""0"",""2288461""
""focus"",""0"",""2335008""
""fullscreenenter"",""0"",""2839373""
","""event"",""trial"",""time""
""blur"",""0"",""459557""
""blur"",""0"",""1061566""
""blur"",""0"",""2288461""
","""event"",""trial"",""time""
""focus"",""0"",""460828""
""focus"",""0"",""1686083""
""focus"",""0"",""2335008""
","""event"",""trial"",""time""
""fullscreenenter"",""0"",""2839373""
","
","null","<p></p>","null","","","","","","","","","","","","","","","","","","","","","","",""
"","do_trial","102","4081446","0.0-61.0-0.0","""event"",""trial"",""time""
""blur"",""0"",""459557""
""focus"",""0"",""460828""
""blur"",""0"",""1061566""
""focus"",""0"",""1686083""
""blur"",""0"",""2288461""
""focus"",""0"",""2335008""
""fullscreenenter"",""0"",""2839373""
","""event"",""trial"",""time""
""blur"",""0"",""459557""
""blur"",""0"",""1061566""
""blur"",""0"",""2288461""
","""event"",""trial"",""time""
""focus"",""0"",""460828""
""focus"",""0"",""1686083""
""focus"",""0"",""2335008""
","""event"",""trial"",""time""
""fullscreenenter"",""0"",""2839373""
","
","979.4000000357628","","","","","","","","49","1,0,0","0","mountain","6","probe-120","0.6316897871706774","0.2690557380004729","0.11876529705306506","1","","","","","","","",""
"","html-keyboard-response","103","4082460","0.0-61.0-1.0","""event"",""trial"",""time""
""blur"",""0"",""459557""
""focus"",""0"",""460828""
""blur"",""0"",""1061566""
""focus"",""0"",""1686083""
""blur"",""0"",""2288461""
""focus"",""0"",""2335008""
""fullscreenenter"",""0"",""2839373""
","""event"",""trial"",""time""
""blur"",""0"",""459557""
""blur"",""0"",""1061566""
""blur"",""0"",""2288461""
","""event"",""trial"",""time""
""focus"",""0"",""460828""
""focus"",""0"",""1686083""
""focus"",""0"",""2335008""
","""event"",""trial"",""time""
""fullscreenenter"",""0"",""2839373""
","
","null","<p></p>","null","","","","","","","","","","","","","","","","","","","","","","",""
"","do_trial","104","4087286","0.0-62.0-0.0","""event"",""trial"",""time""
""blur"",""0"",""459557""
""focus"",""0"",""460828""
""blur"",""0"",""1061566""
""focus"",""0"",""1686083""
""blur"",""0"",""2288461""
""focus"",""0"",""2335008""
""fullscreenenter"",""0"",""2839373""
","""event"",""trial"",""time""
""blur"",""0"",""459557""
""blur"",""0"",""1061566""
""blur"",""0"",""2288461""
","""event"",""trial"",""time""
""focus"",""0"",""460828""
""focus"",""0"",""1686083""
""focus"",""0"",""2335008""
","""event"",""trial"",""time""
""fullscreenenter"",""0"",""2839373""
","
","278.80000001192093","","","","","","","","49","1,1,0","0","mountain","7","probe-73","0.7123413908842784","0.3006851671194311","0.17228164341373023","1","","","","","","","",""
"","html-keyboard-response","105","4088290","0.0-62.0-1.0","""event"",""trial"",""time""
""blur"",""0"",""459557""
""focus"",""0"",""460828""
""blur"",""0"",""1061566""
""focus"",""0"",""1686083""
""blur"",""0"",""2288461""
""focus"",""0"",""2335008""
""fullscreenenter"",""0"",""2839373""
","""event"",""trial"",""time""
""blur"",""0"",""459557""
""blur"",""0"",""1061566""
""blur"",""0"",""2288461""
","""event"",""trial"",""time""
""focus"",""0"",""460828""
""focus"",""0"",""1686083""
""focus"",""0"",""2335008""
","""event"",""trial"",""time""
""fullscreenenter"",""0"",""2839373""
","
","null","<p></p>","null","","","","","","","","","","","","","","","","","","","","","","",""
"","do_trial","106","4093170","0.0-63.0-0.0","""event"",""trial"",""time""
""blur"",""0"",""459557""
""focus"",""0"",""460828""
""blur"",""0"",""1061566""
""focus"",""0"",""1686083""
""blur"",""0"",""2288461""
""focus"",""0"",""2335008""
""fullscreenenter"",""0"",""2839373""
","""event"",""trial"",""time""
""blur"",""0"",""459557""
""blur"",""0"",""1061566""
""blur"",""0"",""2288461""
","""event"",""trial"",""time""
""focus"",""0"",""460828""
""focus"",""0"",""1686083""
""focus"",""0"",""2335008""
","""event"",""trial"",""time""
""fullscreenenter"",""0"",""2839373""
","
","341.5","","","","","","","","49","0,1,0","0","mountain","8","probe-218","0.6995003395396231","0.3876572708152102","0.23569237092452086","0","","","","","","","",""
"","html-keyboard-response","107","4094174","0.0-63.0-1.0","""event"",""trial"",""time""
""blur"",""0"",""459557""
""focus"",""0"",""460828""
""blur"",""0"",""1061566""
""focus"",""0"",""1686083""
""blur"",""0"",""2288461""
""focus"",""0"",""2335008""
""fullscreenenter"",""0"",""2839373""
","""event"",""trial"",""time""
""blur"",""0"",""459557""
""blur"",""0"",""1061566""
""blur"",""0"",""2288461""
","""event"",""trial"",""time""
""focus"",""0"",""460828""
""focus"",""0"",""1686083""
""focus"",""0"",""2335008""
","""event"",""trial"",""time""
""fullscreenenter"",""0"",""2839373""
","
","null","<p></p>","null","","","","","","","","","","","","","","","","","","","","","","",""
"","do_trial","108","4099387","0.0-64.0-0.0","""event"",""trial"",""time""
""blur"",""0"",""459557""
""focus"",""0"",""460828""
""blur"",""0"",""1061566""
""focus"",""0"",""1686083""
""blur"",""0"",""2288461""
""focus"",""0"",""2335008""
""fullscreenenter"",""0"",""2839373""
","""event"",""trial"",""time""
""blur"",""0"",""459557""
""blur"",""0"",""1061566""
""blur"",""0"",""2288461""
","""event"",""trial"",""time""
""focus"",""0"",""460828""
""focus"",""0"",""1686083""
""focus"",""0"",""2335008""
","""event"",""trial"",""time""
""fullscreenenter"",""0"",""2839373""
","
","672.2000000476837","","","","","","","","49","1,0,0","0","mountain","9","probe-124","0.6020945176714484","0.30162934071995695","0.23093112247651099","1","","","","","","","",""
"","html-keyboard-response","109","4100391","0.0-64.0-1.0","""event"",""trial"",""time""
""blur"",""0"",""459557""
""focus"",""0"",""460828""
""blur"",""0"",""1061566""
""focus"",""0"",""1686083""
""blur"",""0"",""2288461""
""focus"",""0"",""2335008""
""fullscreenenter"",""0"",""2839373""
","""event"",""trial"",""time""
""blur"",""0"",""459557""
""blur"",""0"",""1061566""
""blur"",""0"",""2288461""
","""event"",""trial"",""time""
""focus"",""0"",""460828""
""focus"",""0"",""1686083""
""focus"",""0"",""2335008""
","""event"",""trial"",""time""
""fullscreenenter"",""0"",""2839373""
","
","null","<p></p>","null","","","","","","","","","","","","","","","","","","","","","","",""
"","do_trial","110","4105134","0.0-65.0-0.0","""event"",""trial"",""time""
""blur"",""0"",""459557""
""focus"",""0"",""460828""
""blur"",""0"",""1061566""
""focus"",""0"",""1686083""
""blur"",""0"",""2288461""
""focus"",""0"",""2335008""
""fullscreenenter"",""0"",""2839373""
","""event"",""trial"",""time""
""blur"",""0"",""459557""
""blur"",""0"",""1061566""
""blur"",""0"",""2288461""
","""event"",""trial"",""time""
""focus"",""0"",""460828""
""focus"",""0"",""1686083""
""focus"",""0"",""2335008""
","""event"",""trial"",""time""
""fullscreenenter"",""0"",""2839373""
","
","203.60000002384186","","","","","","","","49","1,0,0","0","mountain","10","probe-128","0.5544771823051023","0.2912999420219854","0.2882486287347376","1","","","","","","","",""
"","html-keyboard-response","111","4106144","0.0-65.0-1.0","""event"",""trial"",""time""
""blur"",""0"",""459557""
""focus"",""0"",""460828""
""blur"",""0"",""1061566""
""focus"",""0"",""1686083""
""blur"",""0"",""2288461""
""focus"",""0"",""2335008""
""fullscreenenter"",""0"",""2839373""
","""event"",""trial"",""time""
""blur"",""0"",""459557""
""blur"",""0"",""1061566""
""blur"",""0"",""2288461""
","""event"",""trial"",""time""
""focus"",""0"",""460828""
""focus"",""0"",""1686083""
""focus"",""0"",""2335008""
","""event"",""trial"",""time""
""fullscreenenter"",""0"",""2839373""
","
","null","<p></p>","null","","","","","","","","","","","","","","","","","","","","","","",""
"","do_trial","112","4111145","0.0-66.0-0.0","""event"",""trial"",""time""
""blur"",""0"",""459557""
""focus"",""0"",""460828""
""blur"",""0"",""1061566""
""focus"",""0"",""1686083""
""blur"",""0"",""2288461""
""focus"",""0"",""2335008""
""fullscreenenter"",""0"",""2839373""
","""event"",""trial"",""time""
""blur"",""0"",""459557""
""blur"",""0"",""1061566""
""blur"",""0"",""2288461""
","""event"",""trial"",""time""
""focus"",""0"",""460828""
""focus"",""0"",""1686083""
""focus"",""0"",""2335008""
","""event"",""trial"",""time""
""fullscreenenter"",""0"",""2839373""
","
","464.2999999523163","","","","","","","","50","1,0,0","0","mountain","11","probe-175","0.712351492046487","0.3841948979107541","0.06384762030562843","0","","","","","","","",""
"","html-keyboard-response","113","4112150","0.0-66.0-1.0","""event"",""trial"",""time""
""blur"",""0"",""459557""
""focus"",""0"",""460828""
""blur"",""0"",""1061566""
""focus"",""0"",""1686083""
""blur"",""0"",""2288461""
""focus"",""0"",""2335008""
""fullscreenenter"",""0"",""2839373""
","""event"",""trial"",""time""
""blur"",""0"",""459557""
""blur"",""0"",""1061566""
""blur"",""0"",""2288461""
","""event"",""trial"",""time""
""focus"",""0"",""460828""
""focus"",""0"",""1686083""
""focus"",""0"",""2335008""
","""event"",""trial"",""time""
""fullscreenenter"",""0"",""2839373""
","
","null","<p></p>","null","","","","","","","","","","","","","","","","","","","","","","",""
"","do_trial","114","4117009","0.0-67.0-0.0","""event"",""trial"",""time""
""blur"",""0"",""459557""
""focus"",""0"",""460828""
""blur"",""0"",""1061566""
""focus"",""0"",""1686083""
""blur"",""0"",""2288461""
""focus"",""0"",""2335008""
""fullscreenenter"",""0"",""2839373""
","""event"",""trial"",""time""
""blur"",""0"",""459557""
""blur"",""0"",""1061566""
""blur"",""0"",""2288461""
","""event"",""trial"",""time""
""focus"",""0"",""460828""
""focus"",""0"",""1686083""
""focus"",""0"",""2335008""
","""event"",""trial"",""time""
""fullscreenenter"",""0"",""2839373""
","
","309.5","","","","","","","","49","1,0,0","0","mountain","12","probe-183","0.5960603025386099","0.44166267439972634","0.06299938705741571","1","","","","","","","",""
"","html-keyboard-response","115","4118027","0.0-67.0-1.0","""event"",""trial"",""time""
""blur"",""0"",""459557""
""focus"",""0"",""460828""
""blur"",""0"",""1061566""
""focus"",""0"",""1686083""
""blur"",""0"",""2288461""
""focus"",""0"",""2335008""
""fullscreenenter"",""0"",""2839373""
","""event"",""trial"",""time""
""blur"",""0"",""459557""
""blur"",""0"",""1061566""
""blur"",""0"",""2288461""
","""event"",""trial"",""time""
""focus"",""0"",""460828""
""focus"",""0"",""1686083""
""focus"",""0"",""2335008""
","""event"",""trial"",""time""
""fullscreenenter"",""0"",""2839373""
","
","null","<p></p>","null","","","","","","","","","","","","","","","","","","","","","","",""
"","do_trial","116","4122813","0.0-68.0-0.0","""event"",""trial"",""time""
""blur"",""0"",""459557""
""focus"",""0"",""460828""
""blur"",""0"",""1061566""
""focus"",""0"",""1686083""
""blur"",""0"",""2288461""
""focus"",""0"",""2335008""
""fullscreenenter"",""0"",""2839373""
","""event"",""trial"",""time""
""blur"",""0"",""459557""
""blur"",""0"",""1061566""
""blur"",""0"",""2288461""
","""event"",""trial"",""time""
""focus"",""0"",""460828""
""focus"",""0"",""1686083""
""focus"",""0"",""2335008""
","""event"",""trial"",""time""
""fullscreenenter"",""0"",""2839373""
","
","252.5","","","","","","","","49","1,0,0","0","mountain","13","probe-64","0.4818385681967561","0.41717871358465053","0.10135066894967835","1","","","","","","","",""
"","html-keyboard-response","117","4123817","0.0-68.0-1.0","""event"",""trial"",""time""
""blur"",""0"",""459557""
""focus"",""0"",""460828""
""blur"",""0"",""1061566""
""focus"",""0"",""1686083""
""blur"",""0"",""2288461""
""focus"",""0"",""2335008""
""fullscreenenter"",""0"",""2839373""
","""event"",""trial"",""time""
""blur"",""0"",""459557""
""blur"",""0"",""1061566""
""blur"",""0"",""2288461""
","""event"",""trial"",""time""
""focus"",""0"",""460828""
""focus"",""0"",""1686083""
""focus"",""0"",""2335008""
","""event"",""trial"",""time""
""fullscreenenter"",""0"",""2839373""
","
","null","<p></p>","null","","","","","","","","","","","","","","","","","","","","","","",""
"","do_trial","118","4128580","0.0-69.0-0.0","""event"",""trial"",""time""
""blur"",""0"",""459557""
""focus"",""0"",""460828""
""blur"",""0"",""1061566""
""focus"",""0"",""1686083""
""blur"",""0"",""2288461""
""focus"",""0"",""2335008""
""fullscreenenter"",""0"",""2839373""
","""event"",""trial"",""time""
""blur"",""0"",""459557""
""blur"",""0"",""1061566""
""blur"",""0"",""2288461""
","""event"",""trial"",""time""
""focus"",""0"",""460828""
""focus"",""0"",""1686083""
""focus"",""0"",""2335008""
","""event"",""trial"",""time""
""fullscreenenter"",""0"",""2839373""
","
","228.5","","","","","","","","49","0,1,0","0","mountain","14","probe-81","0.6578561410317306","0.38320019973274355","0.052443756447243514","0","","","","","","","",""
"","html-keyboard-response","119","4129596","0.0-69.0-1.0","""event"",""trial"",""time""
""blur"",""0"",""459557""
""focus"",""0"",""460828""
""blur"",""0"",""1061566""
""focus"",""0"",""1686083""
""blur"",""0"",""2288461""
""focus"",""0"",""2335008""
""fullscreenenter"",""0"",""2839373""
","""event"",""trial"",""time""
""blur"",""0"",""459557""
""blur"",""0"",""1061566""
""blur"",""0"",""2288461""
","""event"",""trial"",""time""
""focus"",""0"",""460828""
""focus"",""0"",""1686083""
""focus"",""0"",""2335008""
","""event"",""trial"",""time""
""fullscreenenter"",""0"",""2839373""
","
