"success","trial_type","trial_index","time_elapsed","internal_node_id","interactions","blur_events","focus_events","fullscreenenter_events","fullscreenexit_events","rt","stimulus","key_press","subject_id","participant_id","age","gender","prompt","response","choice_outcomes","context_n","context_img_id","trial_n","probe_img_id","pR_red","pR_white","pR_black","outcome","contextArray_ind","validImageProbes","invalidImageProbes","pRew_Red","pRew_White","pRew_Black","availableForMemProbe","choice_blocks"
"true","fullscreen","0","3430","0.0-0.0","""event"",""trial"",""time""
""fullscreenenter"",""0"",""2455""
","
","
","""event"",""trial"",""time""
""fullscreenenter"",""0"",""2455""
","
","","","","","","","","","","","","","","","","","","","","","","","","","",""
"","pavlovia","1","3444","0.0-1.0","""event"",""trial"",""time""
""fullscreenenter"",""0"",""2455""
","
","
","""event"",""trial"",""time""
""fullscreenenter"",""0"",""2455""
","
","","","","","","","","","","","","","","","","","","","","","","","","","",""
"","instruc1","2","48555","0.0-2.0","""event"",""trial"",""time""
""fullscreenenter"",""0"",""2455""
","
","
","""event"",""trial"",""time""
""fullscreenenter"",""0"",""2455""
","
","null","run_exp/static/audio/clip_1_welcome.m4a","null","729","916","8","Female","<div class='center'><p>Welcome! This is the first part of the study. It will last ~30 minutes. In part 1 and part 2 of the study, you are the head captain of a pirate ship traveling around the world to different islands. You will play a few different games throughout these two parts. Here is an overview of them:</p><br><p>Part 1 (today)</p><p>1. Instructions, practice game, and quiz</p><p>2. Pick a pirate game on 6 different islands</p><br><p>Part 2 (tomorrow)</p><p>3. Pick a pirate game and memory game</p><p>4. Where did you see this ship? </p></div>","","","","","","","","","","","","","","","","","",""
"","html-keyboard-response","3","49008","0.0-3.0","""event"",""trial"",""time""
""fullscreenenter"",""0"",""2455""
","
","
","""event"",""trial"",""time""
""fullscreenenter"",""0"",""2455""
","
","445.79999999701977","<div class='center'><p>Welcome! This is the first part of the study. It will last ~30 minutes. In part 1 and part 2 of the study, you are the head captain of a pirate ship traveling around the world to different islands. You will play a few different games throughout these two parts. Here is an overview of them:</p><br><p>Part 1 (today)</p><p>1. Instructions, practice game, and quiz</p><p>2. Pick a pirate game on 6 different islands</p><br><p>Part 2 (tomorrow)</p><p>3. Pick a pirate game and memory game</p><p>4. Where did you see this ship? </p><p><b>[Press the space bar to continue]</b></p></div>","32","","","","","","","","","","","","","","","","","","","","","","",""
"","instruc2","4","54335","0.0-4.0","""event"",""trial"",""time""
""fullscreenenter"",""0"",""2455""
","
","
","""event"",""trial"",""time""
""fullscreenenter"",""0"",""2455""
","
","null","run_exp/static/audio/clip_2_different_places.m4a","null","","","","","<div class='center'><p>Today, you’ll visit these 6 islands on your journey. You'll be able to see these islands from your ship.</p><p><img src='run_exp/static/images/contexts/all_contexts.png' height='500'></p></div>","","","","","","","","","","","","","","","","","",""
"","html-keyboard-response","5","55784","0.0-5.0","""event"",""trial"",""time""
""fullscreenenter"",""0"",""2455""
","
","
","""event"",""trial"",""time""
""fullscreenenter"",""0"",""2455""
","
","1441.2999999970198","<div class='center'><p>Today, you’ll visit these 6 islands on your journey. You'll be able to see these islands from your ship.</p><p><img src='run_exp/static/images/contexts/all_contexts.png' height='500'></p><p><b>[Press the space bar to continue]</b></p></div>","32","","","","","","","","","","","","","","","","","","","","","","",""
"","instruc3","6","65513","0.0-6.0","""event"",""trial"",""time""
""fullscreenenter"",""0"",""2455""
","
","
","""event"",""trial"",""time""
""fullscreenenter"",""0"",""2455""
","
","null","run_exp/static/audio/clip_3_goal_of_game_1.m4a","null","","","","","<div class='center'><p> The pirates on your ship will rob other ships as they leave the island.</p> These ships have just sold their goods to the islanders, so they will be filled with lots and lots of gold.</p><p><img src='run_exp/static/images/tutorial/ship_center.png' height='400'></p></div>","","","","","","","","","","","","","","","","","",""
"","html-keyboard-response","7","65834","0.0-7.0","""event"",""trial"",""time""
""fullscreenenter"",""0"",""2455""
","
","
","""event"",""trial"",""time""
""fullscreenenter"",""0"",""2455""
","
","316.5","<div class='center'><p> The pirates on your ship will rob other ships as they leave the island.</p> These ships have just sold their goods to the islanders, so they will be filled with lots and lots of gold.</p><p><img src='run_exp/static/images/tutorial/ship_center.png' height='400'></p><p><b>[Press the space bar to continue]</b></p></div>","32","","","","","","","","","","","","","","","","","","","","","","",""
"","instruc4","8","93851","0.0-8.0","""event"",""trial"",""time""
""fullscreenenter"",""0"",""2455""
","
","
","""event"",""trial"",""time""
""fullscreenenter"",""0"",""2455""
","
","null","run_exp/static/audio/clip_4_goal_of_game_2.m4a","null","","","","","<div class='center'><p>As the head captain, you do not have to rob any ships yourself. Another pirate will be doing the robbing for you. First, you will choose a pirate to rob the next ship.</p><p><img src='run_exp/static/images/tutorial/pirates_all_crop.png' height='200'></p><p>Then, you'll see if the pirate successfully robbed the ship of their gold. If they were successful, then you'll get a stack of gold coins like this:</p><p><img src='run_exp/static/images/tutorial/reward.png' height='150'></p><p> If they were <b>not</b> successful, then you'll get no gold coins, and you'll see a big red x like this: </p><p><img src='run_exp/static/images/tutorial/reward_no.png' height='150'></p><p> How much bonus money you make is based on how many gold coins you collect.</p><div>","","","","","","","","","","","","","","","","","",""
"","html-keyboard-response","9","94616","0.0-9.0","""event"",""trial"",""time""
""fullscreenenter"",""0"",""2455""
","
","
","""event"",""trial"",""time""
""fullscreenenter"",""0"",""2455""
","
","760.9000000059605","<div class='center'><p>As the head captain, you do not have to rob any ships yourself. Another pirate will be doing the robbing for you. First, you will choose a pirate to rob the next ship.</p><p><img src='run_exp/static/images/tutorial/pirates_all_crop.png' height='200'></p><p>Then, you'll see if the pirate successfully robbed the ship of their gold. If they were successful, then you'll get a stack of gold coins like this:</p><p><img src='run_exp/static/images/tutorial/reward.png' height='150'></p><p> If they were <b>not</b> successful, then you'll get no gold coins, and you'll see a big red x like this: </p><p><img src='run_exp/static/images/tutorial/reward_no.png' height='150'></p><p> How much bonus money you make is based on how many gold coins you collect.</p<p><b>[Press the space bar to continue]</b></p></div>","32","","","","","","","","","","","","","","","","","","","","","","",""
"","instruc5","10","119867","0.0-10.0","""event"",""trial"",""time""
""fullscreenenter"",""0"",""2455""
","
","
","""event"",""trial"",""time""
""fullscreenenter"",""0"",""2455""
","
","25246.09999999404","run_exp/static/audio/clip_5_probabilistic.m4a","49","","","","","<div class='center'><p>Even the most skilled pirate can not rob EVERY ship.</p><p> Some ships will have very strong protections against pirate attacks.</p><p> Blue beard, here, is very, very good at robbing ships, but he won't be successful every time he tries to rob one.</p><p> You can press the <b>‘1’</b> key on the keyboard to choose him.</p><p> Try choosing him 10 times to see how often he succeeds at robbing a ship. </p><p><img src='run_exp/static/images/tutorial/blue.png' height='500'></p></div>","","","","","","","","","","","","","","","","","",""
"","html-keyboard-response","11","121370","0.0-11.0","""event"",""trial"",""time""
""fullscreenenter"",""0"",""2455""
","
","
","""event"",""trial"",""time""
""fullscreenenter"",""0"",""2455""
","
","null","<div class='center'><p><img src='run_exp/static/images/tutorial/blue_win.png' height='500'></p></div>","null","","","","","","","","","","","","","","","","","","","","","","",""
"","html-keyboard-response","12","123000","0.0-12.0","""event"",""trial"",""time""
""fullscreenenter"",""0"",""2455""
","
","
","""event"",""trial"",""time""
""fullscreenenter"",""0"",""2455""
","
","1627.2000000029802","<div class='center'><img src='run_exp/static/images/tutorial/blue.png' height='500'></p></div>","49","","","","","","","","","","","","","","","","","","","","","","",""
"","html-keyboard-response","13","124503","0.0-13.0","""event"",""trial"",""time""
""fullscreenenter"",""0"",""2455""
","
","
","""event"",""trial"",""time""
""fullscreenenter"",""0"",""2455""
","
","null","<div class='center'><p><img src='run_exp/static/images/tutorial/blue_win.png' height='500'></p></div>","null","","","","","","","","","","","","","","","","","","","","","","",""
"","html-keyboard-response","14","125038","0.0-14.0","""event"",""trial"",""time""
""fullscreenenter"",""0"",""2455""
","
","
","""event"",""trial"",""time""
""fullscreenenter"",""0"",""2455""
","
","531.9000000059605","<div class='center'><img src='run_exp/static/images/tutorial/blue.png' height='500'></p></div>","49","","","","","","","","","","","","","","","","","","","","","","",""
"","html-keyboard-response","15","126540","0.0-15.0","""event"",""trial"",""time""
""fullscreenenter"",""0"",""2455""
","
","
","""event"",""trial"",""time""
""fullscreenenter"",""0"",""2455""
","
","null","<div class='center'><p><img src='run_exp/static/images/tutorial/blue_win.png' height='500'></p></div>","null","","","","","","","","","","","","","","","","","","","","","","",""
"","html-keyboard-response","16","126890","0.0-16.0","""event"",""trial"",""time""
""fullscreenenter"",""0"",""2455""
","
","
","""event"",""trial"",""time""
""fullscreenenter"",""0"",""2455""
","
","347.5","<div class='center'><img src='run_exp/static/images/tutorial/blue.png' height='500'></p></div>","49","","","","","","","","","","","","","","","","","","","","","","",""
"","html-keyboard-response","17","128392","0.0-17.0","""event"",""trial"",""time""
""fullscreenenter"",""0"",""2455""
","
","
","""event"",""trial"",""time""
""fullscreenenter"",""0"",""2455""
","
","null","<div class='center'><p><img src='run_exp/static/images/tutorial/blue_no_win.png' height='500'></p></div>","null","","","","","","","","","","","","","","","","","","","","","","",""
"","html-keyboard-response","18","133414","0.0-18.0","""event"",""trial"",""time""
""fullscreenenter"",""0"",""2455""
","
","
","""event"",""trial"",""time""
""fullscreenenter"",""0"",""2455""
","
","5018.5999999940395","<div class='center'><img src='run_exp/static/images/tutorial/blue.png' height='500'></p></div>","49","","","","","","","","","","","","","","","","","","","","","","",""
"","html-keyboard-response","19","134916","0.0-19.0","""event"",""trial"",""time""
""fullscreenenter"",""0"",""2455""
","
","
","""event"",""trial"",""time""
""fullscreenenter"",""0"",""2455""
","
","null","<div class='center'><p><img src='run_exp/static/images/tutorial/blue_win.png' height='500'></p></div>","null","","","","","","","","","","","","","","","","","","","","","","",""
"","html-keyboard-response","20","136702","0.0-20.0","""event"",""trial"",""time""
""fullscreenenter"",""0"",""2455""
","
","
","""event"",""trial"",""time""
""fullscreenenter"",""0"",""2455""
","
","1783.6000000089407","<div class='center'><img src='run_exp/static/images/tutorial/blue.png' height='500'></p></div>","49","","","","","","","","","","","","","","","","","","","","","","",""
"","html-keyboard-response","21","138203","0.0-21.0","""event"",""trial"",""time""
""fullscreenenter"",""0"",""2455""
","
","
","""event"",""trial"",""time""
""fullscreenenter"",""0"",""2455""
","
","null","<div class='center'><p><img src='run_exp/static/images/tutorial/blue_win.png' height='500'></p></div>","null","","","","","","","","","","","","","","","","","","","","","","",""
"","html-keyboard-response","22","139722","0.0-22.0","""event"",""trial"",""time""
""fullscreenenter"",""0"",""2455""
","
","
","""event"",""trial"",""time""
""fullscreenenter"",""0"",""2455""
","
","1516.199999988079","<div class='center'><img src='run_exp/static/images/tutorial/blue.png' height='500'></p></div>","49","","","","","","","","","","","","","","","","","","","","","","",""
"","html-keyboard-response","23","141224","0.0-23.0","""event"",""trial"",""time""
""fullscreenenter"",""0"",""2455""
","
","
","""event"",""trial"",""time""
""fullscreenenter"",""0"",""2455""
","
","null","<div class='center'><p><img src='run_exp/static/images/tutorial/blue_win.png' height='500'></p></div>","null","","","","","","","","","","","","","","","","","","","","","","",""
"","html-keyboard-response","24","142460","0.0-24.0","""event"",""trial"",""time""
""fullscreenenter"",""0"",""2455""
","
","
","""event"",""trial"",""time""
""fullscreenenter"",""0"",""2455""
","
","1233.5","<div class='center'><img src='run_exp/static/images/tutorial/blue.png' height='500'></p></div>","49","","","","","","","","","","","","","","","","","","","","","","",""
"","html-keyboard-response","25","143962","0.0-25.0","""event"",""trial"",""time""
""fullscreenenter"",""0"",""2455""
","
","
","""event"",""trial"",""time""
""fullscreenenter"",""0"",""2455""
","
","null","<div class='center'><p><img src='run_exp/static/images/tutorial/blue_no_win.png' height='500'></p></div>","null","","","","","","","","","","","","","","","","","","","","","","",""
"","html-keyboard-response","26","145138","0.0-26.0","""event"",""trial"",""time""
""fullscreenenter"",""0"",""2455""
","
","
","""event"",""trial"",""time""
""fullscreenenter"",""0"",""2455""
","
","1174.199999988079","<div class='center'><img src='run_exp/static/images/tutorial/blue.png' height='500'></p></div>","49","","","","","","","","","","","","","","","","","","","","","","",""
"","html-keyboard-response","27","146640","0.0-27.0","""event"",""trial"",""time""
""fullscreenenter"",""0"",""2455""
","
","
","""event"",""trial"",""time""
""fullscreenenter"",""0"",""2455""
","
","null","<div class='center'><p><img src='run_exp/static/images/tutorial/blue_win.png' height='500'></p></div>","null","","","","","","","","","","","","","","","","","","","","","","",""
"","html-keyboard-response","28","147715","0.0-28.0","""event"",""trial"",""time""
""fullscreenenter"",""0"",""2455""
","
","
","""event"",""trial"",""time""
""fullscreenenter"",""0"",""2455""
","
","1072.7000000029802","<div class='center'><img src='run_exp/static/images/tutorial/blue.png' height='500'></p></div>","49","","","","","","","","","","","","","","","","","","","","","","",""
"","html-keyboard-response","29","149218","0.0-29.0","""event"",""trial"",""time""
""fullscreenenter"",""0"",""2455""
","
","
","""event"",""trial"",""time""
""fullscreenenter"",""0"",""2455""
","
","null","<div class='center'><p><img src='run_exp/static/images/tutorial/blue_win.png' height='500'></p></div>","null","","","","","","","","","","","","","","","","","","","","","","",""
"","instruc6","30","154652","0.0-30.0","""event"",""trial"",""time""
""fullscreenenter"",""0"",""2455""
","
","
","""event"",""trial"",""time""
""fullscreenenter"",""0"",""2455""
","
","null","run_exp/static/audio/clip_6_blue_beard_outcome.m4a","null","","","","","<div class='center'><p> See, he succeeded in robbing the ships most of the time but not every time. </p></div>","","","","","","","","","","","","","","","","","",""
"","html-keyboard-response","31","159424","0.0-31.0","""event"",""trial"",""time""
""fullscreenenter"",""0"",""2455""
","
","
","""event"",""trial"",""time""
""fullscreenenter"",""0"",""2455""
","
","4769.79999999702","<div class='center'><p> See, he succeeded in robbing the ships most of the time but not every time. </p><p><b>[Press the space bar to continue]</b></p></div>","32","","","","","","","","","","","","","","","","","","","","","","",""
"","audio-keyboard-response","32","177357","0.0-32.0","""event"",""trial"",""time""
""fullscreenenter"",""0"",""2455""
","
","
","""event"",""trial"",""time""
""fullscreenenter"",""0"",""2455""
","
","17927.40000000596","run_exp/static/audio/clip_7_pick_pirate.m4a","51","","","","","","","","","","","","","","","","","","","","","","",""
"","audio-keyboard-response","33","180971","0.0-33.0-0.0","""event"",""trial"",""time""
""fullscreenenter"",""0"",""2455""
","
","
","""event"",""trial"",""time""
""fullscreenenter"",""0"",""2455""
","
","3606.0999999940395","run_exp/static/audio/clip_8_chosen_pirate_win.m4a","32","","","","","","","","","","","","","","","","","","","","","","",""
"","audio-keyboard-response","34","183004","0.0-33.0-1.0","""event"",""trial"",""time""
""fullscreenenter"",""0"",""2455""
","
","
","""event"",""trial"",""time""
""fullscreenenter"",""0"",""2455""
","
","2028.7999999970198","run_exp/static/audio/clip_9_pick_a_pirate_again.m4a","49","","","","","","","","","","","","","","","","","","","","","","",""
"","audio-keyboard-response","35","186237","0.0-34.0-0.0","""event"",""trial"",""time""
""fullscreenenter"",""0"",""2455""
","
","
","""event"",""trial"",""time""
""fullscreenenter"",""0"",""2455""
","
","3226.3999999910593","run_exp/static/audio/clip_10_chosen_pirate_loss.m4a","32","","","","","","","","","","","","","","","","","","","","","","",""
"","instruc9","36","191740","0.0-35.0-0.0","""event"",""trial"",""time""
""fullscreenenter"",""0"",""2455""
","
","
","""event"",""trial"",""time""
""fullscreenenter"",""0"",""2455""
","
","null","run_exp/static/audio/clip_11_time_out.m4a","null","","","","","<div class='center'><p>If you don’t make your choice fast enough, you’ll have to wait a few seconds before you can make another one. </p><p><img src='run_exp/static/images/miscellaneous/hurry_up.png' height='500'></p></div>","","","","","","","","","","","","","","","","","",""
"","html-keyboard-response","37","192336","0.0-35.0-1.0","""event"",""trial"",""time""
""fullscreenenter"",""0"",""2455""
","
","
","""event"",""trial"",""time""
""fullscreenenter"",""0"",""2455""
","
","592.1999999880791","<div class='center'><p>If you don’t make your choice fast enough, you’ll have to wait a few seconds before you can make another one. </p><p><img src='run_exp/static/images/miscellaneous/hurry_up.png' height='500'></p><p><b>[Press the space bar to continue]</b></p></div>","32","","","","","","","","","","","","","","","","","","","","","","",""
"","instruc10","38","231440","0.0-35.0-2.0","""event"",""trial"",""time""
""fullscreenenter"",""0"",""2455""
","
","
","""event"",""trial"",""time""
""fullscreenenter"",""0"",""2455""
","
","null","run_exp/static/audio/clip_12_probe.m4a","null","","","","","<div class='center'><p>Once you've chosen a pirate, you’ll be shown the ship they are robbing. You will never rob the same ship twice. Ships can be told apart from one another by the image on them. These are the goods that they sell. See, this ship has a travel mug on it. </p><p> You’ll have to remember which island you saw each ship on. You will win more gold coins and hence more bonus money if you remember correctly! To help you remember, you can imagine a story. For example, here, you could imagine a mug full of water in the desert. Or, as another example, if on the forest island, your pirate robbed a ship with an apple on it, you could imagine an apple falling from a tree in the forest. </p><p><img src='run_exp/static/images/tutorial/example_probe.png' height='500'></p></div>","","","","","","","","","","","","","","","","","",""
"","html-keyboard-response","39","262291","0.0-35.0-3.0","""event"",""trial"",""time""
""fullscreenenter"",""0"",""2455""
","
","
","""event"",""trial"",""time""
""fullscreenenter"",""0"",""2455""
","
","30846.79999999702","<div class='center'><p>Once you've chosen a pirate, you’ll be shown the ship they are robbing. You will never rob the same ship twice. Ships can be told apart from one another by the image on them. These are the goods that they sell. See, this ship has a travel mug on it. </p><p> You’ll have to remember which island you saw each ship on. You will win more gold coins and hence more bonus money if you remember correctly! To help you remember, you can imagine a story. For example, here, you could imagine a mug full of water in the desert. Or, as another example, if on the forest island, your pirate robbed a ship with an apple on it, you could imagine an apple falling from a tree in the forest. </p><p><img src='run_exp/static/images/tutorial/example_probe.png' height='500'></p><p><b>[Press the space bar to continue]</b></p></div>","32","","","","","","","","","","","","","","","","","","","","","","",""
"","instruc11","40","278719","0.0-35.0-4.0","""event"",""trial"",""time""
""fullscreenenter"",""0"",""2455""
","
","
","""event"",""trial"",""time""
""fullscreenenter"",""0"",""2455""
","
","null","run_exp/static/audio/clip_13_changepoint.m4a","null","","","","","<div class='center'><p>How successful a pirate is at robbing ships will depend on the island you’re on.</p><p> A pirate may have visited this island many times before and gained a lot of practice robbing ships there.</p><p>So, they’re more likely to be successful than a pirate who has never visited the island before.</p></div>","","","","","","","","","","","","","","","","","",""
"","html-keyboard-response","41","279177","0.0-35.0-5.0","""event"",""trial"",""time""
""fullscreenenter"",""0"",""2455""
","
","
","""event"",""trial"",""time""
""fullscreenenter"",""0"",""2455""
","
","454.70000000298023","<div class='center'><p>How successful a pirate is at robbing ships will depend on the island you’re on.</p><p> A pirate may have visited this island many times before and gained a lot of practice robbing ships there.</p><p>So, they’re more likely to be successful than a pirate who has never visited the island before.</p><p><b>[Press the space bar to continue]</b></p></div>","32","","","","","","","","","","","","","","","","","","","","","","",""
"","instruc12","42","320282","0.0-35.0-6.0","""event"",""trial"",""time""
""fullscreenenter"",""0"",""2455""
","
","
","""event"",""trial"",""time""
""fullscreenenter"",""0"",""2455""
","
","null","run_exp/static/audio/clip_14_drift.m4a","null","","","","","<div class='center'><p>How successful a pirate is at robbing ships can also change over the time spent on the island. </p><p> Ships may hear from islanders about the pirates coming and will improve their protections against the attack. This may make it harder to rob them.</p><p> Ships may also become lazy and weaken the strength of their protections. This may make it easier to rob them.</p><br><p>Things are always changing on the high seas! So, try your best to pay attention!</p><p><img src='run_exp/static/images/tutorial/contingency.png' height='500'></p></div>","","","","","","","","","","","","","","","","","",""
"","html-keyboard-response","43","326128","0.0-35.0-7.0","""event"",""trial"",""time""
""fullscreenenter"",""0"",""2455""
","
","
","""event"",""trial"",""time""
""fullscreenenter"",""0"",""2455""
","
","5841.29999999702","<div class='center'><p>How successful a pirate is at robbing ships can also change over the time spent on the island. </p><p> Ships may hear from islanders about the pirates coming and will improve their protections against the attack. This may make it harder to rob them.</p><p> Ships may also become lazy and weaken the strength of their protections. This may make it easier to rob them.</p><br><p>Things are always changing on the high seas! So, try your best to pay attention!</p><p><img src='run_exp/static/images/tutorial/contingency.png' height='500'></p><p><b>[Press the space bar to continue]</b></p></div>","32","","","","","","","","","","","","","","","","","","","","","","",""
"","instruc13","44","361324","0.0-35.0-8.0","""event"",""trial"",""time""
""fullscreenenter"",""0"",""2455""
","
","
","""event"",""trial"",""time""
""fullscreenenter"",""0"",""2455""
","
","null","run_exp/static/audio/clip_15_summary.m4a","null","","","","","<div class='center'><p>Let's go over the instructions quickly again. You have two important things to do: </p><b><p> 1. Pick the pirate who is the best at robbing ships on the current island. </p></b><b><p> 2. Remember on which island a ship was robbed.</p> </b><p>The amount of bonus money you can win depends on both.</p><p><br><p>Let’s try a practice game. The game will start by showing you the pirates. First, pick a pirate using the <b> 1, 2, 3 </b> keys on your keyboard. When you are shown a ship, try to remember which island you’re on by making up a story.</p><p>This is just a practice game, so you’re not playing for money. </p><p> Good luck! This game will be very difficult but try your best!</p></div>","","","","","","","","","","","","","","","","","",""
"","html-keyboard-response","45","362253","0.0-35.0-9.0","""event"",""trial"",""time""
""fullscreenenter"",""0"",""2455""
","
","
","""event"",""trial"",""time""
""fullscreenenter"",""0"",""2455""
","
","924.9000000059605","<div class='center'><p>Let's go over the instructions quickly again. You have two important things to do: </p><b><p> 1. Pick the pirate who is the best at robbing ships on the current island. </p></b><b><p> 2. Remember on which island a ship was robbed.</p> </b><p>The amount of bonus money you can win depends on both.</p><p><br><p>Let’s try a practice game. The game will start by showing you the pirates. First, pick a pirate using the <b> 1, 2, 3 </b> keys on your keyboard. When you are shown a ship, try to remember which island you’re on by making up a story.</p><p>This is just a practice game, so you’re not playing for money. </p><p> Good luck! This game will be very difficult but try your best!</p><p><b>[Press the space bar to continue]</b></p></div>","32","","","","","","","","","","","","","","","","","","","","","","",""
"","do_welcome","46","366285","0.0-35.0-10.0","""event"",""trial"",""time""
""fullscreenenter"",""0"",""2455""
","
","
","""event"",""trial"",""time""
""fullscreenenter"",""0"",""2455""
","
","null","","","","","","","","null","","","","","","","","","","","","","","","","",""
"","do_trial","47","373693","0.0-35.0-11.0","""event"",""trial"",""time""
""fullscreenenter"",""0"",""2455""
","
","
","""event"",""trial"",""time""
""fullscreenenter"",""0"",""2455""
","
","2901.5999999940395","","","","","","","","51","1,0,0","","","","","","","","","","","","","","","",""
"","html-keyboard-response","48","374697","0.0-36.0-0.0","""event"",""trial"",""time""
""fullscreenenter"",""0"",""2455""
","
","
","""event"",""trial"",""time""
""fullscreenenter"",""0"",""2455""
","
","null","<p></p>","null","","","","","","","","","","","","","","","","","","","","","","",""
"","do_trial","49","380510","0.0-36.0-1.0","""event"",""trial"",""time""
""fullscreenenter"",""0"",""2455""
","
","
","""event"",""trial"",""time""
""fullscreenenter"",""0"",""2455""
","
","1308.1000000089407","","","","","","","","49","1,1,0","","","","","","","","","","","","","","","",""
"","html-keyboard-response","50","381514","0.0-37.0-0.0","""event"",""trial"",""time""
""fullscreenenter"",""0"",""2455""
","
","
","""event"",""trial"",""time""
""fullscreenenter"",""0"",""2455""
","
","null","<p></p>","null","","","","","","","","","","","","","","","","","","","","","","",""
"","do_trial","51","386553","0.0-37.0-1.0","""event"",""trial"",""time""
""fullscreenenter"",""0"",""2455""
","
","
","""event"",""trial"",""time""
""fullscreenenter"",""0"",""2455""
","
","521.1000000089407","","","","","","","","50","1,0,1","","","","","","","","","","","","","","","",""
"","html-keyboard-response","52","387557","0.0-38.0-0.0","""event"",""trial"",""time""
""fullscreenenter"",""0"",""2455""
","
","
","""event"",""trial"",""time""
""fullscreenenter"",""0"",""2455""
","
","null","<p></p>","null","","","","","","","","","","","","","","","","","","","","","","",""
"","do_trial","53","393516","0.0-38.0-1.0","""event"",""trial"",""time""
""fullscreenenter"",""0"",""2455""
","
","
","""event"",""trial"",""time""
""fullscreenenter"",""0"",""2455""
","
","1443.6000000089407","","","","","","","","49","0,1,0","","","","","","","","","","","","","","","",""
"","html-keyboard-response","54","394520","0.0-39.0-0.0","""event"",""trial"",""time""
""fullscreenenter"",""0"",""2455""
","
","
","""event"",""trial"",""time""
""fullscreenenter"",""0"",""2455""
","
","null","<p></p>","null","","","","","","","","","","","","","","","","","","","","","","",""
"","do_trial","55","399661","0.0-39.0-1.0","""event"",""trial"",""time""
""fullscreenenter"",""0"",""2455""
","
","
","""event"",""trial"",""time""
""fullscreenenter"",""0"",""2455""
","
","625.1000000089407","","","","","","","","51","1,0,0","","","","","","","","","","","","","","","",""
"","do_bye","56","401170","0.0-40.0-0.0","""event"",""trial"",""time""
""fullscreenenter"",""0"",""2455""
","
","
","""event"",""trial"",""time""
""fullscreenenter"",""0"",""2455""
","
","null","","","","","","","","null","","","","","","","","","","","","","","","","",""
"","do_travel","57","410178","0.0-40.0-1.0","""event"",""trial"",""time""
""fullscreenenter"",""0"",""2455""
","
","
","""event"",""trial"",""time""
""fullscreenenter"",""0"",""2455""
","
","null","","","","","","","","null","","","","","","","","","","","","","","","","",""
"","do_welcome","58","414192","0.0-40.0-2.0","""event"",""trial"",""time""
""fullscreenenter"",""0"",""2455""
","
","
","""event"",""trial"",""time""
""fullscreenenter"",""0"",""2455""
","
","null","","","","","","","","null","","","","","","","","","","","","","","","","",""
"","do_trial","59","420289","0.0-40.0-3.0","""event"",""trial"",""time""
""fullscreenenter"",""0"",""2455""
","
","
","""event"",""trial"",""time""
""fullscreenenter"",""0"",""2455""
","
","1581.7999999970198","","","","","","","","49","1,0,0","","","","","","","","","","","","","","","",""
"","html-keyboard-response","60","421292","0.0-41.0-0.0","""event"",""trial"",""time""
""fullscreenenter"",""0"",""2455""
","
","
","""event"",""trial"",""time""
""fullscreenenter"",""0"",""2455""
","
","null","<p></p>","null","","","","","","","","","","","","","","","","","","","","","","",""
"","do_trial","61","426164","0.0-41.0-1.0","""event"",""trial"",""time""
""fullscreenenter"",""0"",""2455""
","
","
","""event"",""trial"",""time""
""fullscreenenter"",""0"",""2455""
","
","356.29999999701977","","","","","","","","50","1,0,1","","","","","","","","","","","","","","","",""
"","html-keyboard-response","62","427167","0.0-42.0-0.0","""event"",""trial"",""time""
""fullscreenenter"",""0"",""2455""
","
","
","""event"",""trial"",""time""
""fullscreenenter"",""0"",""2455""
","
","null","<p></p>","null","","","","","","","","","","","","","","","","","","","","","","",""
"","do_trial","63","432606","0.0-42.0-1.0","""event"",""trial"",""time""
""fullscreenenter"",""0"",""2455""
","
","
","""event"",""trial"",""time""
""fullscreenenter"",""0"",""2455""
","
","922.2999999970198","","","","","","","","51","1,1,0","","","","","","","","","","","","","","","",""
"","html-keyboard-response","64","433608","0.0-43.0-0.0","""event"",""trial"",""time""
""fullscreenenter"",""0"",""2455""
","
","
","""event"",""trial"",""time""
""fullscreenenter"",""0"",""2455""
","
","null","<p></p>","null","","","","","","","","","","","","","","","","","","","","","","",""
"","do_trial","65","439942","0.0-43.0-1.0","""event"",""trial"",""time""
""fullscreenenter"",""0"",""2455""
","
","
","""event"",""trial"",""time""
""fullscreenenter"",""0"",""2455""
","
","1817.7000000029802","","","","","","","","50","0,0,1","","","","","","","","","","","","","","","",""
"","html-keyboard-response","66","440944","0.0-44.0-0.0","""event"",""trial"",""time""
""fullscreenenter"",""0"",""2455""
","
","
","""event"",""trial"",""time""
""fullscreenenter"",""0"",""2455""
","
","null","<p></p>","null","","","","","","","","","","","","","","","","","","","","","","",""
"","do_trial","67","447688","0.0-44.0-1.0","""event"",""trial"",""time""
""fullscreenenter"",""0"",""2455""
","
","
","""event"",""trial"",""time""
""fullscreenenter"",""0"",""2455""
","
","2227.5999999940395","","","","","","","","49","1,0,1","","","","","","","","","","","","","","","",""
"","html-keyboard-response","68","450509","0.0-45.0-0.0","""event"",""trial"",""time""
""fullscreenenter"",""0"",""2455""
","
","
","""event"",""trial"",""time""
""fullscreenenter"",""0"",""2455""
","
","2815.5999999940395","<div class='center'><p><img src='run_exp/static/images/tutorial/prac_best_pirate.png'  height='500'></p></div>","49","","","","","","","","","","","","","","","","","","","","","","",""
"","html-keyboard-response","69","452430","0.0-46.0-0.0","""event"",""trial"",""time""
""fullscreenenter"",""0"",""2455""
","
","
","""event"",""trial"",""time""
""fullscreenenter"",""0"",""2455""
","
","1918.0999999940395","<div class='center'><p>That's correct! Red beard was the best.</p><p><b>[Press the space bar to continue]</b></p></div>","32","","","","","","","","","","","","","","","","","","","","","","",""
"","html-keyboard-response","70","455848","0.0-46.0-1.0","""event"",""trial"",""time""
""fullscreenenter"",""0"",""2455""
","
","
","""event"",""trial"",""time""
""fullscreenenter"",""0"",""2455""
","
","3415.2999999970198","<div class='center'><p><img src='run_exp/static/images/tutorial/prac_source.png'  height='500'></p></div>","50","","","","","","","","","","","","","","","","","","","","","","",""
"","html-keyboard-response","71","457232","0.0-47.0-0.0","""event"",""trial"",""time""
""fullscreenenter"",""0"",""2455""
","
","
","""event"",""trial"",""time""
""fullscreenenter"",""0"",""2455""
","
","1381.0999999940395","<div class='center'><p>That's correct! You saw this ship on the cavern island.</p><p><b>[Press the space bar to continue]</b></p></div>","32","","","","","","","","","","","","","","","","","","","","","","",""
"","quiz_beginning","72","468460","0.0-47.0-1.0","""event"",""trial"",""time""
""fullscreenenter"",""0"",""2455""
","
","
","""event"",""trial"",""time""
""fullscreenenter"",""0"",""2455""
","
","null","run_exp/static/audio/clip_16_quiz_intro.m4a","null","","","","","<div class='center'><p>Good job on the practice game! Now, you will be asked some true or false questions to make sure you really understand the rules of the game.</p><p> Press <b>'1'</b> on the keyboard for true and press <b>'2'</b> for false.</p></div>","","","","","","","","","","","","","","","","","",""
"","audio-keyboard-response","73","475697","0.0-47.0-2.0","""event"",""trial"",""time""
""fullscreenenter"",""0"",""2455""
","
","
","""event"",""trial"",""time""
""fullscreenenter"",""0"",""2455""
","
","7232.70000000298","run_exp/static/audio/clip_17_q1.m4a","49","","","","","","","","","","","","","","","","","","","","","","",""
"","correct","74","478108","0.0-48.0-0.0","""event"",""trial"",""time""
""fullscreenenter"",""0"",""2455""
","
","
","""event"",""trial"",""time""
""fullscreenenter"",""0"",""2455""
","
","null","run_exp/static/audio/clip_18_correct.m4a","null","","","","","<div class='center'><p>That's correct!</p></div>","","","","","","","","","","","","","","","","","",""
"","html-keyboard-response","75","479665","0.0-48.0-1.0","""event"",""trial"",""time""
""fullscreenenter"",""0"",""2455""
","
","
","""event"",""trial"",""time""
""fullscreenenter"",""0"",""2455""
","
","1554.7000000029802","<div class='center'><p>That's correct!</p><p><b>[Press the space bar to continue]</b></p></div>","32","","","","","","","","","","","","","","","","","","","","","","",""
"","audio-keyboard-response","76","488368","0.0-48.0-2.0","""event"",""trial"",""time""
""fullscreenenter"",""0"",""2455""
","
","
","""event"",""trial"",""time""
""fullscreenenter"",""0"",""2455""
","
","8700.60000000894","run_exp/static/audio/clip_20_q2.m4a","50","","","","","","","","","","","","","","","","","","","","","","",""
"","correct","77","490783","0.0-49.0-0.0","""event"",""trial"",""time""
""fullscreenenter"",""0"",""2455""
","
","
","""event"",""trial"",""time""
""fullscreenenter"",""0"",""2455""
","
","null","run_exp/static/audio/clip_18_correct.m4a","null","","","","","<div class='center'><p>That's correct!</p></div>","","","","","","","","","","","","","","","","","",""
"","html-keyboard-response","78","492494","0.0-49.0-1.0","""event"",""trial"",""time""
""fullscreenenter"",""0"",""2455""
","
","
","""event"",""trial"",""time""
""fullscreenenter"",""0"",""2455""
","
","1709.8999999910593","<div class='center'><p>That's correct!</p><p><b>[Press the space bar to continue]</b></p></div>","32","","","","","","","","","","","","","","","","","","","","","","",""
"","audio-keyboard-response","79","498527","0.0-49.0-2.0","""event"",""trial"",""time""
""fullscreenenter"",""0"",""2455""
","
","
","""event"",""trial"",""time""
""fullscreenenter"",""0"",""2455""
","
","6029.5999999940395","run_exp/static/audio/clip_22_q3.m4a","50","","","","","","","","","","","","","","","","","","","","","","",""
"","correct","80","500976","0.0-50.0-0.0","""event"",""trial"",""time""
""fullscreenenter"",""0"",""2455""
","
","
","""event"",""trial"",""time""
""fullscreenenter"",""0"",""2455""
","
","null","run_exp/static/audio/clip_18_correct.m4a","null","","","","","<div class='center'><p>That's correct!</p></div>","","","","","","","","","","","","","","","","","",""
"","html-keyboard-response","81","502478","0.0-50.0-1.0","""event"",""trial"",""time""
""fullscreenenter"",""0"",""2455""
","
","
","""event"",""trial"",""time""
""fullscreenenter"",""0"",""2455""
","
","1500.2999999970198","<div class='center'><p>That's correct!</p><p><b>[Press the space bar to continue]</b></p></div>","32","","","","","","","","","","","","","","","","","","","","","","",""
"","audio-keyboard-response","82","506766","0.0-50.0-2.0","""event"",""trial"",""time""
""fullscreenenter"",""0"",""2455""
","
","
","""event"",""trial"",""time""
""fullscreenenter"",""0"",""2455""
","
","4285.70000000298","run_exp/static/audio/clip_24_q4.m4a","49","","","","","","","","","","","","","","","","","","","","","","",""
"","correct","83","509338","0.0-51.0-0.0","""event"",""trial"",""time""
""fullscreenenter"",""0"",""2455""
","
","
","""event"",""trial"",""time""
""fullscreenenter"",""0"",""2455""
","
","null","run_exp/static/audio/clip_18_correct.m4a","null","","","","","<div class='center'><p>That's correct!</p></div>","","","","","","","","","","","","","","","","","",""
"","html-keyboard-response","84","511059","0.0-51.0-1.0","""event"",""trial"",""time""
""fullscreenenter"",""0"",""2455""
","
","
","""event"",""trial"",""time""
""fullscreenenter"",""0"",""2455""
","
","1718.300000011921","<div class='center'><p>That's correct!</p><p><b>[Press the space bar to continue]</b></p></div>","32","","","","","","","","","","","","","","","","","","","","","","",""
"","q_all_corr","85","519586","0.0-52.0-0.0","""event"",""trial"",""time""
""fullscreenenter"",""0"",""2455""
","
","
","""event"",""trial"",""time""
""fullscreenenter"",""0"",""2455""
","
","null","run_exp/static/audio/clip_27_quiz_all_correct.m4a","null","","","","","<div class='center'><p>Good job! You’re now ready to move on to the real game! Remember this game will be difficult but don't get discouraged and try your best!</p></div>","","","","","","","","","","","","","","","","","",""
"","html-keyboard-response","86","520180","0.0-52.0-1.0","""event"",""trial"",""time""
""fullscreenenter"",""0"",""2455""
","
","
","""event"",""trial"",""time""
""fullscreenenter"",""0"",""2455""
","
","591.2000000029802","<div class='center'><p>Good job! You’re now ready to move on to the real game! Remember this game will be difficult but don't get discouraged and try your best!</p><p><b>[Press the space bar to continue]</b></p></div>","32","","","","","","","","","","","","","","","","","","","","","","",""
"","do_welcome","87","524194","0.0-53.0-0.0","""event"",""trial"",""time""
""fullscreenenter"",""0"",""2455""
","
","
","""event"",""trial"",""time""
""fullscreenenter"",""0"",""2455""
","
","null","","","","","","","","null","","","","","","","","","","","","","","","","",""
"","do_trial","88","530320","0.0-54.0-0.0","""event"",""trial"",""time""
""fullscreenenter"",""0"",""2455""
","
","
","""event"",""trial"",""time""
""fullscreenenter"",""0"",""2455""
","
","1525.7000000029802","","","","","","","","49","0,1,0","0","mountain","0","probe-22","0.6","0.3","0.1","0","","","","","","","",""
"","html-keyboard-response","89","531324","0.0-54.0-1.0","""event"",""trial"",""time""
""fullscreenenter"",""0"",""2455""
","
","
","""event"",""trial"",""time""
""fullscreenenter"",""0"",""2455""
","
","null","<p></p>","null","","","","","","","","","","","","","","","","","","","","","","",""
"","do_trial","90","536388","0.0-55.0-0.0","""event"",""trial"",""time""
""fullscreenenter"",""0"",""2455""
","
","
","""event"",""trial"",""time""
""fullscreenenter"",""0"",""2455""
","
","466.79999999701977","","","","","","","","51","0,0,0","0","mountain","1","probe-202","0.5870869054350991","0.322593793346021","0.07917762770564768","0","","","","","","","",""
"","html-keyboard-response","91","537391","0.0-55.0-1.0","""event"",""trial"",""time""
""fullscreenenter"",""0"",""2455""
","
","
","""event"",""trial"",""time""
""fullscreenenter"",""0"",""2455""
","
","null","<p></p>","null","","","","","","","","","","","","","","","","","","","","","","",""
"","do_trial","92","543443","0.0-56.0-0.0","""event"",""trial"",""time""
""fullscreenenter"",""0"",""2455""
","
","
","""event"",""trial"",""time""
""fullscreenenter"",""0"",""2455""
","
","1454.2000000029802","","","","","","","","50","1,0,0","0","mountain","2","probe-86","0.5972393380955485","0.2433361920632449","0.09306643218671848","0","","","","","","","",""
"","html-keyboard-response","93","544446","0.0-56.0-1.0","""event"",""trial"",""time""
""fullscreenenter"",""0"",""2455""
","
","
","""event"",""trial"",""time""
""fullscreenenter"",""0"",""2455""
","
","null","<p></p>","null","","","","","","","","","","","","","","","","","","","","","","",""
"","do_trial","94","549445","0.0-57.0-0.0","""event"",""trial"",""time""
""fullscreenenter"",""0"",""2455""
","
","
","""event"",""trial"",""time""
""fullscreenenter"",""0"",""2455""
","
","428.8999999910593","","","","","","","","49","0,1,0","0","mountain","3","probe-100","0.5898117654145419","0.2716191049489096","0.058113341193376196","0","","","","","","","",""
"","html-keyboard-response","95","550448","0.0-57.0-1.0","""event"",""trial"",""time""
""fullscreenenter"",""0"",""2455""
","
","
","""event"",""trial"",""time""
""fullscreenenter"",""0"",""2455""
","
","null","<p></p>","null","","","","","","","","","","","","","","","","","","","","","","",""
"","do_trial","96","555161","0.0-58.0-0.0","""event"",""trial"",""time""
""fullscreenenter"",""0"",""2455""
","
","
","""event"",""trial"",""time""
""fullscreenenter"",""0"",""2455""
","
","105.59999999403954","","","","","","","","51","0,0,0","0","mountain","4","probe-30","0.5979346753822888","0.18592629119551787","0.05384438170689108","0","","","","","","","",""
"","html-keyboard-response","97","556164","0.0-58.0-1.0","""event"",""trial"",""time""
""fullscreenenter"",""0"",""2455""
","
","
","""event"",""trial"",""time""
""fullscreenenter"",""0"",""2455""
","
","null","<p></p>","null","","","","","","","","","","","","","","","","","","","","","","",""
"","do_trial","98","562237","0.0-59.0-0.0","""event"",""trial"",""time""
""fullscreenenter"",""0"",""2455""
","
","
","""event"",""trial"",""time""
""fullscreenenter"",""0"",""2455""
","
","null","","","","","","","","null","0,0,0","0","mountain","5","probe-216","0.5399617727105819","0.12195484348047725","0.13049319132845333","","","","","","","","",""
"","html-keyboard-response","99","563240","0.0-59.0-1.0","""event"",""trial"",""time""
""fullscreenenter"",""0"",""2455""
","
","
","""event"",""trial"",""time""
""fullscreenenter"",""0"",""2455""
","
","null","<p></p>","null","","","","","","","","","","","","","","","","","","","","","","",""
"","do_trial","100","568429","0.0-60.0-0.0","""event"",""trial"",""time""
""fullscreenenter"",""0"",""2455""
","
","
","""event"",""trial"",""time""
""fullscreenenter"",""0"",""2455""
","
","583.8999999910593","","","","","","","","50","1,0,0","0","mountain","6","probe-65","0.5990889153851923","0.24222630982153065","0.16213943950612908","0","","","","","","","",""
"","html-keyboard-response","101","569432","0.0-60.0-1.0","""event"",""trial"",""time""
""fullscreenenter"",""0"",""2455""
","
","
","""event"",""trial"",""time""
""fullscreenenter"",""0"",""2455""
","
","null","<p></p>","null","","","","","","","","","","","","","","","","","","","","","","",""
"","do_trial","102","574090","0.0-61.0-0.0","""event"",""trial"",""time""
""fullscreenenter"",""0"",""2455""
","
","
","""event"",""trial"",""time""
""fullscreenenter"",""0"",""2455""
","
","103.19999998807907","","","","","","","","49","1,1,0","0","mountain","7","probe-81","0.6303246192896614","0.2048563353715893","0.06489991600770771","1","","","","","","","",""
"","html-keyboard-response","103","575092","0.0-61.0-1.0","""event"",""trial"",""time""
""fullscreenenter"",""0"",""2455""
","
","
","""event"",""trial"",""time""
""fullscreenenter"",""0"",""2455""
","
","null","<p></p>","null","","","","","","","","","","","","","","","","","","","","","","",""
"","do_trial","104","579706","0.0-62.0-0.0","""event"",""trial"",""time""
""fullscreenenter"",""0"",""2455""
","
","
","""event"",""trial"",""time""
""fullscreenenter"",""0"",""2455""
","
","0.20000000298023224","","","","","","","","49","0,0,0","0","mountain","8","probe-98","0.5311004809898936","0.11351048738525421","0.1039809758397124","0","","","","","","","",""
"","html-keyboard-response","105","580708","0.0-62.0-1.0","""event"",""trial"",""time""
""fullscreenenter"",""0"",""2455""
","
","
","""event"",""trial"",""time""
""fullscreenenter"",""0"",""2455""
","
","null","<p></p>","null","","","","","","","","","","","","","","","","","","","","","","",""
"","do_trial","106","585527","0.0-63.0-0.0","""event"",""trial"",""time""
""fullscreenenter"",""0"",""2455""
","
","
","""event"",""trial"",""time""
""fullscreenenter"",""0"",""2455""
","
","210.59999999403954","","","","","","","","51","1,0,0","0","mountain","9","probe-190","0.526828252886377","0.17983293010351925","0.10797209527220673","0","","","","","","","",""
"","html-keyboard-response","107","586530","0.0-63.0-1.0","""event"",""trial"",""time""
""fullscreenenter"",""0"",""2455""
","
","
","""event"",""trial"",""time""
""fullscreenenter"",""0"",""2455""
","
","null","<p></p>","null","","","","","","","","","","","","","","","","","","","","","","",""
"","do_trial","108","591459","0.0-64.0-0.0","""event"",""trial"",""time""
""fullscreenenter"",""0"",""2455""
","
","
","""event"",""trial"",""time""
""fullscreenenter"",""0"",""2455""
","
","361","","","","","","","","50","0,0,0","0","mountain","10","probe-148","0.6188876237159755","0.16674528921603465","0.0592890732517687","0","","","","","","","",""
"","html-keyboard-response","109","592462","0.0-64.0-1.0","""event"",""trial"",""time""
""fullscreenenter"",""0"",""2455""
","
","
","""event"",""trial"",""time""
""fullscreenenter"",""0"",""2455""
","
","null","<p></p>","null","","","","","","","","","","","","","","","","","","","","","","",""
"","do_trial","110","597072","0.0-65.0-0.0","""event"",""trial"",""time""
""fullscreenenter"",""0"",""2455""
","
","
","""event"",""trial"",""time""
""fullscreenenter"",""0"",""2455""
","
","0.10000000894069672","","","","","","","","49","1,0,1","0","mountain","11","probe-108","0.604638055300719","0.22975707082098598","0.19682888180768396","1","","","","","","","",""
"","html-keyboard-response","111","598075","0.0-65.0-1.0","""event"",""trial"",""time""
""fullscreenenter"",""0"",""2455""
","
","
","""event"",""trial"",""time""
""fullscreenenter"",""0"",""2455""
","
","null","<p></p>","null","","","","","","","","","","","","","","","","","","","","","","",""
"","do_trial","112","603319","0.0-66.0-0.0","""event"",""trial"",""time""
""fullscreenenter"",""0"",""2455""
","
","
","""event"",""trial"",""time""
""fullscreenenter"",""0"",""2455""
","
","635.3999999910593","","","","","","","","51","1,0,0","0","mountain","12","probe-175","0.6054268692678326","0.17329356412570554","0.1472364044687869","0","","","","","","","",""
"","html-keyboard-response","113","604321","0.0-66.0-1.0","""event"",""trial"",""time""
""fullscreenenter"",""0"",""2455""
","
","
","""event"",""trial"",""time""
""fullscreenenter"",""0"",""2455""
","
","null","<p></p>","null","","","","","","","","","","","","","","","","","","","","","","",""
"","do_trial","114","609069","0.0-67.0-0.0","""event"",""trial"",""time""
""fullscreenenter"",""0"",""2455""
","
","
","""event"",""trial"",""time""
""fullscreenenter"",""0"",""2455""
","
","141.8999999910593","","","","","","","","49","0,0,0","0","mountain","13","probe-99","0.6218612336891326","0.05150481190307531","0.12346330797325694","0","","","","","","","",""
"","html-keyboard-response","115","610072","0.0-67.0-1.0","""event"",""trial"",""time""
""fullscreenenter"",""0"",""2455""
","
","
","""event"",""trial"",""time""
""fullscreenenter"",""0"",""2455""
","
","null","<p></p>","null","","","","","","","","","","","","","","","","","","","","","","",""
"","do_trial","116","615151","0.0-68.0-0.0","""event"",""trial"",""time""
""fullscreenenter"",""0"",""2455""
","
","
","""event"",""trial"",""time""
""fullscreenenter"",""0"",""2455""
","
","480.20000000298023","","","","","","","","50","1,0,0","0","mountain","14","probe-102","0.7751014266469123","0.09547216158168925","0.2249981806096749","0","","","","","","","",""
"","html-keyboard-response","117","616154","0.0-68.0-1.0","""event"",""trial"",""time""
""fullscreenenter"",""0"",""2455""
","
","
","""event"",""trial"",""time""
""fullscreenenter"",""0"",""2455""
","
","null","<p></p>","null","","","","","","","","","","","","","","","","","","","","","","",""
"","do_trial","118","622264","0.0-69.0-0.0","""event"",""trial"",""time""
""fullscreenenter"",""0"",""2455""
","
","
","""event"",""trial"",""time""
""fullscreenenter"",""0"",""2455""
","
","null","","","","","","","","null","1,1,0","0","mountain","15","probe-50","0.5683058648323103","0.2637806419445943","0.11372103098898442","","","","","","","","",""
"","html-keyboard-response","119","623267","0.0-69.0-1.0","""event"",""trial"",""time""
""fullscreenenter"",""0"",""2455""
","
","
","""event"",""trial"",""time""
""fullscreenenter"",""0"",""2455""
","
","null","<p></p>","null","","","","","","","","","","","","","","","","","","","","","","",""
"","do_trial","120","628302","0.0-70.0-0.0","""event"",""trial"",""time""
""fullscreenenter"",""0"",""2455""
","
","
","""event"",""trial"",""time""
""fullscreenenter"",""0"",""2455""
","
","431.5","","","","","","","","49","1,0,0","0","mountain","16","probe-63","0.38687149671897003","0.18019953417414125","0.14504725141493194","1","","","","","","","",""
"","html-keyboard-response","121","629304","0.0-70.0-1.0","""event"",""trial"",""time""
""fullscreenenter"",""0"",""2455""
","
","
","""event"",""trial"",""time""
""fullscreenenter"",""0"",""2455""
","
","null","<p></p>","null","","","","","","","","","","","","","","","","","","","","","","",""
"","do_trial","122","634305","0.0-71.0-0.0","""event"",""trial"",""time""
""fullscreenenter"",""0"",""2455""
","
","
","""event"",""trial"",""time""
""fullscreenenter"",""0"",""2455""
","
","395.59999999403954","","","","","","","","51","1,0,0","0","mountain","17","probe-49","0.4770350068642267","0.14655698539365322","0.11049171244082029","0","","","","","","","",""
"","html-keyboard-response","123","635307","0.0-71.0-1.0","""event"",""trial"",""time""
""fullscreenenter"",""0"",""2455""
","
","
","""event"",""trial"",""time""
""fullscreenenter"",""0"",""2455""
","
","null","<p></p>","null","","","","","","","","","","","","","","","","","","","","","","",""
"","do_trial","124","639887","0.0-72.0-0.0","""event"",""trial"",""time""
""fullscreenenter"",""0"",""2455""
","
","
","""event"",""trial"",""time""
""fullscreenenter"",""0"",""2455""
","
","20.5","","","","","","","","49","0,0,0","0","mountain","18","probe-48","0.6163463921488217","0.08800841935824746","0.08625462546436305","0","","","","","","","",""
"","html-keyboard-response","125","640890","0.0-72.0-1.0","""event"",""trial"",""time""
""fullscreenenter"",""0"",""2455""
","
","
","""event"",""trial"",""time""
""fullscreenenter"",""0"",""2455""
","
","null","<p></p>","null","","","","","","","","","","","","","","","","","","","","","","",""
"","do_trial","126","645491","0.0-73.0-0.0","""event"",""trial"",""time""
""fullscreenenter"",""0"",""2455""
","
","
","""event"",""trial"",""time""
""fullscreenenter"",""0"",""2455""
","
","0.09999999403953552","","","","","","","","49","1,1,0","0","mountain","19","probe-107","0.6300866451368132","0.1359011990198082","0.22253423459347338","1","","","","","","","",""
"","html-keyboard-response","127","646494","0.0-73.0-1.0","""event"",""trial"",""time""
""fullscreenenter"",""0"",""2455""
","
","
","""event"",""trial"",""time""
""fullscreenenter"",""0"",""2455""
","
","null","<p></p>","null","","","","","","","","","","","","","","","","","","","","","","",""
"","do_trial","128","651479","0.0-74.0-0.0","""event"",""trial"",""time""
""fullscreenenter"",""0"",""2455""
","
","
","""event"",""trial"",""time""
""fullscreenenter"",""0"",""2455""
","
","371.59999999403954","","","","","","","","49","1,0,0","0","mountain","20","probe-52","0.8328916957874826","0.14037909720570232","0.27470077382590796","1","","","","","","","",""
"","html-keyboard-response","129","652483","0.0-74.0-1.0","""event"",""trial"",""time""
""fullscreenenter"",""0"",""2455""
","
","
","""event"",""trial"",""time""
""fullscreenenter"",""0"",""2455""
","
","null","<p></p>","null","","","","","","","","","","","","","","","","","","","","","","",""
"","do_trial","130","657164","0.0-75.0-0.0","""event"",""trial"",""time""
""fullscreenenter"",""0"",""2455""
","
","
","""event"",""trial"",""time""
""fullscreenenter"",""0"",""2455""
","
","75.79999999701977","","","","","","","","49","0,1,0","0","mountain","21","probe-227","0.5466679199238481","0.2277216153691637","0.11655731243319131","0","","","","","","","",""
"","html-keyboard-response","131","658167","0.0-75.0-1.0","""event"",""trial"",""time""
""fullscreenenter"",""0"",""2455""
","
","
","""event"",""trial"",""time""
""fullscreenenter"",""0"",""2455""
","
","null","<p></p>","null","","","","","","","","","","","","","","","","","","","","","","",""
"","do_trial","132","662772","0.0-76.0-0.0","""event"",""trial"",""time""
""fullscreenenter"",""0"",""2455""
","
","
","""event"",""trial"",""time""
""fullscreenenter"",""0"",""2455""
","
","0.10000000894069672","","","","","","","","49","0,1,0","0","mountain","22","probe-152","0.5803927957250512","0.36818621211552033","0.17773801598931344","0","","","","","","","",""
"","html-keyboard-response","133","663774","0.0-76.0-1.0","""event"",""trial"",""time""
""fullscreenenter"",""0"",""2455""
","
","
","""event"",""trial"",""time""
""fullscreenenter"",""0"",""2455""
","
","null","<p></p>","null","","","","","","","","","","","","","","","","","","","","","","",""
"","do_trial","134","668671","0.0-77.0-0.0","""event"",""trial"",""time""
""fullscreenenter"",""0"",""2455""
","
","
","""event"",""trial"",""time""
""fullscreenenter"",""0"",""2455""
","
","332.5","","","","","","","","50","1,0,1","0","mountain","23","probe-163","0.622465480160674","0.16563290086919363","0.12805404886285937","0","","","","","","","",""
"","html-keyboard-response","135","669674","0.0-77.0-1.0","""event"",""trial"",""time""
""fullscreenenter"",""0"",""2455""
","
","
","""event"",""trial"",""time""
""fullscreenenter"",""0"",""2455""
","
","null","<p></p>","null","","","","","","","","","","","","","","","","","","","","","","",""
"","do_trial","136","674415","0.0-78.0-0.0","""event"",""trial"",""time""
""fullscreenenter"",""0"",""2455""
","
","
","""event"",""trial"",""time""
""fullscreenenter"",""0"",""2455""
","
","133","","","","","","","","50","1,1,0","0","mountain","24","probe-130","0.5557341795205096","0.3426279628372219","0.11015476544765092","1","","","","","","","",""
"","html-keyboard-response","137","675417","0.0-78.0-1.0","""event"",""trial"",""time""
""fullscreenenter"",""0"",""2455""
","
","
","""event"",""trial"",""time""
""fullscreenenter"",""0"",""2455""
","
","null","<p></p>","null","","","","","","","","","","","","","","","","","","","","","","",""
"","do_trial","138","680146","0.0-79.0-0.0","""event"",""trial"",""time""
""fullscreenenter"",""0"",""2455""
","
","
","""event"",""trial"",""time""
""fullscreenenter"",""0"",""2455""
","
","159.40000000596046","","","","","","","","50","1,1,0","0","mountain","25","probe-122","0.631758407595266","0.47621402048954425","0.0812724216709431","1","","","","","","","",""
"","html-keyboard-response","139","681149","0.0-79.0-1.0","""event"",""trial"",""time""
""fullscreenenter"",""0"",""2455""
","
","
","""event"",""trial"",""time""
""fullscreenenter"",""0"",""2455""
","
","null","<p></p>","null","","","","","","","","","","","","","","","","","","","","","","",""
"","do_trial","140","685995","0.0-80.0-0.0","""event"",""trial"",""time""
""fullscreenenter"",""0"",""2455""
","
","
","""event"",""trial"",""time""
""fullscreenenter"",""0"",""2455""
","
","244.69999998807907","","","","","","","","50","0,1,0","0","mountain","26","probe-221","0.6606941719174865","0.3872832798783452","0.1076125098995909","1","","","","","","","",""
"","html-keyboard-response","141","686997","0.0-80.0-1.0","""event"",""trial"",""time""
""fullscreenenter"",""0"",""2455""
","
","
","""event"",""trial"",""time""
""fullscreenenter"",""0"",""2455""
","
","null","<p></p>","null","","","","","","","","","","","","","","","","","","","","","","",""
"","do_trial","142","691918","0.0-81.0-0.0","""event"",""trial"",""time""
""fullscreenenter"",""0"",""2455""
","
","
","""event"",""trial"",""time""
""fullscreenenter"",""0"",""2455""
","
","341.79999999701977","","","","","","","","50","0,0,0","0","mountain","27","probe-113","0.6858506557640742","0.29406291542864127","0.12688246384018753","0","","","","","","","",""
"","html-keyboard-response","143","692920","0.0-81.0-1.0","""event"",""trial"",""time""
""fullscreenenter"",""0"",""2455""
","
","
","""event"",""trial"",""time""
""fullscreenenter"",""0"",""2455""
","
","null","<p></p>","null","","","","","","","","","","","","","","","","","","","","","","",""
"","do_trial","144","698083","0.0-82.0-0.0","""event"",""trial"",""time""
""fullscreenenter"",""0"",""2455""
","
","
","""event"",""trial"",""time""
""fullscreenenter"",""0"",""2455""
","
","560.3999999910593","","","","","","","","51","1,1,0","0","mountain","28","probe-109","0.5314392634154707","0.34640480270247714","0.14762522939571934","0","","","","","","","",""
"","html-keyboard-response","145","699085","0.0-82.0-1.0","""event"",""trial"",""time""
""fullscreenenter"",""0"",""2455""
","
","
","""event"",""trial"",""time""
""fullscreenenter"",""0"",""2455""
","
","null","<p></p>","null","","","","","","","","","","","","","","","","","","","","","","",""
"","do_trial","146","703644","0.0-83.0-0.0","""event"",""trial"",""time""
""fullscreenenter"",""0"",""2455""
","
","
","""event"",""trial"",""time""
""fullscreenenter"",""0"",""2455""
","
","0.09999999403953552","","","","","","","","51","1,0,0","0","mountain","29","probe-118","0.6053194459975724","0.4056162076170538","0.21047535883750684","0","","","","","","","",""
"","html-keyboard-response","147","704647","0.0-83.0-1.0","""event"",""trial"",""time""
""fullscreenenter"",""0"",""2455""
","
","
","""event"",""trial"",""time""
""fullscreenenter"",""0"",""2455""
","
","null","<p></p>","null","","","","","","","","","","","","","","","","","","","","","","",""
"","do_bye","148","706160","0.0-84.0-0.0","""event"",""trial"",""time""
""fullscreenenter"",""0"",""2455""
","
","
","""event"",""trial"",""time""
""fullscreenenter"",""0"",""2455""
","
","null","","","","","","","","null","","","","","","","","","","","","","","","","",""
"","break","149","707498","0.0-84.0-1.0","""event"",""trial"",""time""
""fullscreenenter"",""0"",""2455""
","
","
","""event"",""trial"",""time""
""fullscreenenter"",""0"",""2455""
","
","1334.300000011921","<div class='center'><p>Time to take a quick break! You have 2 minutes to rest, but you can move on sooner if you'd like.</p><p> Press the <b>space bar</b> to continue.</p></div>","32","","","","","","","","","","","","","","","","","","","","","","",""
"","do_travel","150","716505","0.0-85.0-0.0","""event"",""trial"",""time""
""fullscreenenter"",""0"",""2455""
","
","
","""event"",""trial"",""time""
""fullscreenenter"",""0"",""2455""
","
","null","","","","","","","","null","","","","","","","","","","","","","","","","",""
"","do_welcome","151","720522","0.0-85.0-1.0","""event"",""trial"",""time""
""fullscreenenter"",""0"",""2455""
","
","
","""event"",""trial"",""time""
""fullscreenenter"",""0"",""2455""
","
","null","","","","","","","","null","","","","","","","","","","","","","","","","",""
"","do_trial","152","726513","0.0-86.0-0.0","""event"",""trial"",""time""
""fullscreenenter"",""0"",""2455""
","
","
","""event"",""trial"",""time""
""fullscreenenter"",""0"",""2455""
","
","1415.5","","","","","","","","49","1,0,1","1","city","30","probe-214","1","0.32050701052145214","0.24889092426557","1","","","","","","","",""
"","html-keyboard-response","153","727516","0.0-86.0-1.0","""event"",""trial"",""time""
""fullscreenenter"",""0"",""2455""
","
","
","""event"",""trial"",""time""
""fullscreenenter"",""0"",""2455""
","
","null","<p></p>","null","","","","","","","","","","","","","","","","","","","","","","",""
"","do_trial","154","732119","0.0-87.0-0.0","""event"",""trial"",""time""
""fullscreenenter"",""0"",""2455""
","
","
","""event"",""trial"",""time""
""fullscreenenter"",""0"",""2455""
","
","0.20000000298023224","","","","","","","","49","1,0,0","1","city","31","probe-29","1","0.13793753963046088","0.06510017384433954","1","","","","","","","",""
"","html-keyboard-response","155","733121","0.0-87.0-1.0","""event"",""trial"",""time""
""fullscreenenter"",""0"",""2455""
","
","
","""event"",""trial"",""time""
""fullscreenenter"",""0"",""2455""
","
","null","<p></p>","null","","","","","","","","","","","","","","","","","","","","","","",""
"","do_trial","156","737726","0.0-88.0-0.0","""event"",""trial"",""time""
""fullscreenenter"",""0"",""2455""
","
","
","""event"",""trial"",""time""
""fullscreenenter"",""0"",""2455""
","
","0.20000000298023224","","","","","","","","49","1,1,0","1","city","32","probe-206","1","0.2609552578615173","0.1028758822584592","1","","","","","","","",""
"","html-keyboard-response","157","738729","0.0-88.0-1.0","""event"",""trial"",""time""
""fullscreenenter"",""0"",""2455""
","
","
","""event"",""trial"",""time""
""fullscreenenter"",""0"",""2455""
","
","null","<p></p>","null","","","","","","","","","","","","","","","","","","","","","","",""
"","do_trial","158","743749","0.0-89.0-0.0","""event"",""trial"",""time""
""fullscreenenter"",""0"",""2455""
","
","
","""event"",""trial"",""time""
""fullscreenenter"",""0"",""2455""
","
","418.5","","","","","","","","49","1,0,1","1","city","33","probe-28","0.9459892498480974","0.13179003290239844","0.22360096812422506","1","","","","","","","",""
"","html-keyboard-response","159","744751","0.0-89.0-1.0","""event"",""trial"",""time""
""fullscreenenter"",""0"",""2455""
","
","
","""event"",""trial"",""time""
""fullscreenenter"",""0"",""2455""
","
","null","<p></p>","null","","","","","","","","","","","","","","","","","","","","","","",""
"","do_trial","160","750350","0.0-90.0-0.0","""event"",""trial"",""time""
""fullscreenenter"",""0"",""2455""
","
","
","""event"",""trial"",""time""
""fullscreenenter"",""0"",""2455""
","
","998.6000000089407","","","","","","","","49","1,1,1","1","city","34","probe-160","0.7710013407269467","0.32068112626229445","0.18024574014861816","1","","","","","","","",""
"","html-keyboard-response","161","751353","0.0-90.0-1.0","""event"",""trial"",""time""
""fullscreenenter"",""0"",""2455""
","
","
","""event"",""trial"",""time""
""fullscreenenter"",""0"",""2455""
","
","null","<p></p>","null","","","","","","","","","","","","","","","","","","","","","","",""
"","do_trial","162","756584","0.0-91.0-0.0","""event"",""trial"",""time""
""fullscreenenter"",""0"",""2455""
","
","
","""event"",""trial"",""time""
""fullscreenenter"",""0"",""2455""
","
","626.5999999940395","","","","","","","","49","1,1,1","1","city","35","probe-19","0.7064987254960139","0.35836797828236827","0.25404981505481133","1","","","","","","","",""
"","html-keyboard-response","163","757587","0.0-91.0-1.0","""event"",""trial"",""time""
""fullscreenenter"",""0"",""2455""
","
","
","""event"",""trial"",""time""
""fullscreenenter"",""0"",""2455""
","
","null","<p></p>","null","","","","","","","","","","","","","","","","","","","","","","",""
"","do_trial","164","762721","0.0-92.0-0.0","""event"",""trial"",""time""
""fullscreenenter"",""0"",""2455""
","
","
","""event"",""trial"",""time""
""fullscreenenter"",""0"",""2455""
","
","530.6000000089407","","","","","","","","49","1,0,0","1","city","36","probe-27","0.7087404992043806","0.2922965332441667","0.12304601950846421","1","","","","","","","",""
"","html-keyboard-response","165","763724","0.0-92.0-1.0","""event"",""trial"",""time""
""fullscreenenter"",""0"",""2455""
","
","
","""event"",""trial"",""time""
""fullscreenenter"",""0"",""2455""
","
","null","<p></p>","null","","","","","","","","","","","","","","","","","","","","","","",""
"","do_trial","166","768813","0.0-93.0-0.0","""event"",""trial"",""time""
""fullscreenenter"",""0"",""2455""
","
","
","""event"",""trial"",""time""
""fullscreenenter"",""0"",""2455""
","
","519","","","","","","","","49","1,1,1","1","city","37","probe-18","0.5363011882956623","0.4684361786069864","0.08683410968404869","1","","","","","","","",""
"","html-keyboard-response","167","769816","0.0-93.0-1.0","""event"",""trial"",""time""
""fullscreenenter"",""0"",""2455""
","
","
","""event"",""trial"",""time""
""fullscreenenter"",""0"",""2455""
","
","null","<p></p>","null","","","","","","","","","","","","","","","","","","","","","","",""
"","do_trial","168","775262","0.0-94.0-0.0","""event"",""trial"",""time""
""fullscreenenter"",""0"",""2455""
","
","
","""event"",""trial"",""time""
""fullscreenenter"",""0"",""2455""
","
","839.7000000029802","","","","","","","","49","1,0,1","1","city","38","probe-45","0.7663996194286236","0.3080937782488197","0.14079552812397475","1","","","","","","","",""
"","html-keyboard-response","169","776265","0.0-94.0-1.0","""event"",""trial"",""time""
""fullscreenenter"",""0"",""2455""
","
","
","""event"",""trial"",""time""
""fullscreenenter"",""0"",""2455""
","
","null","<p></p>","null","","","","","","","","","","","","","","","","","","","","","","",""
"","do_trial","170","781319","0.0-95.0-0.0","""event"",""trial"",""time""
""fullscreenenter"",""0"",""2455""
","
","
","""event"",""trial"",""time""
""fullscreenenter"",""0"",""2455""
","
","442.70000000298023","","","","","","","","49","0,0,0","1","city","39","probe-157","0.7364249708529252","0.23232806222347374","0.18185769536122642","0","","","","","","","",""
"","html-keyboard-response","171","782322","0.0-95.0-1.0","""event"",""trial"",""time""
""fullscreenenter"",""0"",""2455""
","
","
","""event"",""trial"",""time""
""fullscreenenter"",""0"",""2455""
","
","null","<p></p>","null","","","","","","","","","","","","","","","","","","","","","","",""
"","do_trial","172","787425","0.0-96.0-0.0","""event"",""trial"",""time""
""fullscreenenter"",""0"",""2455""
","
","
","""event"",""trial"",""time""
""fullscreenenter"",""0"",""2455""
","
","500.40000000596046","","","","","","","","50","1,0,0","1","city","40","probe-101","0.7566421205093536","0.18612784357538217","0.22970339868558204","0","","","","","","","",""
"","html-keyboard-response","173","788427","0.0-96.0-1.0","""event"",""trial"",""time""
""fullscreenenter"",""0"",""2455""
","
","
","""event"",""trial"",""time""
""fullscreenenter"",""0"",""2455""
","
","null","<p></p>","null","","","","","","","","","","","","","","","","","","","","","","",""
"","do_trial","174","793429","0.0-97.0-0.0","""event"",""trial"",""time""
""fullscreenenter"",""0"",""2455""
","
","
","""event"",""trial"",""time""
""fullscreenenter"",""0"",""2455""
","
","397.90000000596046","","","","","","","","50","1,1,0","1","city","41","probe-135","0.7261186932332803","0.3641945271557705","0.34702336961675534","1","","","","","","","",""
"","html-keyboard-response","175","794432","0.0-97.0-1.0","""event"",""trial"",""time""
""fullscreenenter"",""0"",""2455""
","
","
","""event"",""trial"",""time""
""fullscreenenter"",""0"",""2455""
","
","null","<p></p>","null","","","","","","","","","","","","","","","","","","","","","","",""
"","do_trial","176","799687","0.0-98.0-0.0","""event"",""trial"",""time""
""fullscreenenter"",""0"",""2455""
","
","
","""event"",""trial"",""time""
""fullscreenenter"",""0"",""2455""
","
","651","","","","","","","","50","0,0,1","1","city","42","probe-192","0.46555951742687995","0.10725619844503531","0.46252851905535913","0","","","","","","","",""
"","html-keyboard-response","177","800689","0.0-98.0-1.0","""event"",""trial"",""time""
""fullscreenenter"",""0"",""2455""
","
","
","""event"",""trial"",""time""
""fullscreenenter"",""0"",""2455""
","
","null","<p></p>","null","","","","","","","","","","","","","","","","","","","","","","",""
"","do_trial","178","806011","0.0-99.0-0.0","""event"",""trial"",""time""
""fullscreenenter"",""0"",""2455""
","
","
","""event"",""trial"",""time""
""fullscreenenter"",""0"",""2455""
","
","714.2999999970198","","","","","","","","51","0,0,0","1","city","43","probe-85","0.42146408558960796","0.06969155081051064","0.49585225522071147","0","","","","","","","",""
"","html-keyboard-response","179","807014","0.0-99.0-1.0","""event"",""trial"",""time""
""fullscreenenter"",""0"",""2455""
","
","
","""event"",""trial"",""time""
""fullscreenenter"",""0"",""2455""
","
","null","<p></p>","null","","","","","","","","","","","","","","","","","","","","","","",""
"","do_trial","180","812485","0.0-100.0-0.0","""event"",""trial"",""time""
""fullscreenenter"",""0"",""2455""
","
","
","""event"",""trial"",""time""
""fullscreenenter"",""0"",""2455""
","
","857.3999999910593","","","","","","","","49","1,0,0","1","city","44","probe-56","0.31583339510830905","0.18659772013748693","0.4755293231417072","1","","","","","","","",""
"","html-keyboard-response","181","813488","0.0-100.0-1.0","""event"",""trial"",""time""
""fullscreenenter"",""0"",""2455""
","
","
","""event"",""trial"",""time""
""fullscreenenter"",""0"",""2455""
","
","null","<p></p>","null","","","","","","","","","","","","","","","","","","","","","","",""
"","do_trial","182","818569","0.0-101.0-0.0","""event"",""trial"",""time""
""fullscreenenter"",""0"",""2455""
","
","
","""event"",""trial"",""time""
""fullscreenenter"",""0"",""2455""
","
","482.70000000298023","","","","","","","","49","0,0,0","1","city","45","probe-186","0.32409408709556525","0.09742042482333069","0.6130463729414206","0","","","","","","","",""
"","html-keyboard-response","183","819571","0.0-101.0-1.0","""event"",""trial"",""time""
""fullscreenenter"",""0"",""2455""
","
","
","""event"",""trial"",""time""
""fullscreenenter"",""0"",""2455""
","
","null","<p></p>","null","","","","","","","","","","","","","","","","","","","","","","",""
"","do_trial","184","824587","0.0-102.0-0.0","""event"",""trial"",""time""
""fullscreenenter"",""0"",""2455""
","
","
","""event"",""trial"",""time""
""fullscreenenter"",""0"",""2455""
","
","410.40000000596046","","","","","","","","49","0,0,1","1","city","46","probe-106","0.3500992599430282","0.07641995455088194","0.6142509286241192","0","","","","","","","",""
"","html-keyboard-response","185","825590","0.0-102.0-1.0","""event"",""trial"",""time""
""fullscreenenter"",""0"",""2455""
","
","
","""event"",""trial"",""time""
""fullscreenenter"",""0"",""2455""
","
","null","<p></p>","null","","","","","","","","","","","","","","","","","","","","","","",""
"","do_trial","186","830597","0.0-103.0-0.0","""event"",""trial"",""time""
""fullscreenenter"",""0"",""2455""
","
","
","""event"",""trial"",""time""
""fullscreenenter"",""0"",""2455""
","
","433.20000000298023","","","","","","","","50","0,0,0","1","city","47","probe-32","0.43467751793437376","0.22344961113135242","0.6218318272356914","0","","","","","","","",""
"","html-keyboard-response","187","831600","0.0-103.0-1.0","""event"",""trial"",""time""
""fullscreenenter"",""0"",""2455""
","
","
","""event"",""trial"",""time""
""fullscreenenter"",""0"",""2455""
","
","null","<p></p>","null","","","","","","","","","","","","","","","","","","","","","","",""
"","do_trial","188","836640","0.0-104.0-0.0","""event"",""trial"",""time""
""fullscreenenter"",""0"",""2455""
","
","
","""event"",""trial"",""time""
""fullscreenenter"",""0"",""2455""
","
","438.29999999701977","","","","","","","","50","0,0,1","1","city","48","probe-06","0.37624039742986226","0.06073971152842388","0.5969923148302527","0","","","","","","","",""
"","html-keyboard-response","189","837642","0.0-104.0-1.0","""event"",""trial"",""time""
""fullscreenenter"",""0"",""2455""
","
","
","""event"",""trial"",""time""
""fullscreenenter"",""0"",""2455""
","
","null","<p></p>","null","","","","","","","","","","","","","","","","","","","","","","",""
"","do_trial","190","842642","0.0-105.0-0.0","""event"",""trial"",""time""
""fullscreenenter"",""0"",""2455""
","
","
","""event"",""trial"",""time""
""fullscreenenter"",""0"",""2455""
","
","396.20000000298023","","","","","","","","51","1,0,0","1","city","49","probe-58","0.49770610073896265","0.15975879182683433","0.5951090639410965","0","","","","","","","",""
"","html-keyboard-response","191","843645","0.0-105.0-1.0","""event"",""trial"",""time""
""fullscreenenter"",""0"",""2455""
","
","
","""event"",""trial"",""time""
""fullscreenenter"",""0"",""2455""
","
","null","<p></p>","null","","","","","","","","","","","","","","","","","","","","","","",""
"","do_trial","192","848599","0.0-106.0-0.0","""event"",""trial"",""time""
""fullscreenenter"",""0"",""2455""
","
","
","""event"",""trial"",""time""
""fullscreenenter"",""0"",""2455""
","
","370.90000000596046","","","","","","","","49","0,0,0","1","city","50","probe-201","0.5898123940536232","0.21011496220774212","0.5868112841222625","0","","","","","","","",""
"","html-keyboard-response","193","849601","0.0-106.0-1.0","""event"",""trial"",""time""
""fullscreenenter"",""0"",""2455""
","
","
","""event"",""trial"",""time""
""fullscreenenter"",""0"",""2455""
","
","null","<p></p>","null","","","","","","","","","","","","","","","","","","","","","","",""
"","do_trial","194","854585","0.0-107.0-0.0","""event"",""trial"",""time""
""fullscreenenter"",""0"",""2455""
","
","
","""event"",""trial"",""time""
""fullscreenenter"",""0"",""2455""
","
","369.19999998807907","","","","","","","","49","1,0,0","1","city","51","probe-137","0.34127989363073014","0.20515655100406896","0.5977060531983655","1","","","","","","","",""
"","html-keyboard-response","195","855588","0.0-107.0-1.0","""event"",""trial"",""time""
""fullscreenenter"",""0"",""2455""
","
","
","""event"",""trial"",""time""
""fullscreenenter"",""0"",""2455""
","
","null","<p></p>","null","","","","","","","","","","","","","","","","","","","","","","",""
"","do_trial","196","860884","0.0-108.0-0.0","""event"",""trial"",""time""
""fullscreenenter"",""0"",""2455""
","
","
","""event"",""trial"",""time""
""fullscreenenter"",""0"",""2455""
","
","692.1000000089407","","","","","","","","49","0,0,1","1","city","52","probe-140","0.3492594366804589","0.15586358865127756","0.7076681739804187","0","","","","","","","",""
"","html-keyboard-response","197","861885","0.0-108.0-1.0","""event"",""trial"",""time""
""fullscreenenter"",""0"",""2455""
","
","
","""event"",""trial"",""time""
""fullscreenenter"",""0"",""2455""
","
","null","<p></p>","null","","","","","","","","","","","","","","","","","","","","","","",""
"","do_trial","198","868295","0.0-109.0-0.0","""event"",""trial"",""time""
""fullscreenenter"",""0"",""2455""
","
","
","""event"",""trial"",""time""
""fullscreenenter"",""0"",""2455""
","
","1801.9000000059605","","","","","","","","49","0,0,0","1","city","53","probe-34","0.38638976434094174","0.1700684654709725","0.6763217689483029","0","","","","","","","",""
"","html-keyboard-response","199","869298","0.0-109.0-1.0","""event"",""trial"",""time""
""fullscreenenter"",""0"",""2455""
","
","
","""event"",""trial"",""time""
""fullscreenenter"",""0"",""2455""
","
","null","<p></p>","null","","","","","","","","","","","","","","","","","","","","","","",""
"","do_trial","200","873913","0.0-110.0-0.0","""event"",""trial"",""time""
""fullscreenenter"",""0"",""2455""
","
","
","""event"",""trial"",""time""
""fullscreenenter"",""0"",""2455""
","
","0.19999998807907104","","","","","","","","50","0,0,1","1","city","54","probe-181","0.3672233348142095","0.08001797683819208","0.5056661574624473","0","","","","","","","",""
"","html-keyboard-response","201","874916","0.0-110.0-1.0","""event"",""trial"",""time""
""fullscreenenter"",""0"",""2455""
","
","
","""event"",""trial"",""time""
""fullscreenenter"",""0"",""2455""
","
","null","<p></p>","null","","","","","","","","","","","","","","","","","","","","","","",""
"","do_trial","202","880990","0.0-111.0-0.0","""event"",""trial"",""time""
""fullscreenenter"",""0"",""2455""
","
","
","""event"",""trial"",""time""
""fullscreenenter"",""0"",""2455""
","
","1472.2000000029802","","","","","","","","51","0,0,1","1","city","55","probe-183","0.4067514539430499","0.08391624116430506","0.6193558953296744","1","","","","","","","",""
"","html-keyboard-response","203","881993","0.0-111.0-1.0","""event"",""trial"",""time""
""fullscreenenter"",""0"",""2455""
","
","
","""event"",""trial"",""time""
""fullscreenenter"",""0"",""2455""
","
","null","<p></p>","null","","","","","","","","","","","","","","","","","","","","","","",""
"","do_trial","204","887127","0.0-112.0-0.0","""event"",""trial"",""time""
""fullscreenenter"",""0"",""2455""
","
","
","""event"",""trial"",""time""
""fullscreenenter"",""0"",""2455""
","
","532.2999999970198","","","","","","","","51","1,0,0","1","city","56","probe-222","0.4265487319153105","0.17124561337269684","0.4536562909700097","0","","","","","","","",""
"","html-keyboard-response","205","888130","0.0-112.0-1.0","""event"",""trial"",""time""
""fullscreenenter"",""0"",""2455""
","
","
","""event"",""trial"",""time""
""fullscreenenter"",""0"",""2455""
","
","null","<p></p>","null","","","","","","","","","","","","","","","","","","","","","","",""
"","do_trial","206","893254","0.0-113.0-0.0","""event"",""trial"",""time""
""fullscreenenter"",""0"",""2455""
","
","
","""event"",""trial"",""time""
""fullscreenenter"",""0"",""2455""
","
","583","","","","","","","","49","1,0,1","1","city","57","probe-04","0.5127203719607288","0.08237046219405603","0.6412695854623633","1","","","","","","","",""
"","html-keyboard-response","207","894256","0.0-113.0-1.0","""event"",""trial"",""time""
""fullscreenenter"",""0"",""2455""
","
","
","""event"",""trial"",""time""
""fullscreenenter"",""0"",""2455""
","
","null","<p></p>","null","","","","","","","","","","","","","","","","","","","","","","",""
"","do_trial","208","901240","0.0-114.0-0.0","""event"",""trial"",""time""
""fullscreenenter"",""0"",""2455""
","
","
","""event"",""trial"",""time""
""fullscreenenter"",""0"",""2455""
","
","2409.7000000029802","","","","","","","","49","0,0,0","1","city","58","probe-87","0.514198684117493","0.05920535155966437","0.6020936274843711","0","","","","","","","",""
"","html-keyboard-response","209","902243","0.0-114.0-1.0","""event"",""trial"",""time""
""fullscreenenter"",""0"",""2455""
","
","
","""event"",""trial"",""time""
""fullscreenenter"",""0"",""2455""
","
","null","<p></p>","null","","","","","","","","","","","","","","","","","","","","","","",""
"","do_trial","210","908941","0.0-115.0-0.0","""event"",""trial"",""time""
""fullscreenenter"",""0"",""2455""
","
","
","""event"",""trial"",""time""
""fullscreenenter"",""0"",""2455""
","
","2127.2999999970198","","","","","","","","51","0,1,1","1","city","59","probe-104","0.3066922023831524","0.1170406476326605","0.6949196344489752","1","","","","","","","",""
"","html-keyboard-response","211","909944","0.0-115.0-1.0","""event"",""trial"",""time""
""fullscreenenter"",""0"",""2455""
","
","
","""event"",""trial"",""time""
""fullscreenenter"",""0"",""2455""
","
","null","<p></p>","null","","","","","","","","","","","","","","","","","","","","","","",""
"","do_trial","212","915865","0.0-116.0-0.0","""event"",""trial"",""time""
""fullscreenenter"",""0"",""2455""
","
","
","""event"",""trial"",""time""
""fullscreenenter"",""0"",""2455""
","
","1318.2999999970198","","","","","","","","49","1,1,1","1","city","60","probe-142","0.29504574997984845","0.1490353419561054","0.7426080045116404","1","","","","","","","",""
"","html-keyboard-response","213","916867","0.0-116.0-1.0","""event"",""trial"",""time""
""fullscreenenter"",""0"",""2455""
","
","
","""event"",""trial"",""time""
""fullscreenenter"",""0"",""2455""
","
","null","<p></p>","null","","","","","","","","","","","","","","","","","","","","","","",""
"","do_trial","214","921871","0.0-117.0-0.0","""event"",""trial"",""time""
""fullscreenenter"",""0"",""2455""
","
","
","""event"",""trial"",""time""
""fullscreenenter"",""0"",""2455""
","
","401.29999999701977","","","","","","","","51","1,0,1","1","city","61","probe-170","0.36541633855635225","0.06184039413499431","0.697611678552161","1","","","","","","","",""
"","html-keyboard-response","215","922874","0.0-117.0-1.0","""event"",""trial"",""time""
""fullscreenenter"",""0"",""2455""
","
","
","""event"",""trial"",""time""
""fullscreenenter"",""0"",""2455""
","
","null","<p></p>","null","","","","","","","","","","","","","","","","","","","","","","",""
"","do_trial","216","927919","0.0-118.0-0.0","""event"",""trial"",""time""
""fullscreenenter"",""0"",""2455""
","
","
","""event"",""trial"",""time""
""fullscreenenter"",""0"",""2455""
","
","480.29999999701977","","","","","","","","49","1,0,0","1","city","62","probe-204","0.27500192423332626","0.07272621362228576","0.6381053832676704","1","","","","","","","",""
"","html-keyboard-response","217","928921","0.0-118.0-1.0","""event"",""trial"",""time""
""fullscreenenter"",""0"",""2455""
","
","
","""event"",""trial"",""time""
""fullscreenenter"",""0"",""2455""
","
","null","<p></p>","null","","","","","","","","","","","","","","","","","","","","","","",""
"","do_trial","218","934043","0.0-119.0-0.0","""event"",""trial"",""time""
""fullscreenenter"",""0"",""2455""
","
","
","""event"",""trial"",""time""
""fullscreenenter"",""0"",""2455""
","
","563.4000000059605","","","","","","","","51","0,0,1","1","city","63","probe-193","0.2332759196031826","0.1082986391700613","0.5301065152151562","1","","","","","","","",""
"","html-keyboard-response","219","935046","0.0-119.0-1.0","""event"",""trial"",""time""
""fullscreenenter"",""0"",""2455""
","
","
","""event"",""trial"",""time""
""fullscreenenter"",""0"",""2455""
","
","null","<p></p>","null","","","","","","","","","","","","","","","","","","","","","","",""
"","do_trial","220","940243","0.0-120.0-0.0","""event"",""trial"",""time""
""fullscreenenter"",""0"",""2455""
","
","
","""event"",""trial"",""time""
""fullscreenenter"",""0"",""2455""
","
","651.2000000029802","","","","","","","","49","0,0,1","1","city","64","probe-93","0.37814026911456816","0.05429340794139363","0.6860958104033611","0","","","","","","","",""
"","html-keyboard-response","221","941245","0.0-120.0-1.0","""event"",""trial"",""time""
""fullscreenenter"",""0"",""2455""
","
","
","""event"",""trial"",""time""
""fullscreenenter"",""0"",""2455""
","
","null","<p></p>","null","","","","","","","","","","","","","","","","","","","","","","",""
"","do_trial","222","946887","0.0-121.0-0.0","""event"",""trial"",""time""
""fullscreenenter"",""0"",""2455""
","
","
","""event"",""trial"",""time""
""fullscreenenter"",""0"",""2455""
","
","1032.2000000029802","","","","","","","","50","1,0,0","1","city","65","probe-38","0.34732145403706843","0.11726366766800742","0.4990787757446363","0","","","","","","","",""
"","html-keyboard-response","223","947890","0.0-121.0-1.0","""event"",""trial"",""time""
""fullscreenenter"",""0"",""2455""
","
","
","""event"",""trial"",""time""
""fullscreenenter"",""0"",""2455""
","
","null","<p></p>","null","","","","","","","","","","","","","","","","","","","","","","",""
"","do_trial","224","953290","0.0-122.0-0.0","""event"",""trial"",""time""
""fullscreenenter"",""0"",""2455""
","
","
","""event"",""trial"",""time""
""fullscreenenter"",""0"",""2455""
","
","795.7000000029802","","","","","","","","51","1,0,1","1","city","66","probe-80","0.3575753902815616","0.20505378758136708","0.5682275690417111","1","","","","","","","",""
"","html-keyboard-response","225","954292","0.0-122.0-1.0","""event"",""trial"",""time""
""fullscreenenter"",""0"",""2455""
","
","
","""event"",""trial"",""time""
""fullscreenenter"",""0"",""2455""
","
","null","<p></p>","null","","","","","","","","","","","","","","","","","","","","","","",""
"","do_trial","226","960335","0.0-123.0-0.0","""event"",""trial"",""time""
""fullscreenenter"",""0"",""2455""
","
","
","""event"",""trial"",""time""
""fullscreenenter"",""0"",""2455""
","
","null","","","","","","","","null","0,0,1","1","city","67","probe-13","0.42133947435943997","0.05392597595279977","0.6015925139306348","","","","","","","","",""
"","html-keyboard-response","227","961338","0.0-123.0-1.0","""event"",""trial"",""time""
""fullscreenenter"",""0"",""2455""
","
","
","""event"",""trial"",""time""
""fullscreenenter"",""0"",""2455""
","
","null","<p></p>","null","","","","","","","","","","","","","","","","","","","","","","",""
"","do_trial","228","966358","0.0-124.0-0.0","""event"",""trial"",""time""
""fullscreenenter"",""0"",""2455""
","
","
","""event"",""trial"",""time""
""fullscreenenter"",""0"",""2455""
","
","407.5","","","","","","","","51","1,1,1","1","city","68","probe-24","0.36619167130021946","0.1694248066308968","0.6114293032878725","1","","","","","","","",""
"","html-keyboard-response","229","967360","0.0-124.0-1.0","""event"",""trial"",""time""
""fullscreenenter"",""0"",""2455""
","
","
","""event"",""trial"",""time""
""fullscreenenter"",""0"",""2455""
","
","null","<p></p>","null","","","","","","","","","","","","","","","","","","","","","","",""
"","do_trial","230","971964","0.0-125.0-0.0","""event"",""trial"",""time""
""fullscreenenter"",""0"",""2455""
","
","
","""event"",""trial"",""time""
""fullscreenenter"",""0"",""2455""
","
","0.10000000894069672","","","","","","","","51","1,0,1","1","city","69","probe-54","0.38413076997523676","0.08724775652493753","0.7210028489858822","1","","","","","","","",""
"","html-keyboard-response","231","972966","0.0-125.0-1.0","""event"",""trial"",""time""
""fullscreenenter"",""0"",""2455""
","
","
","""event"",""trial"",""time""
""fullscreenenter"",""0"",""2455""
","
","null","<p></p>","null","","","","","","","","","","","","","","","","","","","","","","",""
"","do_bye","232","974477","0.0-126.0-0.0","""event"",""trial"",""time""
""fullscreenenter"",""0"",""2455""
","
","
","""event"",""trial"",""time""
""fullscreenenter"",""0"",""2455""
","
","null","","","","","","","","null","","","","","","","","","","","","","","","","",""
"","break","233","975597","0.0-126.0-1.0","""event"",""trial"",""time""
""fullscreenenter"",""0"",""2455""
","
","
","""event"",""trial"",""time""
""fullscreenenter"",""0"",""2455""
","
","1117.5","<div class='center'><p>Time to take a quick break! You have 2 minutes to rest, but you can move on sooner if you'd like.</p><p> Press the <b>space bar</b> to continue.</p></div>","32","","","","","","","","","","","","","","","","","","","","","","",""
"","do_travel","234","984603","0.0-127.0-0.0","""event"",""trial"",""time""
""fullscreenenter"",""0"",""2455""
","
","
","""event"",""trial"",""time""
""fullscreenenter"",""0"",""2455""
","
","null","","","","","","","","null","","","","","","","","","","","","","","","","",""
"","do_welcome","235","988617","0.0-127.0-1.0","""event"",""trial"",""time""
""fullscreenenter"",""0"",""2455""
","
","
","""event"",""trial"",""time""
""fullscreenenter"",""0"",""2455""
","
","null","","","","","","","","null","","","","","","","","","","","","","","","","",""
"","do_trial","236","995389","0.0-128.0-0.0","""event"",""trial"",""time""
""fullscreenenter"",""0"",""2455""
","
","
","""event"",""trial"",""time""
""fullscreenenter"",""0"",""2455""
","
","2167.2999999970198","","","","","","","","49","0,0,1","2","forest","70","probe-36","0.39144958474374536","0.1145359189732255","1","0","","","","","","","",""
"","html-keyboard-response","237","996392","0.0-128.0-1.0","""event"",""trial"",""time""
""fullscreenenter"",""0"",""2455""
","
","
","""event"",""trial"",""time""
""fullscreenenter"",""0"",""2455""
","
","null","<p></p>","null","","","","","","","","","","","","","","","","","","","","","","",""
"","do_trial","238","1001370","0.0-129.0-0.0","""event"",""trial"",""time""
""fullscreenenter"",""0"",""2455""
","
","
","""event"",""trial"",""time""
""fullscreenenter"",""0"",""2455""
","
","433.80000001192093","","","","","","","","51","0,0,1","2","forest","71","probe-174","0.4224196515547389","0.07053601766060386","1","1","","","","","","","",""
"","html-keyboard-response","239","1002372","0.0-129.0-1.0","""event"",""trial"",""time""
""fullscreenenter"",""0"",""2455""
","
","
","""event"",""trial"",""time""
""fullscreenenter"",""0"",""2455""
","
","null","<p></p>","null","","","","","","","","","","","","","","","","","","","","","","",""
"","do_trial","240","1007534","0.0-130.0-0.0","""event"",""trial"",""time""
""fullscreenenter"",""0"",""2455""
","
","
","""event"",""trial"",""time""
""fullscreenenter"",""0"",""2455""
","
","557.9000000059605","","","","","","","","51","0,0,1","2","forest","72","probe-74","0.4082135905691939","0.1064973883380267","0.9344472531232927","1","","","","","","","",""
"","html-keyboard-response","241","1008536","0.0-130.0-1.0","""event"",""trial"",""time""
""fullscreenenter"",""0"",""2455""
","
","
","""event"",""trial"",""time""
""fullscreenenter"",""0"",""2455""
","
","null","<p></p>","null","","","","","","","","","","","","","","","","","","","","","","",""
"","do_trial","242","1013239","0.0-131.0-0.0","""event"",""trial"",""time""
""fullscreenenter"",""0"",""2455""
","
","
","""event"",""trial"",""time""
""fullscreenenter"",""0"",""2455""
","
","139.8999999910593","","","","","","","","51","0,0,0","2","forest","73","probe-59","0.3486223654078776","0.147331749365712","0.7389374645752395","0","","","","","","","",""
"","html-keyboard-response","243","1014242","0.0-131.0-1.0","""event"",""trial"",""time""
""fullscreenenter"",""0"",""2455""
","
","
","""event"",""trial"",""time""
""fullscreenenter"",""0"",""2455""
","
","null","<p></p>","null","","","","","","","","","","","","","","","","","","","","","","",""
"","do_trial","244","1019304","0.0-132.0-0.0","""event"",""trial"",""time""
""fullscreenenter"",""0"",""2455""
","
","
","""event"",""trial"",""time""
""fullscreenenter"",""0"",""2455""
","
","492.70000000298023","","","","","","","","50","0,1,1","2","forest","74","probe-61","0.3263907167269523","0.32387513845268556","0.8002474108098051","1","","","","","","","",""
"","html-keyboard-response","245","1020307","0.0-132.0-1.0","""event"",""trial"",""time""
""fullscreenenter"",""0"",""2455""
","
","
","""event"",""trial"",""time""
""fullscreenenter"",""0"",""2455""
","
","null","<p></p>","null","","","","","","","","","","","","","","","","","","","","","","",""
"","do_trial","246","1025345","0.0-133.0-0.0","""event"",""trial"",""time""
""fullscreenenter"",""0"",""2455""
","
","
","""event"",""trial"",""time""
""fullscreenenter"",""0"",""2455""
","
","463.70000000298023","","","","","","","","50","0,1,1","2","forest","75","probe-25","0.14484991242635287","0.3003336185856847","0.7922875698142166","1","","","","","","","",""
"","html-keyboard-response","247","1026348","0.0-133.0-1.0","""event"",""trial"",""time""
""fullscreenenter"",""0"",""2455""
","
","
","""event"",""trial"",""time""
""fullscreenenter"",""0"",""2455""
","
","null","<p></p>","null","","","","","","","","","","","","","","","","","","","","","","",""
"","do_trial","248","1032349","0.0-134.0-0.0","""event"",""trial"",""time""
""fullscreenenter"",""0"",""2455""
","
","
","""event"",""trial"",""time""
""fullscreenenter"",""0"",""2455""
","
","1429.3999999910593","","","","","","","","50","0,0,1","2","forest","76","probe-223","0.22679139324467001","0.32343929913807806","0.628699332491659","0","","","","","","","",""
"","html-keyboard-response","249","1033352","0.0-134.0-1.0","""event"",""trial"",""time""
""fullscreenenter"",""0"",""2455""
","
","
","""event"",""trial"",""time""
""fullscreenenter"",""0"",""2455""
","
","null","<p></p>","null","","","","","","","","","","","","","","","","","","","","","","",""
"","do_trial","250","1038557","0.0-135.0-0.0","""event"",""trial"",""time""
""fullscreenenter"",""0"",""2455""
","
","
","""event"",""trial"",""time""
""fullscreenenter"",""0"",""2455""
","
","607.0999999940395","","","","","","","","49","0,1,1","2","forest","77","probe-218","0.18808613623531562","0.31134623814267626","0.49887255315307144","0","","","","","","","",""
"","html-keyboard-response","251","1039560","0.0-135.0-1.0","""event"",""trial"",""time""
""fullscreenenter"",""0"",""2455""
","
","
","""event"",""trial"",""time""
""fullscreenenter"",""0"",""2455""
","
","null","<p></p>","null","","","","","","","","","","","","","","","","","","","","","","",""
"","do_trial","252","1044728","0.0-136.0-0.0","""event"",""trial"",""time""
""fullscreenenter"",""0"",""2455""
","
","
","""event"",""trial"",""time""
""fullscreenenter"",""0"",""2455""
","
","561","","","","","","","","51","0,1,1","2","forest","78","probe-68","0.1780235976561033","0.2681197581825279","0.6027965050991163","1","","","","","","","",""
"","html-keyboard-response","253","1045730","0.0-136.0-1.0","""event"",""trial"",""time""
""fullscreenenter"",""0"",""2455""
","
","
","""event"",""trial"",""time""
""fullscreenenter"",""0"",""2455""
","
","null","<p></p>","null","","","","","","","","","","","","","","","","","","","","","","",""
"","do_trial","254","1051217","0.0-137.0-0.0","""event"",""trial"",""time""
""fullscreenenter"",""0"",""2455""
","
","
","""event"",""trial"",""time""
""fullscreenenter"",""0"",""2455""
","
","885.7000000029802","","","","","","","","50","0,0,1","2","forest","79","probe-46","0.20716733952382715","0.11891249507279056","0.541097212511626","0","","","","","","","",""
"","html-keyboard-response","255","1052220","0.0-137.0-1.0","""event"",""trial"",""time""
""fullscreenenter"",""0"",""2455""
","
","
","""event"",""trial"",""time""
""fullscreenenter"",""0"",""2455""
","
","null","<p></p>","null","","","","","","","","","","","","","","","","","","","","","","",""
"","do_trial","256","1057292","0.0-138.0-0.0","""event"",""trial"",""time""
""fullscreenenter"",""0"",""2455""
","
","
","""event"",""trial"",""time""
""fullscreenenter"",""0"",""2455""
","
","469.20000000298023","","","","","","","","51","0,0,0","2","forest","80","probe-62","0.10229162905718113","0.14958892416924421","0.5282996416962611","0","","","","","","","",""
"","html-keyboard-response","257","1058294","0.0-138.0-1.0","""event"",""trial"",""time""
""fullscreenenter"",""0"",""2455""
","
","
","""event"",""trial"",""time""
""fullscreenenter"",""0"",""2455""
","
","null","<p></p>","null","","","","","","","","","","","","","","","","","","","","","","",""
"","do_trial","258","1063348","0.0-139.0-0.0","""event"",""trial"",""time""
""fullscreenenter"",""0"",""2455""
","
","
","""event"",""trial"",""time""
""fullscreenenter"",""0"",""2455""
","
","485.29999999701977","","","","","","","","49","0,0,1","2","forest","81","probe-07","0.06551439640681501","0.11661406569320702","0.5692744947354226","0","","","","","","","",""
"","html-keyboard-response","259","1064351","0.0-139.0-1.0","""event"",""trial"",""time""
""fullscreenenter"",""0"",""2455""
","
","
","""event"",""trial"",""time""
""fullscreenenter"",""0"",""2455""
","
","null","<p></p>","null","","","","","","","","","","","","","","","","","","","","","","",""
"","do_trial","260","1069493","0.0-140.0-0.0","""event"",""trial"",""time""
""fullscreenenter"",""0"",""2455""
","
","
","""event"",""trial"",""time""
""fullscreenenter"",""0"",""2455""
","
","530.2000000029802","","","","","","","","50","0,0,0","2","forest","82","probe-70","0.1392864291356019","0.1945827496952021","0.5390348893660007","0","","","","","","","",""
"","html-keyboard-response","261","1070496","0.0-140.0-1.0","""event"",""trial"",""time""
""fullscreenenter"",""0"",""2455""
","
","
