"success","trial_type","trial_index","time_elapsed","internal_node_id","rt","stimulus","key_press","subject_id","participant_id","age","gender","prompt","response","choice_outcomes","context_n","context_img_id","trial_n","probe_img_id","pR_red","pR_white","pR_black","outcome","contextArray_ind","validImageProbes","invalidImageProbes","pRew_Red","pRew_White","pRew_Black","availableForMemProbe","choice_blocks"
"true","fullscreen","0","8028","0.0-0.0","","","","","","","","","","","","","","","","","","","","","","","","","",""
"","pavlovia","1","8035","0.0-1.0","","","","","","","","","","","","","","","","","","","","","","","","","",""
"","instruc1","2","59122","0.0-2.0","null","run_exp/static/audio/clip_1_welcome.m4a","null","107","148","9","Male","<div class='center'><p>Welcome! This is the first part of the experiment. It will last ~30 minutes. In this experiment, you are the head captain of a pirate ship traveling around the world to different islands. You will play a few different games during this experiment. Here is an overview of these games:</p><br><p>Part 1 (today)</p><p>1. Instructions, practice game, and quiz</p><p>2. Pick a pirate game on 6 different islands</p><br><p>Part 2 (1 day later)</p><p>3. Pick a pirate game and memory game</p><p>4. Where did I see this ship? game</p><p>5. Which pirate was the best? game</p><br><p>Part 3 (1 week later)</p><p>6. Memory game</p></div>","","","","","","","","","","","","","","","","","",""
"","html-keyboard-response","3","59660","0.0-3.0","535","<div class='center'><p>Welcome! This is the first part of the experiment. It will last ~30 minutes. In this experiment, you are the head captain of a pirate ship traveling around the world to different islands. You will play a few different games during this experiment. Here is an overview of these games:</p><br><p>Part 1 (today)</p><p>1. Instructions, practice game, and quiz</p><p>2. Pick a pirate game on 6 different islands</p><br><p>Part 2 (1 day later)</p><p>3. Pick a pirate game and memory game</p><p>4. Where did I see this ship? game</p><p>5. Which pirate was the best? game</p><br><p>Part 3 (1 week later)</p><p>6. Memory game</p><p><b>[Press the space bar to continue]</b></p></div>","32","","","","","","","","","","","","","","","","","","","","","","",""
"","instruc2","4","67667","0.0-4.0","null","run_exp/static/audio/clip_2_different_places.m4a","null","","","","","<div class='center'><p>Today, you’ll visit these 6 islands on your journey. You'll be able to see these islands from your ship.</p><p><img src='run_exp/static/images/contexts/all_contexts.png' height='500'></p></div>","","","","","","","","","","","","","","","","","",""
"","html-keyboard-response","5","69020","0.0-5.0","1350.8000000044703","<div class='center'><p>Today, you’ll visit these 6 islands on your journey. You'll be able to see these islands from your ship.</p><p><img src='run_exp/static/images/contexts/all_contexts.png' height='500'></p><p><b>[Press the space bar to continue]</b></p></div>","32","","","","","","","","","","","","","","","","","","","","","","",""
"","instruc3","6","81623","0.0-6.0","null","run_exp/static/audio/clip_3_goal_of_game_1.m4a","null","","","","","<div class='center'><p> The pirates on your ship will rob other ships as they leave the island</p> These ships have just sold their things to people on the island, so they will be filled with lots and lots of gold.</p><p><img src='run_exp/static/images/tutorial/ship_center.png' height='400'></p></div>","","","","","","","","","","","","","","","","","",""
"","html-keyboard-response","7","82049","0.0-7.0","424.19999999552965","<div class='center'><p> The pirates on your ship will rob other ships as they leave the island</p> These ships have just sold their things to people on the island, so they will be filled with lots and lots of gold.</p><p><img src='run_exp/static/images/tutorial/ship_center.png' height='400'></p><p><b>[Press the space bar to continue]</b></p></div>","32","","","","","","","","","","","","","","","","","","","","","","",""
"","instruc4","8","115293","0.0-8.0","null","run_exp/static/audio/clip_4_goal_of_game_2.m4a","null","","","","","<div class='center'><p>As the head captain, you do not have to rob any ships yourself.</p><p>Another pirate will be doing the robbing for you. </p><p>First, you will  choose a pirate to rob the next ship.</p><p><img src='run_exp/static/images/tutorial/pirates_all_crop.png' height='200'></p><p>Then, you'll see if the pirate successfully robbed the ship of their gold. If they were successful, then you'll  get a stack of gold coins like this:</p><p><img src='run_exp/static/images/tutorial/reward.png' height='150'></p><p> If they were <b>not</b> successful, then you'll get no gold coins, and you'll see a big red x like this: </p><p><img src='run_exp/static/images/tutorial/reward_no.png' height='150'></p><p> How much bonus money you make is based on how many gold coins you collect.</p><div>","","","","","","","","","","","","","","","","","",""
"","html-keyboard-response","9","116718","0.0-9.0","1421.6999999955297","<div class='center'><p>As the head captain, you do not have to rob any ships yourself.</p><p>Another pirate will be doing the robbing for you. </p><p>First, you will  choose a pirate to rob the next ship.</p><p><img src='run_exp/static/images/tutorial/pirates_all_crop.png' height='200'></p><p>Then, you'll see if the pirate successfully robbed the ship of their gold. If they were successful, then you'll  get a stack of gold coins like this:</p><p><img src='run_exp/static/images/tutorial/reward.png' height='150'></p><p> If they were <b>not</b> successful, then you'll get no gold coins, and you'll see a big red x like this: </p><p><img src='run_exp/static/images/tutorial/reward_no.png' height='150'></p><p> How much bonus money you make is based on how many gold coins you collect.</p<p><b>[Press the space bar to continue]</b></p></div>","32","","","","","","","","","","","","","","","","","","","","","","",""
"","instruc5","10","143480","0.0-10.0","26758.69999999553","run_exp/static/audio/clip_5_probabilistic.m4a","49","","","","","<div class='center'><p>Even the most skilled pirate can not rob EVERY ship.</p><p> Some ships will have very strong protections against pirate attacks.</p><p> Blue beard, here, is very, very good at robbing ships, but he won't be successful every time he tries to rob one.</p><p> You can press the <b>‘1’</b> key on the keyboard to choose him.</p><p> Try choosing him 10 times to see how often he succeeds at robbing a ship. </p><p><img src='run_exp/static/images/tutorial/blue.png' height='500'></p></div>","","","","","","","","","","","","","","","","","",""
"","html-keyboard-response","11","144987","0.0-11.0","null","<div class='center'><p><img src='run_exp/static/images/tutorial/blue_win.png' height='500'></p></div>","null","","","","","","","","","","","","","","","","","","","","","","",""
"","html-keyboard-response","12","145185","0.0-12.0","196.70000000298023","<div class='center'><img src='run_exp/static/images/tutorial/blue.png' height='500'></p></div>","49","","","","","","","","","","","","","","","","","","","","","","",""
"","html-keyboard-response","13","146688","0.0-13.0","null","<div class='center'><p><img src='run_exp/static/images/tutorial/blue_win.png' height='500'></p></div>","null","","","","","","","","","","","","","","","","","","","","","","",""
"","html-keyboard-response","14","147210","0.0-14.0","520.8000000044703","<div class='center'><img src='run_exp/static/images/tutorial/blue.png' height='500'></p></div>","49","","","","","","","","","","","","","","","","","","","","","","",""
"","html-keyboard-response","15","148714","0.0-15.0","null","<div class='center'><p><img src='run_exp/static/images/tutorial/blue_win.png' height='500'></p></div>","null","","","","","","","","","","","","","","","","","","","","","","",""
"","html-keyboard-response","16","149012","0.0-16.0","296.6000000014901","<div class='center'><img src='run_exp/static/images/tutorial/blue.png' height='500'></p></div>","49","","","","","","","","","","","","","","","","","","","","","","",""
"","html-keyboard-response","17","150518","0.0-17.0","null","<div class='center'><p><img src='run_exp/static/images/tutorial/blue_no_win.png' height='500'></p></div>","null","","","","","","","","","","","","","","","","","","","","","","",""
"","html-keyboard-response","18","150876","0.0-18.0","356.8999999985099","<div class='center'><img src='run_exp/static/images/tutorial/blue.png' height='500'></p></div>","49","","","","","","","","","","","","","","","","","","","","","","",""
"","html-keyboard-response","19","152382","0.0-19.0","null","<div class='center'><p><img src='run_exp/static/images/tutorial/blue_win.png' height='500'></p></div>","null","","","","","","","","","","","","","","","","","","","","","","",""
"","html-keyboard-response","20","152675","0.0-20.0","290.5","<div class='center'><img src='run_exp/static/images/tutorial/blue.png' height='500'></p></div>","49","","","","","","","","","","","","","","","","","","","","","","",""
"","html-keyboard-response","21","154178","0.0-21.0","null","<div class='center'><p><img src='run_exp/static/images/tutorial/blue_win.png' height='500'></p></div>","null","","","","","","","","","","","","","","","","","","","","","","",""
"","html-keyboard-response","22","154471","0.0-22.0","292.5","<div class='center'><img src='run_exp/static/images/tutorial/blue.png' height='500'></p></div>","49","","","","","","","","","","","","","","","","","","","","","","",""
"","html-keyboard-response","23","155973","0.0-23.0","null","<div class='center'><p><img src='run_exp/static/images/tutorial/blue_win.png' height='500'></p></div>","null","","","","","","","","","","","","","","","","","","","","","","",""
"","html-keyboard-response","24","156251","0.0-24.0","277.20000000298023","<div class='center'><img src='run_exp/static/images/tutorial/blue.png' height='500'></p></div>","49","","","","","","","","","","","","","","","","","","","","","","",""
"","html-keyboard-response","25","157757","0.0-25.0","null","<div class='center'><p><img src='run_exp/static/images/tutorial/blue_no_win.png' height='500'></p></div>","null","","","","","","","","","","","","","","","","","","","","","","",""
"","html-keyboard-response","26","158038","0.0-26.0","279.70000000298023","<div class='center'><img src='run_exp/static/images/tutorial/blue.png' height='500'></p></div>","49","","","","","","","","","","","","","","","","","","","","","","",""
"","html-keyboard-response","27","159543","0.0-27.0","null","<div class='center'><p><img src='run_exp/static/images/tutorial/blue_win.png' height='500'></p></div>","null","","","","","","","","","","","","","","","","","","","","","","",""
"","html-keyboard-response","28","159863","0.0-28.0","318.29999999701977","<div class='center'><img src='run_exp/static/images/tutorial/blue.png' height='500'></p></div>","49","","","","","","","","","","","","","","","","","","","","","","",""
"","html-keyboard-response","29","161369","0.0-29.0","null","<div class='center'><p><img src='run_exp/static/images/tutorial/blue_win.png' height='500'></p></div>","null","","","","","","","","","","","","","","","","","","","","","","",""
"","instruc6","30","168011","0.0-30.0","null","run_exp/static/audio/clip_6_blue_beard_outcome.m4a","null","","","","","<div class='center'><p> See, he succeeded in robbing the ships most of the time but not every time. </p></div>","","","","","","","","","","","","","","","","","",""
"","html-keyboard-response","31","171779","0.0-31.0","3766.39999999851","<div class='center'><p> See, he succeeded in robbing the ships most of the time but not every time. </p><p><b>[Press the space bar to continue]</b></p></div>","32","","","","","","","","","","","","","","","","","","","","","","",""
"","audio-keyboard-response","32","189671","0.0-32.0","17889.29999999702","run_exp/static/audio/clip_7_pick_pirate.m4a","51","","","","","","","","","","","","","","","","","","","","","","",""
"","audio-keyboard-response","33","194020","0.0-33.0-0.0","4344.39999999851","run_exp/static/audio/clip_8_chosen_pirate_win.m4a","32","","","","","","","","","","","","","","","","","","","","","","",""
"","audio-keyboard-response","34","196308","0.0-33.0-1.0","2285.5","run_exp/static/audio/clip_9_pick_a_pirate_again.m4a","49","","","","","","","","","","","","","","","","","","","","","","",""
"","audio-keyboard-response","35","198891","0.0-34.0-0.0","2579.60000000149","run_exp/static/audio/clip_10_chosen_pirate_loss.m4a","32","","","","","","","","","","","","","","","","","","","","","","",""
"","instruc9","36","206047","0.0-35.0-0.0","null","run_exp/static/audio/clip_11_time_out.m4a","null","","","","","<div class='center'><p>If you don’t make your choice fast enough, you’ll have to wait a few seconds before you can make another one. </p><p><img src='run_exp/static/images/miscellaneous/hurry_up.png' height='500'></p></div>","","","","","","","","","","","","","","","","","",""
"","html-keyboard-response","37","206634","0.0-35.0-1.0","585.5","<div class='center'><p>If you don’t make your choice fast enough, you’ll have to wait a few seconds before you can make another one. </p><p><img src='run_exp/static/images/miscellaneous/hurry_up.png' height='500'></p><p><b>[Press the space bar to continue]</b></p></div>","32","","","","","","","","","","","","","","","","","","","","","","",""
"","instruc10","38","255274","0.0-35.0-2.0","null","run_exp/static/audio/clip_12_probe.m4a","null","","","","","<div class='center'><p>Once you've choose a pirate, you’ll be shown the ship they are robbing.</p><p>You will never rob the same ship twice. After all, ships that have already been robbed won’t have gold on them. </p><p>Ships can be told apart from one another by the image on them. See, this one has a travel mug on it. </p><p> You’ll have to remember which island you saw each ship on.You will win more bonus money if you remember correctly! To help you remember, you can imagine a story. For example, here, you could imagine a mug full of water in the desert. Or, as another example, if on the forest island, your pirate robbed a ship with an apple on it, you could imagine an apple falling from a tree in the forest. </p><p><img src='run_exp/static/images/tutorial/example_probe.png' height='500'></p></div>","","","","","","","","","","","","","","","","","",""
"","html-keyboard-response","39","257334","0.0-35.0-3.0","2057.8000000044703","<div class='center'><p>Once you've choose a pirate, you’ll be shown the ship they are robbing.</p><p>You will never rob the same ship twice. After all, ships that have already been robbed won’t have gold on them. </p><p>Ships can be told apart from one another by the image on them. See, this one has a travel mug on it. </p><p> You’ll have to remember which island you saw each ship on.You will win more bonus money if you remember correctly! To help you remember, you can imagine a story. For example, here, you could imagine a mug full of water in the desert. Or, as another example, if on the forest island, your pirate robbed a ship with an apple on it, you could imagine an apple falling from a tree in the forest. </p><p><img src='run_exp/static/images/tutorial/example_probe.png' height='500'></p><p><b>[Press the space bar to continue]</b></p></div>","32","","","","","","","","","","","","","","","","","","","","","","",""
"","instruc11","40","278239","0.0-35.0-4.0","null","run_exp/static/audio/clip_13_changepoint.m4a","null","","","","","<div class='center'><p>How successful a pirate is at robbing ships will depend on the island you’re on.</p><p> A pirate may have visited this island many times before and gained a lot of practice robbing ships there.</p><p>So, they’re more likely to be successful than a pirate who has never visited the island before.</p></div>","","","","","","","","","","","","","","","","","",""
"","html-keyboard-response","41","279266","0.0-35.0-5.0","1024.8999999985099","<div class='center'><p>How successful a pirate is at robbing ships will depend on the island you’re on.</p><p> A pirate may have visited this island many times before and gained a lot of practice robbing ships there.</p><p>So, they’re more likely to be successful than a pirate who has never visited the island before.</p><p><b>[Press the space bar to continue]</b></p></div>","32","","","","","","","","","","","","","","","","","","","","","","",""
"","instruc12","42","307288","0.0-35.0-6.0","null","run_exp/static/audio/clip_14_drift.m4a","null","","","","","<div class='center'><p>How successful a pirate is at robbing ships can also change over the time spent on the island. </p><p> Ships may hear from islanders about the pirates coming and will improve their protections against the attack. This may make it harder to rob them.</p><p> Ships may also become lazy and weaken the strength of their protections. This may make it easier to rob them.</p><br><p>Things are always changing on the high seas! So, try your best to pay attention!</p><p><img src='run_exp/static/images/tutorial/contingency.png' height='500'></p></div>","","","","","","","","","","","","","","","","","",""
"","html-keyboard-response","43","308706","0.0-35.0-7.0","1415.7999999970198","<div class='center'><p>How successful a pirate is at robbing ships can also change over the time spent on the island. </p><p> Ships may hear from islanders about the pirates coming and will improve their protections against the attack. This may make it harder to rob them.</p><p> Ships may also become lazy and weaken the strength of their protections. This may make it easier to rob them.</p><br><p>Things are always changing on the high seas! So, try your best to pay attention!</p><p><img src='run_exp/static/images/tutorial/contingency.png' height='500'></p><p><b>[Press the space bar to continue]</b></p></div>","32","","","","","","","","","","","","","","","","","","","","","","",""
"","instruc13","44","354752","0.0-35.0-8.0","null","run_exp/static/audio/clip_15_summary.m4a","null","","","","","<div class='center'><p>Let's go over the instructions quickly again. You have two important things to do: </p><b><p> 1. Pick the pirate who is the best at robbing ships on the current island. This way you'll collect more gold coins!</p></b><b><p> 2. Remember on which island a ship was robbed.</p> </b><p>The amount of bonus money you can win depends on both.</p><p><br><p>Let’s try a practice game. The game will start by showing you the pirates. First, pick a pirate using the <b> 1, 2, 3 </b> keys on your keyboard. When you are shown a ship, try to remember which island you’re on by making up a story.</p><p>This is just a practice game, so you’re not playing for money. </p><p> Good luck! This game will be very difficult but try your best!</p></div>","","","","","","","","","","","","","","","","","",""
"","html-keyboard-response","45","356235","0.0-35.0-9.0","1481.6000000014901","<div class='center'><p>Let's go over the instructions quickly again. You have two important things to do: </p><b><p> 1. Pick the pirate who is the best at robbing ships on the current island. This way you'll collect more gold coins!</p></b><b><p> 2. Remember on which island a ship was robbed.</p> </b><p>The amount of bonus money you can win depends on both.</p><p><br><p>Let’s try a practice game. The game will start by showing you the pirates. First, pick a pirate using the <b> 1, 2, 3 </b> keys on your keyboard. When you are shown a ship, try to remember which island you’re on by making up a story.</p><p>This is just a practice game, so you’re not playing for money. </p><p> Good luck! This game will be very difficult but try your best!</p><p><b>[Press the space bar to continue]</b></p></div>","32","","","","","","","","","","","","","","","","","","","","","","",""
"","do_welcome","46","360251","0.0-35.0-10.0","null","","","","","","","","null","","","","","","","","","","","","","","","","",""
"","do_trial","47","366268","0.0-35.0-11.0","null","","","","","","","","null","1,0,0","","","","","","","","","","","","","","","",""
"","html-keyboard-response","48","367273","0.0-36.0-0.0","null","<p></p>","null","","","","","","","","","","","","","","","","","","","","","","",""
"","do_trial","49","372415","0.0-36.0-1.0","628.3000000044703","","","","","","","","49","1,0,0","","","","","","","","","","","","","","","",""
"","html-keyboard-response","50","373421","0.0-37.0-0.0","null","<p></p>","null","","","","","","","","","","","","","","","","","","","","","","",""
"","do_trial","51","379130","0.0-37.0-1.0","1194.3999999985099","","","","","","","","49","1,1,0","","","","","","","","","","","","","","","",""
"","html-keyboard-response","52","380136","0.0-38.0-0.0","null","<p></p>","null","","","","","","","","","","","","","","","","","","","","","","",""
"","do_trial","53","385297","0.0-38.0-1.0","648.8999999985099","","","","","","","","49","1,0,1","","","","","","","","","","","","","","","",""
"","html-keyboard-response","54","386302","0.0-39.0-0.0","null","<p></p>","null","","","","","","","","","","","","","","","","","","","","","","",""
"","do_trial","55","392436","0.0-39.0-1.0","1625.2000000029802","","","","","","","","51","0,1,0","","","","","","","","","","","","","","","",""
"","html-keyboard-response","56","393440","0.0-40.0-0.0","null","<p></p>","null","","","","","","","","","","","","","","","","","","","","","","",""
"","do_trial","57","398407","0.0-40.0-1.0","454.69999999552965","","","","","","","","49","1,0,0","","","","","","","","","","","","","","","",""
"","do_bye","58","399917","0.0-41.0-0.0","null","","","","","","","","null","","","","","","","","","","","","","","","","",""
"","do_travel","59","408926","0.0-41.0-1.0","null","","","","","","","","null","","","","","","","","","","","","","","","","",""
"","do_welcome","60","412938","0.0-41.0-2.0","null","","","","","","","","null","","","","","","","","","","","","","","","","",""
"","do_trial","61","420265","0.0-41.0-3.0","2815","","","","","","","","51","1,0,0","","","","","","","","","","","","","","","",""
"","html-keyboard-response","62","421270","0.0-42.0-0.0","null","<p></p>","null","","","","","","","","","","","","","","","","","","","","","","",""
"","do_trial","63","426164","0.0-42.0-1.0","379.3999999985099","","","","","","","","50","1,0,1","","","","","","","","","","","","","","","",""
"","html-keyboard-response","64","427167","0.0-43.0-0.0","null","<p></p>","null","","","","","","","","","","","","","","","","","","","","","","",""
"","do_trial","65","432234","0.0-43.0-1.0","559.1999999955297","","","","","","","","50","1,1,0","","","","","","","","","","","","","","","",""
"","html-keyboard-response","66","433239","0.0-44.0-0.0","null","<p></p>","null","","","","","","","","","","","","","","","","","","","","","","",""
"","do_trial","67","438219","0.0-44.0-1.0","469.69999999552965","","","","","","","","50","0,0,1","","","","","","","","","","","","","","","",""
"","html-keyboard-response","68","439222","0.0-45.0-0.0","null","<p></p>","null","","","","","","","","","","","","","","","","","","","","","","",""
"","do_trial","69","444100","0.0-45.0-1.0","363.19999999552965","","","","","","","","51","1,0,1","","","","","","","","","","","","","","","",""
"","html-keyboard-response","70","450557","0.0-46.0-0.0","6454.89999999851","<div class='center'><p><img src='run_exp/static/images/tutorial/prac_best_pirate.png'  height='500'></p></div>","50","","","","","","","","","","","","","","","","","","","","","","",""
"","html-keyboard-response","71","453301","0.0-47.0-0.0","2741.6999999955297","<div class='center'><p>That's incorrect! Red beard was the best.</p><p><b>[Press the space bar to continue]</b></p></div>","32","","","","","","","","","","","","","","","","","","","","","","",""
"","html-keyboard-response","72","459439","0.0-47.0-1.0","6137.19999999553","<div class='center'><p><img src='run_exp/static/images/tutorial/prac_source.png'  height='500'></p></div>","50","","","","","","","","","","","","","","","","","","","","","","",""
"","html-keyboard-response","73","461493","0.0-48.0-0.0","2052.0999999940395","<div class='center'><p>That's correct! You saw this ship on the cavern island.</p><p><b>[Press the space bar to continue]</b></p></div>","32","","","","","","","","","","","","","","","","","","","","","","",""
"","quiz_beginning","74","474924","0.0-48.0-1.0","null","run_exp/static/audio/clip_16_quiz_intro.m4a","null","","","","","<div class='center'><p>Good job on the practice game! Now, you will be asked some true or false questions to make sure you really understand the rules of the game.</p><p> Press <b>'1'</b> on the keyboard for true and press <b>'2'</b> for false.</p></div>","","","","","","","","","","","","","","","","","",""
"","audio-keyboard-response","75","481240","0.0-48.0-2.0","6313.20000000298","run_exp/static/audio/clip_17_q1.m4a","49","","","","","","","","","","","","","","","","","","","","","","",""
"","q1_err","76","488856","0.0-49.0-0.0","null","run_exp/static/audio/clip_19_wrong_q1.m4a","null","","","","","<div class='center'><p>That’s incorrect! You win bonus money by collecting as many gold coins as possible!</p></div>","","","","","","","","","","","","","","","","","",""
"","html-keyboard-response","77","490581","0.0-49.0-1.0","1723.3000000044703","<div class='center'><p>That’s incorrect! You win bonus money by collecting as many gold coins as possible!</p><p><b>[Press the space bar to continue]</b></p></div>","32","","","","","","","","","","","","","","","","","","","","","","",""
"","audio-keyboard-response","78","494954","0.0-49.0-2.0","4371.5","run_exp/static/audio/clip_20_q2.m4a","50","","","","","","","","","","","","","","","","","","","","","","",""
"","correct","79","497936","0.0-50.0-0.0","null","run_exp/static/audio/clip_18_correct.m4a","null","","","","","<div class='center'><p>That's correct!</p></div>","","","","","","","","","","","","","","","","","",""
"","html-keyboard-response","80","499254","0.0-50.0-1.0","1317.1000000014901","<div class='center'><p>That's correct!</p><p><b>[Press the space bar to continue]</b></p></div>","32","","","","","","","","","","","","","","","","","","","","","","",""
"","audio-keyboard-response","81","506148","0.0-50.0-2.0","6892.70000000298","run_exp/static/audio/clip_22_q3.m4a","50","","","","","","","","","","","","","","","","","","","","","","",""
"","correct","82","509105","0.0-51.0-0.0","null","run_exp/static/audio/clip_18_correct.m4a","null","","","","","<div class='center'><p>That's correct!</p></div>","","","","","","","","","","","","","","","","","",""
"","html-keyboard-response","83","510219","0.0-51.0-1.0","1113.2000000029802","<div class='center'><p>That's correct!</p><p><b>[Press the space bar to continue]</b></p></div>","32","","","","","","","","","","","","","","","","","","","","","","",""
"","audio-keyboard-response","84","512706","0.0-51.0-2.0","2485.39999999851","run_exp/static/audio/clip_24_q4.m4a","49","","","","","","","","","","","","","","","","","","","","","","",""
"","correct","85","515676","0.0-52.0-0.0","null","run_exp/static/audio/clip_18_correct.m4a","null","","","","","<div class='center'><p>That's correct!</p></div>","","","","","","","","","","","","","","","","","",""
"","html-keyboard-response","86","516627","0.0-52.0-1.0","949.7000000029802","<div class='center'><p>That's correct!</p><p><b>[Press the space bar to continue]</b></p></div>","32","","","","","","","","","","","","","","","","","","","","","","",""
"","q_all_err","87","524175","0.0-53.0-0.0","null","run_exp/static/audio/clip_26_quiz_redo.m4a","null","","","","","<div class='center'><p>Oops, you missed some questions. Now that you’ve heard the correct answers. Try the quiz again! </p></div>","","","","","","","","","","","","","","","","","",""
"","html-keyboard-response","88","525844","0.0-53.0-1.0","1667.4000000059605","<div class='center'><p>Oops, you missed some questions. Now that you’ve heard the correct answers. Try the quiz again! </p><p><b>[Press the space bar to continue]</b></p></div>","32","","","","","","","","","","","","","","","","","","","","","","",""
"","audio-keyboard-response","89","528576","0.0-53.0-2.0","2729.7999999970198","run_exp/static/audio/clip_17_q1.m4a","50","","","","","","","","","","","","","","","","","","","","","","",""
"","correct","90","531536","0.0-54.0-0.0","null","run_exp/static/audio/clip_18_correct.m4a","null","","","","","<div class='center'><p>That's correct!</p></div>","","","","","","","","","","","","","","","","","",""
"","html-keyboard-response","91","531661","0.0-54.0-1.0","124.39999999850988","<div class='center'><p>That's correct!</p><p><b>[Press the space bar to continue]</b></p></div>","32","","","","","","","","","","","","","","","","","","","","","","",""
"","audio-keyboard-response","92","535022","0.0-54.0-2.0","3358.60000000149","run_exp/static/audio/clip_20_q2.m4a","50","","","","","","","","","","","","","","","","","","","","","","",""
"","correct","93","537991","0.0-55.0-0.0","null","run_exp/static/audio/clip_18_correct.m4a","null","","","","","<div class='center'><p>That's correct!</p></div>","","","","","","","","","","","","","","","","","",""
"","html-keyboard-response","94","538605","0.0-55.0-1.0","613","<div class='center'><p>That's correct!</p><p><b>[Press the space bar to continue]</b></p></div>","32","","","","","","","","","","","","","","","","","","","","","","",""
"","audio-keyboard-response","95","540556","0.0-55.0-2.0","1949.5","run_exp/static/audio/clip_22_q3.m4a","50","","","","","","","","","","","","","","","","","","","","","","",""
"","correct","96","543518","0.0-56.0-0.0","null","run_exp/static/audio/clip_18_correct.m4a","null","","","","","<div class='center'><p>That's correct!</p></div>","","","","","","","","","","","","","","","","","",""
"","html-keyboard-response","97","544308","0.0-56.0-1.0","789.1000000014901","<div class='center'><p>That's correct!</p><p><b>[Press the space bar to continue]</b></p></div>","32","","","","","","","","","","","","","","","","","","","","","","",""
"","audio-keyboard-response","98","546687","0.0-56.0-2.0","2377","run_exp/static/audio/clip_24_q4.m4a","49","","","","","","","","","","","","","","","","","","","","","","",""
"","correct","99","549695","0.0-57.0-0.0","null","run_exp/static/audio/clip_18_correct.m4a","null","","","","","<div class='center'><p>That's correct!</p></div>","","","","","","","","","","","","","","","","","",""
"","html-keyboard-response","100","550289","0.0-57.0-1.0","592.8000000044703","<div class='center'><p>That's correct!</p><p><b>[Press the space bar to continue]</b></p></div>","32","","","","","","","","","","","","","","","","","","","","","","",""
"","q_all_corr","101","559215","0.0-58.0-0.0","null","run_exp/static/audio/clip_27_quiz_all_correct.m4a","null","","","","","<div class='center'><p>Good job! You’re now ready to move on to the real game! Remember this game will be difficult but don't get discouraged and try your best!</p></div>","","","","","","","","","","","","","","","","","",""
"","html-keyboard-response","102","560999","0.0-58.0-1.0","1781.8999999985099","<div class='center'><p>Good job! You’re now ready to move on to the real game! Remember this game will be difficult but don't get discouraged and try your best!</p><p><b>[Press the space bar to continue]</b></p></div>","32","","","","","","","","","","","","","","","","","","","","","","",""
"","do_welcome","103","565009","0.0-59.0-0.0","null","","","","","","","","null","","","","","","","","","","","","","","","","",""
"","do_trial","104","571000","0.0-60.0-0.0","1444.1999999955297","","","","","","","","50","0,0,0","0","coast","0","probe-118","0.6","0.3","0.1","0","","","","","","","",""
"","html-keyboard-response","105","572003","0.0-60.0-1.0","null","<p></p>","null","","","","","","","","","","","","","","","","","","","","","","",""
"","do_trial","106","576933","0.0-61.0-0.0","380.1000000014901","","","","","","","","51","1,1,0","0","coast","1","probe-193","0.5406406618740421","0.2524744217502811","0.0925568653198131","0","","","","","","","",""
"","html-keyboard-response","107","577935","0.0-61.0-1.0","null","<p></p>","null","","","","","","","","","","","","","","","","","","","","","","",""
"","do_trial","108","582789","0.0-62.0-0.0","304.1000000014901","","","","","","","","49","0,1,0","0","coast","2","probe-16","0.5485319386282647","0.2047893585830727","0.07763232832542254","0","","","","","","","",""
"","html-keyboard-response","109","583795","0.0-62.0-1.0","null","<p></p>","null","","","","","","","","","","","","","","","","","","","","","","",""
"","do_trial","110","588646","0.0-63.0-0.0","302.29999999701977","","","","","","","","51","1,0,0","0","coast","3","probe-97","0.6353219203524896","0.16947279024150796","0.11943868301036105","0","","","","","","","",""
"","html-keyboard-response","111","589650","0.0-63.0-1.0","null","<p></p>","null","","","","","","","","","","","","","","","","","","","","","","",""
"","do_trial","112","594450","0.0-64.0-0.0","254.70000000298023","","","","","","","","50","1,0,0","0","coast","4","probe-50","0.5624281628118912","0.38255282777388716","0.06701423992212022","0","","","","","","","",""
"","html-keyboard-response","113","595455","0.0-64.0-1.0","null","<p></p>","null","","","","","","","","","","","","","","","","","","","","","","",""
"","do_trial","114","600409","0.0-65.0-0.0","408.1000000014901","","","","","","","","49","0,1,0","0","coast","5","probe-177","0.6409490689843611","0.42165062985933205","0.16458364291243172","0","","","","","","","",""
"","html-keyboard-response","115","601414","0.0-65.0-1.0","null","<p></p>","null","","","","","","","","","","","","","","","","","","","","","","",""
"","do_trial","116","606439","0.0-66.0-0.0","476.8999999985099","","","","","","","","51","0,0,0","0","coast","6","probe-19","0.5474606284513255","0.26558323233309106","0.13046788131988174","0","","","","","","","",""
"","html-keyboard-response","117","607441","0.0-66.0-1.0","null","<p></p>","null","","","","","","","","","","","","","","","","","","","","","","",""
"","do_trial","118","612023","0.0-67.0-0.0","32.899999998509884","","","","","","","","51","0,0,0","0","coast","7","probe-14","0.5992810705766016","0.3908997173027335","0.08368039284459627","0","","","","","","","",""
"","html-keyboard-response","119","613028","0.0-67.0-1.0","null","<p></p>","null","","","","","","","","","","","","","","","","","","","","","","",""
"","do_trial","120","617857","0.0-68.0-0.0","279","","","","","","","","50","0,1,0","0","coast","8","probe-75","0.5770359588092112","0.36681176346366307","0.1619668976840693","1","","","","","","","",""
"","html-keyboard-response","121","618860","0.0-68.0-1.0","null","<p></p>","null","","","","","","","","","","","","","","","","","","","","","","",""
"","do_trial","122","623857","0.0-69.0-0.0","449.59999999403954","","","","","","","","50","0,0,0","0","coast","9","probe-205","0.6502599973225481","0.28005280064837673","0.1496680778192397","0","","","","","","","",""
"","html-keyboard-response","123","624860","0.0-69.0-1.0","null","<p></p>","null","","","","","","","","","","","","","","","","","","","","","","",""
"","do_trial","124","629886","0.0-70.0-0.0","479.3999999985099","","","","","","","","49","0,0,1","0","coast","10","probe-200","0.6144449579135731","0.2592500680529381","0.18178943166482064","0","","","","","","","",""
"","html-keyboard-response","125","630891","0.0-70.0-1.0","null","<p></p>","null","","","","","","","","","","","","","","","","","","","","","","",""
"","do_trial","126","635979","0.0-71.0-0.0","533.1000000014901","","","","","","","","50","1,0,0","0","coast","11","probe-09","0.603011770708217","0.32362633442517114","0.16966797557195878","0","","","","","","","",""
"","html-keyboard-response","127","636984","0.0-71.0-1.0","null","<p></p>","null","","","","","","","","","","","","","","","","","","","","","","",""
"","do_trial","128","641924","0.0-72.0-0.0","393.8999999985099","","","","","","","","51","1,1,1","0","coast","12","probe-217","0.6116843770795307","0.37639056904963286","0.13932179919331555","1","","","","","","","",""
"","html-keyboard-response","129","642927","0.0-72.0-1.0","null","<p></p>","null","","","","","","","","","","","","","","","","","","","","","","",""
"","do_trial","130","648004","0.0-73.0-0.0","526","","","","","","","","51","1,1,0","0","coast","13","probe-140","0.5711183121622129","0.3186725042714847","0.18050914499792473","0","","","","","","","",""
"","html-keyboard-response","131","649009","0.0-73.0-1.0","null","<p></p>","null","","","","","","","","","","","","","","","","","","","","","","",""
"","do_trial","132","653975","0.0-74.0-0.0","416.8999999985099","","","","","","","","49","0,0,0","0","coast","14","probe-20","0.47021220873696606","0.3210085676162429","0.18932368230712057","0","","","","","","","",""
"","html-keyboard-response","133","654976","0.0-74.0-1.0","null","<p></p>","null","","","","","","","","","","","","","","","","","","","","","","",""
"","do_trial","134","659906","0.0-75.0-0.0","386.20000000298023","","","","","","","","51","0,1,1","0","coast","15","probe-32","0.6211804958442056","0.43321378884509626","0.262754101779727","1","","","","","","","",""
"","html-keyboard-response","135","660912","0.0-75.0-1.0","null","<p></p>","null","","","","","","","","","","","","","","","","","","","","","","",""
"","do_trial","136","665899","0.0-76.0-0.0","426.5","","","","","","","","51","1,0,0","0","coast","16","probe-41","0.651823672511149","0.4294076626604162","0.120253478471118","0","","","","","","","",""
"","html-keyboard-response","137","666902","0.0-76.0-1.0","null","<p></p>","null","","","","","","","","","","","","","","","","","","","","","","",""
"","do_trial","138","671826","0.0-77.0-0.0","377.59999999403954","","","","","","","","50","0,0,0","0","coast","17","probe-182","0.4866765255607288","0.443763934859647","0.05681095244760415","0","","","","","","","",""
"","html-keyboard-response","139","672831","0.0-77.0-1.0","null","<p></p>","null","","","","","","","","","","","","","","","","","","","","","","",""
"","do_trial","140","677742","0.0-78.0-0.0","360.70000000298023","","","","","","","","50","1,1,0","0","coast","18","probe-03","0.601105231684509","0.40825097558617857","0.05230665082053672","1","","","","","","","",""
"","html-keyboard-response","141","678747","0.0-78.0-1.0","null","<p></p>","null","","","","","","","","","","","","","","","","","","","","","","",""
"","do_trial","142","683925","0.0-79.0-0.0","630.8000000044703","","","","","","","","50","0,1,0","0","coast","19","probe-230","0.5916562477289926","0.2254390606909495","0.06372544473471468","1","","","","","","","",""
"","html-keyboard-response","143","684926","0.0-79.0-1.0","null","<p></p>","null","","","","","","","","","","","","","","","","","","","","","","",""
"","do_trial","144","689956","0.0-80.0-0.0","480.30000000447035","","","","","","","","51","1,0,0","0","coast","20","probe-144","0.6893705035794752","0.31317658602475534","0.20314062225631496","0","","","","","","","",""
"","html-keyboard-response","145","690961","0.0-80.0-1.0","null","<p></p>","null","","","","","","","","","","","","","","","","","","","","","","",""
"","do_trial","146","695793","0.0-81.0-0.0","284.5","","","","","","","","50","1,0,0","0","coast","21","probe-63","0.7192327902021342","0.384523950855097","0.24989782513508466","0","","","","","","","",""
"","html-keyboard-response","147","696798","0.0-81.0-1.0","null","<p></p>","null","","","","","","","","","","","","","","","","","","","","","","",""
"","do_trial","148","701975","0.0-82.0-0.0","630.8000000044703","","","","","","","","50","1,0,0","0","coast","22","probe-148","0.6410881739180134","0.4795381481060922","0.10669665103012317","0","","","","","","","",""
"","html-keyboard-response","149","702980","0.0-82.0-1.0","null","<p></p>","null","","","","","","","","","","","","","","","","","","","","","","",""
"","do_trial","150","707979","0.0-83.0-0.0","452.6000000014901","","","","","","","","51","0,1,0","0","coast","23","probe-132","0.7122885844636155","0.3896572481722397","0.06422764125689769","0","","","","","","","",""
"","html-keyboard-response","151","708982","0.0-83.0-1.0","null","<p></p>","null","","","","","","","","","","","","","","","","","","","","","","",""
"","do_trial","152","713715","0.0-84.0-0.0","181.60000000149012","","","","","","","","51","1,0,0","0","coast","24","probe-171","0.7626057407690355","0.2163897717257668","0.06861792460937323","0","","","","","","","",""
"","html-keyboard-response","153","714717","0.0-84.0-1.0","null","<p></p>","null","","","","","","","","","","","","","","","","","","","","","","",""
"","do_trial","154","719418","0.0-85.0-0.0","157.5","","","","","","","","49","1,0,1","0","coast","25","probe-106","0.7759529830067473","0.2106360315455245","0.08583600015036162","1","","","","","","","",""
"","html-keyboard-response","155","720424","0.0-85.0-1.0","null","<p></p>","null","","","","","","","","","","","","","","","","","","","","","","",""
"","do_trial","156","725422","0.0-86.0-0.0","450.6000000014901","","","","","","","","49","0,1,0","0","coast","26","probe-164","0.6351658901672187","0.3271016432488931","0.0865719405985433","0","","","","","","","",""
"","html-keyboard-response","157","726426","0.0-86.0-1.0","null","<p></p>","null","","","","","","","","","","","","","","","","","","","","","","",""
"","do_trial","158","731311","0.0-87.0-0.0","327.70000000298023","","","","","","","","50","1,0,0","0","coast","27","probe-57","0.5983145395430075","0.267711227919183","0.06086373606440502","0","","","","","","","",""
"","html-keyboard-response","159","732315","0.0-87.0-1.0","null","<p></p>","null","","","","","","","","","","","","","","","","","","","","","","",""
"","do_trial","160","738082","0.0-88.0-0.0","1217.3999999985099","","","","","","","","51","0,0,1","0","coast","28","probe-151","0.6050159683221947","0.07195976410306354","0.2634356934654923","1","","","","","","","",""
"","html-keyboard-response","161","739087","0.0-88.0-1.0","null","<p></p>","null","","","","","","","","","","","","","","","","","","","","","","",""
"","do_trial","162","744031","0.0-89.0-0.0","392.09999999403954","","","","","","","","49","1,0,0","0","coast","29","probe-84","0.5733331609545088","0.14609939051527054","0.15158474807270006","1","","","","","","","",""
"","html-keyboard-response","163","745037","0.0-89.0-1.0","null","<p></p>","null","","","","","","","","","","","","","","","","","","","","","","",""
"","do_bye","164","746548","0.0-90.0-0.0","null","","","","","","","","null","","","","","","","","","","","","","","","","",""
"","break","165","759619","0.0-90.0-1.0","13069","<div class='center'><p>Time to take a quick break! You have 2 minutes to rest, but you can move on sooner if you'd like.</p><p> Press the <b>space bar</b> to continue.</p></div>","32","","","","","","","","","","","","","","","","","","","","","","",""
"","do_travel","166","768627","0.0-91.0-0.0","null","","","","","","","","null","","","","","","","","","","","","","","","","",""
"","do_welcome","167","772636","0.0-91.0-1.0","null","","","","","","","","null","","","","","","","","","","","","","","","","",""
"","do_trial","168","778685","0.0-92.0-0.0","null","","","","","","","","null","1,0,0","1","mountain","30","probe-168","1","0.14750465279743544","0.0778570026018257","","","","","","","","",""
"","html-keyboard-response","169","779691","0.0-92.0-1.0","null","<p></p>","null","","","","","","","","","","","","","","","","","","","","","","",""
"","do_trial","170","785427","0.0-93.0-0.0","1191.6999999955297","","","","","","","","49","1,1,0","1","mountain","31","probe-44","1","0.21070481412978923","0.0671207551372222","1","","","","","","","",""
"","html-keyboard-response","171","786432","0.0-93.0-1.0","null","<p></p>","null","","","","","","","","","","","","","","","","","","","","","","",""
"","do_trial","172","791268","0.0-94.0-0.0","284.8999999985099","","","","","","","","50","1,0,1","1","mountain","32","probe-134","1","0.29994932154708154","0.05464160807535312","0","","","","","","","",""
"","html-keyboard-response","173","792275","0.0-94.0-1.0","null","<p></p>","null","","","","","","","","","","","","","","","","","","","","","","",""
"","do_trial","174","796871","0.0-95.0-0.0","38.5","","","","","","","","51","1,1,0","1","mountain","33","probe-93","0.9373822976852516","0.3405849080439971","0.05337210511650309","0","","","","","","","",""
"","html-keyboard-response","175","797878","0.0-95.0-1.0","null","<p></p>","null","","","","","","","","","","","","","","","","","","","","","","",""
"","do_trial","176","802625","0.0-96.0-0.0","197.20000000298023","","","","","","","","49","0,0,0","1","mountain","34","probe-228","0.7764120664968016","0.1712345013313232","0.10850469009697505","0","","","","","","","",""
"","html-keyboard-response","177","803630","0.0-96.0-1.0","null","<p></p>","null","","","","","","","","","","","","","","","","","","","","","","",""
"","do_trial","178","808748","0.0-97.0-0.0","568.6000000014901","","","","","","","","51","1,0,0","1","mountain","35","probe-126","0.6821338244341559","0.20392350856959232","0.062210947404540536","0","","","","","","","",""
"","html-keyboard-response","179","809750","0.0-97.0-1.0","null","<p></p>","null","","","","","","","","","","","","","","","","","","","","","","",""
"","do_trial","180","814415","0.0-98.0-0.0","114.80000000447035","","","","","","","","50","0,0,0","1","mountain","36","probe-121","0.646543093386999","0.14824469929960166","0.07773212598516477","0","","","","","","","",""
"","html-keyboard-response","181","815421","0.0-98.0-1.0","null","<p></p>","null","","","","","","","","","","","","","","","","","","","","","","",""
"","do_trial","182","820500","0.0-99.0-0.0","526.8000000044703","","","","","","","","49","1,0,0","1","mountain","37","probe-161","0.6628075111099376","0.26185885327932407","0.14771961709669437","1","","","","","","","",""
"","html-keyboard-response","183","821505","0.0-99.0-1.0","null","<p></p>","null","","","","","","","","","","","","","","","","","","","","","","",""
"","do_trial","184","826340","0.0-100.0-0.0","285.3999999985099","","","","","","","","49","1,0,0","1","mountain","38","probe-06","0.6646864874861353","0.31550866116535053","0.10440526011689497","1","","","","","","","",""
"","html-keyboard-response","185","827346","0.0-100.0-1.0","null","<p></p>","null","","","","","","","","","","","","","","","","","","","","","","",""
"","do_trial","186","832363","0.0-101.0-0.0","468.3999999985099","","","","","","","","49","1,1,0","1","mountain","39","probe-225","0.8063658711611846","0.48111830138820466","0.08467148927068649","1","","","","","","","",""
"","html-keyboard-response","187","833370","0.0-101.0-1.0","null","<p></p>","null","","","","","","","","","","","","","","","","","","","","","","",""
"","do_trial","188","838340","0.0-102.0-0.0","420.79999999701977","","","","","","","","49","1,0,0","1","mountain","40","probe-146","0.7499826008180231","0.44903265837436257","0.2866832008059326","1","","","","","","","",""
"","html-keyboard-response","189","839345","0.0-102.0-1.0","null","<p></p>","null","","","","","","","","","","","","","","","","","","","","","","",""
"","do_trial","190","844361","0.0-103.0-0.0","466.5","","","","","","","","49","1,1,0","1","mountain","41","probe-209","0.7405240290190108","0.3574533571523044","0.30925928379498946","1","","","","","","","",""
"","html-keyboard-response","191","845366","0.0-103.0-1.0","null","<p></p>","null","","","","","","","","","","","","","","","","","","","","","","",""
"","do_trial","192","850587","0.0-104.0-0.0","671.0999999940395","","","","","","","","49","0,1,1","1","mountain","42","probe-36","0.5256298829466057","0.5896399516492331","0.2957815321459245","0","","","","","","","",""
"","html-keyboard-response","193","851592","0.0-104.0-1.0","null","<p></p>","null","","","","","","","","","","","","","","","","","","","","","","",""
"","do_trial","194","856809","0.0-105.0-0.0","667.4000000059605","","","","","","","","49","0,0,0","1","mountain","43","probe-136","0.5119181683004835","0.6117826587063783","0.2661714630410983","0","","","","","","","",""
"","html-keyboard-response","195","857815","0.0-105.0-1.0","null","<p></p>","null","","","","","","","","","","","","","","","","","","","","","","",""
"","do_trial","196","862798","0.0-106.0-0.0","437.80000000447035","","","","","","","","49","0,0,1","1","mountain","44","probe-220","0.42470508890229397","0.6674922661250479","0.18370632444675714","0","","","","","","","",""
"","html-keyboard-response","197","863799","0.0-106.0-1.0","null","<p></p>","null","","","","","","","","","","","","","","","","","","","","","","",""
"","do_trial","198","868435","0.0-107.0-0.0","87.09999999403954","","","","","","","","51","0,1,0","1","mountain","45","probe-45","0.4297024769211448","0.6772302654234615","0.1459921494294156","0","","","","","","","",""
"","html-keyboard-response","199","869440","0.0-107.0-1.0","null","<p></p>","null","","","","","","","","","","","","","","","","","","","","","","",""
"","do_trial","200","874436","0.0-108.0-0.0","451.20000000298023","","","","","","","","49","0,0,1","1","mountain","46","probe-122","0.3790111040334181","0.6239901866783835","0.13279446684858448","0","","","","","","","",""
"","html-keyboard-response","201","875439","0.0-108.0-1.0","null","<p></p>","null","","","","","","","","","","","","","","","","","","","","","","",""
"","do_trial","202","880293","0.0-109.0-0.0","308.79999999701977","","","","","","","","50","0,1,0","1","mountain","47","probe-219","0.38809303508587006","0.6934107110171794","0.06977172920325343","1","","","","","","","",""
"","html-keyboard-response","203","881298","0.0-109.0-1.0","null","<p></p>","null","","","","","","","","","","","","","","","","","","","","","","",""
"","do_trial","204","886219","0.0-110.0-0.0","372.5","","","","","","","","50","0,0,0","1","mountain","48","probe-116","0.2501216972488109","0.7064190315049999","0.14330791129603276","0","","","","","","","",""
"","html-keyboard-response","205","887225","0.0-110.0-1.0","null","<p></p>","null","","","","","","","","","","","","","","","","","","","","","","",""
"","do_trial","206","891779","0.0-111.0-0.0","0.19999999552965164","","","","","","","","49","1,1,0","1","mountain","49","probe-90","0.17134627018193077","0.6336326605662245","0.2313837008794952","1","","","","","","","",""
"","html-keyboard-response","207","892785","0.0-111.0-1.0","null","<p></p>","null","","","","","","","","","","","","","","","","","","","","","","",""
"","do_trial","208","897894","0.0-112.0-0.0","559.3000000044703","","","","","","","","49","0,0,0","1","mountain","50","probe-143","0.17202883674485162","0.6262543548956131","0.12316090385800198","0","","","","","","","",""
"","html-keyboard-response","209","898899","0.0-112.0-1.0","null","<p></p>","null","","","","","","","","","","","","","","","","","","","","","","",""
"","do_trial","210","903950","0.0-113.0-0.0","500.80000000447035","","","","","","","","51","0,1,1","1","mountain","51","probe-113","0.3726710144280012","0.5468137223076188","0.2129910266002398","1","","","","","","","",""
"","html-keyboard-response","211","904955","0.0-113.0-1.0","null","<p></p>","null","","","","","","","","","","","","","","","","","","","","","","",""
"","do_trial","212","909935","0.0-114.0-0.0","433.19999999552965","","","","","","","","49","1,0,1","1","mountain","52","probe-02","0.39745010722191204","0.41040024931688396","0.35369022700026553","1","","","","","","","",""
"","html-keyboard-response","213","910940","0.0-114.0-1.0","null","<p></p>","null","","","","","","","","","","","","","","","","","","","","","","",""
"","do_trial","214","916195","0.0-115.0-0.0","705.7999999970198","","","","","","","","51","0,1,1","1","mountain","53","probe-197","0.28589124687183537","0.6105798853861807","0.2506669967836479","1","","","","","","","",""
"","html-keyboard-response","215","917197","0.0-115.0-1.0","null","<p></p>","null","","","","","","","","","","","","","","","","","","","","","","",""
"","do_trial","216","922167","0.0-116.0-0.0","418.6000000014901","","","","","","","","50","0,1,1","1","mountain","54","probe-21","0.19791799795648402","0.609340939155251","0.20662942761295752","1","","","","","","","",""
"","html-keyboard-response","217","923172","0.0-116.0-1.0","null","<p></p>","null","","","","","","","","","","","","","","","","","","","","","","",""
"","do_trial","218","928140","0.0-117.0-0.0","421.30000000447035","","","","","","","","49","0,1,0","1","mountain","55","probe-92","0.2544857646383115","0.6283175545328865","0.07049959471670791","0","","","","","","","",""
"","html-keyboard-response","219","929145","0.0-117.0-1.0","null","<p></p>","null","","","","","","","","","","","","","","","","","","","","","","",""
"","do_trial","220","933800","0.0-118.0-0.0","106","","","","","","","","51","1,0,0","1","mountain","56","probe-70","0.4457225435797524","0.5668667131428571","0.15460513717529842","0","","","","","","","",""
"","html-keyboard-response","221","934805","0.0-118.0-1.0","null","<p></p>","null","","","","","","","","","","","","","","","","","","","","","","",""
"","do_trial","222","939866","0.0-119.0-0.0","507.8999999985099","","","","","","","","50","1,1,0","1","mountain","57","probe-188","0.31244894890781966","0.6270241837416315","0.20244855314914204","1","","","","","","","",""
"","html-keyboard-response","223","940869","0.0-119.0-1.0","null","<p></p>","null","","","","","","","","","","","","","","","","","","","","","","",""
"","do_trial","224","945811","0.0-120.0-0.0","395.8999999985099","","","","","","","","50","1,1,0","1","mountain","58","probe-111","0.4500423088236872","0.671318437488419","0.14476631145519633","1","","","","","","","",""
"","html-keyboard-response","225","946816","0.0-120.0-1.0","null","<p></p>","null","","","","","","","","","","","","","","","","","","","","","","",""
"","do_trial","226","951909","0.0-121.0-0.0","541.7999999970198","","","","","","","","50","1,1,0","1","mountain","59","probe-186","0.3531863536108217","0.6830556587883931","0.10793718302351722","1","","","","","","","",""
"","html-keyboard-response","227","952913","0.0-121.0-1.0","null","<p></p>","null","","","","","","","","","","","","","","","","","","","","","","",""
"","do_trial","228","957886","0.0-122.0-0.0","426.59999999403954","","","","","","","","50","1,1,0","1","mountain","60","probe-105","0.46576710346136985","0.7435852407177239","0.20519246097900515","1","","","","","","","",""
"","html-keyboard-response","229","958891","0.0-122.0-1.0","null","<p></p>","null","","","","","","","","","","","","","","","","","","","","","","",""
"","do_trial","230","964445","0.0-123.0-0.0","1004.3999999985099","","","","","","","","50","0,1,0","1","mountain","61","probe-163","0.2812063611903225","0.5999261648368829","0.20682061553109798","1","","","","","","","",""
"","html-keyboard-response","231","965448","0.0-123.0-1.0","null","<p></p>","null","","","","","","","","","","","","","","","","","","","","","","",""
"","do_trial","232","970547","0.0-124.0-0.0","545.3999999985099","","","","","","","","50","1,1,0","1","mountain","62","probe-208","0.30650542058216873","0.5584102511073005","0.20383062304623362","1","","","","","","","",""
"","html-keyboard-response","233","971552","0.0-124.0-1.0","null","<p></p>","null","","","","","","","","","","","","","","","","","","","","","","",""
"","do_trial","234","976488","0.0-125.0-0.0","383.6000000014901","","","","","","","","50","0,0,1","1","mountain","63","probe-23","0.12597771558581966","0.48513885832494036","0.25809813969621576","0","","","","","","","",""
"","html-keyboard-response","235","977491","0.0-125.0-1.0","null","<p></p>","null","","","","","","","","","","","","","","","","","","","","","","",""
"","do_trial","236","982879","0.0-126.0-0.0","839.7000000029802","","","","","","","","49","1,0,0","1","mountain","64","probe-190","0.2072847592516012","0.4464317494180795","0.08383814386406051","1","","","","","","","",""
"","html-keyboard-response","237","983884","0.0-126.0-1.0","null","<p></p>","null","","","","","","","","","","","","","","","","","","","","","","",""
"","do_trial","238","988819","0.0-127.0-0.0","386.1000000014901","","","","","","","","49","1,0,0","1","mountain","65","probe-26","0.29048836796659777","0.5241267564695333","0.11709698302838618","1","","","","","","","",""
"","html-keyboard-response","239","989824","0.0-127.0-1.0","null","<p></p>","null","","","","","","","","","","","","","","","","","","","","","","",""
"","do_trial","240","995071","0.0-128.0-0.0","697.3999999985099","","","","","","","","50","0,1,0","1","mountain","66","probe-94","0.33596400557678757","0.4595711596916409","0.1010423583102883","1","","","","","","","",""
"","html-keyboard-response","241","996078","0.0-128.0-1.0","null","<p></p>","null","","","","","","","","","","","","","","","","","","","","","","",""
"","do_trial","242","1000942","0.0-129.0-0.0","314.59999999403954","","","","","","","","49","0,0,0","1","mountain","67","probe-107","0.33545946289320183","0.5041511349358471","0.07029317654185617","0","","","","","","","",""
"","html-keyboard-response","243","1001946","0.0-129.0-1.0","null","<p></p>","null","","","","","","","","","","","","","","","","","","","","","","",""
"","do_trial","244","1006729","0.0-130.0-0.0","228","","","","","","","","50","0,1,0","1","mountain","68","probe-192","0.24916142050494205","0.5010057601265527","0.1320613450061881","1","","","","","","","",""
"","html-keyboard-response","245","1007735","0.0-130.0-1.0","null","<p></p>","null","","","","","","","","","","","","","","","","","","","","","","",""
"","do_trial","246","1013498","0.0-131.0-0.0","1211.3000000044703","","","","","","","","50","0,1,0","1","mountain","69","probe-91","0.22862974650931273","0.6516486872819937","0.19338668169123638","1","","","","","","","",""
"","html-keyboard-response","247","1014503","0.0-131.0-1.0","null","<p></p>","null","","","","","","","","","","","","","","","","","","","","","","",""
"","do_bye","248","1016010","0.0-132.0-0.0","null","","","","","","","","null","","","","","","","","","","","","","","","","",""
"","break","249","1038678","0.0-132.0-1.0","22661.5","<div class='center'><p>Time to take a quick break! You have 2 minutes to rest, but you can move on sooner if you'd like.</p><p> Press the <b>space bar</b> to continue.</p></div>","32","","","","","","","","","","","","","","","","","","","","","","",""
"","do_travel","250","1047687","0.0-133.0-0.0","null","","","","","","","","null","","","","","","","","","","","","","","","","",""
"","do_welcome","251","1051695","0.0-133.0-1.0","null","","","","","","","","null","","","","","","","","","","","","","","","","",""
"","do_trial","252","1058115","0.0-134.0-0.0","1858.1000000014901","","","","","","","","51","0,1,0","2","highway","70","probe-224","0.17673990994110042","1","0.06508142202522453","0","","","","","","","",""
"","html-keyboard-response","253","1059120","0.0-134.0-1.0","null","<p></p>","null","","","","","","","","","","","","","","","","","","","","","","",""
"","do_trial","254","1063954","0.0-135.0-0.0","280.19999999552965","","","","","","","","49","0,1,0","2","highway","71","probe-189","0.3224782259632821","1","0.13963074555024277","0","","","","","","","",""
"","html-keyboard-response","255","1064956","0.0-135.0-1.0","null","<p></p>","null","","","","","","","","","","","","","","","","","","","","","","",""
"","do_trial","256","1069626","0.0-136.0-0.0","119.20000000298023","","","","","","","","50","0,1,0","2","highway","72","probe-51","0.2788913677172926","0.7706434292211205","0.09799609052794639","1","","","","","","","",""
"","html-keyboard-response","257","1070631","0.0-136.0-1.0","null","<p></p>","null","","","","","","","","","","","","","","","","","","","","","","",""
"","do_trial","258","1075468","0.0-137.0-0.0","290.29999999701977","","","","","","","","50","1,1,1","2","highway","73","probe-211","0.34349932736964844","0.7072275422270039","0.352460847809738","1","","","","","","","",""
"","html-keyboard-response","259","1076470","0.0-137.0-1.0","null","<p></p>","null","","","","","","","","","","","","","","","","","","","","","","",""
"","do_trial","260","1081411","0.0-138.0-0.0","393.29999999701977","","","","","","","","50","0,1,1","2","highway","74","probe-210","0.35628613468973364","0.702792165694043","0.3279992946754571","1","","","","","","","",""
"","html-keyboard-response","261","1082416","0.0-138.0-1.0","null","<p></p>","null","","","","","","","","","","","","","","","","","","","","","","",""
"","do_trial","262","1087348","0.0-139.0-0.0","376.3999999985099","","","","","","","","50","0,0,0","2","highway","75","probe-18","0.2630052455405206","0.6784124459700079","0.24859184428414033","0","","","","","","","",""
"","html-keyboard-response","263","1088353","0.0-139.0-1.0","null","<p></p>","null","","","","","","","","","","","","","","","","","","","","","","",""
"","do_trial","264","1092904","0.0-140.0-0.0","0.29999999701976776","","","","","","","","51","1,0,0","2","highway","76","probe-83","0.41214724904097844","0.7314401121824815","0.10867756669011071","0","","","","","","","",""
"","html-keyboard-response","265","1093910","0.0-140.0-1.0","null","<p></p>","null","","","","","","","","","","","","","","","","","","","","","","",""
"","do_trial","266","1098514","0.0-141.0-0.0","54.399999998509884","","","","","","","","50","1,1,0","2","highway","77","probe-12","0.28859507193719974","0.7395991946120537","0.060962688133664636","1","","","","","","","",""
"","html-keyboard-response","267","1099519","0.0-141.0-1.0","null","<p></p>","null","","","","","","","","","","","","","","","","","","","","","","",""
"","do_trial","268","1104426","0.0-142.0-0.0","351.59999999403954","","","","","","","","50","0,1,0","2","highway","78","probe-01","0.37064063701835553","0.700186770210256","0.10862716112954722","1","","","","","","","",""
"","html-keyboard-response","269","1105431","0.0-142.0-1.0","null","<p></p>","null","","","","","","","","","","","","","","","","","","","","","","",""
"","do_trial","270","1110296","0.0-143.0-0.0","316.3999999985099","","","","","","","","49","0,1,0","2","highway","79","probe-165","0.2962933930932387","0.6437054320676318","0.13326629401056825","0","","","","","","","",""
"","html-keyboard-response","271","1111302","0.0-143.0-1.0","null","<p></p>","null","","","","","","","","","","","","","","","","","","","","","","",""
"","do_trial","272","1116097","0.0-144.0-0.0","245.10000000149012","","","","","","","","50","0,1,0","2","highway","80","probe-87","0.35672421013129835","0.68462708911514","0.1433605025073067","1","","","","","","","",""
"","html-keyboard-response","273","1117102","0.0-144.0-1.0","null","<p></p>","null","","","","","","","","","","","","","","","","","","","","","","",""
"","do_trial","274","1121874","0.0-145.0-0.0","221.30000000447035","","","","","","","","50","1,1,0","2","highway","81","probe-88","0.5291888477153859","0.5581164035644182","0.13234975222793718","1","","","","","","","",""
"","html-keyboard-response","275","1122879","0.0-145.0-1.0","null","<p></p>","null","","","","","","","","","","","","","","","","","","","","","","",""
"","do_trial","276","1128371","0.0-146.0-0.0","950.5","","","","","","","","50","1,0,0","2","highway","82","probe-154","0.554584070665851","0.45439055511913007","0.19686792128771935","0","","","","","","","",""
"","html-keyboard-response","277","1129373","0.0-146.0-1.0","null","<p></p>","null","","","","","","","","","","","","","","","","","","","","","","",""
"","do_trial","278","1134003","0.0-147.0-0.0","71.10000000149012","","","","","","","","51","1,1,0","2","highway","83","probe-04","0.6027994203146788","0.24279099507312393","0.29893532408805795","0","","","","","","","",""
"","html-keyboard-response","279","1135008","0.0-147.0-1.0","null","<p></p>","null","","","","","","","","","","","","","","","","","","","","","","",""
"","do_trial","280","1139560","0.0-148.0-0.0","0.20000000298023224","","","","","","","","50","0,0,0","2","highway","84","probe-218","0.708995024770431","0.12210898385465577","0.21833301733048457","0","","","","","","","",""
"","html-keyboard-response","281","1140563","0.0-148.0-1.0","null","<p></p>","null","","","","","","","","","","","","","","","","","","","","","","",""
"","do_trial","282","1145956","0.0-149.0-0.0","847.8999999985099","","","","","","","","50","1,0,0","2","highway","85","probe-152","0.6996616671964546","0.07232144167839916","0.24783598534017987","0","","","","","","","",""
"","html-keyboard-response","283","1146960","0.0-149.0-1.0","null","<p></p>","null","","","","","","","","","","","","","","","","","","","","","","",""
"","do_trial","284","1151804","0.0-150.0-0.0","294.5","","","","","","","","49","0,0,0","2","highway","86","probe-195","0.6004112757204433","0.12640307732910852","0.08380028461972462","0","","","","","","","",""
"","html-keyboard-response","285","1152810","0.0-150.0-1.0","null","<p></p>","null","","","","","","","","","","","","","","","","","","","","","","",""
"","do_trial","286","1157925","0.0-151.0-0.0","562.4000000059605","","","","","","","","50","0,1,0","2","highway","87","probe-22","0.5547333942805552","0.11029847979432608","0.10844679171723848","1","","","","","","","",""
"","html-keyboard-response","287","1158930","0.0-151.0-1.0","null","<p></p>","null","","","","","","","","","","","","","","","","","","","","","","",""
"","do_trial","288","1164015","0.0-152.0-0.0","535.3999999985099","","","","","","","","50","1,0,1","2","highway","88","probe-89","0.5466433143976783","0.08948161389602528","0.3479986256720818","0","","","","","","","",""
"","html-keyboard-response","289","1165020","0.0-152.0-1.0","null","<p></p>","null","","","","","","","","","","","","","","","","","","","","","","",""
"","do_trial","290","1169742","0.0-153.0-0.0","170.29999999701977","","","","","","","","50","1,0,0","2","highway","89","probe-174","0.6079100616340524","0.05573739728698916","0.2124043852553897","0","","","","","","","",""
"","html-keyboard-response","291","1170748","0.0-153.0-1.0","null","<p></p>","null","","","","","","","","","","","","","","","","","","","","","","",""
"","do_trial","292","1176796","0.0-154.0-0.0","null","","","","","","","","null","0,0,1","2","highway","90","probe-204","0.49672523942384966","0.07787240847100023","0.15216975431954377","","","","","","","","",""
"","html-keyboard-response","293","1177802","0.0-154.0-1.0","null","<p></p>","null","","","","","","","","","","","","","","","","","","","","","","",""
"","do_trial","294","1182459","0.0-155.0-0.0","108.09999999403954","","","","","","","","51","1,0,0","2","highway","91","probe-178","0.43957418584372787","0.09205982911870128","0.4179411645524087","0","","","","","","","",""
"","html-keyboard-response","295","1183462","0.0-155.0-1.0","null","<p></p>","null","","","","","","","","","","","","","","","","","","","","","","",""
"","do_trial","296","1188017","0.0-156.0-0.0","0.29999999701976776","","","","","","","","50","1,0,0","2","highway","92","probe-61","0.5478648526305524","0.17000175700905157","0.4829656393293308","0","","","","","","","",""
"","html-keyboard-response","297","1189021","0.0-156.0-1.0","null","<p></p>","null","","","","","","","","","","","","","","","","","","","","","","",""
"","do_trial","298","1193847","0.0-157.0-0.0","273.19999999552965","","","","","","","","49","0,0,1","2","highway","93","probe-28","0.7357410764342904","0.07787276884249658","0.39468505116442404","0","","","","","","","",""
"","html-keyboard-response","299","1194852","0.0-157.0-1.0","null","<p></p>","null","","","","","","","","","","","","","","","","","","","","","","",""
"","do_trial","300","1199445","0.0-158.0-0.0","42.399999998509884","","","","","","","","50","1,0,1","2","highway","94","probe-138","0.7007686346744504","0.0697001570713191","0.4924151906771364","0","","","","","","","",""
"","html-keyboard-response","301","1200448","0.0-158.0-1.0","null","<p></p>","null","","","","","","","","","","","","","","","","","","","","","","",""
"","do_trial","302","1205508","0.0-159.0-0.0","509.19999999552965","","","","","","","","50","1,0,0","2","highway","95","probe-48","0.5187103231373713","0.097553923183311","0.47824013001160665","0","","","","","","","",""
"","html-keyboard-response","303","1206513","0.0-159.0-1.0","null","<p></p>","null","","","","","","","","","","","","","","","","","","","","","","",""
"","do_trial","304","1211469","0.0-160.0-0.0","407.69999999552965","","","","","","","","51","0,0,0","2","highway","96","probe-62","0.5733045611907882","0.2362128425382137","0.42562622151000845","0","","","","","","","",""
"","html-keyboard-response","305","1212470","0.0-160.0-1.0","null","<p></p>","null","","","","","","","","","","","","","","","","","","","","","","",""
"","do_trial","306","1217375","0.0-161.0-0.0","355.6000000014901","","","","","","","","50","1,0,0","2","highway","97","probe-131","0.5325371165312542","0.1659378114197963","0.4294815695326009","0","","","","","","","",""
"","html-keyboard-response","307","1218378","0.0-161.0-1.0","null","<p></p>","null","","","","","","","","","","","","","","","","","","","","","","",""
"","do_trial","308","1223743","0.0-162.0-0.0","813.7999999970198","","","","","","","","50","1,0,1","2","highway","98","probe-104","0.4212557774880931","0.19592403353083027","0.35895193755589383","0","","","","","","","",""
"","html-keyboard-response","309","1224749","0.0-162.0-1.0","null","<p></p>","null","","","","","","","","","","","","","","","","","","","","","","",""
"","do_trial","310","1229643","0.0-163.0-0.0","341","","","","","","","","49","0,0,0","2","highway","99","probe-101","0.4555195409189776","0.09464643141849496","0.371454267541658","0","","","","","","","",""
"","html-keyboard-response","311","1230648","0.0-163.0-1.0","null","<p></p>","null","","","","","","","","","","","","","","","","","","","","","","",""
"","do_trial","312","1235770","0.0-164.0-0.0","575.6000000014901","","","","","","","","49","0,0,1","2","highway","100","probe-24","0.5120520877924764","0.06675972477432725","0.29039081969963604","0","","","","","","","",""
"","html-keyboard-response","313","1236771","0.0-164.0-1.0","null","<p></p>","null","","","","","","","","","","","","","","","","","","","","","","",""
"","do_trial","314","1241708","0.0-165.0-0.0","384.79999999701977","","","","","","","","50","1,0,1","2","highway","101","probe-40","0.55915555264857","0.17639921820657833","0.34172789831679545","0","","","","","","","",""
"","html-keyboard-response","315","1242710","0.0-165.0-1.0","null","<p></p>","null","","","","","","","","","","","","","","","","","","","","","","",""
"","do_trial","316","1248758","0.0-166.0-0.0","null","","","","","","","","null","1,0,0","2","highway","102","probe-66","0.3699708067171325","0.09256187783600027","0.43193605502826143","","","","","","","","",""
"","html-keyboard-response","317","1249763","0.0-166.0-1.0","null","<p></p>","null","","","","","","","","","","","","","","","","","","","","","","",""
"","do_trial","318","1255099","0.0-167.0-0.0","773.2000000029802","","","","","","","","51","0,0,0","2","highway","103","probe-226","0.3502006430371549","0.09631865540639639","0.34886725412046615","0","","","","","","","",""
"","html-keyboard-response","319","1256106","0.0-167.0-1.0","null","<p></p>","null","","","","","","","","","","","","","","","","","","","","","","",""
"","do_trial","320","1262162","0.0-168.0-0.0","null","","","","","","","","null","1,0,0","2","highway","104","probe-29","0.363908839325703","0.15278504205201476","0.33966361429983055","","","","","","","","",""
"","html-keyboard-response","321","1263168","0.0-168.0-1.0","null","<p></p>","null","","","","","","","","","","","","","","","","","","","","","","",""
"","do_trial","322","1268228","0.0-169.0-0.0","515.8999999985099","","","","","","","","51","1,0,0","2","highway","105","probe-79","0.3717319056044313","0.11598235836907458","0.3800376326016393","0","","","","","","","",""
"","html-keyboard-response","323","1269234","0.0-169.0-1.0","null","<p></p>","null","","","","","","","","","","","","","","","","","","","","","","",""
"","do_trial","324","1274228","0.0-170.0-0.0","444.80000000447035","","","","","","","","50","0,0,0","2","highway","106","probe-191","0.34415578411729997","0.17346016313022536","0.2388189739735468","0","","","","","","","",""
"","html-keyboard-response","325","1275234","0.0-170.0-1.0","null","<p></p>","null","","","","","","","","","","","","","","","","","","","","","","",""
"","do_trial","326","1280414","0.0-171.0-0.0","629.6999999955297","","","","","","","","49","0,0,0","2","highway","107","probe-25","0.5326777638977069","0.11176775735021487","0.2318144374964041","0","","","","","","","",""
"","html-keyboard-response","327","1281419","0.0-171.0-1.0","null","<p></p>","null","","","","","","","","","","","","","","","","","","","","","","",""
"","do_trial","328","1286385","0.0-172.0-0.0","415.5","","","","","","","","50","0,0,1","2","highway","108","probe-47","0.6023963581102127","0.09988243516692884","0.28415844476867413","0","","","","","","","",""
"","html-keyboard-response","329","1287390","0.0-172.0-1.0","null","<p></p>","null","","","","","","","","","","","","","","","","","","","","","","",""
"","do_trial","330","1292275","0.0-173.0-0.0","334.29999999701977","","","","","","","","51","1,0,0","2","highway","109","probe-72","0.6904204598990482","0.17386215763683693","0.1909877305643018","0","","","","","","","",""
"","html-keyboard-response","331","1293279","0.0-173.0-1.0","null","<p></p>","null","","","","","","","","","","","","","","","","","","","","","","",""
"","do_bye","332","1294787","0.0-174.0-0.0","null","","","","","","","","null","","","","","","","","","","","","","","","","",""
"","break","333","1300161","0.0-174.0-1.0","5371.5999999940395","<div class='center'><p>Time to take a quick break! You have 2 minutes to rest, but you can move on sooner if you'd like.</p><p> Press the <b>space bar</b> to continue.</p></div>","32","","","","","","","","","","","","","","","","","","","","","","",""
"","do_travel","334","1309169","0.0-175.0-0.0","null","","","","","","","","null","","","","","","","","","","","","","","","","",""
"","do_welcome","335","1313179","0.0-175.0-1.0","null","","","","","","","","null","","","","","","","","","","","","","","","","",""
"","do_trial","336","1318519","0.0-176.0-0.0","795.1999999955297","","","","","","","","49","1,0,1","3","forest","110","probe-53","1","0.11740006831881715","0.31839717448541344","1","","","","","","","",""
"","html-keyboard-response","337","1319525","0.0-176.0-1.0","null","<p></p>","null","","","","","","","","","","","","","","","","","","","","","","",""
"","do_trial","338","1324283","0.0-177.0-0.0","208.20000000298023","","","","","","","","49","1,0,1","3","forest","111","probe-175","1","0.1250908685993247","0.3244214985925939","1","","","","","","","",""
"","html-keyboard-response","339","1325285","0.0-177.0-1.0","null","<p></p>","null","","","","","","","","","","","","","","","","","","","","","","",""
"","do_trial","340","1330294","0.0-178.0-0.0","455.90000000596046","","","","","","","","49","0,0,0","3","forest","112","probe-149","0.7358373032567653","0.22181355498798447","0.3656293156007554","0","","","","","","","",""
"","html-keyboard-response","341","1331300","0.0-178.0-1.0","null","<p></p>","null","","","","","","","","","","","","","","","","","","","","","","",""
"","do_trial","342","1336256","0.0-179.0-0.0","406.40000000596046","","","","","","","","49","0,0,0","3","forest","113","probe-86","0.7738213386779035","0.12008018763047268","0.37999598770043264","0","","","","","","","",""
"","html-keyboard-response","343","1337258","0.0-179.0-1.0","null","<p></p>","null","","","","","","","","","","","","","","","","","","","","","","",""
"","do_trial","344","1343313","0.0-180.0-0.0","null","","","","","","","","null","0,1,0","3","forest","114","probe-69","0.696582309090749","0.0516095431124929","0.29263872759740545","","","","","","","","",""
"","html-keyboard-response","345","1344320","0.0-180.0-1.0","null","<p></p>","null","","","","","","","","","","","","","","","","","","","","","","",""
"","do_trial","346","1349278","0.0-181.0-0.0","409.20000000298023","","","","","","","","51","1,0,0","3","forest","115","probe-33","0.5911133720656327","0.11953723918845632","0.34490386489660535","0","","","","","","","",""
"","html-keyboard-response","347","1350279","0.0-181.0-1.0","null","<p></p>","null","","","","","","","","","","","","","","","","","","","","","","",""
"","do_trial","348","1355706","0.0-182.0-0.0","880.6000000014901","","","","","","","","50","1,0,1","3","forest","116","probe-110","0.6765885475968166","0.08804609318114956","0.3239716142079355","0","","","","","","","",""
"","html-keyboard-response","349","1356708","0.0-182.0-1.0","null","<p></p>","null","","","","","","","","","","","","","","","","","","","","","","",""
"","do_trial","350","1362759","0.0-183.0-0.0","null","","","","","","","","null","1,0,0","3","forest","117","probe-56","0.7152543400938595","0.09503737500338534","0.24121677093495728","","","","","","","","",""
"","html-keyboard-response","351","1363764","0.0-183.0-1.0","null","<p></p>","null","","","","","","","","","","","","","","","","","","","","","","",""
"","do_trial","352","1368692","0.0-184.0-0.0","375.29999999701977","","","","","","","","49","1,0,0","3","forest","118","probe-102","0.5703484413543314","0.09304164090931494","0.29784937542111783","1","","","","","","","",""
"","html-keyboard-response","353","1369697","0.0-184.0-1.0","null","<p></p>","null","","","","","","","","","","","","","","","","","","","","","","",""
"","do_trial","354","1375263","0.0-185.0-0.0","1010.2999999970198","","","","","","","","49","0,0,0","3","forest","119","probe-160","0.6073762998022545","0.06448474999646078","0.29350272920418247","0","","","","","","","",""
"","html-keyboard-response","355","1376266","0.0-185.0-1.0","null","<p></p>","null","","","","","","","","","","","","","","","","","","","","","","",""
"","do_trial","356","1381172","0.0-186.0-0.0","349.70000000298023","","","","","","","","49","1,0,1","3","forest","120","probe-100","0.5615156343897678","0.15416326388200394","0.33961407011697836","1","","","","","","","",""
"","html-keyboard-response","357","1382175","0.0-186.0-1.0","null","<p></p>","null","","","","","","","","","","","","","","","","","","","","","","",""
"","do_trial","358","1387400","0.0-187.0-0.0","676.8000000044703","","","","","","","","49","1,0,0","3","forest","121","probe-77","0.6000465384602427","0.22528771296482317","0.32346359017538684","1","","","","","","","",""
"","html-keyboard-response","359","1388405","0.0-187.0-1.0","null","<p></p>","null","","","","","","","","","","","","","","","","","","","","","","",""
"","do_trial","360","1394704","0.0-188.0-0.0","1751.7000000029802","","","","","","","","49","1,1,1","3","forest","122","probe-142","0.3975083806754753","0.4160304214813628","0.40318669801256934","1","","","","","","","",""
"","html-keyboard-response","361","1395707","0.0-188.0-1.0","null","<p></p>","null","","","","","","","","","","","","","","","","","","","","","","",""
"","do_trial","362","1401069","0.0-189.0-0.0","806.6999999955297","","","","","","","","50","0,1,0","3","forest","123","probe-78","0.42631985655658056","0.5820380404929801","0.42918853973858234","1","","","","","","","",""
"","html-keyboard-response","363","1402072","0.0-189.0-1.0","null","<p></p>","null","","","","","","","","","","","","","","","","","","","","","","",""
"","do_trial","364","1407517","0.0-190.0-0.0","896.1000000014901","","","","","","","","49","0,1,0","3","forest","124","probe-85","0.42897632526408813","0.7199905350033369","0.3817583924336358","0","","","","","","","",""
"","html-keyboard-response","365","1408522","0.0-190.0-1.0","null","<p></p>","null","","","","","","","","","","","","","","","","","","","","","","",""
"","do_trial","366","1414578","0.0-191.0-0.0","null","","","","","","","","null","1,0,0","3","forest","125","probe-123","0.4339339440576371","0.7546383668794868","0.2671097085192614","","","","","","","","",""
"","html-keyboard-response","367","1415583","0.0-191.0-1.0","null","<p></p>","null","","","","","","","","","","","","","","","","","","","","","","",""
"","do_trial","368","1420782","0.0-192.0-0.0","651.3999999985099","","","","","","","","49","0,1,0","3","forest","126","probe-159","0.19484623188186362","0.8026704800077767","0.27783179446226436","0","","","","","","","",""
"","html-keyboard-response","369","1421787","0.0-192.0-1.0","null","<p></p>","null","","","","","","","","","","","","","","","","","","","","","","",""
"","do_trial","370","1426719","0.0-193.0-0.0","379.3999999985099","","","","","","","","49","0,0,0","3","forest","127","probe-229","0.09092021075545204","0.8002910591579623","0.33887836405624977","0","","","","","","","",""
"","html-keyboard-response","371","1427721","0.0-193.0-1.0","null","<p></p>","null","","","","","","","","","","","","","","","","","","","","","","",""
"","do_trial","372","1433774","0.0-194.0-0.0","null","","","","","","","","null","0,1,0","3","forest","128","probe-157","0.1443980088871596","0.7988225428880656","0.230192430455076","","","","","","","","",""
"","html-keyboard-response","373","1434777","0.0-194.0-1.0","null","<p></p>","null","","","","","","","","","","","","","","","","","","","","","","",""
"","do_trial","374","1439389","0.0-195.0-0.0","68.39999999850988","","","","","","","","50","0,1,0","3","forest","129","probe-125","0.06662036402254998","0.7058358520452153","0.18222055403640533","1","","","","","","","",""
"","html-keyboard-response","375","1440395","0.0-195.0-1.0","null","<p></p>","null","","","","","","","","","","","","","","","","","","","","","","",""
"","do_trial","376","1445046","0.0-196.0-0.0","103.69999999552965","","","","","","","","50","0,1,0","3","forest","130","probe-58","0.0898436029844952","0.6388043020040631","0.2543354908149334","1","","","","","","","",""
"","html-keyboard-response","377","1446052","0.0-196.0-1.0","null","<p></p>","null","","","","","","","","","","","","","","","","","","","","","","",""
"","do_trial","378","1450938","0.0-197.0-0.0","333.3999999985099","","","","","","","","50","0,1,1","3","forest","131","probe-49","0.18874341330262467","0.6059561363904298","0.1862291615340764","1","","","","","","","",""
"","html-keyboard-response","379","1451943","0.0-197.0-1.0","null","<p></p>","null","","","","","","","","","","","","","","","","","","","","","","",""
"","do_trial","380","1456615","0.0-198.0-0.0","127.5","","","","","","","","50","0,1,0","3","forest","132","probe-222","0.1189813780991204","0.7458443642669651","0.1788711516209177","1","","","","","","","",""
"","html-keyboard-response","381","1457618","0.0-198.0-1.0","null","<p></p>","null","","","","","","","","","","","","","","","","","","","","","","",""
"","do_trial","382","1463179","0.0-199.0-0.0","1012.7000000029802","","","","","","","","50","1,1,0","3","forest","133","probe-135","0.1617290717482306","0.8028239925471476","0.2915035475045481","1","","","","","","","",""
"","html-keyboard-response","383","1464182","0.0-199.0-1.0","null","<p></p>","null","","","","","","","","","","","","","","","","","","","","","","",""
"","do_trial","384","1468966","0.0-200.0-0.0","237.69999999552965","","","","","","","","51","0,0,0","3","forest","134","probe-08","0.19481642779416852","0.6486184484800259","0.3446415773449803","0","","","","","","","",""
"","html-keyboard-response","385","1469969","0.0-200.0-1.0","null","<p></p>","null","","","","","","","","","","","","","","","","","","","","","","",""
"","do_trial","386","1474549","0.0-201.0-0.0","30.299999997019768","","","","","","","","50","0,1,0","3","forest","135","probe-158","0.09774395992779265","0.5658214412405179","0.32078296736800255","1","","","","","","","",""
"","html-keyboard-response","387","1475554","0.0-201.0-1.0","null","<p></p>","null","","","","","","","","","","","","","","","","","","","","","","",""
"","do_trial","388","1480464","0.0-202.0-0.0","356.3999999985099","","","","","","","","51","0,1,0","3","forest","136","probe-141","0.09824852922706591","0.4841427197443281","0.2510200505780427","0","","","","","","","",""
"","html-keyboard-response","389","1481469","0.0-202.0-1.0","null","<p></p>","null","","","","","","","","","","","","","","","","","","","","","","",""
"","do_trial","390","1486074","0.0-203.0-0.0","60.20000000298023","","","","","","","","50","0,1,0","3","forest","137","probe-170","0.16628698897621544","0.5667697863624188","0.19029705135840677","1","","","","","","","",""
"","html-keyboard-response","391","1487079","0.0-203.0-1.0","null","<p></p>","null","","","","","","","","","","","","","","","","","","","","","","",""
"","do_trial","392","1492048","0.0-204.0-0.0","416.09999999403954","","","","","","","","50","0,0,0","3","forest","138","probe-199","0.15759454341099405","0.560296965481311","0.30637913773539965","0","","","","","","","",""
"","html-keyboard-response","393","1493054","0.0-204.0-1.0","null","<p></p>","null","","","","","","","","","","","","","","","","","","","","","","",""
"","do_trial","394","1498135","0.0-205.0-0.0","530.2000000029802","","","","","","","","50","0,1,0","3","forest","139","probe-181","0.07008823710600896","0.7219003574893904","0.1905783140900301","1","","","","","","","",""
"","html-keyboard-response","395","1499140","0.0-205.0-1.0","null","<p></p>","null","","","","","","","","","","","","","","","","","","","","","","",""
"","do_trial","396","1504247","0.0-206.0-0.0","561.2000000029802","","","","","","","","50","0,0,1","3","forest","140","probe-167","0.11979463258379293","0.6108759093556867","0.2621834016206548","0","","","","","","","",""
"","html-keyboard-response","397","1505253","0.0-206.0-1.0","null","<p></p>","null","","","","","","","","","","","","","","","","","","","","","","",""
"","do_trial","398","1510139","0.0-207.0-0.0","336.20000000298023","","","","","","","","51","1,0,0","3","forest","141","probe-55","0.12987237696657764","0.6237289493374842","0.3074728056146955","0","","","","","","","",""
"","html-keyboard-response","399","1511143","0.0-207.0-1.0","null","<p></p>","null","","","","","","","","","","","","","","","","","","","","","","",""
"","do_trial","400","1515787","0.0-208.0-0.0","95.5","","","","","","","","49","0,1,0","3","forest","142","probe-82","0.2424253304025004","0.48422321570259697","0.37296687288074304","0","","","","","","","",""
"","html-keyboard-response","401","1516792","0.0-208.0-1.0","null","<p></p>","null","","","","","","","","","","","","","","","","","","","","","","",""
"","do_trial","402","1521472","0.0-209.0-0.0","133.79999999701977","","","","","","","","50","0,1,0","3","forest","143","probe-133","0.1336079578771399","0.7226822105840123","0.33214430444946436","1","","","","","","","",""
"","html-keyboard-response","403","1522478","0.0-209.0-1.0","null","<p></p>","null","","","","","","","","","","","","","","","","","","","","","","",""
"","do_trial","404","1528532","0.0-210.0-0.0","null","","","","","","","","null","0,1,0","3","forest","144","probe-173","0.24150137487005868","0.7985328954473774","0.4096929966489985","","","","","","","","",""
"","html-keyboard-response","405","1529539","0.0-210.0-1.0","null","<p></p>","null","","","","","","","","","","","","","","","","","","","","","","",""
"","do_trial","406","1535464","0.0-211.0-0.0","1370.6000000014901","","","","","","","","49","0,0,0","3","forest","145","probe-17","0.15931622841802873","0.7003511682948056","0.23979728977319287","0","","","","","","","",""
"","html-keyboard-response","407","1536467","0.0-211.0-1.0","null","<p></p>","null","","","","","","","","","","","","","","","","","","","","","","",""
"","do_trial","408","1542519","0.0-212.0-0.0","null","","","","","","","","null","0,1,1","3","forest","146","probe-15","0.15754492464217443","0.6426947207568149","0.22864022149347565","","","","","","","","",""
"","html-keyboard-response","409","1543524","0.0-212.0-1.0","null","<p></p>","null","","","","","","","","","","","","","","","","","","","","","","",""
"","do_trial","410","1549572","0.0-213.0-0.0","null","","","","","","","","null","0,1,0","3","forest","147","probe-202","0.09519081146597862","0.655078479151506","0.2527398294006909","","","","","","","","",""
"","html-keyboard-response","411","1550574","0.0-213.0-1.0","null","<p></p>","null","","","","","","","","","","","","","","","","","","","","","","",""
"","do_trial","412","1556623","0.0-214.0-0.0","null","","","","","","","","null","0,1,0","3","forest","148","probe-43","0.0863107671152149","0.6466965181162795","0.2525871030980797","","","","","","","","",""
"","html-keyboard-response","413","1557627","0.0-214.0-1.0","null","<p></p>","null","","","","","","","","","","","","","","","","","","","","","","",""
"","do_trial","414","1562812","0.0-215.0-0.0","633.6999999955297","","","","","","","","50","1,1,0","3","forest","149","probe-98","0.13148188930237792","0.5494150648771844","0.3390858072669521","1","","","","","","","",""
"","html-keyboard-response","415","1563814","0.0-215.0-1.0","null","<p></p>","null","","","","","","","","","","","","","","","","","","","","","","",""
"","do_bye","416","1565325","0.0-216.0-0.0","null","","","","","","","","null","","","","","","","","","","","","","","","","",""
"","break","417","1574405","0.0-216.0-1.0","9078.69999999553","<div class='center'><p>Time to take a quick break! You have 2 minutes to rest, but you can move on sooner if you'd like.</p><p> Press the <b>space bar</b> to continue.</p></div>","32","","","","","","","","","","","","","","","","","","","","","","",""
"","do_travel","418","1583414","0.0-217.0-0.0","null","","","","","","","","null","","","","","","","","","","","","","","","","",""
"","do_welcome","419","1587423","0.0-217.0-1.0","null","","","","","","","","null","","","","","","","","","","","","","","","","",""
"","do_trial","420","1594671","0.0-218.0-0.0","2698.2999999970198","","","","","","","","50","0,1,0","4","countryside","150","probe-34","0.19499340882167127","1","0.35846510564338724","1","","","","","","","",""
"","html-keyboard-response","421","1595677","0.0-218.0-1.0","null","<p></p>","null","","","","","","","","","","","","","","","","","","","","","","",""
"","do_trial","422","1601211","0.0-219.0-0.0","974.8000000044703","","","","","","","","50","0,1,0","4","countryside","151","probe-206","0.08161819140216732","1","0.3845457246535219","1","","","","","","","",""
"","html-keyboard-response","423","1602215","0.0-219.0-1.0","null","<p></p>","null","","","","","","","","","","","","","","","","","","","","","","",""
"","do_trial","424","1607165","0.0-220.0-0.0","396.6000000014901","","","","","","","","51","0,1,0","4","countryside","152","probe-153","0.07953377184829769","0.814323115795638","0.2794731221454891","0","","","","","","","",""
"","html-keyboard-response","425","1608170","0.0-220.0-1.0","null","<p></p>","null","","","","","","","","","","","","","","","","","","","","","","",""
"","do_trial","426","1612798","0.0-221.0-0.0","70.70000000298023","","","","","","","","50","0,1,0","4","countryside","153","probe-73","0.14239609185313942","0.711765707609411","0.18784898990245008","1","","","","","","","",""
"","html-keyboard-response","427","1613803","0.0-221.0-1.0","null","<p></p>","null","","","","","","","","","","","","","","","","","","","","","","",""
"","do_trial","428","1618626","0.0-222.0-0.0","273.70000000298023","","","","","","","","50","0,0,0","4","countryside","154","probe-99","0.11329406186776517","0.49491341770325903","0.19583094182951744","0","","","","","","","",""
"","html-keyboard-response","429","1619628","0.0-222.0-1.0","null","<p></p>","null","","","","","","","","","","","","","","","","","","","","","","",""
"","do_trial","430","1625687","0.0-223.0-0.0","null","","","","","","","","null","0,0,0","4","countryside","155","probe-35","0.23308298988927342","0.427431179564564","0.3219391082631002","","","","","","","","",""
"","html-keyboard-response","431","1626691","0.0-223.0-1.0","null","<p></p>","null","","","","","","","","","","","","","","","","","","","","","","",""
"","do_trial","432","1633239","0.0-224.0-0.0","null","","","","","","","","null","0,0,0","4","countryside","156","probe-76","0.2568256604856168","0.44099916566131797","0.3426600824344497","","","","","","","","",""
"","html-keyboard-response","433","1634466","0.0-224.0-1.0","null","<p></p>","null","","","","","","","","","","","","","","","","","","","","","","",""
"","do_trial","434","1640522","0.0-225.0-0.0","null","","","","","","","","null","0,1,1","4","countryside","157","probe-60","0.09689948745284511","0.4220669172171118","0.396321343476401","","","","","","","","",""
"","html-keyboard-response","435","1641528","0.0-225.0-1.0","null","<p></p>","null","","","","","","","","","","","","","","","","","","","","","","",""
"","do_trial","436","1646656","0.0-226.0-0.0","575.1000000014901","","","","","","","","51","1,1,1","4","countryside","158","probe-46","0.1531624580756749","0.46526058710246915","0.4410854261332668","1","","","","","","","",""
"","html-keyboard-response","437","1647663","0.0-226.0-1.0","null","<p></p>","null","","","","","","","","","","","","","","","","","","","","","","",""
"","do_trial","438","1653722","0.0-227.0-0.0","null","","","","","","","","null","0,0,0","4","countryside","159","probe-201","0.07393252752829542","0.55245087826016","0.30761390900952273","","","","","","","","",""
"","html-keyboard-response","439","1654727","0.0-227.0-1.0","null","<p></p>","null","","","","","","","","","","","","","","","","","","","","","","",""
"","do_trial","440","1659847","0.0-228.0-0.0","571.9000000059605","","","","","","","","51","0,1,0","4","countryside","160","probe-145","0.10916850485257186","0.6986591600848026","0.4063093988987109","0","","","","","","","",""
"","html-keyboard-response","441","1660852","0.0-228.0-1.0","null","<p></p>","null","","","","","","","","","","","","","","","","","","","","","","",""
"","do_trial","442","1665757","0.0-229.0-0.0","353.29999999701977","","","","","","","","50","1,1,1","4","countryside","161","probe-67","0.07667132903710884","0.6382484752367832","0.4387043659010675","1","","","","","","","",""
"","html-keyboard-response","443","1666762","0.0-229.0-1.0","null","<p></p>","null","","","","","","","","","","","","","","","","","","","","","","",""
"","do_trial","444","1671639","0.0-230.0-0.0","330.3999999985099","","","","","","","","50","1,0,1","4","countryside","162","probe-213","0.19524302857369638","0.4072267949322363","0.5056554151133095","0","","","","","","","",""
"","html-keyboard-response","445","1672646","0.0-230.0-1.0","null","<p></p>","null","","","","","","","","","","","","","","","","","","","","","","",""
"","do_trial","446","1678699","0.0-231.0-0.0","null","","","","","","","","null","0,1,1","4","countryside","163","probe-59","0.2743381624578398","0.4017656061591942","0.7565548247556908","","","","","","","","",""
"","html-keyboard-response","447","1679706","0.0-231.0-1.0","null","<p></p>","null","","","","","","","","","","","","","","","","","","","","","","",""
"","do_trial","448","1685235","0.0-232.0-0.0","979.6000000014901","","","","","","","","49","0,0,0","4","countryside","164","probe-108","0.2524959298504676","0.27802993165495826","0.7165655826944257","0","","","","","","","",""
"","html-keyboard-response","449","1686241","0.0-232.0-1.0","null","<p></p>","null","","","","","","","","","","","","","","","","","","","","","","",""
"","do_trial","450","1690918","0.0-233.0-0.0","125.10000000149012","","","","","","","","50","1,1,0","4","countryside","165","probe-112","0.45397273187313103","0.0843855972872377","0.6771891515983223","1","","","","","","","",""
"","html-keyboard-response","451","1691924","0.0-233.0-1.0","null","<p></p>","null","","","","","","","","","","","","","","","","","","","","","","",""
"","do_trial","452","1697036","0.0-234.0-0.0","563.7000000029802","","","","","","","","50","0,0,1","4","countryside","166","probe-215","0.3917154109048317","0.2252586994651444","0.6624805755183398","0","","","","","","","",""
"","html-keyboard-response","453","1698042","0.0-234.0-1.0","null","<p></p>","null","","","","","","","","","","","","","","","","","","","","","","",""
"","do_trial","454","1702829","0.0-235.0-0.0","242.39999999850988","","","","","","","","51","0,1,0","4","countryside","167","probe-13","0.2187379510775802","0.17124014886731523","0.5307247336568363","0","","","","","","","",""
"","html-keyboard-response","455","1703836","0.0-235.0-1.0","null","<p></p>","null","","","","","","","","","","","","","","","","","","","","","","",""
"","do_trial","456","1708590","0.0-236.0-0.0","205.20000000298023","","","","","","","","51","0,0,1","4","countryside","168","probe-212","0.3139111611708517","0.22958555822920176","0.5937172689455492","1","","","","","","","",""
"","html-keyboard-response","457","1709597","0.0-236.0-1.0","null","<p></p>","null","","","","","","","","","","","","","","","","","","","","","","",""
"","do_trial","458","1714275","0.0-237.0-0.0","133.29999999701977","","","","","","","","50","1,0,0","4","countryside","169","probe-203","0.48052457597546416","0.15576377873513766","0.6178146196669984","0","","","","","","","",""
"","html-keyboard-response","459","1715277","0.0-237.0-1.0","null","<p></p>","null","","","","","","","","","","","","","","","","","","","","","","",""
"","do_trial","460","1719989","0.0-238.0-0.0","156.60000000149012","","","","","","","","50","1,1,0","4","countryside","170","probe-207","0.39170280370283717","0.08929785482329723","0.5895914342963962","1","","","","","","","",""
"","html-keyboard-response","461","1720994","0.0-238.0-1.0","null","<p></p>","null","","","","","","","","","","","","","","","","","","","","","","",""
"","do_trial","462","1726305","0.0-239.0-0.0","750.6999999955297","","","","","","","","50","0,1,1","4","countryside","171","probe-198","0.3371207945514132","0.13143355125278136","0.5036698404811619","1","","","","","","","",""
"","html-keyboard-response","463","1727312","0.0-239.0-1.0","null","<p></p>","null","","","","","","","","","","","","","","","","","","","","","","",""
"","do_trial","464","1732250","0.0-240.0-0.0","389.59999999403954","","","","","","","","50","0,0,1","4","countryside","172","probe-119","0.21359823745725703","0.05969612909044722","0.5311306259889277","0","","","","","","","",""
"","html-keyboard-response","465","1733255","0.0-240.0-1.0","null","<p></p>","null","","","","","","","","","","","","","","","","","","","","","","",""
"","do_trial","466","1738388","0.0-241.0-0.0","584.1000000014901","","","","","","","","51","1,0,0","4","countryside","173","probe-42","0.32181522296396103","0.06024486126693626","0.44056262177578137","0","","","","","","","",""
"","html-keyboard-response","467","1739392","0.0-241.0-1.0","null","<p></p>","null","","","","","","","","","","","","","","","","","","","","","","",""
"","do_trial","468","1744432","0.0-242.0-0.0","490.90000000596046","","","","","","","","50","1,0,1","4","countryside","174","probe-128","0.3039008104921424","0.16111894488776834","0.4780329492952778","0","","","","","","","",""
