"success","trial_type","trial_index","time_elapsed","internal_node_id","interactions","blur_events","focus_events","fullscreenenter_events","fullscreenexit_events","rt","stimulus","key_press","subject_id","participant_id","age","gender","prompt","response","choice_outcomes","context_n","context_img_id","trial_n","probe_img_id","pR_red","pR_white","pR_black","outcome","contextArray_ind","validImageProbes","invalidImageProbes","pRew_Red","pRew_White","pRew_Black","availableForMemProbe","choice_blocks"
"true","fullscreen","0","3199","0.0-0.0","""event"",""trial"",""time""
""fullscreenenter"",""0"",""2242""
","
","
","""event"",""trial"",""time""
""fullscreenenter"",""0"",""2242""
","
","","","","","","","","","","","","","","","","","","","","","","","","","",""
"","pavlovia","1","3206","0.0-1.0","""event"",""trial"",""time""
""fullscreenenter"",""0"",""2242""
","
","
","""event"",""trial"",""time""
""fullscreenenter"",""0"",""2242""
","
","","","","","","","","","","","","","","","","","","","","","","","","","",""
"","instruc1","2","48335","0.0-2.0","""event"",""trial"",""time""
""fullscreenenter"",""0"",""2242""
","
","
","""event"",""trial"",""time""
""fullscreenenter"",""0"",""2242""
","
","null","run_exp/static/audio/clip_1_welcome.m4a","null","330","463","19","Female","<div class='center'><p>Welcome! This is the first part of the study. It will last ~30 minutes. In part 1 and part 2 of the study, you are the head captain of a pirate ship traveling around the world to different islands. You will play a few different games throughout these two parts. Here is an overview of them:</p><br><p>Part 1 (today)</p><p>1. Instructions, practice game, and quiz</p><p>2. Pick a pirate game on 6 different islands</p><br><p>Part 2 (tomorrow)</p><p>3. Pick a pirate game and memory game</p><p>4. Where did you see this ship? </p></div>","","","","","","","","","","","","","","","","","",""
"","html-keyboard-response","3","50304","0.0-3.0","""event"",""trial"",""time""
""fullscreenenter"",""0"",""2242""
","
","
","""event"",""trial"",""time""
""fullscreenenter"",""0"",""2242""
","
","1966.8999999985099","<div class='center'><p>Welcome! This is the first part of the study. It will last ~30 minutes. In part 1 and part 2 of the study, you are the head captain of a pirate ship traveling around the world to different islands. You will play a few different games throughout these two parts. Here is an overview of them:</p><br><p>Part 1 (today)</p><p>1. Instructions, practice game, and quiz</p><p>2. Pick a pirate game on 6 different islands</p><br><p>Part 2 (tomorrow)</p><p>3. Pick a pirate game and memory game</p><p>4. Where did you see this ship? </p><p><b>[Press the space bar to continue]</b></p></div>","32","","","","","","","","","","","","","","","","","","","","","","",""
"","instruc2","4","55625","0.0-4.0","""event"",""trial"",""time""
""fullscreenenter"",""0"",""2242""
","
","
","""event"",""trial"",""time""
""fullscreenenter"",""0"",""2242""
","
","null","run_exp/static/audio/clip_2_different_places.m4a","null","","","","","<div class='center'><p>Today, you’ll visit these 6 islands on your journey. You'll be able to see these islands from your ship.</p><p><img src='run_exp/static/images/contexts/all_contexts.png' height='500'></p></div>","","","","","","","","","","","","","","","","","",""
"","html-keyboard-response","5","62942","0.0-5.0","""event"",""trial"",""time""
""fullscreenenter"",""0"",""2242""
","
","
","""event"",""trial"",""time""
""fullscreenenter"",""0"",""2242""
","
","7314.800000000745","<div class='center'><p>Today, you’ll visit these 6 islands on your journey. You'll be able to see these islands from your ship.</p><p><img src='run_exp/static/images/contexts/all_contexts.png' height='500'></p><p><b>[Press the space bar to continue]</b></p></div>","32","","","","","","","","","","","","","","","","","","","","","","",""
"","instruc3","6","72669","0.0-6.0","""event"",""trial"",""time""
""fullscreenenter"",""0"",""2242""
","
","
","""event"",""trial"",""time""
""fullscreenenter"",""0"",""2242""
","
","null","run_exp/static/audio/clip_3_goal_of_game_1.m4a","null","","","","","<div class='center'><p> The pirates on your ship will rob other ships as they leave the island.</p> These ships have just sold their goods to the islanders, so they will be filled with lots and lots of gold.</p><p><img src='run_exp/static/images/tutorial/ship_center.png' height='400'></p></div>","","","","","","","","","","","","","","","","","",""
"","html-keyboard-response","7","73250","0.0-7.0","""event"",""trial"",""time""
""fullscreenenter"",""0"",""2242""
","
","
","""event"",""trial"",""time""
""fullscreenenter"",""0"",""2242""
","
","579.5","<div class='center'><p> The pirates on your ship will rob other ships as they leave the island.</p> These ships have just sold their goods to the islanders, so they will be filled with lots and lots of gold.</p><p><img src='run_exp/static/images/tutorial/ship_center.png' height='400'></p><p><b>[Press the space bar to continue]</b></p></div>","32","","","","","","","","","","","","","","","","","","","","","","",""
"","instruc4","8","101253","0.0-8.0","""event"",""trial"",""time""
""fullscreenenter"",""0"",""2242""
","
","
","""event"",""trial"",""time""
""fullscreenenter"",""0"",""2242""
","
","null","run_exp/static/audio/clip_4_goal_of_game_2.m4a","null","","","","","<div class='center'><p>As the head captain, you do not have to rob any ships yourself. Another pirate will be doing the robbing for you. First, you will choose a pirate to rob the next ship.</p><p><img src='run_exp/static/images/tutorial/pirates_all_crop.png' height='200'></p><p>Then, you'll see if the pirate successfully robbed the ship of their gold. If they were successful, then you'll get a stack of gold coins like this:</p><p><img src='run_exp/static/images/tutorial/reward.png' height='150'></p><p> If they were <b>not</b> successful, then you'll get no gold coins, and you'll see a big red x like this: </p><p><img src='run_exp/static/images/tutorial/reward_no.png' height='150'></p><p> How much bonus money you make is based on how many gold coins you collect.</p><div>","","","","","","","","","","","","","","","","","",""
"","html-keyboard-response","9","102785","0.0-9.0","""event"",""trial"",""time""
""fullscreenenter"",""0"",""2242""
","
","
","""event"",""trial"",""time""
""fullscreenenter"",""0"",""2242""
","
","1528.7999999970198","<div class='center'><p>As the head captain, you do not have to rob any ships yourself. Another pirate will be doing the robbing for you. First, you will choose a pirate to rob the next ship.</p><p><img src='run_exp/static/images/tutorial/pirates_all_crop.png' height='200'></p><p>Then, you'll see if the pirate successfully robbed the ship of their gold. If they were successful, then you'll get a stack of gold coins like this:</p><p><img src='run_exp/static/images/tutorial/reward.png' height='150'></p><p> If they were <b>not</b> successful, then you'll get no gold coins, and you'll see a big red x like this: </p><p><img src='run_exp/static/images/tutorial/reward_no.png' height='150'></p><p> How much bonus money you make is based on how many gold coins you collect.</p<p><b>[Press the space bar to continue]</b></p></div>","32","","","","","","","","","","","","","","","","","","","","","","",""
"","instruc5","10","124518","0.0-10.0","""event"",""trial"",""time""
""fullscreenenter"",""0"",""2242""
","
","
","""event"",""trial"",""time""
""fullscreenenter"",""0"",""2242""
","
","21730.39999999851","run_exp/static/audio/clip_5_probabilistic.m4a","49","","","","","<div class='center'><p>Even the most skilled pirate can not rob EVERY ship.</p><p> Some ships will have very strong protections against pirate attacks.</p><p> Blue beard, here, is very, very good at robbing ships, but he won't be successful every time he tries to rob one.</p><p> You can press the <b>‘1’</b> key on the keyboard to choose him.</p><p> Try choosing him 10 times to see how often he succeeds at robbing a ship. </p><p><img src='run_exp/static/images/tutorial/blue.png' height='500'></p></div>","","","","","","","","","","","","","","","","","",""
"","html-keyboard-response","11","126020","0.0-11.0","""event"",""trial"",""time""
""fullscreenenter"",""0"",""2242""
","
","
","""event"",""trial"",""time""
""fullscreenenter"",""0"",""2242""
","
","null","<div class='center'><p><img src='run_exp/static/images/tutorial/blue_win.png' height='500'></p></div>","null","","","","","","","","","","","","","","","","","","","","","","",""
"","html-keyboard-response","12","128004","0.0-12.0","""event"",""trial"",""time""
""fullscreenenter"",""0"",""2242""
","
","
","""event"",""trial"",""time""
""fullscreenenter"",""0"",""2242""
","
","1983.199999999255","<div class='center'><img src='run_exp/static/images/tutorial/blue.png' height='500'></p></div>","49","","","","","","","","","","","","","","","","","","","","","","",""
"","html-keyboard-response","13","129511","0.0-13.0","""event"",""trial"",""time""
""fullscreenenter"",""0"",""2242""
","
","
","""event"",""trial"",""time""
""fullscreenenter"",""0"",""2242""
","
","null","<div class='center'><p><img src='run_exp/static/images/tutorial/blue_win.png' height='500'></p></div>","null","","","","","","","","","","","","","","","","","","","","","","",""
"","html-keyboard-response","14","131035","0.0-14.0","""event"",""trial"",""time""
""fullscreenenter"",""0"",""2242""
","
","
","""event"",""trial"",""time""
""fullscreenenter"",""0"",""2242""
","
","1523.5","<div class='center'><img src='run_exp/static/images/tutorial/blue.png' height='500'></p></div>","49","","","","","","","","","","","","","","","","","","","","","","",""
"","html-keyboard-response","15","132538","0.0-15.0","""event"",""trial"",""time""
""fullscreenenter"",""0"",""2242""
","
","
","""event"",""trial"",""time""
""fullscreenenter"",""0"",""2242""
","
","null","<div class='center'><p><img src='run_exp/static/images/tutorial/blue_win.png' height='500'></p></div>","null","","","","","","","","","","","","","","","","","","","","","","",""
"","html-keyboard-response","16","133248","0.0-16.0","""event"",""trial"",""time""
""fullscreenenter"",""0"",""2242""
","
","
","""event"",""trial"",""time""
""fullscreenenter"",""0"",""2242""
","
","708.6999999992549","<div class='center'><img src='run_exp/static/images/tutorial/blue.png' height='500'></p></div>","49","","","","","","","","","","","","","","","","","","","","","","",""
"","html-keyboard-response","17","134754","0.0-17.0","""event"",""trial"",""time""
""fullscreenenter"",""0"",""2242""
","
","
","""event"",""trial"",""time""
""fullscreenenter"",""0"",""2242""
","
","null","<div class='center'><p><img src='run_exp/static/images/tutorial/blue_no_win.png' height='500'></p></div>","null","","","","","","","","","","","","","","","","","","","","","","",""
"","html-keyboard-response","18","134982","0.0-18.0","""event"",""trial"",""time""
""fullscreenenter"",""0"",""2242""
","
","
","""event"",""trial"",""time""
""fullscreenenter"",""0"",""2242""
","
","226.5","<div class='center'><img src='run_exp/static/images/tutorial/blue.png' height='500'></p></div>","49","","","","","","","","","","","","","","","","","","","","","","",""
"","html-keyboard-response","19","136488","0.0-19.0","""event"",""trial"",""time""
""fullscreenenter"",""0"",""2242""
","
","
","""event"",""trial"",""time""
""fullscreenenter"",""0"",""2242""
","
","null","<div class='center'><p><img src='run_exp/static/images/tutorial/blue_win.png' height='500'></p></div>","null","","","","","","","","","","","","","","","","","","","","","","",""
"","html-keyboard-response","20","136584","0.0-20.0","""event"",""trial"",""time""
""fullscreenenter"",""0"",""2242""
","
","
","""event"",""trial"",""time""
""fullscreenenter"",""0"",""2242""
","
","94.90000000223517","<div class='center'><img src='run_exp/static/images/tutorial/blue.png' height='500'></p></div>","49","","","","","","","","","","","","","","","","","","","","","","",""
"","html-keyboard-response","21","138085","0.0-21.0","""event"",""trial"",""time""
""fullscreenenter"",""0"",""2242""
","
","
","""event"",""trial"",""time""
""fullscreenenter"",""0"",""2242""
","
","null","<div class='center'><p><img src='run_exp/static/images/tutorial/blue_win.png' height='500'></p></div>","null","","","","","","","","","","","","","","","","","","","","","","",""
"","html-keyboard-response","22","138640","0.0-22.0","""event"",""trial"",""time""
""fullscreenenter"",""0"",""2242""
","
","
","""event"",""trial"",""time""
""fullscreenenter"",""0"",""2242""
","
","553.3999999985099","<div class='center'><img src='run_exp/static/images/tutorial/blue.png' height='500'></p></div>","49","","","","","","","","","","","","","","","","","","","","","","",""
"","html-keyboard-response","23","140143","0.0-23.0","""event"",""trial"",""time""
""fullscreenenter"",""0"",""2242""
","
","
","""event"",""trial"",""time""
""fullscreenenter"",""0"",""2242""
","
","null","<div class='center'><p><img src='run_exp/static/images/tutorial/blue_win.png' height='500'></p></div>","null","","","","","","","","","","","","","","","","","","","","","","",""
"","html-keyboard-response","24","140702","0.0-24.0","""event"",""trial"",""time""
""fullscreenenter"",""0"",""2242""
","
","
","""event"",""trial"",""time""
""fullscreenenter"",""0"",""2242""
","
","557.6999999992549","<div class='center'><img src='run_exp/static/images/tutorial/blue.png' height='500'></p></div>","49","","","","","","","","","","","","","","","","","","","","","","",""
"","html-keyboard-response","25","142206","0.0-25.0","""event"",""trial"",""time""
""fullscreenenter"",""0"",""2242""
","
","
","""event"",""trial"",""time""
""fullscreenenter"",""0"",""2242""
","
","null","<div class='center'><p><img src='run_exp/static/images/tutorial/blue_no_win.png' height='500'></p></div>","null","","","","","","","","","","","","","","","","","","","","","","",""
"","html-keyboard-response","26","146685","0.0-26.0","""event"",""trial"",""time""
""fullscreenenter"",""0"",""2242""
","
","
","""event"",""trial"",""time""
""fullscreenenter"",""0"",""2242""
","
","4478.20000000298","<div class='center'><img src='run_exp/static/images/tutorial/blue.png' height='500'></p></div>","49","","","","","","","","","","","","","","","","","","","","","","",""
"","html-keyboard-response","27","148191","0.0-27.0","""event"",""trial"",""time""
""fullscreenenter"",""0"",""2242""
","
","
","""event"",""trial"",""time""
""fullscreenenter"",""0"",""2242""
","
","null","<div class='center'><p><img src='run_exp/static/images/tutorial/blue_win.png' height='500'></p></div>","null","","","","","","","","","","","","","","","","","","","","","","",""
"","html-keyboard-response","28","149553","0.0-28.0","""event"",""trial"",""time""
""fullscreenenter"",""0"",""2242""
","
","
","""event"",""trial"",""time""
""fullscreenenter"",""0"",""2242""
","
","1360.4000000022352","<div class='center'><img src='run_exp/static/images/tutorial/blue.png' height='500'></p></div>","49","","","","","","","","","","","","","","","","","","","","","","",""
"","html-keyboard-response","29","151055","0.0-29.0","""event"",""trial"",""time""
""fullscreenenter"",""0"",""2242""
","
","
","""event"",""trial"",""time""
""fullscreenenter"",""0"",""2242""
","
","null","<div class='center'><p><img src='run_exp/static/images/tutorial/blue_win.png' height='500'></p></div>","null","","","","","","","","","","","","","","","","","","","","","","",""
"","instruc6","30","156579","0.0-30.0","""event"",""trial"",""time""
""fullscreenenter"",""0"",""2242""
","
","
","""event"",""trial"",""time""
""fullscreenenter"",""0"",""2242""
","
","null","run_exp/static/audio/clip_6_blue_beard_outcome.m4a","null","","","","","<div class='center'><p> See, he succeeded in robbing the ships most of the time but not every time. </p></div>","","","","","","","","","","","","","","","","","",""
"","html-keyboard-response","31","158629","0.0-31.0","""event"",""trial"",""time""
""fullscreenenter"",""0"",""2242""
","
","
","""event"",""trial"",""time""
""fullscreenenter"",""0"",""2242""
","
","2048.599999997765","<div class='center'><p> See, he succeeded in robbing the ships most of the time but not every time. </p><p><b>[Press the space bar to continue]</b></p></div>","32","","","","","","","","","","","","","","","","","","","","","","",""
"","audio-keyboard-response","32","175813","0.0-32.0","""event"",""trial"",""time""
""fullscreenenter"",""0"",""2242""
","
","
","""event"",""trial"",""time""
""fullscreenenter"",""0"",""2242""
","
","17181.900000002235","run_exp/static/audio/clip_7_pick_pirate.m4a","51","","","","","","","","","","","","","","","","","","","","","","",""
"","audio-keyboard-response","33","180258","0.0-33.0-0.0","""event"",""trial"",""time""
""fullscreenenter"",""0"",""2242""
","
","
","""event"",""trial"",""time""
""fullscreenenter"",""0"",""2242""
","
","4441.199999999255","run_exp/static/audio/clip_8_chosen_pirate_win.m4a","32","","","","","","","","","","","","","","","","","","","","","","",""
"","audio-keyboard-response","34","183562","0.0-33.0-1.0","""event"",""trial"",""time""
""fullscreenenter"",""0"",""2242""
","
","
","""event"",""trial"",""time""
""fullscreenenter"",""0"",""2242""
","
","3301.400000002235","run_exp/static/audio/clip_9_pick_a_pirate_again.m4a","50","","","","","","","","","","","","","","","","","","","","","","",""
"","audio-keyboard-response","35","188639","0.0-34.0-0.0","""event"",""trial"",""time""
""fullscreenenter"",""0"",""2242""
","
","
","""event"",""trial"",""time""
""fullscreenenter"",""0"",""2242""
","
","5074.199999999255","run_exp/static/audio/clip_10_chosen_pirate_loss.m4a","32","","","","","","","","","","","","","","","","","","","","","","",""
"","instruc9","36","194150","0.0-35.0-0.0","""event"",""trial"",""time""
""fullscreenenter"",""0"",""2242""
","
","
","""event"",""trial"",""time""
""fullscreenenter"",""0"",""2242""
","
","null","run_exp/static/audio/clip_11_time_out.m4a","null","","","","","<div class='center'><p>If you don’t make your choice fast enough, you’ll have to wait a few seconds before you can make another one. </p><p><img src='run_exp/static/images/miscellaneous/hurry_up.png' height='500'></p></div>","","","","","","","","","","","","","","","","","",""
"","html-keyboard-response","37","195533","0.0-35.0-1.0","""event"",""trial"",""time""
""fullscreenenter"",""0"",""2242""
","
","
","""event"",""trial"",""time""
""fullscreenenter"",""0"",""2242""
","
","1381.4000000022352","<div class='center'><p>If you don’t make your choice fast enough, you’ll have to wait a few seconds before you can make another one. </p><p><img src='run_exp/static/images/miscellaneous/hurry_up.png' height='500'></p><p><b>[Press the space bar to continue]</b></p></div>","32","","","","","","","","","","","","","","","","","","","","","","",""
"","instruc10","38","234647","0.0-35.0-2.0","""event"",""trial"",""time""
""fullscreenenter"",""0"",""2242""
","
","
","""event"",""trial"",""time""
""fullscreenenter"",""0"",""2242""
","
","null","run_exp/static/audio/clip_12_probe.m4a","null","","","","","<div class='center'><p>Once you've chosen a pirate, you’ll be shown the ship they are robbing. You will never rob the same ship twice. Ships can be told apart from one another by the image on them. These are the goods that they sell. See, this ship has a travel mug on it. </p><p> You’ll have to remember which island you saw each ship on. You will win more gold coins and hence more bonus money if you remember correctly! To help you remember, you can imagine a story. For example, here, you could imagine a mug full of water in the desert. Or, as another example, if on the forest island, your pirate robbed a ship with an apple on it, you could imagine an apple falling from a tree in the forest. </p><p><img src='run_exp/static/images/tutorial/example_probe.png' height='500'></p></div>","","","","","","","","","","","","","","","","","",""
"","html-keyboard-response","39","235532","0.0-35.0-3.0","""event"",""trial"",""time""
""fullscreenenter"",""0"",""2242""
","
","
","""event"",""trial"",""time""
""fullscreenenter"",""0"",""2242""
","
","883.1999999992549","<div class='center'><p>Once you've chosen a pirate, you’ll be shown the ship they are robbing. You will never rob the same ship twice. Ships can be told apart from one another by the image on them. These are the goods that they sell. See, this ship has a travel mug on it. </p><p> You’ll have to remember which island you saw each ship on. You will win more gold coins and hence more bonus money if you remember correctly! To help you remember, you can imagine a story. For example, here, you could imagine a mug full of water in the desert. Or, as another example, if on the forest island, your pirate robbed a ship with an apple on it, you could imagine an apple falling from a tree in the forest. </p><p><img src='run_exp/static/images/tutorial/example_probe.png' height='500'></p><p><b>[Press the space bar to continue]</b></p></div>","32","","","","","","","","","","","","","","","","","","","","","","",""
"","instruc11","40","251946","0.0-35.0-4.0","""event"",""trial"",""time""
""fullscreenenter"",""0"",""2242""
","
","
","""event"",""trial"",""time""
""fullscreenenter"",""0"",""2242""
","
","null","run_exp/static/audio/clip_13_changepoint.m4a","null","","","","","<div class='center'><p>How successful a pirate is at robbing ships will depend on the island you’re on.</p><p> A pirate may have visited this island many times before and gained a lot of practice robbing ships there.</p><p>So, they’re more likely to be successful than a pirate who has never visited the island before.</p></div>","","","","","","","","","","","","","","","","","",""
"","html-keyboard-response","41","253028","0.0-35.0-5.0","""event"",""trial"",""time""
""fullscreenenter"",""0"",""2242""
","
","
","""event"",""trial"",""time""
""fullscreenenter"",""0"",""2242""
","
","1080.800000000745","<div class='center'><p>How successful a pirate is at robbing ships will depend on the island you’re on.</p><p> A pirate may have visited this island many times before and gained a lot of practice robbing ships there.</p><p>So, they’re more likely to be successful than a pirate who has never visited the island before.</p><p><b>[Press the space bar to continue]</b></p></div>","32","","","","","","","","","","","","","","","","","","","","","","",""
"","instruc12","42","294138","0.0-35.0-6.0","""event"",""trial"",""time""
""fullscreenenter"",""0"",""2242""
","
","
","""event"",""trial"",""time""
""fullscreenenter"",""0"",""2242""
","
","null","run_exp/static/audio/clip_14_drift.m4a","null","","","","","<div class='center'><p>How successful a pirate is at robbing ships can also change over the time spent on the island. </p><p> Ships may hear from islanders about the pirates coming and will improve their protections against the attack. This may make it harder to rob them.</p><p> Ships may also become lazy and weaken the strength of their protections. This may make it easier to rob them.</p><br><p>Things are always changing on the high seas! So, try your best to pay attention!</p><p><img src='run_exp/static/images/tutorial/contingency.png' height='500'></p></div>","","","","","","","","","","","","","","","","","",""
"","html-keyboard-response","43","299600","0.0-35.0-7.0","""event"",""trial"",""time""
""fullscreenenter"",""0"",""2242""
","
","
","""event"",""trial"",""time""
""fullscreenenter"",""0"",""2242""
","
","5460","<div class='center'><p>How successful a pirate is at robbing ships can also change over the time spent on the island. </p><p> Ships may hear from islanders about the pirates coming and will improve their protections against the attack. This may make it harder to rob them.</p><p> Ships may also become lazy and weaken the strength of their protections. This may make it easier to rob them.</p><br><p>Things are always changing on the high seas! So, try your best to pay attention!</p><p><img src='run_exp/static/images/tutorial/contingency.png' height='500'></p><p><b>[Press the space bar to continue]</b></p></div>","32","","","","","","","","","","","","","","","","","","","","","","",""
"","instruc13","44","334821","0.0-35.0-8.0","""event"",""trial"",""time""
""fullscreenenter"",""0"",""2242""
","
","
","""event"",""trial"",""time""
""fullscreenenter"",""0"",""2242""
","
","null","run_exp/static/audio/clip_15_summary.m4a","null","","","","","<div class='center'><p>Let's go over the instructions quickly again. You have two important things to do: </p><b><p> 1. Pick the pirate who is the best at robbing ships on the current island. </p></b><b><p> 2. Remember on which island a ship was robbed.</p> </b><p>The amount of bonus money you can win depends on both.</p><p><br><p>Let’s try a practice game. The game will start by showing you the pirates. First, pick a pirate using the <b> 1, 2, 3 </b> keys on your keyboard. When you are shown a ship, try to remember which island you’re on by making up a story.</p><p>This is just a practice game, so you’re not playing for money. </p><p> Good luck! This game will be very difficult but try your best!</p></div>","","","","","","","","","","","","","","","","","",""
"","html-keyboard-response","45","335407","0.0-35.0-9.0","""event"",""trial"",""time""
""fullscreenenter"",""0"",""2242""
","
","
","""event"",""trial"",""time""
""fullscreenenter"",""0"",""2242""
","
","585.2000000029802","<div class='center'><p>Let's go over the instructions quickly again. You have two important things to do: </p><b><p> 1. Pick the pirate who is the best at robbing ships on the current island. </p></b><b><p> 2. Remember on which island a ship was robbed.</p> </b><p>The amount of bonus money you can win depends on both.</p><p><br><p>Let’s try a practice game. The game will start by showing you the pirates. First, pick a pirate using the <b> 1, 2, 3 </b> keys on your keyboard. When you are shown a ship, try to remember which island you’re on by making up a story.</p><p>This is just a practice game, so you’re not playing for money. </p><p> Good luck! This game will be very difficult but try your best!</p><p><b>[Press the space bar to continue]</b></p></div>","32","","","","","","","","","","","","","","","","","","","","","","",""
"","do_welcome","46","339418","0.0-35.0-10.0","""event"",""trial"",""time""
""fullscreenenter"",""0"",""2242""
","
","
","""event"",""trial"",""time""
""fullscreenenter"",""0"",""2242""
","
","null","","","","","","","","null","","","","","","","","","","","","","","","","",""
"","do_trial","47","346213","0.0-35.0-11.0","""event"",""trial"",""time""
""fullscreenenter"",""0"",""2242""
","
","
","""event"",""trial"",""time""
""fullscreenenter"",""0"",""2242""
","
","2280.5","","","","","","","","51","1,0,0","","","","","","","","","","","","","","","",""
"","html-keyboard-response","48","347219","0.0-36.0-0.0","""event"",""trial"",""time""
""fullscreenenter"",""0"",""2242""
","
","
","""event"",""trial"",""time""
""fullscreenenter"",""0"",""2242""
","
","null","<p></p>","null","","","","","","","","","","","","","","","","","","","","","","",""
"","do_trial","49","353497","0.0-36.0-1.0","""event"",""trial"",""time""
""fullscreenenter"",""0"",""2242""
","
","
","""event"",""trial"",""time""
""fullscreenenter"",""0"",""2242""
","
","1765.0999999977648","","","","","","","","49","1,1,0","","","","","","","","","","","","","","","",""
"","html-keyboard-response","50","354502","0.0-37.0-0.0","""event"",""trial"",""time""
""fullscreenenter"",""0"",""2242""
","
","
","""event"",""trial"",""time""
""fullscreenenter"",""0"",""2242""
","
","null","<p></p>","null","","","","","","","","","","","","","","","","","","","","","","",""
"","do_trial","51","360786","0.0-37.0-1.0","""event"",""trial"",""time""
""fullscreenenter"",""0"",""2242""
","
","
","""event"",""trial"",""time""
""fullscreenenter"",""0"",""2242""
","
","1771","","","","","","","","51","1,0,1","","","","","","","","","","","","","","","",""
"","html-keyboard-response","52","361791","0.0-38.0-0.0","""event"",""trial"",""time""
""fullscreenenter"",""0"",""2242""
","
","
","""event"",""trial"",""time""
""fullscreenenter"",""0"",""2242""
","
","null","<p></p>","null","","","","","","","","","","","","","","","","","","","","","","",""
"","do_trial","53","368407","0.0-38.0-1.0","""event"",""trial"",""time""
""fullscreenenter"",""0"",""2242""
","
","
","""event"",""trial"",""time""
""fullscreenenter"",""0"",""2242""
","
","2105.60000000149","","","","","","","","50","0,1,0","","","","","","","","","","","","","","","",""
"","html-keyboard-response","54","369409","0.0-39.0-0.0","""event"",""trial"",""time""
""fullscreenenter"",""0"",""2242""
","
","
","""event"",""trial"",""time""
""fullscreenenter"",""0"",""2242""
","
","null","<p></p>","null","","","","","","","","","","","","","","","","","","","","","","",""
"","do_trial","55","374886","0.0-39.0-1.0","""event"",""trial"",""time""
""fullscreenenter"",""0"",""2242""
","
","
","""event"",""trial"",""time""
""fullscreenenter"",""0"",""2242""
","
","962.2999999970198","","","","","","","","49","1,0,0","","","","","","","","","","","","","","","",""
"","do_bye","56","376397","0.0-40.0-0.0","""event"",""trial"",""time""
""fullscreenenter"",""0"",""2242""
","
","
","""event"",""trial"",""time""
""fullscreenenter"",""0"",""2242""
","
","null","","","","","","","","null","","","","","","","","","","","","","","","","",""
"","do_travel","57","385402","0.0-40.0-1.0","""event"",""trial"",""time""
""fullscreenenter"",""0"",""2242""
","
","
","""event"",""trial"",""time""
""fullscreenenter"",""0"",""2242""
","
","null","","","","","","","","null","","","","","","","","","","","","","","","","",""
"","do_welcome","58","389412","0.0-40.0-2.0","""event"",""trial"",""time""
""fullscreenenter"",""0"",""2242""
","
","
","""event"",""trial"",""time""
""fullscreenenter"",""0"",""2242""
","
","null","","","","","","","","null","","","","","","","","","","","","","","","","",""
"","do_trial","59","395408","0.0-40.0-3.0","""event"",""trial"",""time""
""fullscreenenter"",""0"",""2242""
","
","
","""event"",""trial"",""time""
""fullscreenenter"",""0"",""2242""
","
","1482.6000000014901","","","","","","","","50","1,0,0","","","","","","","","","","","","","","","",""
"","html-keyboard-response","60","396413","0.0-41.0-0.0","""event"",""trial"",""time""
""fullscreenenter"",""0"",""2242""
","
","
","""event"",""trial"",""time""
""fullscreenenter"",""0"",""2242""
","
","null","<p></p>","null","","","","","","","","","","","","","","","","","","","","","","",""
"","do_trial","61","401233","0.0-41.0-1.0","""event"",""trial"",""time""
""fullscreenenter"",""0"",""2242""
","
","
","""event"",""trial"",""time""
""fullscreenenter"",""0"",""2242""
","
","307","","","","","","","","51","1,0,1","","","","","","","","","","","","","","","",""
"","html-keyboard-response","62","402239","0.0-42.0-0.0","""event"",""trial"",""time""
""fullscreenenter"",""0"",""2242""
","
","
","""event"",""trial"",""time""
""fullscreenenter"",""0"",""2242""
","
","null","<p></p>","null","","","","","","","","","","","","","","","","","","","","","","",""
"","do_trial","63","407702","0.0-42.0-1.0","""event"",""trial"",""time""
""fullscreenenter"",""0"",""2242""
","
","
","""event"",""trial"",""time""
""fullscreenenter"",""0"",""2242""
","
","950.0999999977648","","","","","","","","49","1,1,0","","","","","","","","","","","","","","","",""
"","html-keyboard-response","64","408706","0.0-43.0-0.0","""event"",""trial"",""time""
""fullscreenenter"",""0"",""2242""
","
","
","""event"",""trial"",""time""
""fullscreenenter"",""0"",""2242""
","
","null","<p></p>","null","","","","","","","","","","","","","","","","","","","","","","",""
"","do_trial","65","413962","0.0-43.0-1.0","""event"",""trial"",""time""
""fullscreenenter"",""0"",""2242""
","
","
","""event"",""trial"",""time""
""fullscreenenter"",""0"",""2242""
","
","743.6000000014901","","","","","","","","51","0,0,1","","","","","","","","","","","","","","","",""
"","html-keyboard-response","66","414967","0.0-44.0-0.0","""event"",""trial"",""time""
""fullscreenenter"",""0"",""2242""
","
","
","""event"",""trial"",""time""
""fullscreenenter"",""0"",""2242""
","
","null","<p></p>","null","","","","","","","","","","","","","","","","","","","","","","",""
"","do_trial","67","420414","0.0-44.0-1.0","""event"",""trial"",""time""
""fullscreenenter"",""0"",""2242""
","
","
","""event"",""trial"",""time""
""fullscreenenter"",""0"",""2242""
","
","933.8999999985099","","","","","","","","49","1,0,1","","","","","","","","","","","","","","","",""
"","html-keyboard-response","68","426287","0.0-45.0-0.0","""event"",""trial"",""time""
""fullscreenenter"",""0"",""2242""
","
","
","""event"",""trial"",""time""
""fullscreenenter"",""0"",""2242""
","
","5867.300000000745","<div class='center'><p><img src='run_exp/static/images/tutorial/prac_best_pirate.png'  height='500'></p></div>","49","","","","","","","","","","","","","","","","","","","","","","",""
"","html-keyboard-response","69","427929","0.0-46.0-0.0","""event"",""trial"",""time""
""fullscreenenter"",""0"",""2242""
","
","
","""event"",""trial"",""time""
""fullscreenenter"",""0"",""2242""
","
","1640.5","<div class='center'><p>That's correct! Red beard was the best.</p><p><b>[Press the space bar to continue]</b></p></div>","32","","","","","","","","","","","","","","","","","","","","","","",""
"","html-keyboard-response","70","432675","0.0-46.0-1.0","""event"",""trial"",""time""
""fullscreenenter"",""0"",""2242""
","
","
","""event"",""trial"",""time""
""fullscreenenter"",""0"",""2242""
","
","4744.89999999851","<div class='center'><p><img src='run_exp/static/images/tutorial/prac_source.png'  height='500'></p></div>","50","","","","","","","","","","","","","","","","","","","","","","",""
"","html-keyboard-response","71","433671","0.0-47.0-0.0","""event"",""trial"",""time""
""fullscreenenter"",""0"",""2242""
","
","
","""event"",""trial"",""time""
""fullscreenenter"",""0"",""2242""
","
","994.3000000007451","<div class='center'><p>That's correct! You saw this ship on the cavern island.</p><p><b>[Press the space bar to continue]</b></p></div>","32","","","","","","","","","","","","","","","","","","","","","","",""
"","quiz_beginning","72","444984","0.0-47.0-1.0","""event"",""trial"",""time""
""fullscreenenter"",""0"",""2242""
","
","
","""event"",""trial"",""time""
""fullscreenenter"",""0"",""2242""
","
","null","run_exp/static/audio/clip_16_quiz_intro.m4a","null","","","","","<div class='center'><p>Good job on the practice game! Now, you will be asked some true or false questions to make sure you really understand the rules of the game.</p><p> Press <b>'1'</b> on the keyboard for true and press <b>'2'</b> for false.</p></div>","","","","","","","","","","","","","","","","","",""
"","audio-keyboard-response","73","448128","0.0-47.0-2.0","""event"",""trial"",""time""
""fullscreenenter"",""0"",""2242""
","
","
","""event"",""trial"",""time""
""fullscreenenter"",""0"",""2242""
","
","3142.5","run_exp/static/audio/clip_17_q1.m4a","49","","","","","","","","","","","","","","","","","","","","","","",""
"","correct","74","450534","0.0-48.0-0.0","""event"",""trial"",""time""
""fullscreenenter"",""0"",""2242""
","
","
","""event"",""trial"",""time""
""fullscreenenter"",""0"",""2242""
","
","null","run_exp/static/audio/clip_18_correct.m4a","null","","","","","<div class='center'><p>That's correct!</p></div>","","","","","","","","","","","","","","","","","",""
"","html-keyboard-response","75","452195","0.0-48.0-1.0","""event"",""trial"",""time""
""fullscreenenter"",""0"",""2242""
","
","
","""event"",""trial"",""time""
""fullscreenenter"",""0"",""2242""
","
","1660.1000000014901","<div class='center'><p>That's correct!</p><p><b>[Press the space bar to continue]</b></p></div>","32","","","","","","","","","","","","","","","","","","","","","","",""
"","audio-keyboard-response","76","459868","0.0-48.0-2.0","""event"",""trial"",""time""
""fullscreenenter"",""0"",""2242""
","
","
","""event"",""trial"",""time""
""fullscreenenter"",""0"",""2242""
","
","7671.699999999255","run_exp/static/audio/clip_20_q2.m4a","50","","","","","","","","","","","","","","","","","","","","","","",""
"","correct","77","462284","0.0-49.0-0.0","""event"",""trial"",""time""
""fullscreenenter"",""0"",""2242""
","
","
","""event"",""trial"",""time""
""fullscreenenter"",""0"",""2242""
","
","null","run_exp/static/audio/clip_18_correct.m4a","null","","","","","<div class='center'><p>That's correct!</p></div>","","","","","","","","","","","","","","","","","",""
"","html-keyboard-response","78","463040","0.0-49.0-1.0","""event"",""trial"",""time""
""fullscreenenter"",""0"",""2242""
","
","
","""event"",""trial"",""time""
""fullscreenenter"",""0"",""2242""
","
","755.1999999992549","<div class='center'><p>That's correct!</p><p><b>[Press the space bar to continue]</b></p></div>","32","","","","","","","","","","","","","","","","","","","","","","",""
"","audio-keyboard-response","79","469471","0.0-49.0-2.0","""event"",""trial"",""time""
""fullscreenenter"",""0"",""2242""
","
","
","""event"",""trial"",""time""
""fullscreenenter"",""0"",""2242""
","
","6429.39999999851","run_exp/static/audio/clip_22_q3.m4a","50","","","","","","","","","","","","","","","","","","","","","","",""
"","correct","80","471874","0.0-50.0-0.0","""event"",""trial"",""time""
""fullscreenenter"",""0"",""2242""
","
","
","""event"",""trial"",""time""
""fullscreenenter"",""0"",""2242""
","
","null","run_exp/static/audio/clip_18_correct.m4a","null","","","","","<div class='center'><p>That's correct!</p></div>","","","","","","","","","","","","","","","","","",""
"","html-keyboard-response","81","472503","0.0-50.0-1.0","""event"",""trial"",""time""
""fullscreenenter"",""0"",""2242""
","
","
","""event"",""trial"",""time""
""fullscreenenter"",""0"",""2242""
","
","628.3999999985099","<div class='center'><p>That's correct!</p><p><b>[Press the space bar to continue]</b></p></div>","32","","","","","","","","","","","","","","","","","","","","","","",""
"","audio-keyboard-response","82","476726","0.0-50.0-2.0","""event"",""trial"",""time""
""fullscreenenter"",""0"",""2242""
","
","
","""event"",""trial"",""time""
""fullscreenenter"",""0"",""2242""
","
","4222","run_exp/static/audio/clip_24_q4.m4a","49","","","","","","","","","","","","","","","","","","","","","","",""
"","correct","83","479189","0.0-51.0-0.0","""event"",""trial"",""time""
""fullscreenenter"",""0"",""2242""
","
","
","""event"",""trial"",""time""
""fullscreenenter"",""0"",""2242""
","
","null","run_exp/static/audio/clip_18_correct.m4a","null","","","","","<div class='center'><p>That's correct!</p></div>","","","","","","","","","","","","","","","","","",""
"","html-keyboard-response","84","479802","0.0-51.0-1.0","""event"",""trial"",""time""
""fullscreenenter"",""0"",""2242""
","
","
","""event"",""trial"",""time""
""fullscreenenter"",""0"",""2242""
","
","611.9000000022352","<div class='center'><p>That's correct!</p><p><b>[Press the space bar to continue]</b></p></div>","32","","","","","","","","","","","","","","","","","","","","","","",""
"","q_all_corr","85","488314","0.0-52.0-0.0","""event"",""trial"",""time""
""fullscreenenter"",""0"",""2242""
","
","
","""event"",""trial"",""time""
""fullscreenenter"",""0"",""2242""
","
","null","run_exp/static/audio/clip_27_quiz_all_correct.m4a","null","","","","","<div class='center'><p>Good job! You’re now ready to move on to the real game! Remember this game will be difficult but don't get discouraged and try your best!</p></div>","","","","","","","","","","","","","","","","","",""
"","html-keyboard-response","86","489047","0.0-52.0-1.0","""event"",""trial"",""time""
""fullscreenenter"",""0"",""2242""
","
","
","""event"",""trial"",""time""
""fullscreenenter"",""0"",""2242""
","
","730.8999999985099","<div class='center'><p>Good job! You’re now ready to move on to the real game! Remember this game will be difficult but don't get discouraged and try your best!</p><p><b>[Press the space bar to continue]</b></p></div>","32","","","","","","","","","","","","","","","","","","","","","","",""
"","do_welcome","87","493054","0.0-53.0-0.0","""event"",""trial"",""time""
""fullscreenenter"",""0"",""2242""
","
","
","""event"",""trial"",""time""
""fullscreenenter"",""0"",""2242""
","
","null","","","","","","","","null","","","","","","","","","","","","","","","","",""
"","do_trial","88","499729","0.0-54.0-0.0","""event"",""trial"",""time""
""fullscreenenter"",""0"",""2242""
","
","
","""event"",""trial"",""time""
""fullscreenenter"",""0"",""2242""
","
","2126.39999999851","","","","","","","","49","1,1,0","0","highway","0","probe-73","0.6","0.3","0.1","1","","","","","","","",""
"","html-keyboard-response","89","500735","0.0-54.0-1.0","""event"",""trial"",""time""
""fullscreenenter"",""0"",""2242""
","
","
","""event"",""trial"",""time""
""fullscreenenter"",""0"",""2242""
","
","null","<p></p>","null","","","","","","","","","","","","","","","","","","","","","","",""
"","do_trial","90","505946","0.0-55.0-0.0","""event"",""trial"",""time""
""fullscreenenter"",""0"",""2242""
","
","
","""event"",""trial"",""time""
""fullscreenenter"",""0"",""2242""
","
","659.2000000029802","","","","","","","","49","1,0,0","0","highway","1","probe-109","0.6464818027818467","0.36417957939017664","0.16215152762371765","1","","","","","","","",""
"","html-keyboard-response","91","506951","0.0-55.0-1.0","""event"",""trial"",""time""
""fullscreenenter"",""0"",""2242""
","
","
","""event"",""trial"",""time""
""fullscreenenter"",""0"",""2242""
","
","null","<p></p>","null","","","","","","","","","","","","","","","","","","","","","","",""
"","do_trial","92","512162","0.0-56.0-0.0","""event"",""trial"",""time""
""fullscreenenter"",""0"",""2242""
","
","
","""event"",""trial"",""time""
""fullscreenenter"",""0"",""2242""
","
","659.3000000007451","","","","","","","","49","1,0,0","0","highway","2","probe-156","0.5973028509567453","0.4131792303492366","0.20034745573841076","1","","","","","","","",""
"","html-keyboard-response","93","513167","0.0-56.0-1.0","""event"",""trial"",""time""
""fullscreenenter"",""0"",""2242""
","
","
","""event"",""trial"",""time""
""fullscreenenter"",""0"",""2242""
","
","null","<p></p>","null","","","","","","","","","","","","","","","","","","","","","","",""
"","do_trial","94","518454","0.0-57.0-0.0","""event"",""trial"",""time""
""fullscreenenter"",""0"",""2242""
","
","
","""event"",""trial"",""time""
""fullscreenenter"",""0"",""2242""
","
","735.5","","","","","","","","49","0,0,1","0","highway","3","probe-123","0.6020310455927345","0.34294062898806543","0.23812200857058183","0","","","","","","","",""
"","html-keyboard-response","95","519459","0.0-57.0-1.0","""event"",""trial"",""time""
""fullscreenenter"",""0"",""2242""
","
","
","""event"",""trial"",""time""
""fullscreenenter"",""0"",""2242""
","
","null","<p></p>","null","","","","","","","","","","","","","","","","","","","","","","",""
"","do_trial","96","524645","0.0-58.0-0.0","""event"",""trial"",""time""
""fullscreenenter"",""0"",""2242""
","
","
","""event"",""trial"",""time""
""fullscreenenter"",""0"",""2242""
","
","635.3999999985099","","","","","","","","49","0,0,1","0","highway","4","probe-195","0.739091967570021","0.29145749990004144","0.2535009419276839","0","","","","","","","",""
"","html-keyboard-response","97","525650","0.0-58.0-1.0","""event"",""trial"",""time""
""fullscreenenter"",""0"",""2242""
","
","
","""event"",""trial"",""time""
""fullscreenenter"",""0"",""2242""
","
","null","<p></p>","null","","","","","","","","","","","","","","","","","","","","","","",""
"","do_trial","98","531103","0.0-59.0-0.0","""event"",""trial"",""time""
""fullscreenenter"",""0"",""2242""
","
","
","""event"",""trial"",""time""
""fullscreenenter"",""0"",""2242""
","
","905","","","","","","","","50","1,1,0","0","highway","5","probe-200","0.6712441645926053","0.3439557361292754","0.287282313590914","1","","","","","","","",""
"","html-keyboard-response","99","532108","0.0-59.0-1.0","""event"",""trial"",""time""
""fullscreenenter"",""0"",""2242""
","
","
","""event"",""trial"",""time""
""fullscreenenter"",""0"",""2242""
","
","null","<p></p>","null","","","","","","","","","","","","","","","","","","","","","","",""
"","do_trial","100","537429","0.0-60.0-0.0","""event"",""trial"",""time""
""fullscreenenter"",""0"",""2242""
","
","
","""event"",""trial"",""time""
""fullscreenenter"",""0"",""2242""
","
","770.1999999992549","","","","","","","","51","1,0,0","0","highway","6","probe-125","0.6002247686642807","0.32874322049403887","0.18780092289814157","0","","","","","","","",""
"","html-keyboard-response","101","538433","0.0-60.0-1.0","""event"",""trial"",""time""
""fullscreenenter"",""0"",""2242""
","
","
","""event"",""trial"",""time""
""fullscreenenter"",""0"",""2242""
","
","null","<p></p>","null","","","","","","","","","","","","","","","","","","","","","","",""
"","do_trial","102","543613","0.0-61.0-0.0","""event"",""trial"",""time""
""fullscreenenter"",""0"",""2242""
","
","
","""event"",""trial"",""time""
""fullscreenenter"",""0"",""2242""
","
","629","","","","","","","","50","0,0,0","0","highway","7","probe-09","0.6843113124918487","0.3203083682393883","0.23411024889024926","0","","","","","","","",""
"","html-keyboard-response","103","544618","0.0-61.0-1.0","""event"",""trial"",""time""
""fullscreenenter"",""0"",""2242""
","
","
","""event"",""trial"",""time""
""fullscreenenter"",""0"",""2242""
","
","null","<p></p>","null","","","","","","","","","","","","","","","","","","","","","","",""
"","do_trial","104","550109","0.0-62.0-0.0","""event"",""trial"",""time""
""fullscreenenter"",""0"",""2242""
","
","
","""event"",""trial"",""time""
""fullscreenenter"",""0"",""2242""
","
","942.0999999977648","","","","","","","","50","1,0,0","0","highway","8","probe-38","0.7162072792418739","0.317428256572244","0.16058723803844924","0","","","","","","","",""
"","html-keyboard-response","105","551113","0.0-62.0-1.0","""event"",""trial"",""time""
""fullscreenenter"",""0"",""2242""
","
","
","""event"",""trial"",""time""
""fullscreenenter"",""0"",""2242""
","
","null","<p></p>","null","","","","","","","","","","","","","","","","","","","","","","",""
"","do_trial","106","556146","0.0-63.0-0.0","""event"",""trial"",""time""
""fullscreenenter"",""0"",""2242""
","
","
","""event"",""trial"",""time""
""fullscreenenter"",""0"",""2242""
","
","484.69999999925494","","","","","","","","49","1,0,1","0","highway","9","probe-75","0.8347664944163138","0.24964851702416643","0.2563349947526803","1","","","","","","","",""
"","html-keyboard-response","107","557148","0.0-63.0-1.0","""event"",""trial"",""time""
""fullscreenenter"",""0"",""2242""
","
","
","""event"",""trial"",""time""
""fullscreenenter"",""0"",""2242""
","
","null","<p></p>","null","","","","","","","","","","","","","","","","","","","","","","",""
"","do_trial","108","563263","0.0-64.0-0.0","""event"",""trial"",""time""
""fullscreenenter"",""0"",""2242""
","
","
","""event"",""trial"",""time""
""fullscreenenter"",""0"",""2242""
","
","1562.699999999255","","","","","","","","49","0,0,0","0","highway","10","probe-43","0.6450917524261587","0.2215634014738281","0.15283501926927517","0","","","","","","","",""
"","html-keyboard-response","109","564268","0.0-64.0-1.0","""event"",""trial"",""time""
""fullscreenenter"",""0"",""2242""
","
","
","""event"",""trial"",""time""
""fullscreenenter"",""0"",""2242""
","
","null","<p></p>","null","","","","","","","","","","","","","","","","","","","","","","",""
"","do_trial","110","569113","0.0-65.0-0.0","""event"",""trial"",""time""
""fullscreenenter"",""0"",""2242""
","
","
","""event"",""trial"",""time""
""fullscreenenter"",""0"",""2242""
","
","296.5","","","","","","","","51","1,1,0","0","highway","11","probe-127","0.5783814217736765","0.3081182656050992","0.166364094416017","0","","","","","","","",""
"","html-keyboard-response","111","570117","0.0-65.0-1.0","""event"",""trial"",""time""
""fullscreenenter"",""0"",""2242""
","
","
","""event"",""trial"",""time""
""fullscreenenter"",""0"",""2242""
","
","null","<p></p>","null","","","","","","","","","","","","","","","","","","","","","","",""
"","do_trial","112","575113","0.0-66.0-0.0","""event"",""trial"",""time""
""fullscreenenter"",""0"",""2242""
","
","
","""event"",""trial"",""time""
""fullscreenenter"",""0"",""2242""
","
","446.6000000014901","","","","","","","","50","0,0,0","0","highway","12","probe-161","0.4210433858179337","0.3540770434554562","0.12333380543693294","0","","","","","","","",""
"","html-keyboard-response","113","576119","0.0-66.0-1.0","""event"",""trial"",""time""
""fullscreenenter"",""0"",""2242""
","
","
","""event"",""trial"",""time""
""fullscreenenter"",""0"",""2242""
","
","null","<p></p>","null","","","","","","","","","","","","","","","","","","","","","","",""
"","do_trial","114","581223","0.0-67.0-0.0","""event"",""trial"",""time""
""fullscreenenter"",""0"",""2242""
","
","
","""event"",""trial"",""time""
""fullscreenenter"",""0"",""2242""
","
","552.3000000007451","","","","","","","","51","0,0,0","0","highway","13","probe-04","0.608938554095847","0.3040512845273717","0.16545481117876357","0","","","","","","","",""
"","html-keyboard-response","115","582227","0.0-67.0-1.0","""event"",""trial"",""time""
""fullscreenenter"",""0"",""2242""
","
","
","""event"",""trial"",""time""
""fullscreenenter"",""0"",""2242""
","
","null","<p></p>","null","","","","","","","","","","","","","","","","","","","","","","",""
"","do_trial","116","587170","0.0-68.0-0.0","""event"",""trial"",""time""
""fullscreenenter"",""0"",""2242""
","
","
","""event"",""trial"",""time""
""fullscreenenter"",""0"",""2242""
","
","391.19999999925494","","","","","","","","50","1,1,0","0","highway","14","probe-30","0.5423429621885693","0.43335964436070334","0.09460733273271758","1","","","","","","","",""
"","html-keyboard-response","117","588175","0.0-68.0-1.0","""event"",""trial"",""time""
""fullscreenenter"",""0"",""2242""
","
","
","""event"",""trial"",""time""
""fullscreenenter"",""0"",""2242""
","
","null","<p></p>","null","","","","","","","","","","","","","","","","","","","","","","",""
"","do_trial","118","593303","0.0-69.0-0.0","""event"",""trial"",""time""
""fullscreenenter"",""0"",""2242""
","
","
","""event"",""trial"",""time""
""fullscreenenter"",""0"",""2242""
","
","577.8000000007451","","","","","","","","50","0,0,0","0","highway","15","probe-227","0.5313212562460582","0.34089866446781664","0.07996198456269193","0","","","","","","","",""
"","html-keyboard-response","119","594308","0.0-69.0-1.0","""event"",""trial"",""time""
""fullscreenenter"",""0"",""2242""
","
","
","""event"",""trial"",""time""
""fullscreenenter"",""0"",""2242""
","
","null","<p></p>","null","","","","","","","","","","","","","","","","","","","","","","",""
"","do_trial","120","599551","0.0-70.0-0.0","""event"",""trial"",""time""
""fullscreenenter"",""0"",""2242""
","
","
","""event"",""trial"",""time""
""fullscreenenter"",""0"",""2242""
","
","691.8000000007451","","","","","","","","49","0,1,0","0","highway","16","probe-74","0.5391395090458387","0.2994717992664009","0.12514691706319256","0","","","","","","","",""
"","html-keyboard-response","121","600555","0.0-70.0-1.0","""event"",""trial"",""time""
""fullscreenenter"",""0"",""2242""
","
","
","""event"",""trial"",""time""
""fullscreenenter"",""0"",""2242""
","
","null","<p></p>","null","","","","","","","","","","","","","","","","","","","","","","",""
"","do_trial","122","605557","0.0-71.0-0.0","""event"",""trial"",""time""
""fullscreenenter"",""0"",""2242""
","
","
","""event"",""trial"",""time""
""fullscreenenter"",""0"",""2242""
","
","449.5","","","","","","","","51","1,0,0","0","highway","17","probe-41","0.5646634265145766","0.42917467304342793","0.08080048506984207","0","","","","","","","",""
"","html-keyboard-response","123","606561","0.0-71.0-1.0","""event"",""trial"",""time""
""fullscreenenter"",""0"",""2242""
","
","
","""event"",""trial"",""time""
""fullscreenenter"",""0"",""2242""
","
","null","<p></p>","null","","","","","","","","","","","","","","","","","","","","","","",""
"","do_trial","124","611502","0.0-72.0-0.0","""event"",""trial"",""time""
""fullscreenenter"",""0"",""2242""
","
","
","""event"",""trial"",""time""
""fullscreenenter"",""0"",""2242""
","
","388.69999999925494","","","","","","","","50","0,0,0","0","highway","18","probe-64","0.535608424324455","0.34625733211582704","0.058785366067012366","0","","","","","","","",""
"","html-keyboard-response","125","612506","0.0-72.0-1.0","""event"",""trial"",""time""
""fullscreenenter"",""0"",""2242""
","
","
","""event"",""trial"",""time""
""fullscreenenter"",""0"",""2242""
","
","null","<p></p>","null","","","","","","","","","","","","","","","","","","","","","","",""
"","do_trial","126","617882","0.0-73.0-0.0","""event"",""trial"",""time""
""fullscreenenter"",""0"",""2242""
","
","
","""event"",""trial"",""time""
""fullscreenenter"",""0"",""2242""
","
","824.5","","","","","","","","50","1,0,0","0","highway","19","probe-111","0.6413783557185405","0.3704427834543331","0.08666978412813699","0","","","","","","","",""
"","html-keyboard-response","127","618886","0.0-73.0-1.0","""event"",""trial"",""time""
""fullscreenenter"",""0"",""2242""
","
","
","""event"",""trial"",""time""
""fullscreenenter"",""0"",""2242""
","
","null","<p></p>","null","","","","","","","","","","","","","","","","","","","","","","",""
"","do_trial","128","624010","0.0-74.0-0.0","""event"",""trial"",""time""
""fullscreenenter"",""0"",""2242""
","
","
","""event"",""trial"",""time""
""fullscreenenter"",""0"",""2242""
","
","576.7000000029802","","","","","","","","51","0,1,0","0","highway","20","probe-106","0.7167658729713453","0.29527898542542264","0.150328589358736","0","","","","","","","",""
"","html-keyboard-response","129","625015","0.0-74.0-1.0","""event"",""trial"",""time""
""fullscreenenter"",""0"",""2242""
","
","
","""event"",""trial"",""time""
""fullscreenenter"",""0"",""2242""
","
","null","<p></p>","null","","","","","","","","","","","","","","","","","","","","","","",""
"","do_trial","130","630804","0.0-75.0-0.0","""event"",""trial"",""time""
""fullscreenenter"",""0"",""2242""
","
","
","""event"",""trial"",""time""
""fullscreenenter"",""0"",""2242""
","
","1237.3999999985099","","","","","","","","51","1,0,0","0","highway","21","probe-62","0.6358334928410034","0.3040856510294145","0.0575118799711975","0","","","","","","","",""
"","html-keyboard-response","131","631808","0.0-75.0-1.0","""event"",""trial"",""time""
""fullscreenenter"",""0"",""2242""
","
","
","""event"",""trial"",""time""
""fullscreenenter"",""0"",""2242""
","
","null","<p></p>","null","","","","","","","","","","","","","","","","","","","","","","",""
"","do_trial","132","636815","0.0-76.0-0.0","""event"",""trial"",""time""
""fullscreenenter"",""0"",""2242""
","
","
","""event"",""trial"",""time""
""fullscreenenter"",""0"",""2242""
","
","460.0999999977648","","","","","","","","50","1,1,0","0","highway","22","probe-98","0.6448176541253732","0.32087275780373903","0.1495987344402422","1","","","","","","","",""
"","html-keyboard-response","133","637820","0.0-76.0-1.0","""event"",""trial"",""time""
""fullscreenenter"",""0"",""2242""
","
","
","""event"",""trial"",""time""
""fullscreenenter"",""0"",""2242""
","
","null","<p></p>","null","","","","","","","","","","","","","","","","","","","","","","",""
"","do_trial","134","643398","0.0-77.0-0.0","""event"",""trial"",""time""
""fullscreenenter"",""0"",""2242""
","
","
","""event"",""trial"",""time""
""fullscreenenter"",""0"",""2242""
","
","1026.8999999985099","","","","","","","","50","0,0,0","0","highway","23","probe-143","0.6780664404628355","0.2959454832652396","0.21325799966730072","0","","","","","","","",""
"","html-keyboard-response","135","644403","0.0-77.0-1.0","""event"",""trial"",""time""
""fullscreenenter"",""0"",""2242""
","
","
","""event"",""trial"",""time""
""fullscreenenter"",""0"",""2242""
","
","null","<p></p>","null","","","","","","","","","","","","","","","","","","","","","","",""
"","do_trial","136","649576","0.0-78.0-0.0","""event"",""trial"",""time""
""fullscreenenter"",""0"",""2242""
","
","
","""event"",""trial"",""time""
""fullscreenenter"",""0"",""2242""
","
","622.1000000014901","","","","","","","","49","0,0,0","0","highway","24","probe-179","0.5530188615959719","0.39027005066774734","0.24347504699878642","0","","","","","","","",""
"","html-keyboard-response","137","650580","0.0-78.0-1.0","""event"",""trial"",""time""
""fullscreenenter"",""0"",""2242""
","
","
","""event"",""trial"",""time""
""fullscreenenter"",""0"",""2242""
","
","null","<p></p>","null","","","","","","","","","","","","","","","","","","","","","","",""
"","do_trial","138","655517","0.0-79.0-0.0","""event"",""trial"",""time""
""fullscreenenter"",""0"",""2242""
","
","
","""event"",""trial"",""time""
""fullscreenenter"",""0"",""2242""
","
","386.4000000022352","","","","","","","","50","0,0,0","0","highway","25","probe-206","0.6475453007959712","0.2087214493136132","0.11959487037662772","0","","","","","","","",""
"","html-keyboard-response","139","656522","0.0-79.0-1.0","""event"",""trial"",""time""
""fullscreenenter"",""0"",""2242""
","
","
","""event"",""trial"",""time""
""fullscreenenter"",""0"",""2242""
","
","null","<p></p>","null","","","","","","","","","","","","","","","","","","","","","","",""
"","do_trial","140","661492","0.0-80.0-0.0","""event"",""trial"",""time""
""fullscreenenter"",""0"",""2242""
","
","
","""event"",""trial"",""time""
""fullscreenenter"",""0"",""2242""
","
","418.9000000022352","","","","","","","","50","1,0,0","0","highway","26","probe-34","0.6026282302730855","0.1789782792321633","0.08751036962879734","0","","","","","","","",""
"","html-keyboard-response","141","662497","0.0-80.0-1.0","""event"",""trial"",""time""
""fullscreenenter"",""0"",""2242""
","
","
","""event"",""trial"",""time""
""fullscreenenter"",""0"",""2242""
","
","null","<p></p>","null","","","","","","","","","","","","","","","","","","","","","","",""
"","do_trial","142","668674","0.0-81.0-0.0","""event"",""trial"",""time""
""fullscreenenter"",""0"",""2242""
","
","
","""event"",""trial"",""time""
""fullscreenenter"",""0"",""2242""
","
","1630.199999999255","","","","","","","","50","0,0,0","0","highway","27","probe-169","0.5596631661023836","0.08948734680623721","0.12786419626625592","0","","","","","","","",""
"","html-keyboard-response","143","669679","0.0-81.0-1.0","""event"",""trial"",""time""
""fullscreenenter"",""0"",""2242""
","
","
","""event"",""trial"",""time""
""fullscreenenter"",""0"",""2242""
","
","null","<p></p>","null","","","","","","","","","","","","","","","","","","","","","","",""
"","do_trial","144","675358","0.0-82.0-0.0","""event"",""trial"",""time""
""fullscreenenter"",""0"",""2242""
","
","
","""event"",""trial"",""time""
""fullscreenenter"",""0"",""2242""
","
","1128.8999999985099","","","","","","","","51","1,0,0","0","highway","28","probe-112","0.6198632806480309","0.10336621655962536","0.13260558432774358","0","","","","","","","",""
"","html-keyboard-response","145","676363","0.0-82.0-1.0","""event"",""trial"",""time""
""fullscreenenter"",""0"",""2242""
","
","
","""event"",""trial"",""time""
""fullscreenenter"",""0"",""2242""
","
","null","<p></p>","null","","","","","","","","","","","","","","","","","","","","","","",""
"","do_trial","146","681298","0.0-83.0-0.0","""event"",""trial"",""time""
""fullscreenenter"",""0"",""2242""
","
","
","""event"",""trial"",""time""
""fullscreenenter"",""0"",""2242""
","
","385.3999999985099","","","","","","","","50","1,0,0","0","highway","29","probe-15","0.6776166638911897","0.1526696064198364","0.10560642446382401","0","","","","","","","",""
"","html-keyboard-response","147","682302","0.0-83.0-1.0","""event"",""trial"",""time""
""fullscreenenter"",""0"",""2242""
","
","
","""event"",""trial"",""time""
""fullscreenenter"",""0"",""2242""
","
","null","<p></p>","null","","","","","","","","","","","","","","","","","","","","","","",""
"","do_bye","148","683813","0.0-84.0-0.0","""event"",""trial"",""time""
""fullscreenenter"",""0"",""2242""
","
","
","""event"",""trial"",""time""
""fullscreenenter"",""0"",""2242""
","
","null","","","","","","","","null","","","","","","","","","","","","","","","","",""
"","break","149","687551","0.0-84.0-1.0","""event"",""trial"",""time""
""fullscreenenter"",""0"",""2242""
","
","
","""event"",""trial"",""time""
""fullscreenenter"",""0"",""2242""
","
","3736.7000000029802","<div class='center'><p>Time to take a quick break! You have 2 minutes to rest, but you can move on sooner if you'd like.</p><p> Press the <b>space bar</b> to continue.</p></div>","32","","","","","","","","","","","","","","","","","","","","","","",""
"","do_travel","150","696560","0.0-85.0-0.0","""event"",""trial"",""time""
""fullscreenenter"",""0"",""2242""
","
","
","""event"",""trial"",""time""
""fullscreenenter"",""0"",""2242""
","
","null","","","","","","","","null","","","","","","","","","","","","","","","","",""
"","do_welcome","151","700571","0.0-85.0-1.0","""event"",""trial"",""time""
""fullscreenenter"",""0"",""2242""
","
","
","""event"",""trial"",""time""
""fullscreenenter"",""0"",""2242""
","
","null","","","","","","","","null","","","","","","","","","","","","","","","","",""
"","do_trial","152","707256","0.0-86.0-0.0","""event"",""trial"",""time""
""fullscreenenter"",""0"",""2242""
","
","
","""event"",""trial"",""time""
""fullscreenenter"",""0"",""2242""
","
","2133.599999997765","","","","","","","","50","1,0,0","1","mountain","30","probe-220","1","0.25606456540347233","0.15741373886911764","0","","","","","","","",""
"","html-keyboard-response","153","708261","0.0-86.0-1.0","""event"",""trial"",""time""
""fullscreenenter"",""0"",""2242""
","
","
","""event"",""trial"",""time""
""fullscreenenter"",""0"",""2242""
","
","null","<p></p>","null","","","","","","","","","","","","","","","","","","","","","","",""
"","do_trial","154","713389","0.0-87.0-0.0","""event"",""trial"",""time""
""fullscreenenter"",""0"",""2242""
","
","
","""event"",""trial"",""time""
""fullscreenenter"",""0"",""2242""
","
","580.7000000029802","","","","","","","","51","1,1,0","1","mountain","31","probe-167","1","0.3327205539495245","0.12166099027059268","0","","","","","","","",""
"","html-keyboard-response","155","714395","0.0-87.0-1.0","""event"",""trial"",""time""
""fullscreenenter"",""0"",""2242""
","
","
","""event"",""trial"",""time""
""fullscreenenter"",""0"",""2242""
","
","null","<p></p>","null","","","","","","","","","","","","","","","","","","","","","","",""
"","do_trial","156","719385","0.0-88.0-0.0","""event"",""trial"",""time""
""fullscreenenter"",""0"",""2242""
","
","
","""event"",""trial"",""time""
""fullscreenenter"",""0"",""2242""
","
","438.80000000074506","","","","","","","","49","1,1,0","1","mountain","32","probe-133","1","0.3631244079672717","0.10494542280286615","1","","","","","","","",""
"","html-keyboard-response","157","720390","0.0-88.0-1.0","""event"",""trial"",""time""
""fullscreenenter"",""0"",""2242""
","
","
","""event"",""trial"",""time""
""fullscreenenter"",""0"",""2242""
","
","null","<p></p>","null","","","","","","","","","","","","","","","","","","","","","","",""
"","do_trial","158","725327","0.0-89.0-0.0","""event"",""trial"",""time""
""fullscreenenter"",""0"",""2242""
","
","
","""event"",""trial"",""time""
""fullscreenenter"",""0"",""2242""
","
","389.9000000022352","","","","","","","","49","1,0,0","1","mountain","33","probe-80","0.9218920487748333","0.3538679810636372","0.10438558155208986","1","","","","","","","",""
"","html-keyboard-response","159","726332","0.0-89.0-1.0","""event"",""trial"",""time""
""fullscreenenter"",""0"",""2242""
","
","
","""event"",""trial"",""time""
""fullscreenenter"",""0"",""2242""
","
","null","<p></p>","null","","","","","","","","","","","","","","","","","","","","","","",""
"","do_trial","160","731418","0.0-90.0-0.0","""event"",""trial"",""time""
""fullscreenenter"",""0"",""2242""
","
","
","""event"",""trial"",""time""
""fullscreenenter"",""0"",""2242""
","
","534.7999999970198","","","","","","","","49","1,0,0","1","mountain","34","probe-59","0.8030348071554684","0.37752692263664467","0.10249869448736323","1","","","","","","","",""
"","html-keyboard-response","161","732423","0.0-90.0-1.0","""event"",""trial"",""time""
""fullscreenenter"",""0"",""2242""
","
","
","""event"",""trial"",""time""
""fullscreenenter"",""0"",""2242""
","
","null","<p></p>","null","","","","","","","","","","","","","","","","","","","","","","",""
"","do_trial","162","737479","0.0-91.0-0.0","""event"",""trial"",""time""
""fullscreenenter"",""0"",""2242""
","
","
","""event"",""trial"",""time""
""fullscreenenter"",""0"",""2242""
","
","508.8999999985099","","","","","","","","49","1,1,0","1","mountain","35","probe-19","0.6408378309605309","0.33771720542767797","0.06788620025255286","1","","","","","","","",""
"","html-keyboard-response","163","738480","0.0-91.0-1.0","""event"",""trial"",""time""
""fullscreenenter"",""0"",""2242""
","
","
","""event"",""trial"",""time""
""fullscreenenter"",""0"",""2242""
","
","null","<p></p>","null","","","","","","","","","","","","","","","","","","","","","","",""
"","do_trial","164","743610","0.0-92.0-0.0","""event"",""trial"",""time""
""fullscreenenter"",""0"",""2242""
","
","
","""event"",""trial"",""time""
""fullscreenenter"",""0"",""2242""
","
","567.1000000014901","","","","","","","","49","1,0,0","1","mountain","36","probe-222","0.7356286365015958","0.17653385273760777","0.0757054554258534","1","","","","","","","",""
"","html-keyboard-response","165","744612","0.0-92.0-1.0","""event"",""trial"",""time""
""fullscreenenter"",""0"",""2242""
","
","
","""event"",""trial"",""time""
""fullscreenenter"",""0"",""2242""
","
","null","<p></p>","null","","","","","","","","","","","","","","","","","","","","","","",""
"","do_trial","166","749527","0.0-93.0-0.0","""event"",""trial"",""time""
""fullscreenenter"",""0"",""2242""
","
","
","""event"",""trial"",""time""
""fullscreenenter"",""0"",""2242""
","
","368.19999999925494","","","","","","","","49","1,1,0","1","mountain","37","probe-89","0.7432221149026305","0.2992817146994653","0.19432206775233757","1","","","","","","","",""
"","html-keyboard-response","167","750532","0.0-93.0-1.0","""event"",""trial"",""time""
""fullscreenenter"",""0"",""2242""
","
","
","""event"",""trial"",""time""
""fullscreenenter"",""0"",""2242""
","
","null","<p></p>","null","","","","","","","","","","","","","","","","","","","","","","",""
"","do_trial","168","756585","0.0-94.0-0.0","""event"",""trial"",""time""
""fullscreenenter"",""0"",""2242""
","
","
","""event"",""trial"",""time""
""fullscreenenter"",""0"",""2242""
","
","null","","","","","","","","null","1,1,0","1","mountain","38","probe-168","0.8531399944765968","0.13349289293290753","0.3479511702067372","","","","","","","","",""
"","html-keyboard-response","169","757590","0.0-94.0-1.0","""event"",""trial"",""time""
""fullscreenenter"",""0"",""2242""
","
","
","""event"",""trial"",""time""
""fullscreenenter"",""0"",""2242""
","
","null","<p></p>","null","","","","","","","","","","","","","","","","","","","","","","",""
"","do_trial","170","763291","0.0-95.0-0.0","""event"",""trial"",""time""
""fullscreenenter"",""0"",""2242""
","
","
","""event"",""trial"",""time""
""fullscreenenter"",""0"",""2242""
","
","1152.699999999255","","","","","","","","50","1,0,0","1","mountain","39","probe-148","0.8094876079077882","0.3205214140485527","0.23707204733706821","0","","","","","","","",""
"","html-keyboard-response","171","764298","0.0-95.0-1.0","""event"",""trial"",""time""
""fullscreenenter"",""0"",""2242""
","
","
","""event"",""trial"",""time""
""fullscreenenter"",""0"",""2242""
","
","null","<p></p>","null","","","","","","","","","","","","","","","","","","","","","","",""
"","do_trial","172","769240","0.0-96.0-0.0","""event"",""trial"",""time""
""fullscreenenter"",""0"",""2242""
","
","
","""event"",""trial"",""time""
""fullscreenenter"",""0"",""2242""
","
","392.70000000298023","","","","","","","","49","1,0,0","1","mountain","40","probe-32","0.7968464585203361","0.3561056464052378","0.1691538824986463","1","","","","","","","",""
"","html-keyboard-response","173","770245","0.0-96.0-1.0","""event"",""trial"",""time""
""fullscreenenter"",""0"",""2242""
","
","
","""event"",""trial"",""time""
""fullscreenenter"",""0"",""2242""
","
","null","<p></p>","null","","","","","","","","","","","","","","","","","","","","","","",""
"","do_trial","174","775414","0.0-97.0-0.0","""event"",""trial"",""time""
""fullscreenenter"",""0"",""2242""
","
","
","""event"",""trial"",""time""
""fullscreenenter"",""0"",""2242""
","
","624.1000000014901","","","","","","","","49","0,0,0","1","mountain","41","probe-164","0.7033836483927725","0.24666455365968204","0.18879908939585732","0","","","","","","","",""
"","html-keyboard-response","175","776417","0.0-97.0-1.0","""event"",""trial"",""time""
""fullscreenenter"",""0"",""2242""
","
","
","""event"",""trial"",""time""
""fullscreenenter"",""0"",""2242""
","
","null","<p></p>","null","","","","","","","","","","","","","","","","","","","","","","",""
"","do_trial","176","781303","0.0-98.0-0.0","""event"",""trial"",""time""
""fullscreenenter"",""0"",""2242""
","
","
","""event"",""trial"",""time""
""fullscreenenter"",""0"",""2242""
","
","335.6000000014901","","","","","","","","51","1,1,0","1","mountain","42","probe-166","0.4857865416659007","0.3538563577436851","0.33008907372483165","0","","","","","","","",""
"","html-keyboard-response","177","782308","0.0-98.0-1.0","""event"",""trial"",""time""
""fullscreenenter"",""0"",""2242""
","
","
","""event"",""trial"",""time""
""fullscreenenter"",""0"",""2242""
","
","null","<p></p>","null","","","","","","","","","","","","","","","","","","","","","","",""
"","do_trial","178","787237","0.0-99.0-0.0","""event"",""trial"",""time""
""fullscreenenter"",""0"",""2242""
","
","
","""event"",""trial"",""time""
""fullscreenenter"",""0"",""2242""
","
","377.9000000022352","","","","","","","","50","0,1,0","1","mountain","43","probe-151","0.2449893781231127","0.4685325985958766","0.2238508693500674","1","","","","","","","",""
"","html-keyboard-response","179","788243","0.0-99.0-1.0","""event"",""trial"",""time""
""fullscreenenter"",""0"",""2242""
","
","
","""event"",""trial"",""time""
""fullscreenenter"",""0"",""2242""
","
","null","<p></p>","null","","","","","","","","","","","","","","","","","","","","","","",""
"","do_trial","180","793358","0.0-100.0-0.0","""event"",""trial"",""time""
""fullscreenenter"",""0"",""2242""
","
","
","""event"",""trial"",""time""
""fullscreenenter"",""0"",""2242""
","
","559.1000000014901","","","","","","","","50","0,0,0","1","mountain","44","probe-198","0.20374873557506298","0.5451665608463798","0.3710203193426091","0","","","","","","","",""
"","html-keyboard-response","181","794362","0.0-100.0-1.0","""event"",""trial"",""time""
""fullscreenenter"",""0"",""2242""
","
","
","""event"",""trial"",""time""
""fullscreenenter"",""0"",""2242""
","
","null","<p></p>","null","","","","","","","","","","","","","","","","","","","","","","",""
"","do_trial","182","799469","0.0-101.0-0.0","""event"",""trial"",""time""
""fullscreenenter"",""0"",""2242""
","
","
","""event"",""trial"",""time""
""fullscreenenter"",""0"",""2242""
","
","555.8000000007451","","","","","","","","50","0,1,0","1","mountain","45","probe-97","0.2005086301676937","0.5867165887870971","0.2715257140281175","1","","","","","","","",""
"","html-keyboard-response","183","800474","0.0-101.0-1.0","""event"",""trial"",""time""
""fullscreenenter"",""0"",""2242""
","
","
","""event"",""trial"",""time""
""fullscreenenter"",""0"",""2242""
","
","null","<p></p>","null","","","","","","","","","","","","","","","","","","","","","","",""
"","do_trial","184","805875","0.0-102.0-0.0","""event"",""trial"",""time""
""fullscreenenter"",""0"",""2242""
","
","
","""event"",""trial"",""time""
""fullscreenenter"",""0"",""2242""
","
","851.5","","","","","","","","50","0,1,0","1","mountain","46","probe-211","0.18376309030300125","0.6027040976278835","0.20357784588141864","1","","","","","","","",""
"","html-keyboard-response","185","806880","0.0-102.0-1.0","""event"",""trial"",""time""
""fullscreenenter"",""0"",""2242""
","
","
","""event"",""trial"",""time""
""fullscreenenter"",""0"",""2242""
","
","null","<p></p>","null","","","","","","","","","","","","","","","","","","","","","","",""
"","do_trial","186","811922","0.0-103.0-0.0","""event"",""trial"",""time""
""fullscreenenter"",""0"",""2242""
","
","
","""event"",""trial"",""time""
""fullscreenenter"",""0"",""2242""
","
","493.69999999925494","","","","","","","","50","0,1,0","1","mountain","47","probe-157","0.16426567226389796","0.6735672103224178","0.38511594603623467","1","","","","","","","",""
"","html-keyboard-response","187","812927","0.0-103.0-1.0","""event"",""trial"",""time""
""fullscreenenter"",""0"",""2242""
","
","
","""event"",""trial"",""time""
""fullscreenenter"",""0"",""2242""
","
","null","<p></p>","null","","","","","","","","","","","","","","","","","","","","","","",""
"","do_trial","188","817916","0.0-104.0-0.0","""event"",""trial"",""time""
""fullscreenenter"",""0"",""2242""
","
","
","""event"",""trial"",""time""
""fullscreenenter"",""0"",""2242""
","
","438.5","","","","","","","","50","0,0,0","1","mountain","48","probe-193","0.18084867081920844","0.7203045888627874","0.33197830407191176","0","","","","","","","",""
"","html-keyboard-response","189","818921","0.0-104.0-1.0","""event"",""trial"",""time""
""fullscreenenter"",""0"",""2242""
","
","
","""event"",""trial"",""time""
""fullscreenenter"",""0"",""2242""
","
","null","<p></p>","null","","","","","","","","","","","","","","","","","","","","","","",""
"","do_trial","190","824059","0.0-105.0-0.0","""event"",""trial"",""time""
""fullscreenenter"",""0"",""2242""
","
","
","""event"",""trial"",""time""
""fullscreenenter"",""0"",""2242""
","
","587.1999999992549","","","","","","","","51","0,1,0","1","mountain","49","probe-171","0.18964414803007365","0.6755703177949813","0.43452428755166217","0","","","","","","","",""
"","html-keyboard-response","191","825064","0.0-105.0-1.0","""event"",""trial"",""time""
""fullscreenenter"",""0"",""2242""
","
","
","""event"",""trial"",""time""
""fullscreenenter"",""0"",""2242""
","
","null","<p></p>","null","","","","","","","","","","","","","","","","","","","","","","",""
"","do_trial","192","830058","0.0-106.0-0.0","""event"",""trial"",""time""
""fullscreenenter"",""0"",""2242""
","
","
","""event"",""trial"",""time""
""fullscreenenter"",""0"",""2242""
","
","443","","","","","","","","49","1,0,0","1","mountain","50","probe-47","0.1450354910528069","0.6747812234480586","0.3284277870252743","1","","","","","","","",""
"","html-keyboard-response","193","831063","0.0-106.0-1.0","""event"",""trial"",""time""
""fullscreenenter"",""0"",""2242""
","
","
","""event"",""trial"",""time""
""fullscreenenter"",""0"",""2242""
","
","null","<p></p>","null","","","","","","","","","","","","","","","","","","","","","","",""
"","do_trial","194","836054","0.0-107.0-0.0","""event"",""trial"",""time""
""fullscreenenter"",""0"",""2242""
","
","
","""event"",""trial"",""time""
""fullscreenenter"",""0"",""2242""
","
","439.3999999985099","","","","","","","","50","0,0,0","1","mountain","51","probe-01","0.08631081568569077","0.7867568713471521","0.3037196190033149","0","","","","","","","",""
"","html-keyboard-response","195","837058","0.0-107.0-1.0","""event"",""trial"",""time""
""fullscreenenter"",""0"",""2242""
","
","
","""event"",""trial"",""time""
""fullscreenenter"",""0"",""2242""
","
","null","<p></p>","null","","","","","","","","","","","","","","","","","","","","","","",""
"","do_trial","196","842222","0.0-108.0-0.0","""event"",""trial"",""time""
""fullscreenenter"",""0"",""2242""
","
","
","""event"",""trial"",""time""
""fullscreenenter"",""0"",""2242""
","
","613","","","","","","","","49","0,1,0","1","mountain","52","probe-224","0.1301202746099032","0.6004095600541741","0.2391802076123026","0","","","","","","","",""
"","html-keyboard-response","197","843226","0.0-108.0-1.0","""event"",""trial"",""time""
""fullscreenenter"",""0"",""2242""
","
","
","""event"",""trial"",""time""
""fullscreenenter"",""0"",""2242""
","
","null","<p></p>","null","","","","","","","","","","","","","","","","","","","","","","",""
"","do_trial","198","848170","0.0-109.0-0.0","""event"",""trial"",""time""
""fullscreenenter"",""0"",""2242""
","
","
","""event"",""trial"",""time""
""fullscreenenter"",""0"",""2242""
","
","393.5999999977648","","","","","","","","50","0,1,1","1","mountain","53","probe-99","0.1408880550642427","0.545993938536138","0.28989566644629017","1","","","","","","","",""
"","html-keyboard-response","199","849174","0.0-109.0-1.0","""event"",""trial"",""time""
""fullscreenenter"",""0"",""2242""
","
","
","""event"",""trial"",""time""
""fullscreenenter"",""0"",""2242""
","
","null","<p></p>","null","","","","","","","","","","","","","","","","","","","","","","",""
"","do_trial","200","854380","0.0-110.0-0.0","""event"",""trial"",""time""
""fullscreenenter"",""0"",""2242""
","
","
","""event"",""trial"",""time""
""fullscreenenter"",""0"",""2242""
","
","654.6000000014901","","","","","","","","51","0,1,0","1","mountain","54","probe-175","0.11059969878413997","0.6118523330941485","0.26469434527486685","0","","","","","","","",""
"","html-keyboard-response","201","855384","0.0-110.0-1.0","""event"",""trial"",""time""
""fullscreenenter"",""0"",""2242""
","
","
","""event"",""trial"",""time""
""fullscreenenter"",""0"",""2242""
","
","null","<p></p>","null","","","","","","","","","","","","","","","","","","","","","","",""
"","do_trial","202","860237","0.0-111.0-0.0","""event"",""trial"",""time""
""fullscreenenter"",""0"",""2242""
","
","
","""event"",""trial"",""time""
""fullscreenenter"",""0"",""2242""
","
","301.6000000014901","","","","","","","","50","0,1,0","1","mountain","55","probe-152","0.13142356704961913","0.606045245572887","0.26071270730030277","1","","","","","","","",""
"","html-keyboard-response","203","861242","0.0-111.0-1.0","""event"",""trial"",""time""
""fullscreenenter"",""0"",""2242""
","
","
","""event"",""trial"",""time""
""fullscreenenter"",""0"",""2242""
","
","null","<p></p>","null","","","","","","","","","","","","","","","","","","","","","","",""
"","do_trial","204","866222","0.0-112.0-0.0","""event"",""trial"",""time""
""fullscreenenter"",""0"",""2242""
","
","
","""event"",""trial"",""time""
""fullscreenenter"",""0"",""2242""
","
","429.6000000014901","","","","","","","","50","1,1,0","1","mountain","56","probe-173","0.16238101700587904","0.6493525407891717","0.05802067258378475","1","","","","","","","",""
"","html-keyboard-response","205","867227","0.0-112.0-1.0","""event"",""trial"",""time""
""fullscreenenter"",""0"",""2242""
","
","
","""event"",""trial"",""time""
""fullscreenenter"",""0"",""2242""
","
","null","<p></p>","null","","","","","","","","","","","","","","","","","","","","","","",""
"","do_trial","206","872231","0.0-113.0-0.0","""event"",""trial"",""time""
""fullscreenenter"",""0"",""2242""
","
","
","""event"",""trial"",""time""
""fullscreenenter"",""0"",""2242""
","
","452.80000000074506","","","","","","","","50","0,0,0","1","mountain","57","probe-07","0.21799028004111","0.7363592629253093","0.13548388410292403","0","","","","","","","",""
"","html-keyboard-response","207","873236","0.0-113.0-1.0","""event"",""trial"",""time""
""fullscreenenter"",""0"",""2242""
","
","
","""event"",""trial"",""time""
""fullscreenenter"",""0"",""2242""
","
","null","<p></p>","null","","","","","","","","","","","","","","","","","","","","","","",""
"","do_trial","208","878352","0.0-114.0-0.0","""event"",""trial"",""time""
""fullscreenenter"",""0"",""2242""
","
","
","""event"",""trial"",""time""
""fullscreenenter"",""0"",""2242""
","
","565.6999999992549","","","","","","","","50","0,0,1","1","mountain","58","probe-186","0.06842270181475987","0.5928731210818315","0.054339600688819656","0","","","","","","","",""
"","html-keyboard-response","209","879357","0.0-114.0-1.0","""event"",""trial"",""time""
""fullscreenenter"",""0"",""2242""
","
","
","""event"",""trial"",""time""
""fullscreenenter"",""0"",""2242""
","
","null","<p></p>","null","","","","","","","","","","","","","","","","","","","","","","",""
"","do_trial","210","884241","0.0-115.0-0.0","""event"",""trial"",""time""
""fullscreenenter"",""0"",""2242""
","
","
","""event"",""trial"",""time""
""fullscreenenter"",""0"",""2242""
","
","336.30000000074506","","","","","","","","51","0,1,0","1","mountain","59","probe-132","0.093180951081139","0.5971555392840668","0.19222631418496622","0","","","","","","","",""
"","html-keyboard-response","211","885242","0.0-115.0-1.0","""event"",""trial"",""time""
""fullscreenenter"",""0"",""2242""
","
","
","""event"",""trial"",""time""
""fullscreenenter"",""0"",""2242""
","
","null","<p></p>","null","","","","","","","","","","","","","","","","","","","","","","",""
"","do_trial","212","890173","0.0-116.0-0.0","""event"",""trial"",""time""
""fullscreenenter"",""0"",""2242""
","
","
","""event"",""trial"",""time""
""fullscreenenter"",""0"",""2242""
","
","379","","","","","","","","49","0,1,0","1","mountain","60","probe-57","0.11011235051730052","0.7021740036785721","0.11548011914433691","0","","","","","","","",""
"","html-keyboard-response","213","891177","0.0-116.0-1.0","""event"",""trial"",""time""
""fullscreenenter"",""0"",""2242""
","
","
","""event"",""trial"",""time""
""fullscreenenter"",""0"",""2242""
","
","null","<p></p>","null","","","","","","","","","","","","","","","","","","","","","","",""
"","do_trial","214","896059","0.0-117.0-0.0","""event"",""trial"",""time""
""fullscreenenter"",""0"",""2242""
","
","
","""event"",""trial"",""time""
""fullscreenenter"",""0"",""2242""
","
","330.69999999925494","","","","","","","","51","0,1,0","1","mountain","61","probe-84","0.0877441494250233","0.44279117107403276","0.14813453488291065","0","","","","","","","",""
"","html-keyboard-response","215","897063","0.0-117.0-1.0","""event"",""trial"",""time""
""fullscreenenter"",""0"",""2242""
","
","
","""event"",""trial"",""time""
""fullscreenenter"",""0"",""2242""
","
","null","<p></p>","null","","","","","","","","","","","","","","","","","","","","","","",""
"","do_trial","216","901980","0.0-118.0-0.0","""event"",""trial"",""time""
""fullscreenenter"",""0"",""2242""
","
","
","""event"",""trial"",""time""
""fullscreenenter"",""0"",""2242""
","
","366.1000000014901","","","","","","","","49","0,1,0","1","mountain","62","probe-145","0.07692664988665414","0.6125600999371257","0.21983476224939316","0","","","","","","","",""
"","html-keyboard-response","217","902985","0.0-118.0-1.0","""event"",""trial"",""time""
""fullscreenenter"",""0"",""2242""
","
","
","""event"",""trial"",""time""
""fullscreenenter"",""0"",""2242""
","
","null","<p></p>","null","","","","","","","","","","","","","","","","","","","","","","",""
"","do_trial","218","908103","0.0-119.0-0.0","""event"",""trial"",""time""
""fullscreenenter"",""0"",""2242""
","
","
","""event"",""trial"",""time""
""fullscreenenter"",""0"",""2242""
","
","567.1999999992549","","","","","","","","50","0,0,0","1","mountain","63","probe-118","0.09103982027739616","0.5925577191043533","0.24799406201190224","0","","","","","","","",""
"","html-keyboard-response","219","909108","0.0-119.0-1.0","""event"",""trial"",""time""
""fullscreenenter"",""0"",""2242""
","
","
","""event"",""trial"",""time""
""fullscreenenter"",""0"",""2242""
","
","null","<p></p>","null","","","","","","","","","","","","","","","","","","","","","","",""
"","do_trial","220","914018","0.0-120.0-0.0","""event"",""trial"",""time""
""fullscreenenter"",""0"",""2242""
","
","
","""event"",""trial"",""time""
""fullscreenenter"",""0"",""2242""
","
","359.9000000022352","","","","","","","","49","0,1,1","1","mountain","64","probe-229","0.10563572752862285","0.6499214065885868","0.1713294996325014","0","","","","","","","",""
"","html-keyboard-response","221","915023","0.0-120.0-1.0","""event"",""trial"",""time""
""fullscreenenter"",""0"",""2242""
","
","
","""event"",""trial"",""time""
""fullscreenenter"",""0"",""2242""
","
","null","<p></p>","null","","","","","","","","","","","","","","","","","","","","","","",""
"","do_trial","222","919896","0.0-121.0-0.0","""event"",""trial"",""time""
""fullscreenenter"",""0"",""2242""
","
","
","""event"",""trial"",""time""
""fullscreenenter"",""0"",""2242""
","
","323.5","","","","","","","","50","1,1,0","1","mountain","65","probe-141","0.08988479157918672","0.7395471005330941","0.17992291247763542","1","","","","","","","",""
"","html-keyboard-response","223","920901","0.0-121.0-1.0","""event"",""trial"",""time""
""fullscreenenter"",""0"",""2242""
","
","
","""event"",""trial"",""time""
""fullscreenenter"",""0"",""2242""
","
","null","<p></p>","null","","","","","","","","","","","","","","","","","","","","","","",""
"","do_trial","224","926064","0.0-122.0-0.0","""event"",""trial"",""time""
""fullscreenenter"",""0"",""2242""
","
","
","""event"",""trial"",""time""
""fullscreenenter"",""0"",""2242""
","
","615.1999999992549","","","","","","","","50","0,0,1","1","mountain","66","probe-188","0.05771326340246682","0.6129073139968115","0.05786013834869468","0","","","","","","","",""
"","html-keyboard-response","225","927068","0.0-122.0-1.0","""event"",""trial"",""time""
""fullscreenenter"",""0"",""2242""
","
","
","""event"",""trial"",""time""
""fullscreenenter"",""0"",""2242""
","
","null","<p></p>","null","","","","","","","","","","","","","","","","","","","","","","",""
"","do_trial","226","932263","0.0-123.0-0.0","""event"",""trial"",""time""
""fullscreenenter"",""0"",""2242""
","
","
","""event"",""trial"",""time""
""fullscreenenter"",""0"",""2242""
","
","644.5","","","","","","","","51","0,1,0","1","mountain","67","probe-119","0.05969862155169453","0.5034931992644893","0.1049974589700081","0","","","","","","","",""
"","html-keyboard-response","227","933268","0.0-123.0-1.0","""event"",""trial"",""time""
""fullscreenenter"",""0"",""2242""
","
","
","""event"",""trial"",""time""
""fullscreenenter"",""0"",""2242""
","
","null","<p></p>","null","","","","","","","","","","","","","","","","","","","","","","",""
"","do_trial","228","938609","0.0-124.0-0.0","""event"",""trial"",""time""
""fullscreenenter"",""0"",""2242""
","
","
","""event"",""trial"",""time""
""fullscreenenter"",""0"",""2242""
","
","789.6999999992549","","","","","","","","50","0,1,0","1","mountain","68","probe-187","0.0730349266850573","0.585651351091527","0.36778418642070343","1","","","","","","","",""
"","html-keyboard-response","229","939613","0.0-124.0-1.0","""event"",""trial"",""time""
""fullscreenenter"",""0"",""2242""
","
","
","""event"",""trial"",""time""
""fullscreenenter"",""0"",""2242""
","
","null","<p></p>","null","","","","","","","","","","","","","","","","","","","","","","",""
"","do_trial","230","944736","0.0-125.0-0.0","""event"",""trial"",""time""
""fullscreenenter"",""0"",""2242""
","
","
","""event"",""trial"",""time""
""fullscreenenter"",""0"",""2242""
","
","571.2000000029802","","","","","","","","49","0,0,0","1","mountain","69","probe-60","0.13843113803136992","0.530617468761764","0.389921214837128","0","","","","","","","",""
"","html-keyboard-response","231","945741","0.0-125.0-1.0","""event"",""trial"",""time""
""fullscreenenter"",""0"",""2242""
","
","
","""event"",""trial"",""time""
""fullscreenenter"",""0"",""2242""
","
","null","<p></p>","null","","","","","","","","","","","","","","","","","","","","","","",""
"","do_bye","232","947251","0.0-126.0-0.0","""event"",""trial"",""time""
""fullscreenenter"",""0"",""2242""
","
","
","""event"",""trial"",""time""
""fullscreenenter"",""0"",""2242""
","
","null","","","","","","","","null","","","","","","","","","","","","","","","","",""
"","break","233","1067261","0.0-126.0-1.0","""event"",""trial"",""time""
""fullscreenenter"",""0"",""2242""
","
","
","""event"",""trial"",""time""
""fullscreenenter"",""0"",""2242""
","
","null","<div class='center'><p>Time to take a quick break! You have 2 minutes to rest, but you can move on sooner if you'd like.</p><p> Press the <b>space bar</b> to continue.</p></div>","null","","","","","","","","","","","","","","","","","","","","","","",""
"","do_travel","234","1076267","0.0-127.0-0.0","""event"",""trial"",""time""
""fullscreenenter"",""0"",""2242""
","
","
","""event"",""trial"",""time""
""fullscreenenter"",""0"",""2242""
","
","null","","","","","","","","null","","","","","","","","","","","","","","","","",""
"","do_welcome","235","1080278","0.0-127.0-1.0","""event"",""trial"",""time""
""fullscreenenter"",""0"",""2242""
","
","
","""event"",""trial"",""time""
""fullscreenenter"",""0"",""2242""
","
","null","","","","","","","","null","","","","","","","","","","","","","","","","",""
"","do_trial","236","1086335","0.0-128.0-0.0","""event"",""trial"",""time""
""fullscreenenter"",""0"",""2242""
","
","
","""event"",""trial"",""time""
""fullscreenenter"",""0"",""2242""
","
","null","","","","","","","","null","0,1,1","2","countryside","70","probe-26","0.1024097840974497","1","0.3854085340176554","","","","","","","","",""
"","html-keyboard-response","237","1087337","0.0-128.0-1.0","""event"",""trial"",""time""
""fullscreenenter"",""0"",""2242""
","
","
","""event"",""trial"",""time""
""fullscreenenter"",""0"",""2242""
","
","null","<p></p>","null","","","","","","","","","","","","","","","","","","","","","","",""
"","do_trial","238","1092417","0.0-129.0-0.0","""event"",""trial"",""time""
""fullscreenenter"",""0"",""2242""
","
","
","""event"",""trial"",""time""
""fullscreenenter"",""0"",""2242""
","
","531.5","","","","","","","","49","0,1,1","2","countryside","71","probe-134","0.05920385503685536","1","0.5078203408118261","0","","","","","","","",""
"","html-keyboard-response","239","1093421","0.0-129.0-1.0","""event"",""trial"",""time""
""fullscreenenter"",""0"",""2242""
","
","
","""event"",""trial"",""time""
""fullscreenenter"",""0"",""2242""
","
","null","<p></p>","null","","","","","","","","","","","","","","","","","","","","","","",""
"","do_trial","240","1098607","0.0-130.0-0.0","""event"",""trial"",""time""
""fullscreenenter"",""0"",""2242""
","
","
","""event"",""trial"",""time""
""fullscreenenter"",""0"",""2242""
","
","634.8999999985099","","","","","","","","51","0,1,1","2","countryside","72","probe-66","0.12578501846207335","0.8273929159365214","0.4186072466370132","1","","","","","","","",""
"","html-keyboard-response","241","1099614","0.0-130.0-1.0","""event"",""trial"",""time""
""fullscreenenter"",""0"",""2242""
","
","
","""event"",""trial"",""time""
""fullscreenenter"",""0"",""2242""
","
","null","<p></p>","null","","","","","","","","","","","","","","","","","","","","","","",""
"","do_trial","242","1104684","0.0-131.0-0.0","""event"",""trial"",""time""
""fullscreenenter"",""0"",""2242""
","
","
","""event"",""trial"",""time""
""fullscreenenter"",""0"",""2242""
","
","518.8999999985099","","","","","","","","51","0,0,1","2","countryside","73","probe-65","0.10946436814680245","0.6783745866848784","0.37326920939594693","1","","","","","","","",""
"","html-keyboard-response","243","1105688","0.0-131.0-1.0","""event"",""trial"",""time""
""fullscreenenter"",""0"",""2242""
","
","
","""event"",""trial"",""time""
""fullscreenenter"",""0"",""2242""
","
","null","<p></p>","null","","","","","","","","","","","","","","","","","","","","","","",""
"","do_trial","244","1110760","0.0-132.0-0.0","""event"",""trial"",""time""
""fullscreenenter"",""0"",""2242""
","
","
","""event"",""trial"",""time""
""fullscreenenter"",""0"",""2242""
","
","520.1999999992549","","","","","","","","51","0,1,0","2","countryside","74","probe-100","0.2171734811968924","0.8326320150532344","0.27314185278179975","0","","","","","","","",""
"","html-keyboard-response","245","1111765","0.0-132.0-1.0","""event"",""trial"",""time""
""fullscreenenter"",""0"",""2242""
","
","
","""event"",""trial"",""time""
""fullscreenenter"",""0"",""2242""
","
","null","<p></p>","null","","","","","","","","","","","","","","","","","","","","","","",""
"","do_trial","246","1117378","0.0-133.0-0.0","""event"",""trial"",""time""
""fullscreenenter"",""0"",""2242""
","
","
","""event"",""trial"",""time""
""fullscreenenter"",""0"",""2242""
","
","1062","","","","","","","","50","0,1,0","2","countryside","75","probe-86","0.10175841643906491","0.866858493163318","0.3136245415789792","1","","","","","","","",""
"","html-keyboard-response","247","1118383","0.0-133.0-1.0","""event"",""trial"",""time""
""fullscreenenter"",""0"",""2242""
","
","
","""event"",""trial"",""time""
""fullscreenenter"",""0"",""2242""
","
","null","<p></p>","null","","","","","","","","","","","","","","","","","","","","","","",""
"","do_trial","248","1123529","0.0-134.0-0.0","""event"",""trial"",""time""
""fullscreenenter"",""0"",""2242""
","
","
","""event"",""trial"",""time""
""fullscreenenter"",""0"",""2242""
","
","593.8999999985099","","","","","","","","50","0,1,0","2","countryside","76","probe-53","0.05338023344736262","0.8769336636892706","0.3307804997398234","1","","","","","","","",""
"","html-keyboard-response","249","1124533","0.0-134.0-1.0","""event"",""trial"",""time""
""fullscreenenter"",""0"",""2242""
","
","
","""event"",""trial"",""time""
""fullscreenenter"",""0"",""2242""
","
","null","<p></p>","null","","","","","","","","","","","","","","","","","","","","","","",""
"","do_trial","250","1130298","0.0-135.0-0.0","""event"",""trial"",""time""
""fullscreenenter"",""0"",""2242""
","
","
","""event"",""trial"",""time""
""fullscreenenter"",""0"",""2242""
","
","1213.5999999977648","","","","","","","","50","1,0,0","2","countryside","77","probe-70","0.07342944314605956","0.7498624702047829","0.4175769743862445","0","","","","","","","",""
"","html-keyboard-response","251","1131303","0.0-135.0-1.0","""event"",""trial"",""time""
""fullscreenenter"",""0"",""2242""
","
","
","""event"",""trial"",""time""
""fullscreenenter"",""0"",""2242""
","
","null","<p></p>","null","","","","","","","","","","","","","","","","","","","","","","",""
"","do_trial","252","1136207","0.0-136.0-0.0","""event"",""trial"",""time""
""fullscreenenter"",""0"",""2242""
","
","
","""event"",""trial"",""time""
""fullscreenenter"",""0"",""2242""
","
","356.69999999925494","","","","","","","","49","0,1,1","2","countryside","78","probe-11","0.12161849163239687","0.8365288181681625","0.32463219388631487","0","","","","","","","",""
"","html-keyboard-response","253","1137212","0.0-136.0-1.0","""event"",""trial"",""time""
""fullscreenenter"",""0"",""2242""
","
","
","""event"",""trial"",""time""
""fullscreenenter"",""0"",""2242""
","
","null","<p></p>","null","","","","","","","","","","","","","","","","","","","","","","",""
"","do_trial","254","1142732","0.0-137.0-0.0","""event"",""trial"",""time""
""fullscreenenter"",""0"",""2242""
","
","
","""event"",""trial"",""time""
""fullscreenenter"",""0"",""2242""
","
","967.5","","","","","","","","49","0,1,0","2","countryside","79","probe-146","0.16748434017951155","0.9431427667394238","0.33670910988738234","0","","","","","","","",""
"","html-keyboard-response","255","1143737","0.0-137.0-1.0","""event"",""trial"",""time""
""fullscreenenter"",""0"",""2242""
","
","
","""event"",""trial"",""time""
""fullscreenenter"",""0"",""2242""
","
","null","<p></p>","null","","","","","","","","","","","","","","","","","","","","","","",""
"","do_trial","256","1148615","0.0-138.0-0.0","""event"",""trial"",""time""
""fullscreenenter"",""0"",""2242""
","
","
","""event"",""trial"",""time""
""fullscreenenter"",""0"",""2242""
","
","326.80000000074506","","","","","","","","51","0,1,0","2","countryside","80","probe-108","0.2219917420850382","0.857621837024702","0.3418064636307575","0","","","","","","","",""
"","html-keyboard-response","257","1149618","0.0-138.0-1.0","""event"",""trial"",""time""
""fullscreenenter"",""0"",""2242""
","
","
","""event"",""trial"",""time""
""fullscreenenter"",""0"",""2242""
","
","null","<p></p>","null","","","","","","","","","","","","","","","","","","","","","","",""
"","do_trial","258","1154585","0.0-139.0-0.0","""event"",""trial"",""time""
""fullscreenenter"",""0"",""2242""
","
","
","""event"",""trial"",""time""
""fullscreenenter"",""0"",""2242""
","
","416.5","","","","","","","","50","0,1,0","2","countryside","81","probe-215","0.25177044219129174","0.9101986901255427","0.2934695847213072","1","","","","","","","",""
"","html-keyboard-response","259","1155590","0.0-139.0-1.0","""event"",""trial"",""time""
""fullscreenenter"",""0"",""2242""
","
","
","""event"",""trial"",""time""
""fullscreenenter"",""0"",""2242""
","
","null","<p></p>","null","","","","","","","","","","","","","","","","","","","","","","",""
"","do_trial","260","1160921","0.0-140.0-0.0","""event"",""trial"",""time""
""fullscreenenter"",""0"",""2242""
","
","
","""event"",""trial"",""time""
""fullscreenenter"",""0"",""2242""
","
","780.1000000014901","","","","","","","","50","1,1,1","2","countryside","82","probe-203","0.47029205614742","0.7185411604218802","0.2235970392033035","1","","","","","","","",""
"","html-keyboard-response","261","1161927","0.0-140.0-1.0","""event"",""trial"",""time""
""fullscreenenter"",""0"",""2242""
","
","
