"success","trial_type","trial_index","time_elapsed","internal_node_id","interactions","blur_events","focus_events","fullscreenenter_events","fullscreenexit_events","rt","stimulus","key_press","subject_id","participant_id","age","gender","prompt","response","choice_outcomes","context_n","context_img_id","trial_n","probe_img_id","pR_red","pR_white","pR_black","outcome","contextArray_ind","validImageProbes","invalidImageProbes","pRew_Red","pRew_White","pRew_Black","availableForMemProbe","choice_blocks"
"true","fullscreen","0","8526","0.0-0.0","""event"",""trial"",""time""
""fullscreenenter"",""0"",""7537""
","
","
","""event"",""trial"",""time""
""fullscreenenter"",""0"",""7537""
","
","","","","","","","","","","","","","","","","","","","","","","","","","",""
"","pavlovia","1","8528","0.0-1.0","""event"",""trial"",""time""
""fullscreenenter"",""0"",""7537""
","
","
","""event"",""trial"",""time""
""fullscreenenter"",""0"",""7537""
","
","","","","","","","","","","","","","","","","","","","","","","","","","",""
"","instruc1","2","53661","0.0-2.0","""event"",""trial"",""time""
""fullscreenenter"",""0"",""7537""
","
","
","""event"",""trial"",""time""
""fullscreenenter"",""0"",""7537""
","
","null","run_exp/static/audio/clip_1_welcome.m4a","null","1295","1302","15","Male","<div class='center'><p>Welcome! This is the first part of the study. It will last ~30 minutes. In part 1 and part 2 of the study, you are the head captain of a pirate ship traveling around the world to different islands. You will play a few different games throughout these two parts. Here is an overview of them:</p><br><p>Part 1 (today)</p><p>1. Instructions, practice game, and quiz</p><p>2. Pick a pirate game on 6 different islands</p><br><p>Part 2 (tomorrow)</p><p>3. Pick a pirate game and memory game</p><p>4. Where did you see this ship? </p></div>","","","","","","","","","","","","","","","","","",""
"","html-keyboard-response","3","54584","0.0-3.0","""event"",""trial"",""time""
""fullscreenenter"",""0"",""7537""
","
","
","""event"",""trial"",""time""
""fullscreenenter"",""0"",""7537""
","
","922.7000000000698","<div class='center'><p>Welcome! This is the first part of the study. It will last ~30 minutes. In part 1 and part 2 of the study, you are the head captain of a pirate ship traveling around the world to different islands. You will play a few different games throughout these two parts. Here is an overview of them:</p><br><p>Part 1 (today)</p><p>1. Instructions, practice game, and quiz</p><p>2. Pick a pirate game on 6 different islands</p><br><p>Part 2 (tomorrow)</p><p>3. Pick a pirate game and memory game</p><p>4. Where did you see this ship? </p><p><b>[Press the space bar to continue]</b></p></div>","32","","","","","","","","","","","","","","","","","","","","","","",""
"","instruc2","4","59881","0.0-4.0","""event"",""trial"",""time""
""fullscreenenter"",""0"",""7537""
","
","
","""event"",""trial"",""time""
""fullscreenenter"",""0"",""7537""
","
","null","run_exp/static/audio/clip_2_different_places.m4a","null","","","","","<div class='center'><p>Today, you’ll visit these 6 islands on your journey. You'll be able to see these islands from your ship.</p><p><img src='run_exp/static/images/contexts/all_contexts.png' height='500'></p></div>","","","","","","","","","","","","","","","","","",""
"","html-keyboard-response","5","62534","0.0-5.0","""event"",""trial"",""time""
""fullscreenenter"",""0"",""7537""
","
","
","""event"",""trial"",""time""
""fullscreenenter"",""0"",""7537""
","
","2652.1999999999534","<div class='center'><p>Today, you’ll visit these 6 islands on your journey. You'll be able to see these islands from your ship.</p><p><img src='run_exp/static/images/contexts/all_contexts.png' height='500'></p><p><b>[Press the space bar to continue]</b></p></div>","32","","","","","","","","","","","","","","","","","","","","","","",""
"","instruc3","6","72221","0.0-6.0","""event"",""trial"",""time""
""fullscreenenter"",""0"",""7537""
","
","
","""event"",""trial"",""time""
""fullscreenenter"",""0"",""7537""
","
","null","run_exp/static/audio/clip_3_goal_of_game_1.m4a","null","","","","","<div class='center'><p> The pirates on your ship will rob other ships as they leave the island.</p> These ships have just sold their goods to the islanders, so they will be filled with lots and lots of gold.</p><p><img src='run_exp/static/images/tutorial/ship_center.png' height='400'></p></div>","","","","","","","","","","","","","","","","","",""
"","html-keyboard-response","7","73332","0.0-7.0","""event"",""trial"",""time""
""fullscreenenter"",""0"",""7537""
","
","
","""event"",""trial"",""time""
""fullscreenenter"",""0"",""7537""
","
","1110.3000000000466","<div class='center'><p> The pirates on your ship will rob other ships as they leave the island.</p> These ships have just sold their goods to the islanders, so they will be filled with lots and lots of gold.</p><p><img src='run_exp/static/images/tutorial/ship_center.png' height='400'></p><p><b>[Press the space bar to continue]</b></p></div>","32","","","","","","","","","","","","","","","","","","","","","","",""
"","instruc4","8","101321","0.0-8.0","""event"",""trial"",""time""
""fullscreenenter"",""0"",""7537""
","
","
","""event"",""trial"",""time""
""fullscreenenter"",""0"",""7537""
","
","null","run_exp/static/audio/clip_4_goal_of_game_2.m4a","null","","","","","<div class='center'><p>As the head captain, you do not have to rob any ships yourself. Another pirate will be doing the robbing for you. First, you will choose a pirate to rob the next ship.</p><p><img src='run_exp/static/images/tutorial/pirates_all_crop.png' height='200'></p><p>Then, you'll see if the pirate successfully robbed the ship of their gold. If they were successful, then you'll get a stack of gold coins like this:</p><p><img src='run_exp/static/images/tutorial/reward.png' height='150'></p><p> If they were <b>not</b> successful, then you'll get no gold coins, and you'll see a big red x like this: </p><p><img src='run_exp/static/images/tutorial/reward_no.png' height='150'></p><p> How much bonus money you make is based on how many gold coins you collect.</p><div>","","","","","","","","","","","","","","","","","",""
"","html-keyboard-response","9","129169","0.0-9.0","""event"",""trial"",""time""
""fullscreenenter"",""0"",""7537""
","
","
","""event"",""trial"",""time""
""fullscreenenter"",""0"",""7537""
","
","27847.800000000047","<div class='center'><p>As the head captain, you do not have to rob any ships yourself. Another pirate will be doing the robbing for you. First, you will choose a pirate to rob the next ship.</p><p><img src='run_exp/static/images/tutorial/pirates_all_crop.png' height='200'></p><p>Then, you'll see if the pirate successfully robbed the ship of their gold. If they were successful, then you'll get a stack of gold coins like this:</p><p><img src='run_exp/static/images/tutorial/reward.png' height='150'></p><p> If they were <b>not</b> successful, then you'll get no gold coins, and you'll see a big red x like this: </p><p><img src='run_exp/static/images/tutorial/reward_no.png' height='150'></p><p> How much bonus money you make is based on how many gold coins you collect.</p<p><b>[Press the space bar to continue]</b></p></div>","32","","","","","","","","","","","","","","","","","","","","","","",""
"","instruc5","10","149931","0.0-10.0","""event"",""trial"",""time""
""fullscreenenter"",""0"",""7537""
","
","
","""event"",""trial"",""time""
""fullscreenenter"",""0"",""7537""
","
","20760.900000000023","run_exp/static/audio/clip_5_probabilistic.m4a","49","","","","","<div class='center'><p>Even the most skilled pirate can not rob EVERY ship.</p><p> Some ships will have very strong protections against pirate attacks.</p><p> Blue beard, here, is very, very good at robbing ships, but he won't be successful every time he tries to rob one.</p><p> You can press the <b>‘1’</b> key on the keyboard to choose him.</p><p> Try choosing him 10 times to see how often he succeeds at robbing a ship. </p><p><img src='run_exp/static/images/tutorial/blue.png' height='500'></p></div>","","","","","","","","","","","","","","","","","",""
"","html-keyboard-response","11","151435","0.0-11.0","""event"",""trial"",""time""
""fullscreenenter"",""0"",""7537""
","
","
","""event"",""trial"",""time""
""fullscreenenter"",""0"",""7537""
","
","null","<div class='center'><p><img src='run_exp/static/images/tutorial/blue_win.png' height='500'></p></div>","null","","","","","","","","","","","","","","","","","","","","","","",""
"","html-keyboard-response","12","153571","0.0-12.0","""event"",""trial"",""time""
""fullscreenenter"",""0"",""7537""
","
","
","""event"",""trial"",""time""
""fullscreenenter"",""0"",""7537""
","
","2134.9000000000233","<div class='center'><img src='run_exp/static/images/tutorial/blue.png' height='500'></p></div>","49","","","","","","","","","","","","","","","","","","","","","","",""
"","html-keyboard-response","13","155086","0.0-13.0","""event"",""trial"",""time""
""fullscreenenter"",""0"",""7537""
","
","
","""event"",""trial"",""time""
""fullscreenenter"",""0"",""7537""
","
","null","<div class='center'><p><img src='run_exp/static/images/tutorial/blue_win.png' height='500'></p></div>","null","","","","","","","","","","","","","","","","","","","","","","",""
"","html-keyboard-response","14","155597","0.0-14.0","""event"",""trial"",""time""
""fullscreenenter"",""0"",""7537""
","
","
","""event"",""trial"",""time""
""fullscreenenter"",""0"",""7537""
","
","510.20000000006985","<div class='center'><img src='run_exp/static/images/tutorial/blue.png' height='500'></p></div>","49","","","","","","","","","","","","","","","","","","","","","","",""
"","html-keyboard-response","15","157104","0.0-15.0","""event"",""trial"",""time""
""fullscreenenter"",""0"",""7537""
","
","
","""event"",""trial"",""time""
""fullscreenenter"",""0"",""7537""
","
","null","<div class='center'><p><img src='run_exp/static/images/tutorial/blue_win.png' height='500'></p></div>","null","","","","","","","","","","","","","","","","","","","","","","",""
"","html-keyboard-response","16","157465","0.0-16.0","""event"",""trial"",""time""
""fullscreenenter"",""0"",""7537""
","
","
","""event"",""trial"",""time""
""fullscreenenter"",""0"",""7537""
","
","360","<div class='center'><img src='run_exp/static/images/tutorial/blue.png' height='500'></p></div>","49","","","","","","","","","","","","","","","","","","","","","","",""
"","html-keyboard-response","17","158974","0.0-17.0","""event"",""trial"",""time""
""fullscreenenter"",""0"",""7537""
","
","
","""event"",""trial"",""time""
""fullscreenenter"",""0"",""7537""
","
","null","<div class='center'><p><img src='run_exp/static/images/tutorial/blue_no_win.png' height='500'></p></div>","null","","","","","","","","","","","","","","","","","","","","","","",""
"","html-keyboard-response","18","159245","0.0-18.0","""event"",""trial"",""time""
""fullscreenenter"",""0"",""7537""
","
","
","""event"",""trial"",""time""
""fullscreenenter"",""0"",""7537""
","
","271.29999999993015","<div class='center'><img src='run_exp/static/images/tutorial/blue.png' height='500'></p></div>","49","","","","","","","","","","","","","","","","","","","","","","",""
"","html-keyboard-response","19","160751","0.0-19.0","""event"",""trial"",""time""
""fullscreenenter"",""0"",""7537""
","
","
","""event"",""trial"",""time""
""fullscreenenter"",""0"",""7537""
","
","null","<div class='center'><p><img src='run_exp/static/images/tutorial/blue_win.png' height='500'></p></div>","null","","","","","","","","","","","","","","","","","","","","","","",""
"","html-keyboard-response","20","161017","0.0-20.0","""event"",""trial"",""time""
""fullscreenenter"",""0"",""7537""
","
","
","""event"",""trial"",""time""
""fullscreenenter"",""0"",""7537""
","
","265.5999999999767","<div class='center'><img src='run_exp/static/images/tutorial/blue.png' height='500'></p></div>","49","","","","","","","","","","","","","","","","","","","","","","",""
"","html-keyboard-response","21","162526","0.0-21.0","""event"",""trial"",""time""
""fullscreenenter"",""0"",""7537""
","
","
","""event"",""trial"",""time""
""fullscreenenter"",""0"",""7537""
","
","null","<div class='center'><p><img src='run_exp/static/images/tutorial/blue_win.png' height='500'></p></div>","null","","","","","","","","","","","","","","","","","","","","","","",""
"","html-keyboard-response","22","162795","0.0-22.0","""event"",""trial"",""time""
""fullscreenenter"",""0"",""7537""
","
","
","""event"",""trial"",""time""
""fullscreenenter"",""0"",""7537""
","
","269.0999999999767","<div class='center'><img src='run_exp/static/images/tutorial/blue.png' height='500'></p></div>","49","","","","","","","","","","","","","","","","","","","","","","",""
"","html-keyboard-response","23","164297","0.0-23.0","""event"",""trial"",""time""
""fullscreenenter"",""0"",""7537""
","
","
","""event"",""trial"",""time""
""fullscreenenter"",""0"",""7537""
","
","null","<div class='center'><p><img src='run_exp/static/images/tutorial/blue_win.png' height='500'></p></div>","null","","","","","","","","","","","","","","","","","","","","","","",""
"","html-keyboard-response","24","164483","0.0-24.0","""event"",""trial"",""time""
""fullscreenenter"",""0"",""7537""
","
","
","""event"",""trial"",""time""
""fullscreenenter"",""0"",""7537""
","
","186.19999999995343","<div class='center'><img src='run_exp/static/images/tutorial/blue.png' height='500'></p></div>","49","","","","","","","","","","","","","","","","","","","","","","",""
"","html-keyboard-response","25","165989","0.0-25.0","""event"",""trial"",""time""
""fullscreenenter"",""0"",""7537""
","
","
","""event"",""trial"",""time""
""fullscreenenter"",""0"",""7537""
","
","null","<div class='center'><p><img src='run_exp/static/images/tutorial/blue_no_win.png' height='500'></p></div>","null","","","","","","","","","","","","","","","","","","","","","","",""
"","html-keyboard-response","26","166266","0.0-26.0","""event"",""trial"",""time""
""fullscreenenter"",""0"",""7537""
","
","
","""event"",""trial"",""time""
""fullscreenenter"",""0"",""7537""
","
","275.69999999995343","<div class='center'><img src='run_exp/static/images/tutorial/blue.png' height='500'></p></div>","49","","","","","","","","","","","","","","","","","","","","","","",""
"","html-keyboard-response","27","167769","0.0-27.0","""event"",""trial"",""time""
""fullscreenenter"",""0"",""7537""
","
","
","""event"",""trial"",""time""
""fullscreenenter"",""0"",""7537""
","
","null","<div class='center'><p><img src='run_exp/static/images/tutorial/blue_win.png' height='500'></p></div>","null","","","","","","","","","","","","","","","","","","","","","","",""
"","html-keyboard-response","28","168136","0.0-28.0","""event"",""trial"",""time""
""fullscreenenter"",""0"",""7537""
","
","
","""event"",""trial"",""time""
""fullscreenenter"",""0"",""7537""
","
","366.20000000006985","<div class='center'><img src='run_exp/static/images/tutorial/blue.png' height='500'></p></div>","49","","","","","","","","","","","","","","","","","","","","","","",""
"","html-keyboard-response","29","169641","0.0-29.0","""event"",""trial"",""time""
""fullscreenenter"",""0"",""7537""
","
","
","""event"",""trial"",""time""
""fullscreenenter"",""0"",""7537""
","
","null","<div class='center'><p><img src='run_exp/static/images/tutorial/blue_win.png' height='500'></p></div>","null","","","","","","","","","","","","","","","","","","","","","","",""
"","instruc6","30","175067","0.0-30.0","""event"",""trial"",""time""
""fullscreenenter"",""0"",""7537""
","
","
","""event"",""trial"",""time""
""fullscreenenter"",""0"",""7537""
","
","null","run_exp/static/audio/clip_6_blue_beard_outcome.m4a","null","","","","","<div class='center'><p> See, he succeeded in robbing the ships most of the time but not every time. </p></div>","","","","","","","","","","","","","","","","","",""
"","html-keyboard-response","31","175878","0.0-31.0","""event"",""trial"",""time""
""fullscreenenter"",""0"",""7537""
","
","
","""event"",""trial"",""time""
""fullscreenenter"",""0"",""7537""
","
","810.7000000000698","<div class='center'><p> See, he succeeded in robbing the ships most of the time but not every time. </p><p><b>[Press the space bar to continue]</b></p></div>","32","","","","","","","","","","","","","","","","","","","","","","",""
"","audio-keyboard-response","32","192078","0.0-32.0","""event"",""trial"",""time""
""fullscreenenter"",""0"",""7537""
","
","
","""event"",""trial"",""time""
""fullscreenenter"",""0"",""7537""
","
","16198.5","run_exp/static/audio/clip_7_pick_pirate.m4a","50","","","","","","","","","","","","","","","","","","","","","","",""
"","audio-keyboard-response","33","196207","0.0-33.0-0.0","""event"",""trial"",""time""
""fullscreenenter"",""0"",""7537""
","
","
","""event"",""trial"",""time""
""fullscreenenter"",""0"",""7537""
","
","4127","run_exp/static/audio/clip_8_chosen_pirate_win.m4a","32","","","","","","","","","","","","","","","","","","","","","","",""
"","audio-keyboard-response","34","198488","0.0-33.0-1.0","""event"",""trial"",""time""
""fullscreenenter"",""0"",""7537""
","
","
","""event"",""trial"",""time""
""fullscreenenter"",""0"",""7537""
","
","2280.79999999993","run_exp/static/audio/clip_9_pick_a_pirate_again.m4a","51","","","","","","","","","","","","","","","","","","","","","","",""
"","audio-keyboard-response","35","202559","0.0-34.0-0.0","""event"",""trial"",""time""
""fullscreenenter"",""0"",""7537""
","
","
","""event"",""trial"",""time""
""fullscreenenter"",""0"",""7537""
","
","4070","run_exp/static/audio/clip_10_chosen_pirate_loss.m4a","32","","","","","","","","","","","","","","","","","","","","","","",""
"","instruc9","36","208048","0.0-35.0-0.0","""event"",""trial"",""time""
""fullscreenenter"",""0"",""7537""
","
","
","""event"",""trial"",""time""
""fullscreenenter"",""0"",""7537""
","
","null","run_exp/static/audio/clip_11_time_out.m4a","null","","","","","<div class='center'><p>If you don’t make your choice fast enough, you’ll have to wait a few seconds before you can make another one. </p><p><img src='run_exp/static/images/miscellaneous/hurry_up.png' height='500'></p></div>","","","","","","","","","","","","","","","","","",""
"","html-keyboard-response","37","208896","0.0-35.0-1.0","""event"",""trial"",""time""
""fullscreenenter"",""0"",""7537""
","
","
","""event"",""trial"",""time""
""fullscreenenter"",""0"",""7537""
","
","847.3000000000466","<div class='center'><p>If you don’t make your choice fast enough, you’ll have to wait a few seconds before you can make another one. </p><p><img src='run_exp/static/images/miscellaneous/hurry_up.png' height='500'></p><p><b>[Press the space bar to continue]</b></p></div>","32","","","","","","","","","","","","","","","","","","","","","","",""
"","instruc10","38","247988","0.0-35.0-2.0","""event"",""trial"",""time""
""fullscreenenter"",""0"",""7537""
","
","
","""event"",""trial"",""time""
""fullscreenenter"",""0"",""7537""
","
","null","run_exp/static/audio/clip_12_probe.m4a","null","","","","","<div class='center'><p>Once you've chosen a pirate, you’ll be shown the ship they are robbing. You will never rob the same ship twice. Ships can be told apart from one another by the image on them. These are the goods that they sell. See, this ship has a travel mug on it. </p><p> You’ll have to remember which island you saw each ship on. You will win more gold coins and hence more bonus money if you remember correctly! To help you remember, you can imagine a story. For example, here, you could imagine a mug full of water in the desert. Or, as another example, if on the forest island, your pirate robbed a ship with an apple on it, you could imagine an apple falling from a tree in the forest. </p><p><img src='run_exp/static/images/tutorial/example_probe.png' height='500'></p></div>","","","","","","","","","","","","","","","","","",""
"","html-keyboard-response","39","252551","0.0-35.0-3.0","""event"",""trial"",""time""
""fullscreenenter"",""0"",""7537""
","
","
","""event"",""trial"",""time""
""fullscreenenter"",""0"",""7537""
","
","4562.399999999907","<div class='center'><p>Once you've chosen a pirate, you’ll be shown the ship they are robbing. You will never rob the same ship twice. Ships can be told apart from one another by the image on them. These are the goods that they sell. See, this ship has a travel mug on it. </p><p> You’ll have to remember which island you saw each ship on. You will win more gold coins and hence more bonus money if you remember correctly! To help you remember, you can imagine a story. For example, here, you could imagine a mug full of water in the desert. Or, as another example, if on the forest island, your pirate robbed a ship with an apple on it, you could imagine an apple falling from a tree in the forest. </p><p><img src='run_exp/static/images/tutorial/example_probe.png' height='500'></p><p><b>[Press the space bar to continue]</b></p></div>","32","","","","","","","","","","","","","","","","","","","","","","",""
"","instruc11","40","268947","0.0-35.0-4.0","""event"",""trial"",""time""
""fullscreenenter"",""0"",""7537""
","
","
","""event"",""trial"",""time""
""fullscreenenter"",""0"",""7537""
","
","null","run_exp/static/audio/clip_13_changepoint.m4a","null","","","","","<div class='center'><p>How successful a pirate is at robbing ships will depend on the island you’re on.</p><p> A pirate may have visited this island many times before and gained a lot of practice robbing ships there.</p><p>So, they’re more likely to be successful than a pirate who has never visited the island before.</p></div>","","","","","","","","","","","","","","","","","",""
"","html-keyboard-response","41","269499","0.0-35.0-5.0","""event"",""trial"",""time""
""fullscreenenter"",""0"",""7537""
","
","
","""event"",""trial"",""time""
""fullscreenenter"",""0"",""7537""
","
","551.6999999999534","<div class='center'><p>How successful a pirate is at robbing ships will depend on the island you’re on.</p><p> A pirate may have visited this island many times before and gained a lot of practice robbing ships there.</p><p>So, they’re more likely to be successful than a pirate who has never visited the island before.</p><p><b>[Press the space bar to continue]</b></p></div>","32","","","","","","","","","","","","","","","","","","","","","","",""
"","instruc12","42","310587","0.0-35.0-6.0","""event"",""trial"",""time""
""fullscreenenter"",""0"",""7537""
","
","
","""event"",""trial"",""time""
""fullscreenenter"",""0"",""7537""
","
","null","run_exp/static/audio/clip_14_drift.m4a","null","","","","","<div class='center'><p>How successful a pirate is at robbing ships can also change over the time spent on the island. </p><p> Ships may hear from islanders about the pirates coming and will improve their protections against the attack. This may make it harder to rob them.</p><p> Ships may also become lazy and weaken the strength of their protections. This may make it easier to rob them.</p><br><p>Things are always changing on the high seas! So, try your best to pay attention!</p><p><img src='run_exp/static/images/tutorial/contingency.png' height='500'></p></div>","","","","","","","","","","","","","","","","","",""
"","html-keyboard-response","43","311158","0.0-35.0-7.0","""event"",""trial"",""time""
""fullscreenenter"",""0"",""7537""
","
","
","""event"",""trial"",""time""
""fullscreenenter"",""0"",""7537""
","
","570.2999999998137","<div class='center'><p>How successful a pirate is at robbing ships can also change over the time spent on the island. </p><p> Ships may hear from islanders about the pirates coming and will improve their protections against the attack. This may make it harder to rob them.</p><p> Ships may also become lazy and weaken the strength of their protections. This may make it easier to rob them.</p><br><p>Things are always changing on the high seas! So, try your best to pay attention!</p><p><img src='run_exp/static/images/tutorial/contingency.png' height='500'></p><p><b>[Press the space bar to continue]</b></p></div>","32","","","","","","","","","","","","","","","","","","","","","","",""
"","instruc13","44","346348","0.0-35.0-8.0","""event"",""trial"",""time""
""fullscreenenter"",""0"",""7537""
","
","
","""event"",""trial"",""time""
""fullscreenenter"",""0"",""7537""
","
","null","run_exp/static/audio/clip_15_summary.m4a","null","","","","","<div class='center'><p>Let's go over the instructions quickly again. You have two important things to do: </p><b><p> 1. Pick the pirate who is the best at robbing ships on the current island. </p></b><b><p> 2. Remember on which island a ship was robbed.</p> </b><p>The amount of bonus money you can win depends on both.</p><p><br><p>Let’s try a practice game. The game will start by showing you the pirates. First, pick a pirate using the <b> 1, 2, 3 </b> keys on your keyboard. When you are shown a ship, try to remember which island you’re on by making up a story.</p><p>This is just a practice game, so you’re not playing for money. </p><p> Good luck! This game will be very difficult but try your best!</p></div>","","","","","","","","","","","","","","","","","",""
"","html-keyboard-response","45","350187","0.0-35.0-9.0","""event"",""trial"",""time""
""fullscreenenter"",""0"",""7537""
","
","
","""event"",""trial"",""time""
""fullscreenenter"",""0"",""7537""
","
","3838.7999999998137","<div class='center'><p>Let's go over the instructions quickly again. You have two important things to do: </p><b><p> 1. Pick the pirate who is the best at robbing ships on the current island. </p></b><b><p> 2. Remember on which island a ship was robbed.</p> </b><p>The amount of bonus money you can win depends on both.</p><p><br><p>Let’s try a practice game. The game will start by showing you the pirates. First, pick a pirate using the <b> 1, 2, 3 </b> keys on your keyboard. When you are shown a ship, try to remember which island you’re on by making up a story.</p><p>This is just a practice game, so you’re not playing for money. </p><p> Good luck! This game will be very difficult but try your best!</p><p><b>[Press the space bar to continue]</b></p></div>","32","","","","","","","","","","","","","","","","","","","","","","",""
"","do_welcome","46","354207","0.0-35.0-10.0","""event"",""trial"",""time""
""fullscreenenter"",""0"",""7537""
","
","
","""event"",""trial"",""time""
""fullscreenenter"",""0"",""7537""
","
","null","","","","","","","","null","","","","","","","","","","","","","","","","",""
"","do_trial","47","360211","0.0-35.0-11.0","""event"",""trial"",""time""
""fullscreenenter"",""0"",""7537""
","
","
","""event"",""trial"",""time""
""fullscreenenter"",""0"",""7537""
","
","null","","","","","","","","null","1,0,0","","","","","","","","","","","","","","","",""
"","html-keyboard-response","48","361224","0.0-36.0-0.0","""event"",""trial"",""time""
""fullscreenenter"",""0"",""7537""
","
","
","""event"",""trial"",""time""
""fullscreenenter"",""0"",""7537""
","
","null","<p></p>","null","","","","","","","","","","","","","","","","","","","","","","",""
"","do_trial","49","367118","0.0-36.0-1.0","""event"",""trial"",""time""
""fullscreenenter"",""0"",""7537""
","
","
","""event"",""trial"",""time""
""fullscreenenter"",""0"",""7537""
","
","1376.7000000001863","","","","","","","","51","1,0,0","","","","","","","","","","","","","","","",""
"","html-keyboard-response","50","368134","0.0-37.0-0.0","""event"",""trial"",""time""
""fullscreenenter"",""0"",""7537""
","
","
","""event"",""trial"",""time""
""fullscreenenter"",""0"",""7537""
","
","null","<p></p>","null","","","","","","","","","","","","","","","","","","","","","","",""
"","do_trial","51","373436","0.0-37.0-1.0","""event"",""trial"",""time""
""fullscreenenter"",""0"",""7537""
","
","
","""event"",""trial"",""time""
""fullscreenenter"",""0"",""7537""
","
","795.5","","","","","","","","49","1,1,0","","","","","","","","","","","","","","","",""
"","html-keyboard-response","52","374448","0.0-38.0-0.0","""event"",""trial"",""time""
""fullscreenenter"",""0"",""7537""
","
","
","""event"",""trial"",""time""
""fullscreenenter"",""0"",""7537""
","
","null","<p></p>","null","","","","","","","","","","","","","","","","","","","","","","",""
"","do_trial","53","379751","0.0-38.0-1.0","""event"",""trial"",""time""
""fullscreenenter"",""0"",""7537""
","
","
","""event"",""trial"",""time""
""fullscreenenter"",""0"",""7537""
","
","798.2999999998137","","","","","","","","50","1,0,1","","","","","","","","","","","","","","","",""
"","html-keyboard-response","54","380761","0.0-39.0-0.0","""event"",""trial"",""time""
""fullscreenenter"",""0"",""7537""
","
","
","""event"",""trial"",""time""
""fullscreenenter"",""0"",""7537""
","
","null","<p></p>","null","","","","","","","","","","","","","","","","","","","","","","",""
"","do_trial","55","385664","0.0-39.0-1.0","""event"",""trial"",""time""
""fullscreenenter"",""0"",""7537""
","
","
","""event"",""trial"",""time""
""fullscreenenter"",""0"",""7537""
","
","388.80000000004657","","","","","","","","49","0,1,0","","","","","","","","","","","","","","","",""
"","html-keyboard-response","56","386669","0.0-40.0-0.0","""event"",""trial"",""time""
""fullscreenenter"",""0"",""7537""
","
","
","""event"",""trial"",""time""
""fullscreenenter"",""0"",""7537""
","
","null","<p></p>","null","","","","","","","","","","","","","","","","","","","","","","",""
"","do_trial","57","391622","0.0-40.0-1.0","""event"",""trial"",""time""
""fullscreenenter"",""0"",""7537""
","
","
","""event"",""trial"",""time""
""fullscreenenter"",""0"",""7537""
","
","438","","","","","","","","51","1,0,0","","","","","","","","","","","","","","","",""
"","do_bye","58","393130","0.0-41.0-0.0","""event"",""trial"",""time""
""fullscreenenter"",""0"",""7537""
","
","
","""event"",""trial"",""time""
""fullscreenenter"",""0"",""7537""
","
","null","","","","","","","","null","","","","","","","","","","","","","","","","",""
"","do_travel","59","402143","0.0-41.0-1.0","""event"",""trial"",""time""
""fullscreenenter"",""0"",""7537""
","
","
","""event"",""trial"",""time""
""fullscreenenter"",""0"",""7537""
","
","null","","","","","","","","null","","","","","","","","","","","","","","","","",""
"","do_welcome","60","406154","0.0-41.0-2.0","""event"",""trial"",""time""
""fullscreenenter"",""0"",""7537""
","
","
","""event"",""trial"",""time""
""fullscreenenter"",""0"",""7537""
","
","null","","","","","","","","null","","","","","","","","","","","","","","","","",""
"","do_trial","61","411215","0.0-41.0-3.0","""event"",""trial"",""time""
""fullscreenenter"",""0"",""7537""
","
","
","""event"",""trial"",""time""
""fullscreenenter"",""0"",""7537""
","
","552.5","","","","","","","","49","1,0,0","","","","","","","","","","","","","","","",""
"","html-keyboard-response","62","412221","0.0-42.0-0.0","""event"",""trial"",""time""
""fullscreenenter"",""0"",""7537""
","
","
","""event"",""trial"",""time""
""fullscreenenter"",""0"",""7537""
","
","null","<p></p>","null","","","","","","","","","","","","","","","","","","","","","","",""
"","do_trial","63","416982","0.0-42.0-1.0","""event"",""trial"",""time""
""fullscreenenter"",""0"",""7537""
","
","
","""event"",""trial"",""time""
""fullscreenenter"",""0"",""7537""
","
","243.9000000001397","","","","","","","","49","1,0,1","","","","","","","","","","","","","","","",""
"","html-keyboard-response","64","417996","0.0-43.0-0.0","""event"",""trial"",""time""
""fullscreenenter"",""0"",""7537""
","
","
","""event"",""trial"",""time""
""fullscreenenter"",""0"",""7537""
","
","null","<p></p>","null","","","","","","","","","","","","","","","","","","","","","","",""
"","do_trial","65","423015","0.0-43.0-1.0","""event"",""trial"",""time""
""fullscreenenter"",""0"",""7537""
","
","
","""event"",""trial"",""time""
""fullscreenenter"",""0"",""7537""
","
","513.3999999999069","","","","","","","","50","1,1,0","","","","","","","","","","","","","","","",""
"","html-keyboard-response","66","424022","0.0-44.0-0.0","""event"",""trial"",""time""
""fullscreenenter"",""0"",""7537""
","
","
","""event"",""trial"",""time""
""fullscreenenter"",""0"",""7537""
","
","null","<p></p>","null","","","","","","","","","","","","","","","","","","","","","","",""
"","do_trial","67","428903","0.0-44.0-1.0","""event"",""trial"",""time""
""fullscreenenter"",""0"",""7537""
","
","
","""event"",""trial"",""time""
""fullscreenenter"",""0"",""7537""
","
","367.10000000009313","","","","","","","","50","0,0,1","","","","","","","","","","","","","","","",""
"","html-keyboard-response","68","429907","0.0-45.0-0.0","""event"",""trial"",""time""
""fullscreenenter"",""0"",""7537""
","
","
","""event"",""trial"",""time""
""fullscreenenter"",""0"",""7537""
","
","null","<p></p>","null","","","","","","","","","","","","","","","","","","","","","","",""
"","do_trial","69","434975","0.0-45.0-1.0","""event"",""trial"",""time""
""fullscreenenter"",""0"",""7537""
","
","
","""event"",""trial"",""time""
""fullscreenenter"",""0"",""7537""
","
","558.4000000001397","","","","","","","","49","1,0,1","","","","","","","","","","","","","","","",""
"","html-keyboard-response","70","438896","0.0-46.0-0.0","""event"",""trial"",""time""
""fullscreenenter"",""0"",""7537""
","
","
","""event"",""trial"",""time""
""fullscreenenter"",""0"",""7537""
","
","3920.6999999999534","<div class='center'><p><img src='run_exp/static/images/tutorial/prac_best_pirate.png'  height='500'></p></div>","49","","","","","","","","","","","","","","","","","","","","","","",""
"","html-keyboard-response","71","441608","0.0-47.0-0.0","""event"",""trial"",""time""
""fullscreenenter"",""0"",""7537""
","
","
","""event"",""trial"",""time""
""fullscreenenter"",""0"",""7537""
","
","2710.6999999999534","<div class='center'><p>That's correct! Red beard was the best.</p><p><b>[Press the space bar to continue]</b></p></div>","32","","","","","","","","","","","","","","","","","","","","","","",""
"","html-keyboard-response","72","445947","0.0-47.0-1.0","""event"",""trial"",""time""
""fullscreenenter"",""0"",""7537""
","
","
","""event"",""trial"",""time""
""fullscreenenter"",""0"",""7537""
","
","4339","<div class='center'><p><img src='run_exp/static/images/tutorial/prac_source.png'  height='500'></p></div>","50","","","","","","","","","","","","","","","","","","","","","","",""
"","html-keyboard-response","73","447325","0.0-48.0-0.0","""event"",""trial"",""time""
""fullscreenenter"",""0"",""7537""
","
","
","""event"",""trial"",""time""
""fullscreenenter"",""0"",""7537""
","
","1378","<div class='center'><p>That's correct! You saw this ship on the cavern island.</p><p><b>[Press the space bar to continue]</b></p></div>","32","","","","","","","","","","","","","","","","","","","","","","",""
"","quiz_beginning","74","458528","0.0-48.0-1.0","""event"",""trial"",""time""
""fullscreenenter"",""0"",""7537""
","
","
","""event"",""trial"",""time""
""fullscreenenter"",""0"",""7537""
","
","null","run_exp/static/audio/clip_16_quiz_intro.m4a","null","","","","","<div class='center'><p>Good job on the practice game! Now, you will be asked some true or false questions to make sure you really understand the rules of the game.</p><p> Press <b>'1'</b> on the keyboard for true and press <b>'2'</b> for false.</p></div>","","","","","","","","","","","","","","","","","",""
"","audio-keyboard-response","75","464256","0.0-48.0-2.0","""event"",""trial"",""time""
""fullscreenenter"",""0"",""7537""
","
","
","""event"",""trial"",""time""
""fullscreenenter"",""0"",""7537""
","
","5727.09999999986","run_exp/static/audio/clip_17_q1.m4a","50","","","","","","","","","","","","","","","","","","","","","","",""
"","q1_err","76","469149","0.0-49.0-0.0","""event"",""trial"",""time""
""fullscreenenter"",""0"",""7537""
","
","
","""event"",""trial"",""time""
""fullscreenenter"",""0"",""7537""
","
","null","run_exp/static/audio/clip_19_wrong_q1.m4a","null","","","","","<div class='center'><p>That’s incorrect. You win bonus money by collecting gold coins.</p></div>","","","","","","","","","","","","","","","","","",""
"","html-keyboard-response","77","470089","0.0-49.0-1.0","""event"",""trial"",""time""
""fullscreenenter"",""0"",""7537""
","
","
","""event"",""trial"",""time""
""fullscreenenter"",""0"",""7537""
","
","939.3999999999069","<div class='center'><p>That’s incorrect. You win bonus money by collecting gold coins.</p><p><b>[Press the space bar to continue]</b></p></div>","32","","","","","","","","","","","","","","","","","","","","","","",""
"","audio-keyboard-response","78","476316","0.0-49.0-2.0","""event"",""trial"",""time""
""fullscreenenter"",""0"",""7537""
","
","
","""event"",""trial"",""time""
""fullscreenenter"",""0"",""7537""
","
","6226.59999999986","run_exp/static/audio/clip_20_q2.m4a","50","","","","","","","","","","","","","","","","","","","","","","",""
"","correct","79","478728","0.0-50.0-0.0","""event"",""trial"",""time""
""fullscreenenter"",""0"",""7537""
","
","
","""event"",""trial"",""time""
""fullscreenenter"",""0"",""7537""
","
","null","run_exp/static/audio/clip_18_correct.m4a","null","","","","","<div class='center'><p>That's correct!</p></div>","","","","","","","","","","","","","","","","","",""
"","html-keyboard-response","80","479532","0.0-50.0-1.0","""event"",""trial"",""time""
""fullscreenenter"",""0"",""7537""
","
","
","""event"",""trial"",""time""
""fullscreenenter"",""0"",""7537""
","
","803.5","<div class='center'><p>That's correct!</p><p><b>[Press the space bar to continue]</b></p></div>","32","","","","","","","","","","","","","","","","","","","","","","",""
"","audio-keyboard-response","81","486902","0.0-50.0-2.0","""event"",""trial"",""time""
""fullscreenenter"",""0"",""7537""
","
","
","""event"",""trial"",""time""
""fullscreenenter"",""0"",""7537""
","
","7368.700000000186","run_exp/static/audio/clip_22_q3.m4a","50","","","","","","","","","","","","","","","","","","","","","","",""
"","correct","82","489289","0.0-51.0-0.0","""event"",""trial"",""time""
""fullscreenenter"",""0"",""7537""
","
","
","""event"",""trial"",""time""
""fullscreenenter"",""0"",""7537""
","
","null","run_exp/static/audio/clip_18_correct.m4a","null","","","","","<div class='center'><p>That's correct!</p></div>","","","","","","","","","","","","","","","","","",""
"","html-keyboard-response","83","490147","0.0-51.0-1.0","""event"",""trial"",""time""
""fullscreenenter"",""0"",""7537""
","
","
","""event"",""trial"",""time""
""fullscreenenter"",""0"",""7537""
","
","857","<div class='center'><p>That's correct!</p><p><b>[Press the space bar to continue]</b></p></div>","32","","","","","","","","","","","","","","","","","","","","","","",""
"","audio-keyboard-response","84","495744","0.0-51.0-2.0","""event"",""trial"",""time""
""fullscreenenter"",""0"",""7537""
","
","
","""event"",""trial"",""time""
""fullscreenenter"",""0"",""7537""
","
","5596.399999999907","run_exp/static/audio/clip_24_q4.m4a","50","","","","","","","","","","","","","","","","","","","","","","",""
"","q4_err","85","505828","0.0-52.0-0.0","""event"",""trial"",""time""
""fullscreenenter"",""0"",""7537""
","
","
","""event"",""trial"",""time""
""fullscreenenter"",""0"",""7537""
","
","null","run_exp/static/audio/clip_25_wrong_q4.m4a","null","","","","","<div class='center'><p>That’s incorrect. You should remember the island where a pirate robbed a ship. To help you remember, you can make up a story associating the object on the ship with the island.</p></div>","","","","","","","","","","","","","","","","","",""
"","html-keyboard-response","86","506670","0.0-52.0-1.0","""event"",""trial"",""time""
""fullscreenenter"",""0"",""7537""
","
","
","""event"",""trial"",""time""
""fullscreenenter"",""0"",""7537""
","
","840.6999999999534","<div class='center'><p>That’s incorrect. You should remember the island where a pirate robbed a ship. To help you remember, you can make up a story associating the object on the ship with the island.</p><p><b>[Press the space bar to continue]</b></p></div>","32","","","","","","","","","","","","","","","","","","","","","","",""
"","q_all_err","87","512848","0.0-53.0-0.0","""event"",""trial"",""time""
""fullscreenenter"",""0"",""7537""
","
","
","""event"",""trial"",""time""
""fullscreenenter"",""0"",""7537""
","
","null","run_exp/static/audio/clip_26_quiz_redo.m4a","null","","","","","<div class='center'><p>Oops, you missed some questions. Now that you’ve heard the correct answers. Try the quiz again! </p></div>","","","","","","","","","","","","","","","","","",""
"","html-keyboard-response","88","513251","0.0-53.0-1.0","""event"",""trial"",""time""
""fullscreenenter"",""0"",""7537""
","
","
","""event"",""trial"",""time""
""fullscreenenter"",""0"",""7537""
","
","402.19999999995343","<div class='center'><p>Oops, you missed some questions. Now that you’ve heard the correct answers. Try the quiz again! </p><p><b>[Press the space bar to continue]</b></p></div>","32","","","","","","","","","","","","","","","","","","","","","","",""
"","audio-keyboard-response","89","514472","0.0-53.0-2.0","""event"",""trial"",""time""
""fullscreenenter"",""0"",""7537""
","
","
","""event"",""trial"",""time""
""fullscreenenter"",""0"",""7537""
","
","1220.5","run_exp/static/audio/clip_17_q1.m4a","49","","","","","","","","","","","","","","","","","","","","","","",""
"","correct","90","516868","0.0-54.0-0.0","""event"",""trial"",""time""
""fullscreenenter"",""0"",""7537""
","
","
","""event"",""trial"",""time""
""fullscreenenter"",""0"",""7537""
","
","null","run_exp/static/audio/clip_18_correct.m4a","null","","","","","<div class='center'><p>That's correct!</p></div>","","","","","","","","","","","","","","","","","",""
"","html-keyboard-response","91","517277","0.0-54.0-1.0","""event"",""trial"",""time""
""fullscreenenter"",""0"",""7537""
","
","
","""event"",""trial"",""time""
""fullscreenenter"",""0"",""7537""
","
","407.5","<div class='center'><p>That's correct!</p><p><b>[Press the space bar to continue]</b></p></div>","32","","","","","","","","","","","","","","","","","","","","","","",""
"","audio-keyboard-response","92","520426","0.0-54.0-2.0","""event"",""trial"",""time""
""fullscreenenter"",""0"",""7537""
","
","
","""event"",""trial"",""time""
""fullscreenenter"",""0"",""7537""
","
","3148.2000000001863","run_exp/static/audio/clip_20_q2.m4a","50","","","","","","","","","","","","","","","","","","","","","","",""
"","correct","93","522809","0.0-55.0-0.0","""event"",""trial"",""time""
""fullscreenenter"",""0"",""7537""
","
","
","""event"",""trial"",""time""
""fullscreenenter"",""0"",""7537""
","
","null","run_exp/static/audio/clip_18_correct.m4a","null","","","","","<div class='center'><p>That's correct!</p></div>","","","","","","","","","","","","","","","","","",""
"","html-keyboard-response","94","522996","0.0-55.0-1.0","""event"",""trial"",""time""
""fullscreenenter"",""0"",""7537""
","
","
","""event"",""trial"",""time""
""fullscreenenter"",""0"",""7537""
","
","186.10000000009313","<div class='center'><p>That's correct!</p><p><b>[Press the space bar to continue]</b></p></div>","32","","","","","","","","","","","","","","","","","","","","","","",""
"","audio-keyboard-response","95","528707","0.0-55.0-2.0","""event"",""trial"",""time""
""fullscreenenter"",""0"",""7537""
","
","
","""event"",""trial"",""time""
""fullscreenenter"",""0"",""7537""
","
","5710.399999999907","run_exp/static/audio/clip_22_q3.m4a","50","","","","","","","","","","","","","","","","","","","","","","",""
"","correct","96","531108","0.0-56.0-0.0","""event"",""trial"",""time""
""fullscreenenter"",""0"",""7537""
","
","
","""event"",""trial"",""time""
""fullscreenenter"",""0"",""7537""
","
","null","run_exp/static/audio/clip_18_correct.m4a","null","","","","","<div class='center'><p>That's correct!</p></div>","","","","","","","","","","","","","","","","","",""
"","html-keyboard-response","97","531793","0.0-56.0-1.0","""event"",""trial"",""time""
""fullscreenenter"",""0"",""7537""
","
","
","""event"",""trial"",""time""
""fullscreenenter"",""0"",""7537""
","
","684.6000000000931","<div class='center'><p>That's correct!</p><p><b>[Press the space bar to continue]</b></p></div>","32","","","","","","","","","","","","","","","","","","","","","","",""
"","audio-keyboard-response","98","532729","0.0-56.0-2.0","""event"",""trial"",""time""
""fullscreenenter"",""0"",""7537""
","
","
","""event"",""trial"",""time""
""fullscreenenter"",""0"",""7537""
","
","935.7000000001863","run_exp/static/audio/clip_24_q4.m4a","49","","","","","","","","","","","","","","","","","","","","","","",""
"","correct","99","535149","0.0-57.0-0.0","""event"",""trial"",""time""
""fullscreenenter"",""0"",""7537""
","
","
","""event"",""trial"",""time""
""fullscreenenter"",""0"",""7537""
","
","null","run_exp/static/audio/clip_18_correct.m4a","null","","","","","<div class='center'><p>That's correct!</p></div>","","","","","","","","","","","","","","","","","",""
"","html-keyboard-response","100","535382","0.0-57.0-1.0","""event"",""trial"",""time""
""fullscreenenter"",""0"",""7537""
","
","
","""event"",""trial"",""time""
""fullscreenenter"",""0"",""7537""
","
","233","<div class='center'><p>That's correct!</p><p><b>[Press the space bar to continue]</b></p></div>","32","","","","","","","","","","","","","","","","","","","","","","",""
"","q_all_corr","101","543869","0.0-58.0-0.0","""event"",""trial"",""time""
""fullscreenenter"",""0"",""7537""
","
","
","""event"",""trial"",""time""
""fullscreenenter"",""0"",""7537""
","
","null","run_exp/static/audio/clip_27_quiz_all_correct.m4a","null","","","","","<div class='center'><p>Good job! You’re now ready to move on to the real game! Remember this game will be difficult but don't get discouraged and try your best!</p></div>","","","","","","","","","","","","","","","","","",""
"","html-keyboard-response","102","546075","0.0-58.0-1.0","""event"",""trial"",""time""
""fullscreenenter"",""0"",""7537""
","
","
","""event"",""trial"",""time""
""fullscreenenter"",""0"",""7537""
","
","2205.0999999998603","<div class='center'><p>Good job! You’re now ready to move on to the real game! Remember this game will be difficult but don't get discouraged and try your best!</p><p><b>[Press the space bar to continue]</b></p></div>","32","","","","","","","","","","","","","","","","","","","","","","",""
"","do_welcome","103","550093","0.0-59.0-0.0","""event"",""trial"",""time""
""fullscreenenter"",""0"",""7537""
","
","
","""event"",""trial"",""time""
""fullscreenenter"",""0"",""7537""
","
","null","","","","","","","","null","","","","","","","","","","","","","","","","",""
"","do_trial","104","555298","0.0-60.0-0.0","""event"",""trial"",""time""
""fullscreenenter"",""0"",""7537""
","
","
","""event"",""trial"",""time""
""fullscreenenter"",""0"",""7537""
","
","672.1999999999534","","","","","","","","50","1,0,0","0","countryside","0","probe-199","0.6","0.3","0.1","0","","","","","","","",""
"","html-keyboard-response","105","556300","0.0-60.0-1.0","""event"",""trial"",""time""
""fullscreenenter"",""0"",""7537""
","
","
","""event"",""trial"",""time""
""fullscreenenter"",""0"",""7537""
","
","null","<p></p>","null","","","","","","","","","","","","","","","","","","","","","","",""
"","do_trial","106","561096","0.0-61.0-0.0","""event"",""trial"",""time""
""fullscreenenter"",""0"",""7537""
","
","
","""event"",""trial"",""time""
""fullscreenenter"",""0"",""7537""
","
","264.69999999995343","","","","","","","","51","0,0,0","0","countryside","1","probe-222","0.6118453362073872","0.2556060534357147","0.0777776065718474","0","","","","","","","",""
"","html-keyboard-response","107","562106","0.0-61.0-1.0","""event"",""trial"",""time""
""fullscreenenter"",""0"",""7537""
","
","
","""event"",""trial"",""time""
""fullscreenenter"",""0"",""7537""
","
","null","<p></p>","null","","","","","","","","","","","","","","","","","","","","","","",""
"","do_trial","108","566868","0.0-62.0-0.0","""event"",""trial"",""time""
""fullscreenenter"",""0"",""7537""
","
","
","""event"",""trial"",""time""
""fullscreenenter"",""0"",""7537""
","
","229.39999999990687","","","","","","","","49","1,0,0","0","countryside","2","probe-36","0.49577009916064707","0.23151607141686648","0.08686701140275009","1","","","","","","","",""
"","html-keyboard-response","109","567872","0.0-62.0-1.0","""event"",""trial"",""time""
""fullscreenenter"",""0"",""7537""
","
","
","""event"",""trial"",""time""
""fullscreenenter"",""0"",""7537""
","
","null","<p></p>","null","","","","","","","","","","","","","","","","","","","","","","",""
"","do_trial","110","572667","0.0-63.0-0.0","""event"",""trial"",""time""
""fullscreenenter"",""0"",""7537""
","
","
","""event"",""trial"",""time""
""fullscreenenter"",""0"",""7537""
","
","262.19999999995343","","","","","","","","49","0,0,0","0","countryside","3","probe-197","0.5631290651531794","0.3168980939356106","0.16902211494751881","0","","","","","","","",""
"","html-keyboard-response","111","573677","0.0-63.0-1.0","""event"",""trial"",""time""
""fullscreenenter"",""0"",""7537""
","
","
","""event"",""trial"",""time""
""fullscreenenter"",""0"",""7537""
","
","null","<p></p>","null","","","","","","","","","","","","","","","","","","","","","","",""
"","do_trial","112","578904","0.0-64.0-0.0","""event"",""trial"",""time""
""fullscreenenter"",""0"",""7537""
","
","
","""event"",""trial"",""time""
""fullscreenenter"",""0"",""7537""
","
","685.3000000000466","","","","","","","","50","1,1,0","0","countryside","4","probe-12","0.43938234631850737","0.3883089131233265","0.2751145500866562","1","","","","","","","",""
"","html-keyboard-response","113","579913","0.0-64.0-1.0","""event"",""trial"",""time""
""fullscreenenter"",""0"",""7537""
","
","
","""event"",""trial"",""time""
""fullscreenenter"",""0"",""7537""
","
","null","<p></p>","null","","","","","","","","","","","","","","","","","","","","","","",""
"","do_trial","114","584732","0.0-65.0-0.0","""event"",""trial"",""time""
""fullscreenenter"",""0"",""7537""
","
","
","""event"",""trial"",""time""
""fullscreenenter"",""0"",""7537""
","
","278.70000000018626","","","","","","","","50","0,0,0","0","countryside","5","probe-02","0.43238505398328664","0.34873053066482135","0.14598930623895137","0","","","","","","","",""
"","html-keyboard-response","115","585745","0.0-65.0-1.0","""event"",""trial"",""time""
""fullscreenenter"",""0"",""7537""
","
","
","""event"",""trial"",""time""
""fullscreenenter"",""0"",""7537""
","
","null","<p></p>","null","","","","","","","","","","","","","","","","","","","","","","",""
"","do_trial","116","590814","0.0-66.0-0.0","""event"",""trial"",""time""
""fullscreenenter"",""0"",""7537""
","
","
","""event"",""trial"",""time""
""fullscreenenter"",""0"",""7537""
","
","529.0999999998603","","","","","","","","49","1,0,0","0","countryside","6","probe-146","0.4116622660257677","0.0704573056049387","0.16388661315648118","1","","","","","","","",""
"","html-keyboard-response","117","591826","0.0-66.0-1.0","""event"",""trial"",""time""
""fullscreenenter"",""0"",""7537""
","
","
","""event"",""trial"",""time""
""fullscreenenter"",""0"",""7537""
","
","null","<p></p>","null","","","","","","","","","","","","","","","","","","","","","","",""
"","do_trial","118","596892","0.0-67.0-0.0","""event"",""trial"",""time""
""fullscreenenter"",""0"",""7537""
","
","
","""event"",""trial"",""time""
""fullscreenenter"",""0"",""7537""
","
","525.7000000001863","","","","","","","","49","0,0,0","0","countryside","7","probe-57","0.5546715898132026","0.2682225877845193","0.206474466644858","0","","","","","","","",""
"","html-keyboard-response","119","597899","0.0-67.0-1.0","""event"",""trial"",""time""
""fullscreenenter"",""0"",""7537""
","
","
","""event"",""trial"",""time""
""fullscreenenter"",""0"",""7537""
","
","null","<p></p>","null","","","","","","","","","","","","","","","","","","","","","","",""
"","do_trial","120","602814","0.0-68.0-0.0","""event"",""trial"",""time""
""fullscreenenter"",""0"",""7537""
","
","
","""event"",""trial"",""time""
""fullscreenenter"",""0"",""7537""
","
","375","","","","","","","","51","0,0,0","0","countryside","8","probe-03","0.495027038964766","0.24185155203176603","0.2736915733466195","0","","","","","","","",""
"","html-keyboard-response","121","603828","0.0-68.0-1.0","""event"",""trial"",""time""
""fullscreenenter"",""0"",""7537""
","
","
","""event"",""trial"",""time""
""fullscreenenter"",""0"",""7537""
","
","null","<p></p>","null","","","","","","","","","","","","","","","","","","","","","","",""
"","do_trial","122","608601","0.0-69.0-0.0","""event"",""trial"",""time""
""fullscreenenter"",""0"",""7537""
","
","
","""event"",""trial"",""time""
""fullscreenenter"",""0"",""7537""
","
","240.39999999990687","","","","","","","","50","0,0,1","0","countryside","9","probe-129","0.4915950760259223","0.2598574144745658","0.24257749271012988","0","","","","","","","",""
"","html-keyboard-response","123","609613","0.0-69.0-1.0","""event"",""trial"",""time""
""fullscreenenter"",""0"",""7537""
","
","
","""event"",""trial"",""time""
""fullscreenenter"",""0"",""7537""
","
","null","<p></p>","null","","","","","","","","","","","","","","","","","","","","","","",""
"","do_trial","124","614406","0.0-70.0-0.0","""event"",""trial"",""time""
""fullscreenenter"",""0"",""7537""
","
","
","""event"",""trial"",""time""
""fullscreenenter"",""0"",""7537""
","
","256.39999999990687","","","","","","","","49","0,0,0","0","countryside","10","probe-98","0.4943556357015774","0.29579966094432925","0.27739368911931134","0","","","","","","","",""
"","html-keyboard-response","125","615415","0.0-70.0-1.0","""event"",""trial"",""time""
""fullscreenenter"",""0"",""7537""
","
","
","""event"",""trial"",""time""
""fullscreenenter"",""0"",""7537""
","
","null","<p></p>","null","","","","","","","","","","","","","","","","","","","","","","",""
"","do_trial","126","621528","0.0-71.0-0.0","""event"",""trial"",""time""
""fullscreenenter"",""0"",""7537""
","
","
","""event"",""trial"",""time""
""fullscreenenter"",""0"",""7537""
","
","1571.2000000001863","","","","","","","","51","0,0,0","0","countryside","11","probe-66","0.7244881524124209","0.2456060238068654","0.3314438839099198","0","","","","","","","",""
"","html-keyboard-response","127","622544","0.0-71.0-1.0","""event"",""trial"",""time""
""fullscreenenter"",""0"",""7537""
","
","
","""event"",""trial"",""time""
""fullscreenenter"",""0"",""7537""
","
","null","<p></p>","null","","","","","","","","","","","","","","","","","","","","","","",""
"","do_trial","128","627575","0.0-72.0-0.0","""event"",""trial"",""time""
""fullscreenenter"",""0"",""7537""
","
","
","""event"",""trial"",""time""
""fullscreenenter"",""0"",""7537""
","
","495.30000000004657","","","","","","","","50","1,0,0","0","countryside","12","probe-64","0.6918167061060944","0.21853744835648095","0.05934004304923835","0","","","","","","","",""
"","html-keyboard-response","129","628582","0.0-72.0-1.0","""event"",""trial"",""time""
""fullscreenenter"",""0"",""7537""
","
","
","""event"",""trial"",""time""
""fullscreenenter"",""0"",""7537""
","
","null","<p></p>","null","","","","","","","","","","","","","","","","","","","","","","",""
"","do_trial","130","633298","0.0-73.0-0.0","""event"",""trial"",""time""
""fullscreenenter"",""0"",""7537""
","
","
","""event"",""trial"",""time""
""fullscreenenter"",""0"",""7537""
","
","181.10000000009313","","","","","","","","49","1,0,0","0","countryside","13","probe-25","0.7060407669810607","0.4764389443144652","0.06628463995907269","1","","","","","","","",""
"","html-keyboard-response","131","634310","0.0-73.0-1.0","""event"",""trial"",""time""
""fullscreenenter"",""0"",""7537""
","
","
","""event"",""trial"",""time""
""fullscreenenter"",""0"",""7537""
","
","null","<p></p>","null","","","","","","","","","","","","","","","","","","","","","","",""
"","do_trial","132","638887","0.0-74.0-0.0","""event"",""trial"",""time""
""fullscreenenter"",""0"",""7537""
","
","
","""event"",""trial"",""time""
""fullscreenenter"",""0"",""7537""
","
","43.60000000009313","","","","","","","","49","1,1,0","0","countryside","14","probe-102","0.6345128637036217","0.43015976932486694","0.06433366496158711","1","","","","","","","",""
"","html-keyboard-response","133","639888","0.0-74.0-1.0","""event"",""trial"",""time""
""fullscreenenter"",""0"",""7537""
","
","
","""event"",""trial"",""time""
""fullscreenenter"",""0"",""7537""
","
","null","<p></p>","null","","","","","","","","","","","","","","","","","","","","","","",""
"","do_trial","134","644578","0.0-75.0-0.0","""event"",""trial"",""time""
""fullscreenenter"",""0"",""7537""
","
","
","""event"",""trial"",""time""
""fullscreenenter"",""0"",""7537""
","
","151.9000000001397","","","","","","","","49","1,0,0","0","countryside","15","probe-83","0.7161387105484305","0.33227027931419484","0.07951270336291862","1","","","","","","","",""
"","html-keyboard-response","135","645586","0.0-75.0-1.0","""event"",""trial"",""time""
""fullscreenenter"",""0"",""7537""
","
","
","""event"",""trial"",""time""
""fullscreenenter"",""0"",""7537""
","
","null","<p></p>","null","","","","","","","","","","","","","","","","","","","","","","",""
"","do_trial","136","650130","0.0-76.0-0.0","""event"",""trial"",""time""
""fullscreenenter"",""0"",""7537""
","
","
","""event"",""trial"",""time""
""fullscreenenter"",""0"",""7537""
","
","0.10000000009313226","","","","","","","","49","0,0,0","0","countryside","16","probe-76","0.6508770223746028","0.21867505636429008","0.10196746702373402","0","","","","","","","",""
"","html-keyboard-response","137","651140","0.0-76.0-1.0","""event"",""trial"",""time""
""fullscreenenter"",""0"",""7537""
","
","
","""event"",""trial"",""time""
""fullscreenenter"",""0"",""7537""
","
","null","<p></p>","null","","","","","","","","","","","","","","","","","","","","","","",""
"","do_trial","138","655706","0.0-77.0-0.0","""event"",""trial"",""time""
""fullscreenenter"",""0"",""7537""
","
","
","""event"",""trial"",""time""
""fullscreenenter"",""0"",""7537""
","
","30","","","","","","","","49","1,1,1","0","countryside","17","probe-06","0.6799001426314893","0.23019150599516752","0.15194730293065778","1","","","","","","","",""
"","html-keyboard-response","139","656721","0.0-77.0-1.0","""event"",""trial"",""time""
""fullscreenenter"",""0"",""7537""
","
","
","""event"",""trial"",""time""
""fullscreenenter"",""0"",""7537""
","
","null","<p></p>","null","","","","","","","","","","","","","","","","","","","","","","",""
"","do_trial","140","661339","0.0-78.0-0.0","""event"",""trial"",""time""
""fullscreenenter"",""0"",""7537""
","
","
","""event"",""trial"",""time""
""fullscreenenter"",""0"",""7537""
","
","86.5","","","","","","","","49","0,0,0","0","countryside","18","probe-108","0.5530308174065179","0.3315426143974443","0.1478473827990478","0","","","","","","","",""
"","html-keyboard-response","141","662345","0.0-78.0-1.0","""event"",""trial"",""time""
""fullscreenenter"",""0"",""7537""
","
","
","""event"",""trial"",""time""
""fullscreenenter"",""0"",""7537""
","
","null","<p></p>","null","","","","","","","","","","","","","","","","","","","","","","",""
"","do_trial","142","666981","0.0-79.0-0.0","""event"",""trial"",""time""
""fullscreenenter"",""0"",""7537""
","
","
","""event"",""trial"",""time""
""fullscreenenter"",""0"",""7537""
","
","103.60000000009313","","","","","","","","49","1,0,0","0","countryside","19","probe-106","0.5134552392886212","0.3776595340357918","0.21715404528380483","1","","","","","","","",""
"","html-keyboard-response","143","667992","0.0-79.0-1.0","""event"",""trial"",""time""
""fullscreenenter"",""0"",""7537""
","
","
","""event"",""trial"",""time""
""fullscreenenter"",""0"",""7537""
","
","null","<p></p>","null","","","","","","","","","","","","","","","","","","","","","","",""
"","do_trial","144","672540","0.0-80.0-0.0","""event"",""trial"",""time""
""fullscreenenter"",""0"",""7537""
","
","
","""event"",""trial"",""time""
""fullscreenenter"",""0"",""7537""
","
","10.199999999953434","","","","","","","","49","1,0,0","0","countryside","20","probe-119","0.6346146843524333","0.22064689686698508","0.16980571604680653","1","","","","","","","",""
"","html-keyboard-response","145","673548","0.0-80.0-1.0","""event"",""trial"",""time""
""fullscreenenter"",""0"",""7537""
","
","
","""event"",""trial"",""time""
""fullscreenenter"",""0"",""7537""
","
","null","<p></p>","null","","","","","","","","","","","","","","","","","","","","","","",""
"","do_trial","146","678157","0.0-81.0-0.0","""event"",""trial"",""time""
""fullscreenenter"",""0"",""7537""
","
","
","""event"",""trial"",""time""
""fullscreenenter"",""0"",""7537""
","
","73.80000000004657","","","","","","","","49","1,0,1","0","countryside","21","probe-115","0.5942946962044964","0.29255878263335017","0.1717059870270547","1","","","","","","","",""
"","html-keyboard-response","147","679169","0.0-81.0-1.0","""event"",""trial"",""time""
""fullscreenenter"",""0"",""7537""
","
","
","""event"",""trial"",""time""
""fullscreenenter"",""0"",""7537""
","
","null","<p></p>","null","","","","","","","","","","","","","","","","","","","","","","",""
"","do_trial","148","683712","0.0-82.0-0.0","""event"",""trial"",""time""
""fullscreenenter"",""0"",""7537""
","
","
","""event"",""trial"",""time""
""fullscreenenter"",""0"",""7537""
","
","0","","","","","","","","49","1,1,0","0","countryside","22","probe-151","0.7088687656916933","0.3789383656204867","0.17594053543763896","1","","","","","","","",""
"","html-keyboard-response","149","684722","0.0-82.0-1.0","""event"",""trial"",""time""
""fullscreenenter"",""0"",""7537""
","
","
","""event"",""trial"",""time""
""fullscreenenter"",""0"",""7537""
","
","null","<p></p>","null","","","","","","","","","","","","","","","","","","","","","","",""
"","do_trial","150","689375","0.0-83.0-0.0","""event"",""trial"",""time""
""fullscreenenter"",""0"",""7537""
","
","
","""event"",""trial"",""time""
""fullscreenenter"",""0"",""7537""
","
","105.60000000009313","","","","","","","","49","1,0,0","0","countryside","23","probe-159","0.8510841452102281","0.49923247255075737","0.0644344383318037","1","","","","","","","",""
"","html-keyboard-response","151","690379","0.0-83.0-1.0","""event"",""trial"",""time""
""fullscreenenter"",""0"",""7537""
","
","
","""event"",""trial"",""time""
""fullscreenenter"",""0"",""7537""
","
","null","<p></p>","null","","","","","","","","","","","","","","","","","","","","","","",""
"","do_trial","152","694924","0.0-84.0-0.0","""event"",""trial"",""time""
""fullscreenenter"",""0"",""7537""
","
","
","""event"",""trial"",""time""
""fullscreenenter"",""0"",""7537""
","
","1.3000000000465661","","","","","","","","49","0,1,1","0","countryside","24","probe-112","0.7666625900533839","0.35803907198536883","0.1569050440990379","0","","","","","","","",""
"","html-keyboard-response","153","695935","0.0-84.0-1.0","""event"",""trial"",""time""
""fullscreenenter"",""0"",""7537""
","
","
","""event"",""trial"",""time""
""fullscreenenter"",""0"",""7537""
","
","null","<p></p>","null","","","","","","","","","","","","","","","","","","","","","","",""
"","do_trial","154","700540","0.0-85.0-0.0","""event"",""trial"",""time""
""fullscreenenter"",""0"",""7537""
","
","
","""event"",""trial"",""time""
""fullscreenenter"",""0"",""7537""
","
","67.0999999998603","","","","","","","","49","1,0,0","0","countryside","25","probe-211","0.6669731928058268","0.22755017399636657","0.1702639892192412","1","","","","","","","",""
"","html-keyboard-response","155","701545","0.0-85.0-1.0","""event"",""trial"",""time""
""fullscreenenter"",""0"",""7537""
","
","
","""event"",""trial"",""time""
""fullscreenenter"",""0"",""7537""
","
","null","<p></p>","null","","","","","","","","","","","","","","","","","","","","","","",""
"","do_trial","156","706080","0.0-86.0-0.0","""event"",""trial"",""time""
""fullscreenenter"",""0"",""7537""
","
","
","""event"",""trial"",""time""
""fullscreenenter"",""0"",""7537""
","
","0","","","","","","","","49","1,0,0","0","countryside","26","probe-133","0.6955684683971235","0.18797788174679228","0.19407604522282146","1","","","","","","","",""
"","html-keyboard-response","157","707085","0.0-86.0-1.0","""event"",""trial"",""time""
""fullscreenenter"",""0"",""7537""
","
","
","""event"",""trial"",""time""
""fullscreenenter"",""0"",""7537""
","
","null","<p></p>","null","","","","","","","","","","","","","","","","","","","","","","",""
"","do_trial","158","712711","0.0-87.0-0.0","""event"",""trial"",""time""
""fullscreenenter"",""0"",""7537""
","
","
","""event"",""trial"",""time""
""fullscreenenter"",""0"",""7537""
","
","1084","","","","","","","","49","1,0,1","0","countryside","27","probe-99","0.6524969830631824","0.19577066474051677","0.16731406045810757","1","","","","","","","",""
"","html-keyboard-response","159","713717","0.0-87.0-1.0","""event"",""trial"",""time""
""fullscreenenter"",""0"",""7537""
","
","
","""event"",""trial"",""time""
""fullscreenenter"",""0"",""7537""
","
","null","<p></p>","null","","","","","","","","","","","","","","","","","","","","","","",""
"","do_trial","160","718253","0.0-88.0-0.0","""event"",""trial"",""time""
""fullscreenenter"",""0"",""7537""
","
","
","""event"",""trial"",""time""
""fullscreenenter"",""0"",""7537""
","
","0.09999999986030161","","","","","","","","49","0,0,0","0","countryside","28","probe-32","0.7325764416835971","0.2590989202608297","0.09304440232920955","0","","","","","","","",""
"","html-keyboard-response","161","719264","0.0-88.0-1.0","""event"",""trial"",""time""
""fullscreenenter"",""0"",""7537""
","
","
","""event"",""trial"",""time""
""fullscreenenter"",""0"",""7537""
","
","null","<p></p>","null","","","","","","","","","","","","","","","","","","","","","","",""
"","do_trial","162","723942","0.0-89.0-0.0","""event"",""trial"",""time""
""fullscreenenter"",""0"",""7537""
","
","
","""event"",""trial"",""time""
""fullscreenenter"",""0"",""7537""
","
","132.69999999995343","","","","","","","","49","1,0,0","0","countryside","29","probe-148","0.6995511011188732","0.39446086031079575","0.08936650956525352","1","","","","","","","",""
"","html-keyboard-response","163","724951","0.0-89.0-1.0","""event"",""trial"",""time""
""fullscreenenter"",""0"",""7537""
","
","
","""event"",""trial"",""time""
""fullscreenenter"",""0"",""7537""
","
","null","<p></p>","null","","","","","","","","","","","","","","","","","","","","","","",""
"","do_bye","164","726463","0.0-90.0-0.0","""event"",""trial"",""time""
""fullscreenenter"",""0"",""7537""
","
","
","""event"",""trial"",""time""
""fullscreenenter"",""0"",""7537""
","
","null","","","","","","","","null","","","","","","","","","","","","","","","","",""
"","break","165","730807","0.0-90.0-1.0","""event"",""trial"",""time""
""fullscreenenter"",""0"",""7537""
","
","
","""event"",""trial"",""time""
""fullscreenenter"",""0"",""7537""
","
","4342.5","<div class='center'><p>Time to take a quick break! You have 2 minutes to rest, but you can move on sooner if you'd like.</p><p> Press the <b>space bar</b> to continue.</p></div>","32","","","","","","","","","","","","","","","","","","","","","","",""
"","do_travel","166","739810","0.0-91.0-0.0","""event"",""trial"",""time""
""fullscreenenter"",""0"",""7537""
","
","
","""event"",""trial"",""time""
""fullscreenenter"",""0"",""7537""
","
","null","","","","","","","","null","","","","","","","","","","","","","","","","",""
"","do_welcome","167","743816","0.0-91.0-1.0","""event"",""trial"",""time""
""fullscreenenter"",""0"",""7537""
","
","
","""event"",""trial"",""time""
""fullscreenenter"",""0"",""7537""
","
","null","","","","","","","","null","","","","","","","","","","","","","","","","",""
"","do_trial","168","748940","0.0-92.0-0.0","""event"",""trial"",""time""
""fullscreenenter"",""0"",""7537""
","
","
","""event"",""trial"",""time""
""fullscreenenter"",""0"",""7537""
","
","579.5","","","","","","","","50","1,0,0","1","coast","30","probe-214","1","0.3489831536423037","0.11812433870666347","0","","","","","","","",""
"","html-keyboard-response","169","749950","0.0-92.0-1.0","""event"",""trial"",""time""
""fullscreenenter"",""0"",""7537""
","
","
","""event"",""trial"",""time""
""fullscreenenter"",""0"",""7537""
","
","null","<p></p>","null","","","","","","","","","","","","","","","","","","","","","","",""
"","do_trial","170","754590","0.0-93.0-0.0","""event"",""trial"",""time""
""fullscreenenter"",""0"",""7537""
","
","
","""event"",""trial"",""time""
""fullscreenenter"",""0"",""7537""
","
","106.70000000018626","","","","","","","","51","1,1,0","1","coast","31","probe-142","1","0.27281597650310724","0.05753218702471835","0","","","","","","","",""
"","html-keyboard-response","171","755596","0.0-93.0-1.0","""event"",""trial"",""time""
""fullscreenenter"",""0"",""7537""
","
","
","""event"",""trial"",""time""
""fullscreenenter"",""0"",""7537""
","
","null","<p></p>","null","","","","","","","","","","","","","","","","","","","","","","",""
"","do_trial","172","760284","0.0-94.0-0.0","""event"",""trial"",""time""
""fullscreenenter"",""0"",""7537""
","
","
","""event"",""trial"",""time""
""fullscreenenter"",""0"",""7537""
","
","145.5","","","","","","","","49","1,0,0","1","coast","32","probe-179","1","0.19490438143436437","0.14591177603382086","1","","","","","","","",""
"","html-keyboard-response","173","761292","0.0-94.0-1.0","""event"",""trial"",""time""
""fullscreenenter"",""0"",""7537""
","
","
","""event"",""trial"",""time""
""fullscreenenter"",""0"",""7537""
","
","null","<p></p>","null","","","","","","","","","","","","","","","","","","","","","","",""
"","do_trial","174","765830","0.0-95.0-0.0","""event"",""trial"",""time""
""fullscreenenter"",""0"",""7537""
","
","
","""event"",""trial"",""time""
""fullscreenenter"",""0"",""7537""
","
","0.09999999986030161","","","","","","","","49","1,1,0","1","coast","33","probe-111","0.8910041131052111","0.23824865325984237","0.10425259526049746","1","","","","","","","",""
"","html-keyboard-response","175","766837","0.0-95.0-1.0","""event"",""trial"",""time""
""fullscreenenter"",""0"",""7537""
","
","
","""event"",""trial"",""time""
""fullscreenenter"",""0"",""7537""
","
","null","<p></p>","null","","","","","","","","","","","","","","","","","","","","","","",""
"","do_trial","176","771393","0.0-96.0-0.0","""event"",""trial"",""time""
""fullscreenenter"",""0"",""7537""
","
","
","""event"",""trial"",""time""
""fullscreenenter"",""0"",""7537""
","
","12.199999999953434","","","","","","","","49","1,0,0","1","coast","34","probe-20","0.8083506464019564","0.07238756653190886","0.07327109164124629","1","","","","","","","",""
"","html-keyboard-response","177","772402","0.0-96.0-1.0","""event"",""trial"",""time""
""fullscreenenter"",""0"",""7537""
","
","
","""event"",""trial"",""time""
""fullscreenenter"",""0"",""7537""
","
","null","<p></p>","null","","","","","","","","","","","","","","","","","","","","","","",""
"","do_trial","178","777051","0.0-97.0-0.0","""event"",""trial"",""time""
""fullscreenenter"",""0"",""7537""
","
","
","""event"",""trial"",""time""
""fullscreenenter"",""0"",""7537""
","
","104.60000000009313","","","","","","","","49","0,0,0","1","coast","35","probe-221","0.6872804140510017","0.3192577846824682","0.1354461403608541","0","","","","","","","",""
"","html-keyboard-response","179","778059","0.0-97.0-1.0","""event"",""trial"",""time""
""fullscreenenter"",""0"",""7537""
","
","
","""event"",""trial"",""time""
""fullscreenenter"",""0"",""7537""
","
","null","<p></p>","null","","","","","","","","","","","","","","","","","","","","","","",""
"","do_trial","180","782601","0.0-98.0-0.0","""event"",""trial"",""time""
""fullscreenenter"",""0"",""7537""
","
","
","""event"",""trial"",""time""
""fullscreenenter"",""0"",""7537""
","
","0.10000000009313226","","","","","","","","49","1,1,0","1","coast","36","probe-63","0.7496151827455441","0.28777190425743493","0.21192707941436195","1","","","","","","","",""
"","html-keyboard-response","181","783603","0.0-98.0-1.0","""event"",""trial"",""time""
""fullscreenenter"",""0"",""7537""
","
","
","""event"",""trial"",""time""
""fullscreenenter"",""0"",""7537""
","
","null","<p></p>","null","","","","","","","","","","","","","","","","","","","","","","",""
"","do_trial","182","788288","0.0-99.0-0.0","""event"",""trial"",""time""
""fullscreenenter"",""0"",""7537""
","
","
","""event"",""trial"",""time""
""fullscreenenter"",""0"",""7537""
","
","151.80000000004657","","","","","","","","49","1,0,1","1","coast","37","probe-58","0.7545649503775405","0.3632129552351303","0.2018134068804148","1","","","","","","","",""
"","html-keyboard-response","183","789304","0.0-99.0-1.0","""event"",""trial"",""time""
""fullscreenenter"",""0"",""7537""
","
","
","""event"",""trial"",""time""
""fullscreenenter"",""0"",""7537""
","
","null","<p></p>","null","","","","","","","","","","","","","","","","","","","","","","",""
"","do_trial","184","793902","0.0-100.0-0.0","""event"",""trial"",""time""
""fullscreenenter"",""0"",""7537""
","
","
","""event"",""trial"",""time""
""fullscreenenter"",""0"",""7537""
","
","63.5","","","","","","","","49","1,0,0","1","coast","38","probe-128","0.7100614162314376","0.425620940898024","0.2534984863592328","1","","","","","","","",""
"","html-keyboard-response","185","794904","0.0-100.0-1.0","""event"",""trial"",""time""
""fullscreenenter"",""0"",""7537""
","
","
","""event"",""trial"",""time""
""fullscreenenter"",""0"",""7537""
","
","null","<p></p>","null","","","","","","","","","","","","","","","","","","","","","","",""
"","do_trial","186","799458","0.0-101.0-0.0","""event"",""trial"",""time""
""fullscreenenter"",""0"",""7537""
","
","
","""event"",""trial"",""time""
""fullscreenenter"",""0"",""7537""
","
","18","","","","","","","","49","1,0,0","1","coast","39","probe-125","0.7070788720926164","0.3828148248043872","0.2108798119481285","1","","","","","","","",""
"","html-keyboard-response","187","800472","0.0-101.0-1.0","""event"",""trial"",""time""
""fullscreenenter"",""0"",""7537""
","
","
","""event"",""trial"",""time""
""fullscreenenter"",""0"",""7537""
","
","null","<p></p>","null","","","","","","","","","","","","","","","","","","","","","","",""
"","do_trial","188","805063","0.0-102.0-0.0","""event"",""trial"",""time""
""fullscreenenter"",""0"",""7537""
","
","
","""event"",""trial"",""time""
""fullscreenenter"",""0"",""7537""
","
","44.0999999998603","","","","","","","","49","0,1,0","1","coast","40","probe-34","0.6336147117487306","0.5104263780473782","0.2921577931977479","0","","","","","","","",""
"","html-keyboard-response","189","806069","0.0-102.0-1.0","""event"",""trial"",""time""
""fullscreenenter"",""0"",""7537""
","
","
","""event"",""trial"",""time""
""fullscreenenter"",""0"",""7537""
","
","null","<p></p>","null","","","","","","","","","","","","","","","","","","","","","","",""
"","do_trial","190","810689","0.0-103.0-0.0","""event"",""trial"",""time""
""fullscreenenter"",""0"",""7537""
","
","
","""event"",""trial"",""time""
""fullscreenenter"",""0"",""7537""
","
","86.19999999995343","","","","","","","","49","1,1,0","1","coast","41","probe-04","0.5636539777536643","0.44414410794039194","0.28302290435067756","1","","","","","","","",""
"","html-keyboard-response","191","811695","0.0-103.0-1.0","""event"",""trial"",""time""
""fullscreenenter"",""0"",""7537""
","
","
","""event"",""trial"",""time""
""fullscreenenter"",""0"",""7537""
","
","null","<p></p>","null","","","","","","","","","","","","","","","","","","","","","","",""
"","do_trial","192","816231","0.0-104.0-0.0","""event"",""trial"",""time""
""fullscreenenter"",""0"",""7537""
","
","
","""event"",""trial"",""time""
""fullscreenenter"",""0"",""7537""
","
","0.09999999986030161","","","","","","","","49","0,1,0","1","coast","42","probe-50","0.4474598286052157","0.5559827775155189","0.27823920952645204","0","","","","","","","",""
"","html-keyboard-response","193","817237","0.0-104.0-1.0","""event"",""trial"",""time""
""fullscreenenter"",""0"",""7537""
","
","
","""event"",""trial"",""time""
""fullscreenenter"",""0"",""7537""
","
","null","<p></p>","null","","","","","","","","","","","","","","","","","","","","","","",""
"","do_trial","194","821795","0.0-105.0-0.0","""event"",""trial"",""time""
""fullscreenenter"",""0"",""7537""
","
","
","""event"",""trial"",""time""
""fullscreenenter"",""0"",""7537""
","
","24.5999999998603","","","","","","","","49","1,0,0","1","coast","43","probe-73","0.36869224595665195","0.6197810920041801","0.2699460973940861","1","","","","","","","",""
"","html-keyboard-response","195","822805","0.0-105.0-1.0","""event"",""trial"",""time""
""fullscreenenter"",""0"",""7537""
","
","
","""event"",""trial"",""time""
""fullscreenenter"",""0"",""7537""
","
","null","<p></p>","null","","","","","","","","","","","","","","","","","","","","","","",""
"","do_trial","196","827346","0.0-106.0-0.0","""event"",""trial"",""time""
""fullscreenenter"",""0"",""7537""
","
","
","""event"",""trial"",""time""
""fullscreenenter"",""0"",""7537""
","
","0.09999999986030161","","","","","","","","49","0,1,0","1","coast","44","probe-109","0.19497918773383605","0.4841299718988599","0.37470469286298796","0","","","","","","","",""
"","html-keyboard-response","197","828355","0.0-106.0-1.0","""event"",""trial"",""time""
""fullscreenenter"",""0"",""7537""
","
","
","""event"",""trial"",""time""
""fullscreenenter"",""0"",""7537""
","
","null","<p></p>","null","","","","","","","","","","","","","","","","","","","","","","",""
"","do_trial","198","832896","0.0-107.0-0.0","""event"",""trial"",""time""
""fullscreenenter"",""0"",""7537""
","
","
","""event"",""trial"",""time""
""fullscreenenter"",""0"",""7537""
","
","0","","","","","","","","49","0,0,0","1","coast","45","probe-188","0.17819334994055272","0.6449697841530261","0.2385856965672064","0","","","","","","","",""
"","html-keyboard-response","199","833902","0.0-107.0-1.0","""event"",""trial"",""time""
""fullscreenenter"",""0"",""7537""
","
","
","""event"",""trial"",""time""
""fullscreenenter"",""0"",""7537""
","
","null","<p></p>","null","","","","","","","","","","","","","","","","","","","","","","",""
"","do_trial","200","838472","0.0-108.0-0.0","""event"",""trial"",""time""
""fullscreenenter"",""0"",""7537""
","
","
","""event"",""trial"",""time""
""fullscreenenter"",""0"",""7537""
","
","30.299999999813735","","","","","","","","49","1,1,0","1","coast","46","probe-51","0.07957851674241809","0.6388206175940557","0.2043679150821991","1","","","","","","","",""
"","html-keyboard-response","201","839479","0.0-108.0-1.0","""event"",""trial"",""time""
""fullscreenenter"",""0"",""7537""
","
","
","""event"",""trial"",""time""
""fullscreenenter"",""0"",""7537""
","
","null","<p></p>","null","","","","","","","","","","","","","","","","","","","","","","",""
"","do_trial","202","844017","0.0-109.0-0.0","""event"",""trial"",""time""
""fullscreenenter"",""0"",""7537""
","
","
","""event"",""trial"",""time""
""fullscreenenter"",""0"",""7537""
","
","0","","","","","","","","49","0,1,0","1","coast","47","probe-132","0.050213114955880586","0.5248191165145201","0.2481705690798869","0","","","","","","","",""
"","html-keyboard-response","203","845028","0.0-109.0-1.0","""event"",""trial"",""time""
""fullscreenenter"",""0"",""7537""
","
","
","""event"",""trial"",""time""
""fullscreenenter"",""0"",""7537""
","
","null","<p></p>","null","","","","","","","","","","","","","","","","","","","","","","",""
"","do_trial","204","849926","0.0-110.0-0.0","""event"",""trial"",""time""
""fullscreenenter"",""0"",""7537""
","
","
","""event"",""trial"",""time""
""fullscreenenter"",""0"",""7537""
","
","357.69999999995343","","","","","","","","50","1,0,0","1","coast","48","probe-93","0.16018939784225747","0.560291386824837","0.4236535269941951","0","","","","","","","",""
"","html-keyboard-response","205","850931","0.0-110.0-1.0","""event"",""trial"",""time""
""fullscreenenter"",""0"",""7537""
","
","
","""event"",""trial"",""time""
""fullscreenenter"",""0"",""7537""
","
","null","<p></p>","null","","","","","","","","","","","","","","","","","","","","","","",""
"","do_trial","206","855624","0.0-111.0-0.0","""event"",""trial"",""time""
""fullscreenenter"",""0"",""7537""
","
","
","""event"",""trial"",""time""
""fullscreenenter"",""0"",""7537""
","
","147","","","","","","","","51","0,1,1","1","coast","49","probe-185","0.10631750591089235","0.6137841121436238","0.3761427705982593","1","","","","","","","",""
"","html-keyboard-response","207","856631","0.0-111.0-1.0","""event"",""trial"",""time""
""fullscreenenter"",""0"",""7537""
","
","
","""event"",""trial"",""time""
""fullscreenenter"",""0"",""7537""
","
","null","<p></p>","null","","","","","","","","","","","","","","","","","","","","","","",""
"","do_trial","208","861291","0.0-112.0-0.0","""event"",""trial"",""time""
""fullscreenenter"",""0"",""7537""
","
","
","""event"",""trial"",""time""
""fullscreenenter"",""0"",""7537""
","
","122.39999999990687","","","","","","","","51","0,0,0","1","coast","50","probe-217","0.21995057652334496","0.6119780348364173","0.2899261789036305","0","","","","","","","",""
"","html-keyboard-response","209","862302","0.0-112.0-1.0","""event"",""trial"",""time""
""fullscreenenter"",""0"",""7537""
","
","
","""event"",""trial"",""time""
""fullscreenenter"",""0"",""7537""
","
","null","<p></p>","null","","","","","","","","","","","","","","","","","","","","","","",""
"","do_trial","210","867282","0.0-113.0-0.0","""event"",""trial"",""time""
""fullscreenenter"",""0"",""7537""
","
","
","""event"",""trial"",""time""
""fullscreenenter"",""0"",""7537""
","
","434.30000000004657","","","","","","","","49","0,0,0","1","coast","51","probe-162","0.3113495251388604","0.6922696688708941","0.35485422177758424","0","","","","","","","",""
"","html-keyboard-response","211","868299","0.0-113.0-1.0","""event"",""trial"",""time""
""fullscreenenter"",""0"",""7537""
","
","
","""event"",""trial"",""time""
""fullscreenenter"",""0"",""7537""
","
","null","<p></p>","null","","","","","","","","","","","","","","","","","","","","","","",""
"","do_trial","212","873398","0.0-114.0-0.0","""event"",""trial"",""time""
""fullscreenenter"",""0"",""7537""
","
","
","""event"",""trial"",""time""
""fullscreenenter"",""0"",""7537""
","
","556.4000000001397","","","","","","","","49","0,1,0","1","coast","52","probe-96","0.19232561576941373","0.5756102210561649","0.28285644369528046","0","","","","","","","",""
"","html-keyboard-response","213","874409","0.0-114.0-1.0","""event"",""trial"",""time""
""fullscreenenter"",""0"",""7537""
","
","
","""event"",""trial"",""time""
""fullscreenenter"",""0"",""7537""
","
","null","<p></p>","null","","","","","","","","","","","","","","","","","","","","","","",""
"","do_trial","214","878943","0.0-115.0-0.0","""event"",""trial"",""time""
""fullscreenenter"",""0"",""7537""
","
","
","""event"",""trial"",""time""
""fullscreenenter"",""0"",""7537""
","
","0","","","","","","","","51","0,1,1","1","coast","53","probe-230","0.10409636599799857","0.6844683451241886","0.23898471647319713","1","","","","","","","",""
"","html-keyboard-response","215","879956","0.0-115.0-1.0","""event"",""trial"",""time""
""fullscreenenter"",""0"",""7537""
","
","
","""event"",""trial"",""time""
""fullscreenenter"",""0"",""7537""
","
","null","<p></p>","null","","","","","","","","","","","","","","","","","","","","","","",""
"","do_trial","216","884564","0.0-116.0-0.0","""event"",""trial"",""time""
""fullscreenenter"",""0"",""7537""
","
","
","""event"",""trial"",""time""
""fullscreenenter"",""0"",""7537""
","
","59.699999999953434","","","","","","","","51","0,0,0","1","coast","54","probe-147","0.06923306741211946","0.6153645327386668","0.2338911621533621","0","","","","","","","",""
"","html-keyboard-response","217","885578","0.0-116.0-1.0","""event"",""trial"",""time""
""fullscreenenter"",""0"",""7537""
","
","
","""event"",""trial"",""time""
""fullscreenenter"",""0"",""7537""
","
","null","<p></p>","null","","","","","","","","","","","","","","","","","","","","","","",""
"","do_trial","218","890115","0.0-117.0-0.0","""event"",""trial"",""time""
""fullscreenenter"",""0"",""7537""
","
","
","""event"",""trial"",""time""
""fullscreenenter"",""0"",""7537""
","
","0","","","","","","","","51","0,0,1","1","coast","55","probe-47","0.100268515407709","0.5824560649904281","0.297424267470487","1","","","","","","","",""
"","html-keyboard-response","219","891123","0.0-117.0-1.0","""event"",""trial"",""time""
""fullscreenenter"",""0"",""7537""
","
","
","""event"",""trial"",""time""
""fullscreenenter"",""0"",""7537""
","
","null","<p></p>","null","","","","","","","","","","","","","","","","","","","","","","",""
"","do_trial","220","895790","0.0-118.0-0.0","""event"",""trial"",""time""
""fullscreenenter"",""0"",""7537""
","
","
","""event"",""trial"",""time""
""fullscreenenter"",""0"",""7537""
","
","125.70000000018626","","","","","","","","51","1,1,0","1","coast","56","probe-175","0.0910651020735649","0.5807668887563027","0.21211164007169836","0","","","","","","","",""
"","html-keyboard-response","221","896799","0.0-118.0-1.0","""event"",""trial"",""time""
""fullscreenenter"",""0"",""7537""
","
","
","""event"",""trial"",""time""
""fullscreenenter"",""0"",""7537""
","
","null","<p></p>","null","","","","","","","","","","","","","","","","","","","","","","",""
"","do_trial","222","901440","0.0-119.0-0.0","""event"",""trial"",""time""
""fullscreenenter"",""0"",""7537""
","
","
","""event"",""trial"",""time""
""fullscreenenter"",""0"",""7537""
","
","94.79999999981374","","","","","","","","51","0,0,1","1","coast","57","probe-118","0.06716131720520753","0.5295687428816466","0.17913332050182568","1","","","","","","","",""
"","html-keyboard-response","223","902448","0.0-119.0-1.0","""event"",""trial"",""time""
""fullscreenenter"",""0"",""7537""
","
","
","""event"",""trial"",""time""
""fullscreenenter"",""0"",""7537""
","
","null","<p></p>","null","","","","","","","","","","","","","","","","","","","","","","",""
"","do_trial","224","907014","0.0-120.0-0.0","""event"",""trial"",""time""
""fullscreenenter"",""0"",""7537""
","
","
","""event"",""trial"",""time""
""fullscreenenter"",""0"",""7537""
","
","21","","","","","","","","51","0,1,0","1","coast","58","probe-43","0.07190105753990926","0.669589528904138","0.2026630561682703","0","","","","","","","",""
"","html-keyboard-response","225","908018","0.0-120.0-1.0","""event"",""trial"",""time""
""fullscreenenter"",""0"",""7537""
","
","
","""event"",""trial"",""time""
""fullscreenenter"",""0"",""7537""
","
","null","<p></p>","null","","","","","","","","","","","","","","","","","","","","","","",""
"","do_trial","226","912603","0.0-121.0-0.0","""event"",""trial"",""time""
""fullscreenenter"",""0"",""7537""
","
","
","""event"",""trial"",""time""
""fullscreenenter"",""0"",""7537""
","
","50.10000000009313","","","","","","","","51","0,0,0","1","coast","59","probe-210","0.06852095209580228","0.5621262797647357","0.15700715669120255","0","","","","","","","",""
"","html-keyboard-response","227","913610","0.0-121.0-1.0","""event"",""trial"",""time""
""fullscreenenter"",""0"",""7537""
","
","
","""event"",""trial"",""time""
""fullscreenenter"",""0"",""7537""
","
","null","<p></p>","null","","","","","","","","","","","","","","","","","","","","","","",""
"","do_trial","228","918287","0.0-122.0-0.0","""event"",""trial"",""time""
""fullscreenenter"",""0"",""7537""
","
","
","""event"",""trial"",""time""
""fullscreenenter"",""0"",""7537""
","
","134.79999999981374","","","","","","","","51","0,1,0","1","coast","60","probe-28","0.19859261087736862","0.6227878718438404","0.21959662332596505","0","","","","","","","",""
"","html-keyboard-response","229","919296","0.0-122.0-1.0","""event"",""trial"",""time""
""fullscreenenter"",""0"",""7537""
","
","
","""event"",""trial"",""time""
""fullscreenenter"",""0"",""7537""
","
","null","<p></p>","null","","","","","","","","","","","","","","","","","","","","","","",""
"","do_trial","230","923875","0.0-123.0-0.0","""event"",""trial"",""time""
""fullscreenenter"",""0"",""7537""
","
","
","""event"",""trial"",""time""
""fullscreenenter"",""0"",""7537""
","
","42.5","","","","","","","","49","0,1,0","1","coast","61","probe-65","0.19236381583777015","0.5836517617754855","0.24040847233532803","0","","","","","","","",""
"","html-keyboard-response","231","924887","0.0-123.0-1.0","""event"",""trial"",""time""
""fullscreenenter"",""0"",""7537""
","
","
","""event"",""trial"",""time""
""fullscreenenter"",""0"",""7537""
","
","null","<p></p>","null","","","","","","","","","","","","","","","","","","","","","","",""
"","do_trial","232","929507","0.0-124.0-0.0","""event"",""trial"",""time""
""fullscreenenter"",""0"",""7537""
","
","
","""event"",""trial"",""time""
""fullscreenenter"",""0"",""7537""
","
","80.10000000009313","","","","","","","","50","0,1,0","1","coast","62","probe-70","0.2871606093975012","0.6831231586533351","0.19782383227478828","1","","","","","","","",""
"","html-keyboard-response","233","930522","0.0-124.0-1.0","""event"",""trial"",""time""
""fullscreenenter"",""0"",""7537""
","
","
","""event"",""trial"",""time""
""fullscreenenter"",""0"",""7537""
","
","null","<p></p>","null","","","","","","","","","","","","","","","","","","","","","","",""
"","do_trial","234","935156","0.0-125.0-0.0","""event"",""trial"",""time""
""fullscreenenter"",""0"",""7537""
","
","
","""event"",""trial"",""time""
""fullscreenenter"",""0"",""7537""
","
","89.39999999990687","","","","","","","","50","0,1,1","1","coast","63","probe-196","0.1560487835061527","0.7088974025520624","0.3589922657172602","1","","","","","","","",""
"","html-keyboard-response","235","936168","0.0-125.0-1.0","""event"",""trial"",""time""
""fullscreenenter"",""0"",""7537""
","
","
","""event"",""trial"",""time""
""fullscreenenter"",""0"",""7537""
","
","null","<p></p>","null","","","","","","","","","","","","","","","","","","","","","","",""
"","do_trial","236","940714","0.0-126.0-0.0","""event"",""trial"",""time""
""fullscreenenter"",""0"",""7537""
","
","
","""event"",""trial"",""time""
""fullscreenenter"",""0"",""7537""
","
","4.800000000046566","","","","","","","","50","0,1,0","1","coast","64","probe-131","0.11066383927955328","0.6564658331432977","0.3707328430546177","1","","","","","","","",""
"","html-keyboard-response","237","941720","0.0-126.0-1.0","""event"",""trial"",""time""
""fullscreenenter"",""0"",""7537""
","
","
","""event"",""trial"",""time""
""fullscreenenter"",""0"",""7537""
","
","null","<p></p>","null","","","","","","","","","","","","","","","","","","","","","","",""
"","do_trial","238","946300","0.0-127.0-0.0","""event"",""trial"",""time""
""fullscreenenter"",""0"",""7537""
","
","
","""event"",""trial"",""time""
""fullscreenenter"",""0"",""7537""
","
","49.39999999990687","","","","","","","","50","0,1,0","1","coast","65","probe-56","0.07362326818646016","0.6198729233267184","0.3641285295603035","1","","","","","","","",""
"","html-keyboard-response","239","947310","0.0-127.0-1.0","""event"",""trial"",""time""
""fullscreenenter"",""0"",""7537""
","
","
","""event"",""trial"",""time""
""fullscreenenter"",""0"",""7537""
","
","null","<p></p>","null","","","","","","","","","","","","","","","","","","","","","","",""
"","do_trial","240","951925","0.0-128.0-0.0","""event"",""trial"",""time""
""fullscreenenter"",""0"",""7537""
","
","
","""event"",""trial"",""time""
""fullscreenenter"",""0"",""7537""
","
","82","","","","","","","","50","0,0,0","1","coast","66","probe-85","0.06869814829293143","0.578749102639139","0.30456035908374957","0","","","","","","","",""
"","html-keyboard-response","241","952932","0.0-128.0-1.0","""event"",""trial"",""time""
""fullscreenenter"",""0"",""7537""
","
","
","""event"",""trial"",""time""
""fullscreenenter"",""0"",""7537""
","
","null","<p></p>","null","","","","","","","","","","","","","","","","","","","","","","",""
"","do_trial","242","957470","0.0-129.0-0.0","""event"",""trial"",""time""
""fullscreenenter"",""0"",""7537""
","
","
","""event"",""trial"",""time""
""fullscreenenter"",""0"",""7537""
","
","0","","","","","","","","50","0,1,1","1","coast","67","probe-189","0.15362055306855527","0.734517781295645","0.28969663127622","1","","","","","","","",""
"","html-keyboard-response","243","958484","0.0-129.0-1.0","""event"",""trial"",""time""
""fullscreenenter"",""0"",""7537""
","
","
","""event"",""trial"",""time""
""fullscreenenter"",""0"",""7537""
","
","null","<p></p>","null","","","","","","","","","","","","","","","","","","","","","","",""
"","do_trial","244","963025","0.0-130.0-0.0","""event"",""trial"",""time""
""fullscreenenter"",""0"",""7537""
","
","
","""event"",""trial"",""time""
""fullscreenenter"",""0"",""7537""
","
","0","","","","","","","","50","0,0,1","1","coast","68","probe-134","0.058452155789569575","0.5702162382883984","0.3158247662102669","0","","","","","","","",""
"","html-keyboard-response","245","964036","0.0-130.0-1.0","""event"",""trial"",""time""
""fullscreenenter"",""0"",""7537""
","
","
","""event"",""trial"",""time""
""fullscreenenter"",""0"",""7537""
","
","null","<p></p>","null","","","","","","","","","","","","","","","","","","","","","","",""
"","do_trial","246","969105","0.0-131.0-0.0","""event"",""trial"",""time""
""fullscreenenter"",""0"",""7537""
","
","
","""event"",""trial"",""time""
""fullscreenenter"",""0"",""7537""
","
","528.3000000000466","","","","","","","","49","0,1,0","1","coast","69","probe-181","0.11167977422613273","0.5799746519875216","0.22807760612370956","0","","","","","","","",""
"","html-keyboard-response","247","970113","0.0-131.0-1.0","""event"",""trial"",""time""
""fullscreenenter"",""0"",""7537""
","
","
","""event"",""trial"",""time""
""fullscreenenter"",""0"",""7537""
","
","null","<p></p>","null","","","","","","","","","","","","","","","","","","","","","","",""
"","do_bye","248","971625","0.0-132.0-0.0","""event"",""trial"",""time""
""fullscreenenter"",""0"",""7537""
","
","
","""event"",""trial"",""time""
""fullscreenenter"",""0"",""7537""
","
","null","","","","","","","","null","","","","","","","","","","","","","","","","",""
"","break","249","973847","0.0-132.0-1.0","""event"",""trial"",""time""
""fullscreenenter"",""0"",""7537""
","
","
","""event"",""trial"",""time""
""fullscreenenter"",""0"",""7537""
","
","2221.2999999998137","<div class='center'><p>Time to take a quick break! You have 2 minutes to rest, but you can move on sooner if you'd like.</p><p> Press the <b>space bar</b> to continue.</p></div>","32","","","","","","","","","","","","","","","","","","","","","","",""
"","do_travel","250","982857","0.0-133.0-0.0","""event"",""trial"",""time""
""fullscreenenter"",""0"",""7537""
","
","
","""event"",""trial"",""time""
""fullscreenenter"",""0"",""7537""
","
","null","","","","","","","","null","","","","","","","","","","","","","","","","",""
"","do_welcome","251","986871","0.0-133.0-1.0","""event"",""trial"",""time""
""fullscreenenter"",""0"",""7537""
","
","
","""event"",""trial"",""time""
""fullscreenenter"",""0"",""7537""
","
","null","","","","","","","","null","","","","","","","","","","","","","","","","",""
"","do_trial","252","991901","0.0-134.0-0.0","""event"",""trial"",""time""
""fullscreenenter"",""0"",""7537""
","
","
","""event"",""trial"",""time""
""fullscreenenter"",""0"",""7537""
","
","491.60000000009313","","","","","","","","49","0,1,0","2","highway","70","probe-212","0.08504452244775522","1","0.2444021741681893","0","","","","","","","",""
"","html-keyboard-response","253","992908","0.0-134.0-1.0","""event"",""trial"",""time""
""fullscreenenter"",""0"",""7537""
","
","
","""event"",""trial"",""time""
""fullscreenenter"",""0"",""7537""
","
","null","<p></p>","null","","","","","","","","","","","","","","","","","","","","","","",""
"","do_trial","254","997464","0.0-135.0-0.0","""event"",""trial"",""time""
""fullscreenenter"",""0"",""7537""
","
","
","""event"",""trial"",""time""
""fullscreenenter"",""0"",""7537""
","
","0","","","","","","","","51","0,1,0","2","highway","71","probe-145","0.12086530302856181","1","0.31430550610257696","0","","","","","","","",""
"","html-keyboard-response","255","998476","0.0-135.0-1.0","""event"",""trial"",""time""
""fullscreenenter"",""0"",""7537""
","
","
","""event"",""trial"",""time""
""fullscreenenter"",""0"",""7537""
","
","null","<p></p>","null","","","","","","","","","","","","","","","","","","","","","","",""
"","do_trial","256","1003093","0.0-136.0-0.0","""event"",""trial"",""time""
""fullscreenenter"",""0"",""7537""
","
","
","""event"",""trial"",""time""
""fullscreenenter"",""0"",""7537""
","
","78.30000000004657","","","","","","","","50","1,1,0","2","highway","72","probe-49","0.19497696616239119","0.8458431306193296","0.23942474056526958","1","","","","","","","",""
"","html-keyboard-response","257","1004103","0.0-136.0-1.0","""event"",""trial"",""time""
""fullscreenenter"",""0"",""7537""
","
","
","""event"",""trial"",""time""
""fullscreenenter"",""0"",""7537""
","
","null","<p></p>","null","","","","","","","","","","","","","","","","","","","","","","",""
"","do_trial","258","1008728","0.0-137.0-0.0","""event"",""trial"",""time""
""fullscreenenter"",""0"",""7537""
","
","
","""event"",""trial"",""time""
""fullscreenenter"",""0"",""7537""
","
","87.80000000004657","","","","","","","","50","0,0,1","2","highway","73","probe-78","0.15294969188583676","0.6914246861071102","0.3081083744983748","0","","","","","","","",""
