"success","trial_type","trial_index","time_elapsed","internal_node_id","interactions","blur_events","focus_events","fullscreenenter_events","fullscreenexit_events","rt","stimulus","key_press","subject_id","participant_id","age","gender","prompt","response","choice_outcomes","context_n","context_img_id","trial_n","probe_img_id","pR_red","pR_white","pR_black","outcome","contextArray_ind","validImageProbes","invalidImageProbes","pRew_Red","pRew_White","pRew_Black","availableForMemProbe","choice_blocks"
"true","fullscreen","0","5434","0.0-0.0","""event"",""trial"",""time""
""fullscreenenter"",""0"",""4440""
","
","
","""event"",""trial"",""time""
""fullscreenenter"",""0"",""4440""
","
","","","","","","","","","","","","","","","","","","","","","","","","","",""
"","pavlovia","1","5436","0.0-1.0","""event"",""trial"",""time""
""fullscreenenter"",""0"",""4440""
","
","
","""event"",""trial"",""time""
""fullscreenenter"",""0"",""4440""
","
","","","","","","","","","","","","","","","","","","","","","","","","","",""
"","instruc1","2","50543","0.0-2.0","""event"",""trial"",""time""
""fullscreenenter"",""0"",""4440""
","
","
","""event"",""trial"",""time""
""fullscreenenter"",""0"",""4440""
","
","null","run_exp/static/audio/clip_1_welcome.m4a","null","2132","1980","14","Male","<div class='center'><p>Welcome! This is the first part of the study. It will last ~30 minutes. In part 1 and part 2 of the study, you are the head captain of a pirate ship traveling around the world to different islands. You will play a few different games throughout these two parts. Here is an overview of them:</p><br><p>Part 1 (today)</p><p>1. Instructions, practice game, and quiz</p><p>2. Pick a pirate game on 6 different islands</p><br><p>Part 2 (tomorrow)</p><p>3. Pick a pirate game and memory game</p><p>4. Where did you see this ship? </p></div>","","","","","","","","","","","","","","","","","",""
"","html-keyboard-response","3","55695","0.0-3.0","""event"",""trial"",""time""
""fullscreenenter"",""0"",""4440""
","
","
","""event"",""trial"",""time""
""fullscreenenter"",""0"",""4440""
","
","5150.399999991059","<div class='center'><p>Welcome! This is the first part of the study. It will last ~30 minutes. In part 1 and part 2 of the study, you are the head captain of a pirate ship traveling around the world to different islands. You will play a few different games throughout these two parts. Here is an overview of them:</p><br><p>Part 1 (today)</p><p>1. Instructions, practice game, and quiz</p><p>2. Pick a pirate game on 6 different islands</p><br><p>Part 2 (tomorrow)</p><p>3. Pick a pirate game and memory game</p><p>4. Where did you see this ship? </p><p><b>[Press the space bar to continue]</b></p></div>","32","","","","","","","","","","","","","","","","","","","","","","",""
"","instruc2","4","61003","0.0-4.0","""event"",""trial"",""time""
""fullscreenenter"",""0"",""4440""
","
","
","""event"",""trial"",""time""
""fullscreenenter"",""0"",""4440""
","
","null","run_exp/static/audio/clip_2_different_places.m4a","null","","","","","<div class='center'><p>Today, you’ll visit these 6 islands on your journey. You'll be able to see these islands from your ship.</p><p><img src='run_exp/static/images/contexts/all_contexts.png' height='500'></p></div>","","","","","","","","","","","","","","","","","",""
"","html-keyboard-response","5","62930","0.0-5.0","""event"",""trial"",""time""
""fullscreenenter"",""0"",""4440""
","
","
","""event"",""trial"",""time""
""fullscreenenter"",""0"",""4440""
","
","1926.5","<div class='center'><p>Today, you’ll visit these 6 islands on your journey. You'll be able to see these islands from your ship.</p><p><img src='run_exp/static/images/contexts/all_contexts.png' height='500'></p><p><b>[Press the space bar to continue]</b></p></div>","32","","","","","","","","","","","","","","","","","","","","","","",""
"","instruc3","6","72603","0.0-6.0","""event"",""trial"",""time""
""fullscreenenter"",""0"",""4440""
","
","
","""event"",""trial"",""time""
""fullscreenenter"",""0"",""4440""
","
","null","run_exp/static/audio/clip_3_goal_of_game_1.m4a","null","","","","","<div class='center'><p> The pirates on your ship will rob other ships as they leave the island.</p> These ships have just sold their goods to the islanders, so they will be filled with lots and lots of gold.</p><p><img src='run_exp/static/images/tutorial/ship_center.png' height='400'></p></div>","","","","","","","","","","","","","","","","","",""
"","html-keyboard-response","7","73494","0.0-7.0","""event"",""trial"",""time""
""fullscreenenter"",""0"",""4440""
","
","
","""event"",""trial"",""time""
""fullscreenenter"",""0"",""4440""
","
","890.6000000089407","<div class='center'><p> The pirates on your ship will rob other ships as they leave the island.</p> These ships have just sold their goods to the islanders, so they will be filled with lots and lots of gold.</p><p><img src='run_exp/static/images/tutorial/ship_center.png' height='400'></p><p><b>[Press the space bar to continue]</b></p></div>","32","","","","","","","","","","","","","","","","","","","","","","",""
"","instruc4","8","101483","0.0-8.0","""event"",""trial"",""time""
""fullscreenenter"",""0"",""4440""
","
","
","""event"",""trial"",""time""
""fullscreenenter"",""0"",""4440""
","
","null","run_exp/static/audio/clip_4_goal_of_game_2.m4a","null","","","","","<div class='center'><p>As the head captain, you do not have to rob any ships yourself. Another pirate will be doing the robbing for you. First, you will choose a pirate to rob the next ship.</p><p><img src='run_exp/static/images/tutorial/pirates_all_crop.png' height='200'></p><p>Then, you'll see if the pirate successfully robbed the ship of their gold. If they were successful, then you'll get a stack of gold coins like this:</p><p><img src='run_exp/static/images/tutorial/reward.png' height='150'></p><p> If they were <b>not</b> successful, then you'll get no gold coins, and you'll see a big red x like this: </p><p><img src='run_exp/static/images/tutorial/reward_no.png' height='150'></p><p> How much bonus money you make is based on how many gold coins you collect.</p><div>","","","","","","","","","","","","","","","","","",""
"","html-keyboard-response","9","103366","0.0-9.0","""event"",""trial"",""time""
""fullscreenenter"",""0"",""4440""
","
","
","""event"",""trial"",""time""
""fullscreenenter"",""0"",""4440""
","
","1882","<div class='center'><p>As the head captain, you do not have to rob any ships yourself. Another pirate will be doing the robbing for you. First, you will choose a pirate to rob the next ship.</p><p><img src='run_exp/static/images/tutorial/pirates_all_crop.png' height='200'></p><p>Then, you'll see if the pirate successfully robbed the ship of their gold. If they were successful, then you'll get a stack of gold coins like this:</p><p><img src='run_exp/static/images/tutorial/reward.png' height='150'></p><p> If they were <b>not</b> successful, then you'll get no gold coins, and you'll see a big red x like this: </p><p><img src='run_exp/static/images/tutorial/reward_no.png' height='150'></p><p> How much bonus money you make is based on how many gold coins you collect.</p<p><b>[Press the space bar to continue]</b></p></div>","32","","","","","","","","","","","","","","","","","","","","","","",""
"","instruc5","10","125610","0.0-10.0","""event"",""trial"",""time""
""fullscreenenter"",""0"",""4440""
","
","
","""event"",""trial"",""time""
""fullscreenenter"",""0"",""4440""
","
","22242.40000000596","run_exp/static/audio/clip_5_probabilistic.m4a","49","","","","","<div class='center'><p>Even the most skilled pirate can not rob EVERY ship.</p><p> Some ships will have very strong protections against pirate attacks.</p><p> Blue beard, here, is very, very good at robbing ships, but he won't be successful every time he tries to rob one.</p><p> You can press the <b>‘1’</b> key on the keyboard to choose him.</p><p> Try choosing him 10 times to see how often he succeeds at robbing a ship. </p><p><img src='run_exp/static/images/tutorial/blue.png' height='500'></p></div>","","","","","","","","","","","","","","","","","",""
"","html-keyboard-response","11","127112","0.0-11.0","""event"",""trial"",""time""
""fullscreenenter"",""0"",""4440""
","
","
","""event"",""trial"",""time""
""fullscreenenter"",""0"",""4440""
","
","null","<div class='center'><p><img src='run_exp/static/images/tutorial/blue_win.png' height='500'></p></div>","null","","","","","","","","","","","","","","","","","","","","","","",""
"","html-keyboard-response","12","129117","0.0-12.0","""event"",""trial"",""time""
""fullscreenenter"",""0"",""4440""
","
","
","""event"",""trial"",""time""
""fullscreenenter"",""0"",""4440""
","
","2004.5999999940395","<div class='center'><img src='run_exp/static/images/tutorial/blue.png' height='500'></p></div>","49","","","","","","","","","","","","","","","","","","","","","","",""
"","html-keyboard-response","13","130618","0.0-13.0","""event"",""trial"",""time""
""fullscreenenter"",""0"",""4440""
","
","
","""event"",""trial"",""time""
""fullscreenenter"",""0"",""4440""
","
","null","<div class='center'><p><img src='run_exp/static/images/tutorial/blue_win.png' height='500'></p></div>","null","","","","","","","","","","","","","","","","","","","","","","",""
"","html-keyboard-response","14","131437","0.0-14.0","""event"",""trial"",""time""
""fullscreenenter"",""0"",""4440""
","
","
","""event"",""trial"",""time""
""fullscreenenter"",""0"",""4440""
","
","819","<div class='center'><img src='run_exp/static/images/tutorial/blue.png' height='500'></p></div>","49","","","","","","","","","","","","","","","","","","","","","","",""
"","html-keyboard-response","15","132938","0.0-15.0","""event"",""trial"",""time""
""fullscreenenter"",""0"",""4440""
","
","
","""event"",""trial"",""time""
""fullscreenenter"",""0"",""4440""
","
","null","<div class='center'><p><img src='run_exp/static/images/tutorial/blue_win.png' height='500'></p></div>","null","","","","","","","","","","","","","","","","","","","","","","",""
"","html-keyboard-response","16","133593","0.0-16.0","""event"",""trial"",""time""
""fullscreenenter"",""0"",""4440""
","
","
","""event"",""trial"",""time""
""fullscreenenter"",""0"",""4440""
","
","654.5","<div class='center'><img src='run_exp/static/images/tutorial/blue.png' height='500'></p></div>","49","","","","","","","","","","","","","","","","","","","","","","",""
"","html-keyboard-response","17","135095","0.0-17.0","""event"",""trial"",""time""
""fullscreenenter"",""0"",""4440""
","
","
","""event"",""trial"",""time""
""fullscreenenter"",""0"",""4440""
","
","null","<div class='center'><p><img src='run_exp/static/images/tutorial/blue_no_win.png' height='500'></p></div>","null","","","","","","","","","","","","","","","","","","","","","","",""
"","html-keyboard-response","18","135881","0.0-18.0","""event"",""trial"",""time""
""fullscreenenter"",""0"",""4440""
","
","
","""event"",""trial"",""time""
""fullscreenenter"",""0"",""4440""
","
","785.8999999910593","<div class='center'><img src='run_exp/static/images/tutorial/blue.png' height='500'></p></div>","49","","","","","","","","","","","","","","","","","","","","","","",""
"","html-keyboard-response","19","137382","0.0-19.0","""event"",""trial"",""time""
""fullscreenenter"",""0"",""4440""
","
","
","""event"",""trial"",""time""
""fullscreenenter"",""0"",""4440""
","
","null","<div class='center'><p><img src='run_exp/static/images/tutorial/blue_win.png' height='500'></p></div>","null","","","","","","","","","","","","","","","","","","","","","","",""
"","html-keyboard-response","20","137840","0.0-20.0","""event"",""trial"",""time""
""fullscreenenter"",""0"",""4440""
","
","
","""event"",""trial"",""time""
""fullscreenenter"",""0"",""4440""
","
","458.09999999403954","<div class='center'><img src='run_exp/static/images/tutorial/blue.png' height='500'></p></div>","49","","","","","","","","","","","","","","","","","","","","","","",""
"","html-keyboard-response","21","139341","0.0-21.0","""event"",""trial"",""time""
""fullscreenenter"",""0"",""4440""
","
","
","""event"",""trial"",""time""
""fullscreenenter"",""0"",""4440""
","
","null","<div class='center'><p><img src='run_exp/static/images/tutorial/blue_win.png' height='500'></p></div>","null","","","","","","","","","","","","","","","","","","","","","","",""
"","html-keyboard-response","22","139869","0.0-22.0","""event"",""trial"",""time""
""fullscreenenter"",""0"",""4440""
","
","
","""event"",""trial"",""time""
""fullscreenenter"",""0"",""4440""
","
","527.2000000029802","<div class='center'><img src='run_exp/static/images/tutorial/blue.png' height='500'></p></div>","49","","","","","","","","","","","","","","","","","","","","","","",""
"","html-keyboard-response","23","141370","0.0-23.0","""event"",""trial"",""time""
""fullscreenenter"",""0"",""4440""
","
","
","""event"",""trial"",""time""
""fullscreenenter"",""0"",""4440""
","
","null","<div class='center'><p><img src='run_exp/static/images/tutorial/blue_win.png' height='500'></p></div>","null","","","","","","","","","","","","","","","","","","","","","","",""
"","html-keyboard-response","24","141820","0.0-24.0","""event"",""trial"",""time""
""fullscreenenter"",""0"",""4440""
","
","
","""event"",""trial"",""time""
""fullscreenenter"",""0"",""4440""
","
","449.90000000596046","<div class='center'><img src='run_exp/static/images/tutorial/blue.png' height='500'></p></div>","49","","","","","","","","","","","","","","","","","","","","","","",""
"","html-keyboard-response","25","143321","0.0-25.0","""event"",""trial"",""time""
""fullscreenenter"",""0"",""4440""
","
","
","""event"",""trial"",""time""
""fullscreenenter"",""0"",""4440""
","
","null","<div class='center'><p><img src='run_exp/static/images/tutorial/blue_no_win.png' height='500'></p></div>","null","","","","","","","","","","","","","","","","","","","","","","",""
"","html-keyboard-response","26","143770","0.0-26.0","""event"",""trial"",""time""
""fullscreenenter"",""0"",""4440""
","
","
","""event"",""trial"",""time""
""fullscreenenter"",""0"",""4440""
","
","448.5","<div class='center'><img src='run_exp/static/images/tutorial/blue.png' height='500'></p></div>","49","","","","","","","","","","","","","","","","","","","","","","",""
"","html-keyboard-response","27","145272","0.0-27.0","""event"",""trial"",""time""
""fullscreenenter"",""0"",""4440""
","
","
","""event"",""trial"",""time""
""fullscreenenter"",""0"",""4440""
","
","null","<div class='center'><p><img src='run_exp/static/images/tutorial/blue_win.png' height='500'></p></div>","null","","","","","","","","","","","","","","","","","","","","","","",""
"","html-keyboard-response","28","145579","0.0-28.0","""event"",""trial"",""time""
""fullscreenenter"",""0"",""4440""
","
","
","""event"",""trial"",""time""
""fullscreenenter"",""0"",""4440""
","
","307.1000000089407","<div class='center'><img src='run_exp/static/images/tutorial/blue.png' height='500'></p></div>","49","","","","","","","","","","","","","","","","","","","","","","",""
"","html-keyboard-response","29","147081","0.0-29.0","""event"",""trial"",""time""
""fullscreenenter"",""0"",""4440""
","
","
","""event"",""trial"",""time""
""fullscreenenter"",""0"",""4440""
","
","null","<div class='center'><p><img src='run_exp/static/images/tutorial/blue_win.png' height='500'></p></div>","null","","","","","","","","","","","","","","","","","","","","","","",""
"","instruc6","30","152480","0.0-30.0","""event"",""trial"",""time""
""fullscreenenter"",""0"",""4440""
","
","
","""event"",""trial"",""time""
""fullscreenenter"",""0"",""4440""
","
","null","run_exp/static/audio/clip_6_blue_beard_outcome.m4a","null","","","","","<div class='center'><p> See, he succeeded in robbing the ships most of the time but not every time. </p></div>","","","","","","","","","","","","","","","","","",""
"","html-keyboard-response","31","161358","0.0-31.0","""event"",""trial"",""time""
""fullscreenenter"",""0"",""4440""
","
","
","""event"",""trial"",""time""
""fullscreenenter"",""0"",""4440""
","
","8877.5","<div class='center'><p> See, he succeeded in robbing the ships most of the time but not every time. </p><p><b>[Press the space bar to continue]</b></p></div>","32","","","","","","","","","","","","","","","","","","","","","","",""
"","audio-keyboard-response","32","179636","0.0-32.0","""event"",""trial"",""time""
""fullscreenenter"",""0"",""4440""
","
","
","""event"",""trial"",""time""
""fullscreenenter"",""0"",""4440""
","
","18277.20000000298","run_exp/static/audio/clip_7_pick_pirate.m4a","51","","","","","","","","","","","","","","","","","","","","","","",""
"","audio-keyboard-response","33","184883","0.0-33.0-0.0","""event"",""trial"",""time""
""fullscreenenter"",""0"",""4440""
","
","
","""event"",""trial"",""time""
""fullscreenenter"",""0"",""4440""
","
","5246","run_exp/static/audio/clip_8_chosen_pirate_win.m4a","32","","","","","","","","","","","","","","","","","","","","","","",""
"","audio-keyboard-response","34","188265","0.0-33.0-1.0","""event"",""trial"",""time""
""fullscreenenter"",""0"",""4440""
","
","
","""event"",""trial"",""time""
""fullscreenenter"",""0"",""4440""
","
","3381.0999999940395","run_exp/static/audio/clip_9_pick_a_pirate_again.m4a","49","","","","","","","","","","","","","","","","","","","","","","",""
"","audio-keyboard-response","35","189343","0.0-34.0-0.0","""event"",""trial"",""time""
""fullscreenenter"",""0"",""4440""
","
","
","""event"",""trial"",""time""
""fullscreenenter"",""0"",""4440""
","
","1077.2999999970198","run_exp/static/audio/clip_10_chosen_pirate_loss.m4a","32","","","","","","","","","","","","","","","","","","","","","","",""
"","instruc9","36","194820","0.0-35.0-0.0","""event"",""trial"",""time""
""fullscreenenter"",""0"",""4440""
","
","
","""event"",""trial"",""time""
""fullscreenenter"",""0"",""4440""
","
","null","run_exp/static/audio/clip_11_time_out.m4a","null","","","","","<div class='center'><p>If you don’t make your choice fast enough, you’ll have to wait a few seconds before you can make another one. </p><p><img src='run_exp/static/images/miscellaneous/hurry_up.png' height='500'></p></div>","","","","","","","","","","","","","","","","","",""
"","html-keyboard-response","37","196280","0.0-35.0-1.0","""event"",""trial"",""time""
""fullscreenenter"",""0"",""4440""
","
","
","""event"",""trial"",""time""
""fullscreenenter"",""0"",""4440""
","
","1459.4000000059605","<div class='center'><p>If you don’t make your choice fast enough, you’ll have to wait a few seconds before you can make another one. </p><p><img src='run_exp/static/images/miscellaneous/hurry_up.png' height='500'></p><p><b>[Press the space bar to continue]</b></p></div>","32","","","","","","","","","","","","","","","","","","","","","","",""
"","instruc10","38","235360","0.0-35.0-2.0","""event"",""trial"",""time""
""fullscreenenter"",""0"",""4440""
","
","
","""event"",""trial"",""time""
""fullscreenenter"",""0"",""4440""
","
","null","run_exp/static/audio/clip_12_probe.m4a","null","","","","","<div class='center'><p>Once you've chosen a pirate, you’ll be shown the ship they are robbing. You will never rob the same ship twice. Ships can be told apart from one another by the image on them. These are the goods that they sell. See, this ship has a travel mug on it. </p><p> You’ll have to remember which island you saw each ship on. You will win more gold coins and hence more bonus money if you remember correctly! To help you remember, you can imagine a story. For example, here, you could imagine a mug full of water in the desert. Or, as another example, if on the forest island, your pirate robbed a ship with an apple on it, you could imagine an apple falling from a tree in the forest. </p><p><img src='run_exp/static/images/tutorial/example_probe.png' height='500'></p></div>","","","","","","","","","","","","","","","","","",""
"","html-keyboard-response","39","237015","0.0-35.0-3.0","""event"",""trial"",""time""
""fullscreenenter"",""0"",""4440""
","
","
","""event"",""trial"",""time""
""fullscreenenter"",""0"",""4440""
","
","1654.5","<div class='center'><p>Once you've chosen a pirate, you’ll be shown the ship they are robbing. You will never rob the same ship twice. Ships can be told apart from one another by the image on them. These are the goods that they sell. See, this ship has a travel mug on it. </p><p> You’ll have to remember which island you saw each ship on. You will win more gold coins and hence more bonus money if you remember correctly! To help you remember, you can imagine a story. For example, here, you could imagine a mug full of water in the desert. Or, as another example, if on the forest island, your pirate robbed a ship with an apple on it, you could imagine an apple falling from a tree in the forest. </p><p><img src='run_exp/static/images/tutorial/example_probe.png' height='500'></p><p><b>[Press the space bar to continue]</b></p></div>","32","","","","","","","","","","","","","","","","","","","","","","",""
"","instruc11","40","253420","0.0-35.0-4.0","""event"",""trial"",""time""
""fullscreenenter"",""0"",""4440""
","
","
","""event"",""trial"",""time""
""fullscreenenter"",""0"",""4440""
","
","null","run_exp/static/audio/clip_13_changepoint.m4a","null","","","","","<div class='center'><p>How successful a pirate is at robbing ships will depend on the island you’re on.</p><p> A pirate may have visited this island many times before and gained a lot of practice robbing ships there.</p><p>So, they’re more likely to be successful than a pirate who has never visited the island before.</p></div>","","","","","","","","","","","","","","","","","",""
"","html-keyboard-response","41","254153","0.0-35.0-5.0","""event"",""trial"",""time""
""fullscreenenter"",""0"",""4440""
","
","
","""event"",""trial"",""time""
""fullscreenenter"",""0"",""4440""
","
","733","<div class='center'><p>How successful a pirate is at robbing ships will depend on the island you’re on.</p><p> A pirate may have visited this island many times before and gained a lot of practice robbing ships there.</p><p>So, they’re more likely to be successful than a pirate who has never visited the island before.</p><p><b>[Press the space bar to continue]</b></p></div>","32","","","","","","","","","","","","","","","","","","","","","","",""
"","instruc12","42","295240","0.0-35.0-6.0","""event"",""trial"",""time""
""fullscreenenter"",""0"",""4440""
","
","
","""event"",""trial"",""time""
""fullscreenenter"",""0"",""4440""
","
","null","run_exp/static/audio/clip_14_drift.m4a","null","","","","","<div class='center'><p>How successful a pirate is at robbing ships can also change over the time spent on the island. </p><p> Ships may hear from islanders about the pirates coming and will improve their protections against the attack. This may make it harder to rob them.</p><p> Ships may also become lazy and weaken the strength of their protections. This may make it easier to rob them.</p><br><p>Things are always changing on the high seas! So, try your best to pay attention!</p><p><img src='run_exp/static/images/tutorial/contingency.png' height='500'></p></div>","","","","","","","","","","","","","","","","","",""
"","html-keyboard-response","43","299590","0.0-35.0-7.0","""event"",""trial"",""time""
""fullscreenenter"",""0"",""4440""
","
","
","""event"",""trial"",""time""
""fullscreenenter"",""0"",""4440""
","
","4350.0999999940395","<div class='center'><p>How successful a pirate is at robbing ships can also change over the time spent on the island. </p><p> Ships may hear from islanders about the pirates coming and will improve their protections against the attack. This may make it harder to rob them.</p><p> Ships may also become lazy and weaken the strength of their protections. This may make it easier to rob them.</p><br><p>Things are always changing on the high seas! So, try your best to pay attention!</p><p><img src='run_exp/static/images/tutorial/contingency.png' height='500'></p><p><b>[Press the space bar to continue]</b></p></div>","32","","","","","","","","","","","","","","","","","","","","","","",""
"","instruc13","44","334780","0.0-35.0-8.0","""event"",""trial"",""time""
""fullscreenenter"",""0"",""4440""
","
","
","""event"",""trial"",""time""
""fullscreenenter"",""0"",""4440""
","
","null","run_exp/static/audio/clip_15_summary.m4a","null","","","","","<div class='center'><p>Let's go over the instructions quickly again. You have two important things to do: </p><b><p> 1. Pick the pirate who is the best at robbing ships on the current island. </p></b><b><p> 2. Remember on which island a ship was robbed.</p> </b><p>The amount of bonus money you can win depends on both.</p><p><br><p>Let’s try a practice game. The game will start by showing you the pirates. First, pick a pirate using the <b> 1, 2, 3 </b> keys on your keyboard. When you are shown a ship, try to remember which island you’re on by making up a story.</p><p>This is just a practice game, so you’re not playing for money. </p><p> Good luck! This game will be very difficult but try your best!</p></div>","","","","","","","","","","","","","","","","","",""
"","html-keyboard-response","45","336187","0.0-35.0-9.0","""event"",""trial"",""time""
""fullscreenenter"",""0"",""4440""
","
","
","""event"",""trial"",""time""
""fullscreenenter"",""0"",""4440""
","
","1406.7000000029802","<div class='center'><p>Let's go over the instructions quickly again. You have two important things to do: </p><b><p> 1. Pick the pirate who is the best at robbing ships on the current island. </p></b><b><p> 2. Remember on which island a ship was robbed.</p> </b><p>The amount of bonus money you can win depends on both.</p><p><br><p>Let’s try a practice game. The game will start by showing you the pirates. First, pick a pirate using the <b> 1, 2, 3 </b> keys on your keyboard. When you are shown a ship, try to remember which island you’re on by making up a story.</p><p>This is just a practice game, so you’re not playing for money. </p><p> Good luck! This game will be very difficult but try your best!</p><p><b>[Press the space bar to continue]</b></p></div>","32","","","","","","","","","","","","","","","","","","","","","","",""
"","do_welcome","46","340191","0.0-35.0-10.0","""event"",""trial"",""time""
""fullscreenenter"",""0"",""4440""
","
","
","""event"",""trial"",""time""
""fullscreenenter"",""0"",""4440""
","
","null","","","","","","","","null","","","","","","","","","","","","","","","","",""
"","do_trial","47","346195","0.0-35.0-11.0","""event"",""trial"",""time""
""fullscreenenter"",""0"",""4440""
","
","
","""event"",""trial"",""time""
""fullscreenenter"",""0"",""4440""
","
","null","","","","","","","","null","1,0,0","","","","","","","","","","","","","","","",""
"","html-keyboard-response","48","347196","0.0-36.0-0.0","""event"",""trial"",""time""
""fullscreenenter"",""0"",""4440""
","
","
","""event"",""trial"",""time""
""fullscreenenter"",""0"",""4440""
","
","null","<p></p>","null","","","","","","","","","","","","","","","","","","","","","","",""
"","do_trial","49","353201","0.0-36.0-1.0","""event"",""trial"",""time""
""fullscreenenter"",""0"",""4440""
","
","
","""event"",""trial"",""time""
""fullscreenenter"",""0"",""4440""
","
","null","","","","","","","","null","1,0,0","","","","","","","","","","","","","","","",""
"","html-keyboard-response","50","354202","0.0-37.0-0.0","""event"",""trial"",""time""
""fullscreenenter"",""0"",""4440""
","
","
","""event"",""trial"",""time""
""fullscreenenter"",""0"",""4440""
","
","null","<p></p>","null","","","","","","","","","","","","","","","","","","","","","","",""
"","do_trial","51","358976","0.0-37.0-1.0","""event"",""trial"",""time""
""fullscreenenter"",""0"",""4440""
","
","
","""event"",""trial"",""time""
""fullscreenenter"",""0"",""4440""
","
","269.5","","","","","","","","51","1,0,0","","","","","","","","","","","","","","","",""
"","html-keyboard-response","52","359978","0.0-38.0-0.0","""event"",""trial"",""time""
""fullscreenenter"",""0"",""4440""
","
","
","""event"",""trial"",""time""
""fullscreenenter"",""0"",""4440""
","
","null","<p></p>","null","","","","","","","","","","","","","","","","","","","","","","",""
"","do_trial","53","365299","0.0-38.0-1.0","""event"",""trial"",""time""
""fullscreenenter"",""0"",""4440""
","
","
","""event"",""trial"",""time""
""fullscreenenter"",""0"",""4440""
","
","816.9000000059605","","","","","","","","50","1,1,0","","","","","","","","","","","","","","","",""
"","html-keyboard-response","54","366301","0.0-39.0-0.0","""event"",""trial"",""time""
""fullscreenenter"",""0"",""4440""
","
","
","""event"",""trial"",""time""
""fullscreenenter"",""0"",""4440""
","
","null","<p></p>","null","","","","","","","","","","","","","","","","","","","","","","",""
"","do_trial","55","372747","0.0-39.0-1.0","""event"",""trial"",""time""
""fullscreenenter"",""0"",""4440""
","
","
","""event"",""trial"",""time""
""fullscreenenter"",""0"",""4440""
","
","1943.1000000089407","","","","","","","","49","1,0,1","","","","","","","","","","","","","","","",""
"","html-keyboard-response","56","373749","0.0-40.0-0.0","""event"",""trial"",""time""
""fullscreenenter"",""0"",""4440""
","
","
","""event"",""trial"",""time""
""fullscreenenter"",""0"",""4440""
","
","null","<p></p>","null","","","","","","","","","","","","","","","","","","","","","","",""
"","do_trial","57","380769","0.0-40.0-1.0","""event"",""trial"",""time""
""fullscreenenter"",""0"",""4440""
","
","
","""event"",""trial"",""time""
""fullscreenenter"",""0"",""4440""
","
","2515.9000000059605","","","","","","","","51","0,1,0","","","","","","","","","","","","","","","",""
"","html-keyboard-response","58","381771","0.0-41.0-0.0","""event"",""trial"",""time""
""fullscreenenter"",""0"",""4440""
","
","
","""event"",""trial"",""time""
""fullscreenenter"",""0"",""4440""
","
","null","<p></p>","null","","","","","","","","","","","","","","","","","","","","","","",""
"","do_trial","59","387730","0.0-41.0-1.0","""event"",""trial"",""time""
""fullscreenenter"",""0"",""4440""
","
","
","""event"",""trial"",""time""
""fullscreenenter"",""0"",""4440""
","
","1455.9000000059605","","","","","","","","49","1,0,0","","","","","","","","","","","","","","","",""
"","do_bye","60","389233","0.0-42.0-0.0","""event"",""trial"",""time""
""fullscreenenter"",""0"",""4440""
","
","
","""event"",""trial"",""time""
""fullscreenenter"",""0"",""4440""
","
","null","","","","","","","","null","","","","","","","","","","","","","","","","",""
"","do_travel","61","398235","0.0-42.0-1.0","""event"",""trial"",""time""
""fullscreenenter"",""0"",""4440""
","
","
","""event"",""trial"",""time""
""fullscreenenter"",""0"",""4440""
","
","null","","","","","","","","null","","","","","","","","","","","","","","","","",""
"","do_welcome","62","402238","0.0-42.0-2.0","""event"",""trial"",""time""
""fullscreenenter"",""0"",""4440""
","
","
","""event"",""trial"",""time""
""fullscreenenter"",""0"",""4440""
","
","null","","","","","","","","null","","","","","","","","","","","","","","","","",""
"","do_trial","63","408243","0.0-42.0-3.0","""event"",""trial"",""time""
""fullscreenenter"",""0"",""4440""
","
","
","""event"",""trial"",""time""
""fullscreenenter"",""0"",""4440""
","
","null","","","","","","","","null","1,0,0","","","","","","","","","","","","","","","",""
"","do_bye","64","409747","0.0-43.0-0.0","""event"",""trial"",""time""
""fullscreenenter"",""0"",""4440""
","
","
","""event"",""trial"",""time""
""fullscreenenter"",""0"",""4440""
","
","null","","","","","","","","null","","","","","","","","","","","","","","","","",""
"","do_travel","65","418748","0.0-43.0-1.0","""event"",""trial"",""time""
""fullscreenenter"",""0"",""4440""
","
","
","""event"",""trial"",""time""
""fullscreenenter"",""0"",""4440""
","
","null","","","","","","","","null","","","","","","","","","","","","","","","","",""
"","do_welcome","66","422751","0.0-43.0-2.0","""event"",""trial"",""time""
""fullscreenenter"",""0"",""4440""
","
","
","""event"",""trial"",""time""
""fullscreenenter"",""0"",""4440""
","
","null","","","","","","","","null","","","","","","","","","","","","","","","","",""
"","do_trial","67","427497","0.0-43.0-3.0","""event"",""trial"",""time""
""fullscreenenter"",""0"",""4440""
","
","
","""event"",""trial"",""time""
""fullscreenenter"",""0"",""4440""
","
","242.79999999701977","","","","","","","","51","1,0,0","","","","","","","","","","","","","","","",""
"","html-keyboard-response","68","428499","0.0-44.0-0.0","""event"",""trial"",""time""
""fullscreenenter"",""0"",""4440""
","
","
","""event"",""trial"",""time""
""fullscreenenter"",""0"",""4440""
","
","null","<p></p>","null","","","","","","","","","","","","","","","","","","","","","","",""
"","do_trial","69","433292","0.0-44.0-1.0","""event"",""trial"",""time""
""fullscreenenter"",""0"",""4440""
","
","
","""event"",""trial"",""time""
""fullscreenenter"",""0"",""4440""
","
","290.79999999701977","","","","","","","","50","1,0,1","","","","","","","","","","","","","","","",""
"","html-keyboard-response","70","434294","0.0-45.0-0.0","""event"",""trial"",""time""
""fullscreenenter"",""0"",""4440""
","
","
","""event"",""trial"",""time""
""fullscreenenter"",""0"",""4440""
","
","null","<p></p>","null","","","","","","","","","","","","","","","","","","","","","","",""
"","do_trial","71","439782","0.0-45.0-1.0","""event"",""trial"",""time""
""fullscreenenter"",""0"",""4440""
","
","
","""event"",""trial"",""time""
""fullscreenenter"",""0"",""4440""
","
","984.4000000059605","","","","","","","","51","1,1,0","","","","","","","","","","","","","","","",""
"","html-keyboard-response","72","440783","0.0-46.0-0.0","""event"",""trial"",""time""
""fullscreenenter"",""0"",""4440""
","
","
","""event"",""trial"",""time""
""fullscreenenter"",""0"",""4440""
","
","null","<p></p>","null","","","","","","","","","","","","","","","","","","","","","","",""
"","do_trial","73","445570","0.0-46.0-1.0","""event"",""trial"",""time""
""fullscreenenter"",""0"",""4440""
","
","
","""event"",""trial"",""time""
""fullscreenenter"",""0"",""4440""
","
","284.3999999910593","","","","","","","","49","0,0,1","","","","","","","","","","","","","","","",""
"","html-keyboard-response","74","446572","0.0-47.0-0.0","""event"",""trial"",""time""
""fullscreenenter"",""0"",""4440""
","
","
","""event"",""trial"",""time""
""fullscreenenter"",""0"",""4440""
","
","null","<p></p>","null","","","","","","","","","","","","","","","","","","","","","","",""
"","do_trial","75","451612","0.0-47.0-1.0","""event"",""trial"",""time""
""fullscreenenter"",""0"",""4440""
","
","
","""event"",""trial"",""time""
""fullscreenenter"",""0"",""4440""
","
","536.3999999910593","","","","","","","","49","1,0,1","","","","","","","","","","","","","","","",""
"","html-keyboard-response","76","462471","0.0-48.0-0.0","""event"",""trial"",""time""
""fullscreenenter"",""0"",""4440""
","
","
","""event"",""trial"",""time""
""fullscreenenter"",""0"",""4440""
","
","10859","<div class='center'><p><img src='run_exp/static/images/tutorial/prac_best_pirate.png'  height='500'></p></div>","49","","","","","","","","","","","","","","","","","","","","","","",""
"","html-keyboard-response","77","466303","0.0-49.0-0.0","""event"",""trial"",""time""
""fullscreenenter"",""0"",""4440""
","
","
","""event"",""trial"",""time""
""fullscreenenter"",""0"",""4440""
","
","3830.9000000059605","<div class='center'><p>That's correct! Red beard was the best.</p><p><b>[Press the space bar to continue]</b></p></div>","32","","","","","","","","","","","","","","","","","","","","","","",""
"","html-keyboard-response","78","471344","0.0-49.0-1.0","""event"",""trial"",""time""
""fullscreenenter"",""0"",""4440""
","
","
","""event"",""trial"",""time""
""fullscreenenter"",""0"",""4440""
","
","5040.399999991059","<div class='center'><p><img src='run_exp/static/images/tutorial/prac_source.png'  height='500'></p></div>","50","","","","","","","","","","","","","","","","","","","","","","",""
"","html-keyboard-response","79","473090","0.0-50.0-0.0","""event"",""trial"",""time""
""fullscreenenter"",""0"",""4440""
","
","
","""event"",""trial"",""time""
""fullscreenenter"",""0"",""4440""
","
","1745.7000000029802","<div class='center'><p>That's correct! You saw this ship on the cavern island.</p><p><b>[Press the space bar to continue]</b></p></div>","32","","","","","","","","","","","","","","","","","","","","","","",""
"","quiz_beginning","80","484291","0.0-50.0-1.0","""event"",""trial"",""time""
""fullscreenenter"",""0"",""4440""
","
","
","""event"",""trial"",""time""
""fullscreenenter"",""0"",""4440""
","
","null","run_exp/static/audio/clip_16_quiz_intro.m4a","null","","","","","<div class='center'><p>Good job on the practice game! Now, you will be asked some true or false questions to make sure you really understand the rules of the game.</p><p> Press <b>'1'</b> on the keyboard for true and press <b>'2'</b> for false.</p></div>","","","","","","","","","","","","","","","","","",""
"","audio-keyboard-response","81","491015","0.0-50.0-2.0","""event"",""trial"",""time""
""fullscreenenter"",""0"",""4440""
","
","
","""event"",""trial"",""time""
""fullscreenenter"",""0"",""4440""
","
","6723.5999999940395","run_exp/static/audio/clip_17_q1.m4a","49","","","","","","","","","","","","","","","","","","","","","","",""
"","correct","82","493411","0.0-51.0-0.0","""event"",""trial"",""time""
""fullscreenenter"",""0"",""4440""
","
","
","""event"",""trial"",""time""
""fullscreenenter"",""0"",""4440""
","
","null","run_exp/static/audio/clip_18_correct.m4a","null","","","","","<div class='center'><p>That's correct!</p></div>","","","","","","","","","","","","","","","","","",""
"","html-keyboard-response","83","494594","0.0-51.0-1.0","""event"",""trial"",""time""
""fullscreenenter"",""0"",""4440""
","
","
","""event"",""trial"",""time""
""fullscreenenter"",""0"",""4440""
","
","1182.7000000029802","<div class='center'><p>That's correct!</p><p><b>[Press the space bar to continue]</b></p></div>","32","","","","","","","","","","","","","","","","","","","","","","",""
"","audio-keyboard-response","84","501955","0.0-51.0-2.0","""event"",""trial"",""time""
""fullscreenenter"",""0"",""4440""
","
","
","""event"",""trial"",""time""
""fullscreenenter"",""0"",""4440""
","
","7360.70000000298","run_exp/static/audio/clip_20_q2.m4a","50","","","","","","","","","","","","","","","","","","","","","","",""
"","correct","85","504351","0.0-52.0-0.0","""event"",""trial"",""time""
""fullscreenenter"",""0"",""4440""
","
","
","""event"",""trial"",""time""
""fullscreenenter"",""0"",""4440""
","
","null","run_exp/static/audio/clip_18_correct.m4a","null","","","","","<div class='center'><p>That's correct!</p></div>","","","","","","","","","","","","","","","","","",""
"","html-keyboard-response","86","505282","0.0-52.0-1.0","""event"",""trial"",""time""
""fullscreenenter"",""0"",""4440""
","
","
","""event"",""trial"",""time""
""fullscreenenter"",""0"",""4440""
","
","931.2999999970198","<div class='center'><p>That's correct!</p><p><b>[Press the space bar to continue]</b></p></div>","32","","","","","","","","","","","","","","","","","","","","","","",""
"","audio-keyboard-response","87","510780","0.0-52.0-2.0","""event"",""trial"",""time""
""fullscreenenter"",""0"",""4440""
","
","
","""event"",""trial"",""time""
""fullscreenenter"",""0"",""4440""
","
","5497.100000008941","run_exp/static/audio/clip_22_q3.m4a","50","","","","","","","","","","","","","","","","","","","","","","",""
"","correct","88","513171","0.0-53.0-0.0","""event"",""trial"",""time""
""fullscreenenter"",""0"",""4440""
","
","
","""event"",""trial"",""time""
""fullscreenenter"",""0"",""4440""
","
","null","run_exp/static/audio/clip_18_correct.m4a","null","","","","","<div class='center'><p>That's correct!</p></div>","","","","","","","","","","","","","","","","","",""
"","html-keyboard-response","89","514069","0.0-53.0-1.0","""event"",""trial"",""time""
""fullscreenenter"",""0"",""4440""
","
","
","""event"",""trial"",""time""
""fullscreenenter"",""0"",""4440""
","
","898","<div class='center'><p>That's correct!</p><p><b>[Press the space bar to continue]</b></p></div>","32","","","","","","","","","","","","","","","","","","","","","","",""
"","audio-keyboard-response","90","516680","0.0-53.0-2.0","""event"",""trial"",""time""
""fullscreenenter"",""0"",""4440""
","
","
","""event"",""trial"",""time""
""fullscreenenter"",""0"",""4440""
","
","2610","run_exp/static/audio/clip_24_q4.m4a","49","","","","","","","","","","","","","","","","","","","","","","",""
"","correct","91","519091","0.0-54.0-0.0","""event"",""trial"",""time""
""fullscreenenter"",""0"",""4440""
","
","
","""event"",""trial"",""time""
""fullscreenenter"",""0"",""4440""
","
","null","run_exp/static/audio/clip_18_correct.m4a","null","","","","","<div class='center'><p>That's correct!</p></div>","","","","","","","","","","","","","","","","","",""
"","html-keyboard-response","92","519984","0.0-54.0-1.0","""event"",""trial"",""time""
""fullscreenenter"",""0"",""4440""
","
","
","""event"",""trial"",""time""
""fullscreenenter"",""0"",""4440""
","
","893.0999999940395","<div class='center'><p>That's correct!</p><p><b>[Press the space bar to continue]</b></p></div>","32","","","","","","","","","","","","","","","","","","","","","","",""
"","q_all_corr","93","528472","0.0-55.0-0.0","""event"",""trial"",""time""
""fullscreenenter"",""0"",""4440""
","
","
","""event"",""trial"",""time""
""fullscreenenter"",""0"",""4440""
","
","null","run_exp/static/audio/clip_27_quiz_all_correct.m4a","null","","","","","<div class='center'><p>Good job! You’re now ready to move on to the real game! Remember this game will be difficult but don't get discouraged and try your best!</p></div>","","","","","","","","","","","","","","","","","",""
"","html-keyboard-response","94","529077","0.0-55.0-1.0","""event"",""trial"",""time""
""fullscreenenter"",""0"",""4440""
","
","
","""event"",""trial"",""time""
""fullscreenenter"",""0"",""4440""
","
","604.5","<div class='center'><p>Good job! You’re now ready to move on to the real game! Remember this game will be difficult but don't get discouraged and try your best!</p><p><b>[Press the space bar to continue]</b></p></div>","32","","","","","","","","","","","","","","","","","","","","","","",""
"","do_welcome","95","533080","0.0-56.0-0.0","""event"",""trial"",""time""
""fullscreenenter"",""0"",""4440""
","
","
","""event"",""trial"",""time""
""fullscreenenter"",""0"",""4440""
","
","null","","","","","","","","null","","","","","","","","","","","","","","","","",""
"","do_trial","96","538753","0.0-57.0-0.0","""event"",""trial"",""time""
""fullscreenenter"",""0"",""4440""
","
","
","""event"",""trial"",""time""
""fullscreenenter"",""0"",""4440""
","
","1144.7999999970198","","","","","","","","50","1,0,0","0","coast","0","probe-145","0.6","0.3","0.1","0","","","","","","","",""
"","html-keyboard-response","97","539754","0.0-57.0-1.0","""event"",""trial"",""time""
""fullscreenenter"",""0"",""4440""
","
","
","""event"",""trial"",""time""
""fullscreenenter"",""0"",""4440""
","
","null","<p></p>","null","","","","","","","","","","","","","","","","","","","","","","",""
"","do_trial","98","544572","0.0-58.0-0.0","""event"",""trial"",""time""
""fullscreenenter"",""0"",""4440""
","
","
","""event"",""trial"",""time""
""fullscreenenter"",""0"",""4440""
","
","290.40000000596046","","","","","","","","51","0,0,0","0","coast","1","probe-17","0.578725621026784","0.21378737536264752","0.05443881222416338","0","","","","","","","",""
"","html-keyboard-response","99","545573","0.0-58.0-1.0","""event"",""trial"",""time""
""fullscreenenter"",""0"",""4440""
","
","
","""event"",""trial"",""time""
""fullscreenenter"",""0"",""4440""
","
","null","<p></p>","null","","","","","","","","","","","","","","","","","","","","","","",""
"","do_trial","100","550479","0.0-59.0-0.0","""event"",""trial"",""time""
""fullscreenenter"",""0"",""4440""
""blur"",""101"",""550667""
""focus"",""101"",""550667""
","""event"",""trial"",""time""
""blur"",""101"",""550667""
","""event"",""trial"",""time""
""focus"",""101"",""550667""
","""event"",""trial"",""time""
""fullscreenenter"",""0"",""4440""
","
","378.20000000298023","","","","","","","","50","1,0,0","0","coast","2","probe-113","0.6906368795193387","0.29912859768250993","0.1584797838853586","0","","","","","","","",""
"","html-keyboard-response","101","551480","0.0-59.0-1.0","""event"",""trial"",""time""
""fullscreenenter"",""0"",""4440""
""blur"",""101"",""550667""
""focus"",""101"",""550667""
","""event"",""trial"",""time""
""blur"",""101"",""550667""
","""event"",""trial"",""time""
""focus"",""101"",""550667""
","""event"",""trial"",""time""
""fullscreenenter"",""0"",""4440""
","
","null","<p></p>","null","","","","","","","","","","","","","","","","","","","","","","",""
"","do_trial","102","556347","0.0-60.0-0.0","""event"",""trial"",""time""
""fullscreenenter"",""0"",""4440""
""blur"",""101"",""550667""
""focus"",""101"",""550667""
","""event"",""trial"",""time""
""blur"",""101"",""550667""
","""event"",""trial"",""time""
""focus"",""101"",""550667""
","""event"",""trial"",""time""
""fullscreenenter"",""0"",""4440""
","
","339.29999999701977","","","","","","","","49","0,1,0","0","coast","3","probe-215","0.5826204159946052","0.3452211059523793","0.0917197314058251","0","","","","","","","",""
"","html-keyboard-response","103","557348","0.0-60.0-1.0","""event"",""trial"",""time""
""fullscreenenter"",""0"",""4440""
""blur"",""101"",""550667""
""focus"",""101"",""550667""
","""event"",""trial"",""time""
""blur"",""101"",""550667""
","""event"",""trial"",""time""
""focus"",""101"",""550667""
","""event"",""trial"",""time""
""fullscreenenter"",""0"",""4440""
","
","null","<p></p>","null","","","","","","","","","","","","","","","","","","","","","","",""
"","do_trial","104","562097","0.0-61.0-0.0","""event"",""trial"",""time""
""fullscreenenter"",""0"",""4440""
""blur"",""101"",""550667""
""focus"",""101"",""550667""
","""event"",""trial"",""time""
""blur"",""101"",""550667""
","""event"",""trial"",""time""
""focus"",""101"",""550667""
","""event"",""trial"",""time""
""fullscreenenter"",""0"",""4440""
","
","220.40000000596046","","","","","","","","51","1,0,0","0","coast","4","probe-32","0.5473118099811107","0.31977035096559575","0.30439876727799803","0","","","","","","","",""
"","html-keyboard-response","105","563098","0.0-61.0-1.0","""event"",""trial"",""time""
""fullscreenenter"",""0"",""4440""
""blur"",""101"",""550667""
""focus"",""101"",""550667""
","""event"",""trial"",""time""
""blur"",""101"",""550667""
","""event"",""trial"",""time""
""focus"",""101"",""550667""
","""event"",""trial"",""time""
""fullscreenenter"",""0"",""4440""
","
","null","<p></p>","null","","","","","","","","","","","","","","","","","","","","","","",""
"","do_trial","106","567870","0.0-62.0-0.0","""event"",""trial"",""time""
""fullscreenenter"",""0"",""4440""
""blur"",""101"",""550667""
""focus"",""101"",""550667""
","""event"",""trial"",""time""
""blur"",""101"",""550667""
","""event"",""trial"",""time""
""focus"",""101"",""550667""
","""event"",""trial"",""time""
""fullscreenenter"",""0"",""4440""
","
","244.70000000298023","","","","","","","","49","0,1,0","0","coast","5","probe-77","0.6338078592299118","0.37461373103067425","0.07609283317010605","0","","","","","","","",""
"","html-keyboard-response","107","568872","0.0-62.0-1.0","""event"",""trial"",""time""
""fullscreenenter"",""0"",""4440""
""blur"",""101"",""550667""
""focus"",""101"",""550667""
","""event"",""trial"",""time""
""blur"",""101"",""550667""
","""event"",""trial"",""time""
""focus"",""101"",""550667""
","""event"",""trial"",""time""
""fullscreenenter"",""0"",""4440""
","
","null","<p></p>","null","","","","","","","","","","","","","","","","","","","","","","",""
"","do_trial","108","573540","0.0-63.0-0.0","""event"",""trial"",""time""
""fullscreenenter"",""0"",""4440""
""blur"",""101"",""550667""
""focus"",""101"",""550667""
","""event"",""trial"",""time""
""blur"",""101"",""550667""
","""event"",""trial"",""time""
""focus"",""101"",""550667""
","""event"",""trial"",""time""
""fullscreenenter"",""0"",""4440""
","
","140.80000001192093","","","","","","","","50","0,0,0","0","coast","6","probe-82","0.5705620797593239","0.4601311395556632","0.07802095020195482","0","","","","","","","",""
"","html-keyboard-response","109","574542","0.0-63.0-1.0","""event"",""trial"",""time""
""fullscreenenter"",""0"",""4440""
""blur"",""101"",""550667""
""focus"",""101"",""550667""
","""event"",""trial"",""time""
""blur"",""101"",""550667""
","""event"",""trial"",""time""
""focus"",""101"",""550667""
","""event"",""trial"",""time""
""fullscreenenter"",""0"",""4440""
","
","null","<p></p>","null","","","","","","","","","","","","","","","","","","","","","","",""
"","do_trial","110","579425","0.0-64.0-0.0","""event"",""trial"",""time""
""fullscreenenter"",""0"",""4440""
""blur"",""101"",""550667""
""focus"",""101"",""550667""
","""event"",""trial"",""time""
""blur"",""101"",""550667""
","""event"",""trial"",""time""
""focus"",""101"",""550667""
","""event"",""trial"",""time""
""fullscreenenter"",""0"",""4440""
","
","354.5","","","","","","","","49","1,1,0","0","coast","7","probe-191","0.5405803237712917","0.33211056959555835","0.07224061275335542","1","","","","","","","",""
"","html-keyboard-response","111","580426","0.0-64.0-1.0","""event"",""trial"",""time""
""fullscreenenter"",""0"",""4440""
""blur"",""101"",""550667""
""focus"",""101"",""550667""
","""event"",""trial"",""time""
""blur"",""101"",""550667""
","""event"",""trial"",""time""
""focus"",""101"",""550667""
","""event"",""trial"",""time""
""fullscreenenter"",""0"",""4440""
","
","null","<p></p>","null","","","","","","","","","","","","","","","","","","","","","","",""
"","do_trial","112","585212","0.0-65.0-0.0","""event"",""trial"",""time""
""fullscreenenter"",""0"",""4440""
""blur"",""101"",""550667""
""focus"",""101"",""550667""
","""event"",""trial"",""time""
""blur"",""101"",""550667""
","""event"",""trial"",""time""
""focus"",""101"",""550667""
","""event"",""trial"",""time""
""fullscreenenter"",""0"",""4440""
","
","257.8999999910593","","","","","","","","51","1,0,0","0","coast","8","probe-08","0.6397280113006444","0.34075854947768236","0.18762051844692093","0","","","","","","","",""
"","html-keyboard-response","113","586214","0.0-65.0-1.0","""event"",""trial"",""time""
""fullscreenenter"",""0"",""4440""
""blur"",""101"",""550667""
""focus"",""101"",""550667""
","""event"",""trial"",""time""
""blur"",""101"",""550667""
","""event"",""trial"",""time""
""focus"",""101"",""550667""
","""event"",""trial"",""time""
""fullscreenenter"",""0"",""4440""
","
","null","<p></p>","null","","","","","","","","","","","","","","","","","","","","","","",""
"","do_trial","114","591080","0.0-66.0-0.0","""event"",""trial"",""time""
""fullscreenenter"",""0"",""4440""
""blur"",""101"",""550667""
""focus"",""101"",""550667""
","""event"",""trial"",""time""
""blur"",""101"",""550667""
","""event"",""trial"",""time""
""focus"",""101"",""550667""
","""event"",""trial"",""time""
""fullscreenenter"",""0"",""4440""
","
","339.09999999403954","","","","","","","","50","1,1,0","0","coast","9","probe-121","0.6463106043848533","0.32476295102554453","0.08484168127473722","1","","","","","","","",""
"","html-keyboard-response","115","592081","0.0-66.0-1.0","""event"",""trial"",""time""
""fullscreenenter"",""0"",""4440""
""blur"",""101"",""550667""
""focus"",""101"",""550667""
","""event"",""trial"",""time""
""blur"",""101"",""550667""
","""event"",""trial"",""time""
""focus"",""101"",""550667""
","""event"",""trial"",""time""
""fullscreenenter"",""0"",""4440""
","
","null","<p></p>","null","","","","","","","","","","","","","","","","","","","","","","",""
"","do_trial","116","597183","0.0-67.0-0.0","""event"",""trial"",""time""
""fullscreenenter"",""0"",""4440""
""blur"",""101"",""550667""
""focus"",""101"",""550667""
","""event"",""trial"",""time""
""blur"",""101"",""550667""
","""event"",""trial"",""time""
""focus"",""101"",""550667""
","""event"",""trial"",""time""
""fullscreenenter"",""0"",""4440""
","
","575.3999999910593","","","","","","","","49","0,1,0","0","coast","10","probe-124","0.6781673221676157","0.41236855061185523","0.08712348271522734","0","","","","","","","",""
"","html-keyboard-response","117","598185","0.0-67.0-1.0","""event"",""trial"",""time""
""fullscreenenter"",""0"",""4440""
""blur"",""101"",""550667""
""focus"",""101"",""550667""
","""event"",""trial"",""time""
""blur"",""101"",""550667""
","""event"",""trial"",""time""
""focus"",""101"",""550667""
","""event"",""trial"",""time""
""fullscreenenter"",""0"",""4440""
","
","null","<p></p>","null","","","","","","","","","","","","","","","","","","","","","","",""
"","do_trial","118","602957","0.0-68.0-0.0","""event"",""trial"",""time""
""fullscreenenter"",""0"",""4440""
""blur"",""101"",""550667""
""focus"",""101"",""550667""
","""event"",""trial"",""time""
""blur"",""101"",""550667""
","""event"",""trial"",""time""
""focus"",""101"",""550667""
","""event"",""trial"",""time""
""fullscreenenter"",""0"",""4440""
","
","245.20000000298023","","","","","","","","51","1,1,0","0","coast","11","probe-55","0.582111803390345","0.42520856091424714","0.05507794991468865","0","","","","","","","",""
"","html-keyboard-response","119","603958","0.0-68.0-1.0","""event"",""trial"",""time""
""fullscreenenter"",""0"",""4440""
""blur"",""101"",""550667""
""focus"",""101"",""550667""
","""event"",""trial"",""time""
""blur"",""101"",""550667""
","""event"",""trial"",""time""
""focus"",""101"",""550667""
","""event"",""trial"",""time""
""fullscreenenter"",""0"",""4440""
","
","null","<p></p>","null","","","","","","","","","","","","","","","","","","","","","","",""
"","do_trial","120","608747","0.0-69.0-0.0","""event"",""trial"",""time""
""fullscreenenter"",""0"",""4440""
""blur"",""101"",""550667""
""focus"",""101"",""550667""
","""event"",""trial"",""time""
""blur"",""101"",""550667""
","""event"",""trial"",""time""
""focus"",""101"",""550667""
","""event"",""trial"",""time""
""fullscreenenter"",""0"",""4440""
","
","261","","","","","","","","50","0,0,0","0","coast","12","probe-112","0.6433331521147813","0.34555111141821115","0.10567890036830363","0","","","","","","","",""
"","html-keyboard-response","121","609748","0.0-69.0-1.0","""event"",""trial"",""time""
""fullscreenenter"",""0"",""4440""
""blur"",""101"",""550667""
""focus"",""101"",""550667""
","""event"",""trial"",""time""
""blur"",""101"",""550667""
","""event"",""trial"",""time""
""focus"",""101"",""550667""
","""event"",""trial"",""time""
""fullscreenenter"",""0"",""4440""
","
","null","<p></p>","null","","","","","","","","","","","","","","","","","","","","","","",""
"","do_trial","122","614536","0.0-70.0-0.0","""event"",""trial"",""time""
""fullscreenenter"",""0"",""4440""
""blur"",""101"",""550667""
""focus"",""101"",""550667""
","""event"",""trial"",""time""
""blur"",""101"",""550667""
","""event"",""trial"",""time""
""focus"",""101"",""550667""
","""event"",""trial"",""time""
""fullscreenenter"",""0"",""4440""
","
","260.70000000298023","","","","","","","","49","1,0,0","0","coast","13","probe-39","0.6246447905574056","0.395751884023377","0.09944669786075272","1","","","","","","","",""
"","html-keyboard-response","123","615537","0.0-70.0-1.0","""event"",""trial"",""time""
""fullscreenenter"",""0"",""4440""
""blur"",""101"",""550667""
""focus"",""101"",""550667""
","""event"",""trial"",""time""
""blur"",""101"",""550667""
","""event"",""trial"",""time""
""focus"",""101"",""550667""
","""event"",""trial"",""time""
""fullscreenenter"",""0"",""4440""
","
","null","<p></p>","null","","","","","","","","","","","","","","","","","","","","","","",""
"","do_trial","124","620418","0.0-71.0-0.0","""event"",""trial"",""time""
""fullscreenenter"",""0"",""4440""
""blur"",""101"",""550667""
""focus"",""101"",""550667""
","""event"",""trial"",""time""
""blur"",""101"",""550667""
","""event"",""trial"",""time""
""focus"",""101"",""550667""
","""event"",""trial"",""time""
""fullscreenenter"",""0"",""4440""
","
","353.6000000089407","","","","","","","","50","0,1,0","0","coast","14","probe-73","0.5156861431864797","0.43602474862570845","0.09594285155515568","1","","","","","","","",""
"","html-keyboard-response","125","621420","0.0-71.0-1.0","""event"",""trial"",""time""
""fullscreenenter"",""0"",""4440""
""blur"",""101"",""550667""
""focus"",""101"",""550667""
","""event"",""trial"",""time""
""blur"",""101"",""550667""
","""event"",""trial"",""time""
""focus"",""101"",""550667""
","""event"",""trial"",""time""
""fullscreenenter"",""0"",""4440""
","
","null","<p></p>","null","","","","","","","","","","","","","","","","","","","","","","",""
"","do_trial","126","626616","0.0-72.0-0.0","""event"",""trial"",""time""
""fullscreenenter"",""0"",""4440""
""blur"",""101"",""550667""
""focus"",""101"",""550667""
","""event"",""trial"",""time""
""blur"",""101"",""550667""
","""event"",""trial"",""time""
""focus"",""101"",""550667""
","""event"",""trial"",""time""
""fullscreenenter"",""0"",""4440""
","
","669.2000000029802","","","","","","","","51","0,0,0","0","coast","15","probe-107","0.5993073432952767","0.2876545319855809","0.11815768135434353","0","","","","","","","",""
"","html-keyboard-response","127","627618","0.0-72.0-1.0","""event"",""trial"",""time""
""fullscreenenter"",""0"",""4440""
""blur"",""101"",""550667""
""focus"",""101"",""550667""
","""event"",""trial"",""time""
""blur"",""101"",""550667""
","""event"",""trial"",""time""
""focus"",""101"",""550667""
","""event"",""trial"",""time""
""fullscreenenter"",""0"",""4440""
","
","null","<p></p>","null","","","","","","","","","","","","","","","","","","","","","","",""
"","do_trial","128","632349","0.0-73.0-0.0","""event"",""trial"",""time""
""fullscreenenter"",""0"",""4440""
""blur"",""101"",""550667""
""focus"",""101"",""550667""
","""event"",""trial"",""time""
""blur"",""101"",""550667""
","""event"",""trial"",""time""
""focus"",""101"",""550667""
","""event"",""trial"",""time""
""fullscreenenter"",""0"",""4440""
","
","204.90000000596046","","","","","","","","49","1,0,0","0","coast","16","probe-202","0.5739958281211418","0.3232931215189652","0.14358567468603786","1","","","","","","","",""
"","html-keyboard-response","129","633350","0.0-73.0-1.0","""event"",""trial"",""time""
""fullscreenenter"",""0"",""4440""
""blur"",""101"",""550667""
""focus"",""101"",""550667""
","""event"",""trial"",""time""
""blur"",""101"",""550667""
","""event"",""trial"",""time""
""focus"",""101"",""550667""
","""event"",""trial"",""time""
""fullscreenenter"",""0"",""4440""
","
","null","<p></p>","null","","","","","","","","","","","","","","","","","","","","","","",""
"","do_trial","130","638233","0.0-74.0-0.0","""event"",""trial"",""time""
""fullscreenenter"",""0"",""4440""
""blur"",""101"",""550667""
""focus"",""101"",""550667""
","""event"",""trial"",""time""
""blur"",""101"",""550667""
","""event"",""trial"",""time""
""focus"",""101"",""550667""
","""event"",""trial"",""time""
""fullscreenenter"",""0"",""4440""
","
","355.79999999701977","","","","","","","","50","0,0,1","0","coast","17","probe-09","0.5426264284359598","0.36485386584072943","0.06291945085728483","0","","","","","","","",""
"","html-keyboard-response","131","639234","0.0-74.0-1.0","""event"",""trial"",""time""
""fullscreenenter"",""0"",""4440""
""blur"",""101"",""550667""
""focus"",""101"",""550667""
","""event"",""trial"",""time""
""blur"",""101"",""550667""
","""event"",""trial"",""time""
""focus"",""101"",""550667""
","""event"",""trial"",""time""
""fullscreenenter"",""0"",""4440""
","
","null","<p></p>","null","","","","","","","","","","","","","","","","","","","","","","",""
"","do_trial","132","643975","0.0-75.0-0.0","""event"",""trial"",""time""
""fullscreenenter"",""0"",""4440""
""blur"",""101"",""550667""
""focus"",""101"",""550667""
","""event"",""trial"",""time""
""blur"",""101"",""550667""
","""event"",""trial"",""time""
""focus"",""101"",""550667""
","""event"",""trial"",""time""
""fullscreenenter"",""0"",""4440""
","
","213.70000000298023","","","","","","","","51","0,0,0","0","coast","18","probe-80","0.6914568758889658","0.2953498558117207","0.053281305235649334","0","","","","","","","",""
"","html-keyboard-response","133","644976","0.0-75.0-1.0","""event"",""trial"",""time""
""fullscreenenter"",""0"",""4440""
""blur"",""101"",""550667""
""focus"",""101"",""550667""
","""event"",""trial"",""time""
""blur"",""101"",""550667""
","""event"",""trial"",""time""
""focus"",""101"",""550667""
","""event"",""trial"",""time""
""fullscreenenter"",""0"",""4440""
","
","null","<p></p>","null","","","","","","","","","","","","","","","","","","","","","","",""
"","do_trial","134","649850","0.0-76.0-0.0","""event"",""trial"",""time""
""fullscreenenter"",""0"",""4440""
""blur"",""101"",""550667""
""focus"",""101"",""550667""
","""event"",""trial"",""time""
""blur"",""101"",""550667""
","""event"",""trial"",""time""
""focus"",""101"",""550667""
","""event"",""trial"",""time""
""fullscreenenter"",""0"",""4440""
","
","346.70000000298023","","","","","","","","49","1,1,0","0","coast","19","probe-53","0.6708303588300144","0.25176052799024384","0.09173435931368444","1","","","","","","","",""
"","html-keyboard-response","135","650852","0.0-76.0-1.0","""event"",""trial"",""time""
""fullscreenenter"",""0"",""4440""
""blur"",""101"",""550667""
""focus"",""101"",""550667""
","""event"",""trial"",""time""
""blur"",""101"",""550667""
","""event"",""trial"",""time""
""focus"",""101"",""550667""
","""event"",""trial"",""time""
""fullscreenenter"",""0"",""4440""
","
","null","<p></p>","null","","","","","","","","","","","","","","","","","","","","","","",""
"","do_trial","136","655813","0.0-77.0-0.0","""event"",""trial"",""time""
""fullscreenenter"",""0"",""4440""
""blur"",""101"",""550667""
""focus"",""101"",""550667""
","""event"",""trial"",""time""
""blur"",""101"",""550667""
","""event"",""trial"",""time""
""focus"",""101"",""550667""
","""event"",""trial"",""time""
""fullscreenenter"",""0"",""4440""
","
","432.40000000596046","","","","","","","","49","1,0,0","0","coast","20","probe-22","0.6938827388906179","0.4438558448207192","0.13794731774696453","1","","","","","","","",""
"","html-keyboard-response","137","656814","0.0-77.0-1.0","""event"",""trial"",""time""
""fullscreenenter"",""0"",""4440""
""blur"",""101"",""550667""
""focus"",""101"",""550667""
","""event"",""trial"",""time""
""blur"",""101"",""550667""
","""event"",""trial"",""time""
""focus"",""101"",""550667""
","""event"",""trial"",""time""
""fullscreenenter"",""0"",""4440""
","
","null","<p></p>","null","","","","","","","","","","","","","","","","","","","","","","",""
"","do_trial","138","661672","0.0-78.0-0.0","""event"",""trial"",""time""
""fullscreenenter"",""0"",""4440""
""blur"",""101"",""550667""
""focus"",""101"",""550667""
","""event"",""trial"",""time""
""blur"",""101"",""550667""
","""event"",""trial"",""time""
""focus"",""101"",""550667""
","""event"",""trial"",""time""
""fullscreenenter"",""0"",""4440""
","
","329.59999999403954","","","","","","","","49","1,0,0","0","coast","21","probe-11","0.5998846573208902","0.33145044997384254","0.13308457004729088","1","","","","","","","",""
"","html-keyboard-response","139","662674","0.0-78.0-1.0","""event"",""trial"",""time""
""fullscreenenter"",""0"",""4440""
""blur"",""101"",""550667""
""focus"",""101"",""550667""
","""event"",""trial"",""time""
""blur"",""101"",""550667""
","""event"",""trial"",""time""
""focus"",""101"",""550667""
","""event"",""trial"",""time""
""fullscreenenter"",""0"",""4440""
","
","null","<p></p>","null","","","","","","","","","","","","","","","","","","","","","","",""
"","do_trial","140","667507","0.0-79.0-0.0","""event"",""trial"",""time""
""fullscreenenter"",""0"",""4440""
""blur"",""101"",""550667""
""focus"",""101"",""550667""
","""event"",""trial"",""time""
""blur"",""101"",""550667""
","""event"",""trial"",""time""
""focus"",""101"",""550667""
","""event"",""trial"",""time""
""fullscreenenter"",""0"",""4440""
","
","305.70000000298023","","","","","","","","49","0,1,0","0","coast","22","probe-75","0.5504586671747422","0.2862444034246683","0.14414962702174103","0","","","","","","","",""
"","html-keyboard-response","141","668509","0.0-79.0-1.0","""event"",""trial"",""time""
""fullscreenenter"",""0"",""4440""
""blur"",""101"",""550667""
""focus"",""101"",""550667""
","""event"",""trial"",""time""
""blur"",""101"",""550667""
","""event"",""trial"",""time""
""focus"",""101"",""550667""
","""event"",""trial"",""time""
""fullscreenenter"",""0"",""4440""
","
","null","<p></p>","null","","","","","","","","","","","","","","","","","","","","","","",""
"","do_trial","142","673351","0.0-80.0-0.0","""event"",""trial"",""time""
""fullscreenenter"",""0"",""4440""
""blur"",""101"",""550667""
""focus"",""101"",""550667""
","""event"",""trial"",""time""
""blur"",""101"",""550667""
","""event"",""trial"",""time""
""focus"",""101"",""550667""
","""event"",""trial"",""time""
""fullscreenenter"",""0"",""4440""
","
","314.69999998807907","","","","","","","","50","0,0,0","0","coast","23","probe-131","0.6851004277239244","0.27427697827809355","0.06004481630549675","0","","","","","","","",""
"","html-keyboard-response","143","674353","0.0-80.0-1.0","""event"",""trial"",""time""
""fullscreenenter"",""0"",""4440""
""blur"",""101"",""550667""
""focus"",""101"",""550667""
","""event"",""trial"",""time""
""blur"",""101"",""550667""
","""event"",""trial"",""time""
""focus"",""101"",""550667""
","""event"",""trial"",""time""
""fullscreenenter"",""0"",""4440""
","
","null","<p></p>","null","","","","","","","","","","","","","","","","","","","","","","",""
"","do_trial","144","679848","0.0-81.0-0.0","""event"",""trial"",""time""
""fullscreenenter"",""0"",""4440""
""blur"",""101"",""550667""
""focus"",""101"",""550667""
","""event"",""trial"",""time""
""blur"",""101"",""550667""
","""event"",""trial"",""time""
""focus"",""101"",""550667""
","""event"",""trial"",""time""
""fullscreenenter"",""0"",""4440""
","
","968","","","","","","","","51","1,1,0","0","coast","24","probe-81","0.6914448120805698","0.2750359397851627","0.09423238410294982","0","","","","","","","",""
"","html-keyboard-response","145","680850","0.0-81.0-1.0","""event"",""trial"",""time""
""fullscreenenter"",""0"",""4440""
""blur"",""101"",""550667""
""focus"",""101"",""550667""
","""event"",""trial"",""time""
""blur"",""101"",""550667""
","""event"",""trial"",""time""
""focus"",""101"",""550667""
","""event"",""trial"",""time""
""fullscreenenter"",""0"",""4440""
","
","null","<p></p>","null","","","","","","","","","","","","","","","","","","","","","","",""
"","do_trial","146","685590","0.0-82.0-0.0","""event"",""trial"",""time""
""fullscreenenter"",""0"",""4440""
""blur"",""101"",""550667""
""focus"",""101"",""550667""
","""event"",""trial"",""time""
""blur"",""101"",""550667""
","""event"",""trial"",""time""
""focus"",""101"",""550667""
","""event"",""trial"",""time""
""fullscreenenter"",""0"",""4440""
","
","213.5","","","","","","","","51","1,0,1","0","coast","25","probe-40","0.7937204592403901","0.21061780294537918","0.08930072205954373","1","","","","","","","",""
"","html-keyboard-response","147","686592","0.0-82.0-1.0","""event"",""trial"",""time""
""fullscreenenter"",""0"",""4440""
""blur"",""101"",""550667""
""focus"",""101"",""550667""
","""event"",""trial"",""time""
""blur"",""101"",""550667""
","""event"",""trial"",""time""
""focus"",""101"",""550667""
","""event"",""trial"",""time""
""fullscreenenter"",""0"",""4440""
","
","null","<p></p>","null","","","","","","","","","","","","","","","","","","","","","","",""
"","do_trial","148","691921","0.0-83.0-0.0","""event"",""trial"",""time""
""fullscreenenter"",""0"",""4440""
""blur"",""101"",""550667""
""focus"",""101"",""550667""
","""event"",""trial"",""time""
""blur"",""101"",""550667""
","""event"",""trial"",""time""
""focus"",""101"",""550667""
","""event"",""trial"",""time""
""fullscreenenter"",""0"",""4440""
","
","801.8000000119209","","","","","","","","50","1,1,1","0","coast","26","probe-31","0.7706177475697004","0.2273608930791743","0.1826234092988805","1","","","","","","","",""
"","html-keyboard-response","149","692922","0.0-83.0-1.0","""event"",""trial"",""time""
""fullscreenenter"",""0"",""4440""
""blur"",""101"",""550667""
""focus"",""101"",""550667""
","""event"",""trial"",""time""
""blur"",""101"",""550667""
","""event"",""trial"",""time""
""focus"",""101"",""550667""
","""event"",""trial"",""time""
""fullscreenenter"",""0"",""4440""
","
","null","<p></p>","null","","","","","","","","","","","","","","","","","","","","","","",""
"","do_trial","150","697962","0.0-84.0-0.0","""event"",""trial"",""time""
""fullscreenenter"",""0"",""4440""
""blur"",""101"",""550667""
""focus"",""101"",""550667""
","""event"",""trial"",""time""
""blur"",""101"",""550667""
","""event"",""trial"",""time""
""focus"",""101"",""550667""
","""event"",""trial"",""time""
""fullscreenenter"",""0"",""4440""
","
","512.5","","","","","","","","51","0,0,0","0","coast","27","probe-21","0.8097994263672413","0.22559763984657097","0.16998348358394638","0","","","","","","","",""
"","html-keyboard-response","151","698963","0.0-84.0-1.0","""event"",""trial"",""time""
""fullscreenenter"",""0"",""4440""
""blur"",""101"",""550667""
""focus"",""101"",""550667""
","""event"",""trial"",""time""
""blur"",""101"",""550667""
","""event"",""trial"",""time""
""focus"",""101"",""550667""
","""event"",""trial"",""time""
""fullscreenenter"",""0"",""4440""
","
","null","<p></p>","null","","","","","","","","","","","","","","","","","","","","","","",""
"","do_trial","152","703782","0.0-85.0-0.0","""event"",""trial"",""time""
""fullscreenenter"",""0"",""4440""
""blur"",""101"",""550667""
""focus"",""101"",""550667""
","""event"",""trial"",""time""
""blur"",""101"",""550667""
","""event"",""trial"",""time""
""focus"",""101"",""550667""
","""event"",""trial"",""time""
""fullscreenenter"",""0"",""4440""
","
","291.5","","","","","","","","50","1,0,0","0","coast","28","probe-127","0.7476889102838079","0.19910098951486319","0.097134430271677","0","","","","","","","",""
"","html-keyboard-response","153","704784","0.0-85.0-1.0","""event"",""trial"",""time""
""fullscreenenter"",""0"",""4440""
""blur"",""101"",""550667""
""focus"",""101"",""550667""
","""event"",""trial"",""time""
""blur"",""101"",""550667""
","""event"",""trial"",""time""
""focus"",""101"",""550667""
","""event"",""trial"",""time""
""fullscreenenter"",""0"",""4440""
","
","null","<p></p>","null","","","","","","","","","","","","","","","","","","","","","","",""
"","do_trial","154","709563","0.0-86.0-0.0","""event"",""trial"",""time""
""fullscreenenter"",""0"",""4440""
""blur"",""101"",""550667""
""focus"",""101"",""550667""
","""event"",""trial"",""time""
""blur"",""101"",""550667""
","""event"",""trial"",""time""
""focus"",""101"",""550667""
","""event"",""trial"",""time""
""fullscreenenter"",""0"",""4440""
","
","252.6000000089407","","","","","","","","49","1,1,0","0","coast","29","probe-229","0.8219693697078744","0.26842116915179054","0.16042356938048435","1","","","","","","","",""
"","html-keyboard-response","155","710565","0.0-86.0-1.0","""event"",""trial"",""time""
""fullscreenenter"",""0"",""4440""
""blur"",""101"",""550667""
""focus"",""101"",""550667""
","""event"",""trial"",""time""
""blur"",""101"",""550667""
","""event"",""trial"",""time""
""focus"",""101"",""550667""
","""event"",""trial"",""time""
""fullscreenenter"",""0"",""4440""
","
","null","<p></p>","null","","","","","","","","","","","","","","","","","","","","","","",""
"","do_bye","156","712069","0.0-87.0-0.0","""event"",""trial"",""time""
""fullscreenenter"",""0"",""4440""
""blur"",""101"",""550667""
""focus"",""101"",""550667""
","""event"",""trial"",""time""
""blur"",""101"",""550667""
","""event"",""trial"",""time""
""focus"",""101"",""550667""
","""event"",""trial"",""time""
""fullscreenenter"",""0"",""4440""
","
","null","","","","","","","","null","","","","","","","","","","","","","","","","",""
"","break","157","715437","0.0-87.0-1.0","""event"",""trial"",""time""
""fullscreenenter"",""0"",""4440""
""blur"",""101"",""550667""
""focus"",""101"",""550667""
","""event"",""trial"",""time""
""blur"",""101"",""550667""
","""event"",""trial"",""time""
""focus"",""101"",""550667""
","""event"",""trial"",""time""
""fullscreenenter"",""0"",""4440""
","
","3367.8999999910593","<div class='center'><p>Time to take a quick break! You have 2 minutes to rest, but you can move on sooner if you'd like.</p><p> Press the <b>space bar</b> to continue.</p></div>","32","","","","","","","","","","","","","","","","","","","","","","",""
"","do_travel","158","724440","0.0-88.0-0.0","""event"",""trial"",""time""
""fullscreenenter"",""0"",""4440""
""blur"",""101"",""550667""
""focus"",""101"",""550667""
","""event"",""trial"",""time""
""blur"",""101"",""550667""
","""event"",""trial"",""time""
""focus"",""101"",""550667""
","""event"",""trial"",""time""
""fullscreenenter"",""0"",""4440""
","
","null","","","","","","","","null","","","","","","","","","","","","","","","","",""
"","do_welcome","159","728443","0.0-88.0-1.0","""event"",""trial"",""time""
""fullscreenenter"",""0"",""4440""
""blur"",""101"",""550667""
""focus"",""101"",""550667""
","""event"",""trial"",""time""
""blur"",""101"",""550667""
","""event"",""trial"",""time""
""focus"",""101"",""550667""
","""event"",""trial"",""time""
""fullscreenenter"",""0"",""4440""
","
","null","","","","","","","","null","","","","","","","","","","","","","","","","",""
"","do_trial","160","734472","0.0-89.0-0.0","""event"",""trial"",""time""
""fullscreenenter"",""0"",""4440""
""blur"",""101"",""550667""
""focus"",""101"",""550667""
","""event"",""trial"",""time""
""blur"",""101"",""550667""
","""event"",""trial"",""time""
""focus"",""101"",""550667""
","""event"",""trial"",""time""
""fullscreenenter"",""0"",""4440""
","
","null","","","","","","","","null","1,0,0","1","mountain","30","probe-219","1","0.34040797494761604","0.12314967024290395","","","","","","","","",""
"","html-keyboard-response","161","735473","0.0-89.0-1.0","""event"",""trial"",""time""
""fullscreenenter"",""0"",""4440""
""blur"",""101"",""550667""
""focus"",""101"",""550667""
","""event"",""trial"",""time""
""blur"",""101"",""550667""
","""event"",""trial"",""time""
""focus"",""101"",""550667""
","""event"",""trial"",""time""
""fullscreenenter"",""0"",""4440""
","
","null","<p></p>","null","","","","","","","","","","","","","","","","","","","","","","",""
"","do_trial","162","741502","0.0-90.0-0.0","""event"",""trial"",""time""
""fullscreenenter"",""0"",""4440""
""blur"",""101"",""550667""
""focus"",""101"",""550667""
","""event"",""trial"",""time""
""blur"",""101"",""550667""
","""event"",""trial"",""time""
""focus"",""101"",""550667""
","""event"",""trial"",""time""
""fullscreenenter"",""0"",""4440""
","
","null","","","","","","","","null","1,0,0","1","mountain","31","probe-141","1","0.29533590536544646","0.2383422643871734","","","","","","","","",""
"","html-keyboard-response","163","742502","0.0-90.0-1.0","""event"",""trial"",""time""
""fullscreenenter"",""0"",""4440""
""blur"",""101"",""550667""
""focus"",""101"",""550667""
","""event"",""trial"",""time""
""blur"",""101"",""550667""
","""event"",""trial"",""time""
""focus"",""101"",""550667""
","""event"",""trial"",""time""
""fullscreenenter"",""0"",""4440""
","
","null","<p></p>","null","","","","","","","","","","","","","","","","","","","","","","",""
"","do_trial","164","747370","0.0-91.0-0.0","""event"",""trial"",""time""
""fullscreenenter"",""0"",""4440""
""blur"",""101"",""550667""
""focus"",""101"",""550667""
","""event"",""trial"",""time""
""blur"",""101"",""550667""
","""event"",""trial"",""time""
""focus"",""101"",""550667""
","""event"",""trial"",""time""
""fullscreenenter"",""0"",""4440""
","
","340.8999999910593","","","","","","","","51","1,0,0","1","mountain","32","probe-192","1","0.35376540813849233","0.16312211166125337","0","","","","","","","",""
"","html-keyboard-response","165","748372","0.0-91.0-1.0","""event"",""trial"",""time""
""fullscreenenter"",""0"",""4440""
""blur"",""101"",""550667""
""focus"",""101"",""550667""
","""event"",""trial"",""time""
""blur"",""101"",""550667""
","""event"",""trial"",""time""
""focus"",""101"",""550667""
","""event"",""trial"",""time""
""fullscreenenter"",""0"",""4440""
","
","null","<p></p>","null","","","","","","","","","","","","","","","","","","","","","","",""
"","do_trial","166","753144","0.0-92.0-0.0","""event"",""trial"",""time""
""fullscreenenter"",""0"",""4440""
""blur"",""101"",""550667""
""focus"",""101"",""550667""
","""event"",""trial"",""time""
""blur"",""101"",""550667""
","""event"",""trial"",""time""
""focus"",""101"",""550667""
","""event"",""trial"",""time""
""fullscreenenter"",""0"",""4440""
","
","245.09999999403954","","","","","","","","49","1,0,0","1","mountain","33","probe-37","0.9281112591036148","0.3340124477548998","0.16739287166936329","1","","","","","","","",""
"","html-keyboard-response","167","754145","0.0-92.0-1.0","""event"",""trial"",""time""
""fullscreenenter"",""0"",""4440""
""blur"",""101"",""550667""
""focus"",""101"",""550667""
","""event"",""trial"",""time""
""blur"",""101"",""550667""
","""event"",""trial"",""time""
""focus"",""101"",""550667""
","""event"",""trial"",""time""
""fullscreenenter"",""0"",""4440""
","
","null","<p></p>","null","","","","","","","","","","","","","","","","","","","","","","",""
"","do_trial","168","759059","0.0-93.0-0.0","""event"",""trial"",""time""
""fullscreenenter"",""0"",""4440""
""blur"",""101"",""550667""
""focus"",""101"",""550667""
","""event"",""trial"",""time""
""blur"",""101"",""550667""
","""event"",""trial"",""time""
""focus"",""101"",""550667""
","""event"",""trial"",""time""
""fullscreenenter"",""0"",""4440""
","
","386.1000000089407","","","","","","","","49","1,1,0","1","mountain","34","probe-41","0.7756798349725947","0.4989848813606546","0.0579764304388838","1","","","","","","","",""
"","html-keyboard-response","169","760060","0.0-93.0-1.0","""event"",""trial"",""time""
""fullscreenenter"",""0"",""4440""
""blur"",""101"",""550667""
""focus"",""101"",""550667""
","""event"",""trial"",""time""
""blur"",""101"",""550667""
","""event"",""trial"",""time""
""focus"",""101"",""550667""
","""event"",""trial"",""time""
""fullscreenenter"",""0"",""4440""
","
","null","<p></p>","null","","","","","","","","","","","","","","","","","","","","","","",""
"","do_trial","170","764816","0.0-94.0-0.0","""event"",""trial"",""time""
""fullscreenenter"",""0"",""4440""
""blur"",""101"",""550667""
""focus"",""101"",""550667""
","""event"",""trial"",""time""
""blur"",""101"",""550667""
","""event"",""trial"",""time""
""focus"",""101"",""550667""
","""event"",""trial"",""time""
""fullscreenenter"",""0"",""4440""
","
","228.09999999403954","","","","","","","","49","1,0,0","1","mountain","35","probe-43","0.770009857691407","0.4141569611753553","0.12040885866940898","1","","","","","","","",""
"","html-keyboard-response","171","765818","0.0-94.0-1.0","""event"",""trial"",""time""
""fullscreenenter"",""0"",""4440""
""blur"",""101"",""550667""
""focus"",""101"",""550667""
","""event"",""trial"",""time""
""blur"",""101"",""550667""
","""event"",""trial"",""time""
""focus"",""101"",""550667""
","""event"",""trial"",""time""
""fullscreenenter"",""0"",""4440""
","
","null","<p></p>","null","","","","","","","","","","","","","","","","","","","","","","",""
"","do_trial","172","770613","0.0-95.0-0.0","""event"",""trial"",""time""
""fullscreenenter"",""0"",""4440""
""blur"",""101"",""550667""
""focus"",""101"",""550667""
","""event"",""trial"",""time""
""blur"",""101"",""550667""
","""event"",""trial"",""time""
""focus"",""101"",""550667""
","""event"",""trial"",""time""
""fullscreenenter"",""0"",""4440""
","
","267.09999999403954","","","","","","","","49","1,0,0","1","mountain","36","probe-117","0.7725417355618112","0.3086932145078206","0.08942226901479983","1","","","","","","","",""
"","html-keyboard-response","173","771615","0.0-95.0-1.0","""event"",""trial"",""time""
""fullscreenenter"",""0"",""4440""
""blur"",""101"",""550667""
""focus"",""101"",""550667""
","""event"",""trial"",""time""
""blur"",""101"",""550667""
","""event"",""trial"",""time""
""focus"",""101"",""550667""
","""event"",""trial"",""time""
""fullscreenenter"",""0"",""4440""
","
","null","<p></p>","null","","","","","","","","","","","","","","","","","","","","","","",""
"","do_trial","174","776378","0.0-96.0-0.0","""event"",""trial"",""time""
""fullscreenenter"",""0"",""4440""
""blur"",""101"",""550667""
""focus"",""101"",""550667""
","""event"",""trial"",""time""
""blur"",""101"",""550667""
","""event"",""trial"",""time""
""focus"",""101"",""550667""
","""event"",""trial"",""time""
""fullscreenenter"",""0"",""4440""
","
","236","","","","","","","","49","1,1,0","1","mountain","37","probe-172","0.7172503834724847","0.2536848518149569","0.2580531327532662","1","","","","","","","",""
"","html-keyboard-response","175","777380","0.0-96.0-1.0","""event"",""trial"",""time""
""fullscreenenter"",""0"",""4440""
""blur"",""101"",""550667""
""focus"",""101"",""550667""
","""event"",""trial"",""time""
""blur"",""101"",""550667""
","""event"",""trial"",""time""
""focus"",""101"",""550667""
","""event"",""trial"",""time""
""fullscreenenter"",""0"",""4440""
","
","null","<p></p>","null","","","","","","","","","","","","","","","","","","","","","","",""
"","do_trial","176","782191","0.0-97.0-0.0","""event"",""trial"",""time""
""fullscreenenter"",""0"",""4440""
""blur"",""101"",""550667""
""focus"",""101"",""550667""
","""event"",""trial"",""time""
""blur"",""101"",""550667""
","""event"",""trial"",""time""
""focus"",""101"",""550667""
","""event"",""trial"",""time""
""fullscreenenter"",""0"",""4440""
","
","282.79999999701977","","","","","","","","49","1,0,0","1","mountain","38","probe-189","0.794240768533513","0.28556273366472607","0.07596512974810861","1","","","","","","","",""
"","html-keyboard-response","177","783192","0.0-97.0-1.0","""event"",""trial"",""time""
""fullscreenenter"",""0"",""4440""
""blur"",""101"",""550667""
""focus"",""101"",""550667""
","""event"",""trial"",""time""
""blur"",""101"",""550667""
","""event"",""trial"",""time""
""focus"",""101"",""550667""
","""event"",""trial"",""time""
""fullscreenenter"",""0"",""4440""
","
","null","<p></p>","null","","","","","","","","","","","","","","","","","","","","","","",""
"","do_trial","178","787892","0.0-98.0-0.0","""event"",""trial"",""time""
""fullscreenenter"",""0"",""4440""
""blur"",""101"",""550667""
""focus"",""101"",""550667""
","""event"",""trial"",""time""
""blur"",""101"",""550667""
","""event"",""trial"",""time""
""focus"",""101"",""550667""
","""event"",""trial"",""time""
""fullscreenenter"",""0"",""4440""
","
","166.20000000298023","","","","","","","","49","1,0,0","1","mountain","39","probe-171","0.6674747680145495","0.3630815960321355","0.0538571381309124","1","","","","","","","",""
"","html-keyboard-response","179","788894","0.0-98.0-1.0","""event"",""trial"",""time""
""fullscreenenter"",""0"",""4440""
""blur"",""101"",""550667""
""focus"",""101"",""550667""
","""event"",""trial"",""time""
""blur"",""101"",""550667""
","""event"",""trial"",""time""
""focus"",""101"",""550667""
","""event"",""trial"",""time""
""fullscreenenter"",""0"",""4440""
","
","null","<p></p>","null","","","","","","","","","","","","","","","","","","","","","","",""
"","do_trial","180","793736","0.0-99.0-0.0","""event"",""trial"",""time""
""fullscreenenter"",""0"",""4440""
""blur"",""101"",""550667""
""focus"",""101"",""550667""
","""event"",""trial"",""time""
""blur"",""101"",""550667""
","""event"",""trial"",""time""
""focus"",""101"",""550667""
","""event"",""trial"",""time""
""fullscreenenter"",""0"",""4440""
","
","315.3999999910593","","","","","","","","49","0,0,1","1","mountain","40","probe-142","0.6292510666579287","0.4143032379804232","0.22787911397041338","0","","","","","","","",""
"","html-keyboard-response","181","794738","0.0-99.0-1.0","""event"",""trial"",""time""
""fullscreenenter"",""0"",""4440""
""blur"",""101"",""550667""
""focus"",""101"",""550667""
","""event"",""trial"",""time""
""blur"",""101"",""550667""
","""event"",""trial"",""time""
""focus"",""101"",""550667""
","""event"",""trial"",""time""
""fullscreenenter"",""0"",""4440""
","
","null","<p></p>","null","","","","","","","","","","","","","","","","","","","","","","",""
"","do_trial","182","799652","0.0-100.0-0.0","""event"",""trial"",""time""
""fullscreenenter"",""0"",""4440""
""blur"",""101"",""550667""
""focus"",""101"",""550667""
","""event"",""trial"",""time""
""blur"",""101"",""550667""
","""event"",""trial"",""time""
""focus"",""101"",""550667""
","""event"",""trial"",""time""
""fullscreenenter"",""0"",""4440""
","
","386.20000000298023","","","","","","","","50","1,0,0","1","mountain","41","probe-125","0.48884381241679153","0.4748907036468624","0.19186927112258542","0","","","","","","","",""
"","html-keyboard-response","183","800653","0.0-100.0-1.0","""event"",""trial"",""time""
""fullscreenenter"",""0"",""4440""
""blur"",""101"",""550667""
""focus"",""101"",""550667""
","""event"",""trial"",""time""
""blur"",""101"",""550667""
","""event"",""trial"",""time""
""focus"",""101"",""550667""
","""event"",""trial"",""time""
""fullscreenenter"",""0"",""4440""
","
","null","<p></p>","null","","","","","","","","","","","","","","","","","","","","","","",""
"","do_trial","184","805527","0.0-101.0-0.0","""event"",""trial"",""time""
""fullscreenenter"",""0"",""4440""
""blur"",""101"",""550667""
""focus"",""101"",""550667""
","""event"",""trial"",""time""
""blur"",""101"",""550667""
","""event"",""trial"",""time""
""focus"",""101"",""550667""
","""event"",""trial"",""time""
""fullscreenenter"",""0"",""4440""
","
","345.40000000596046","","","","","","","","49","1,1,0","1","mountain","42","probe-61","0.44797473179553476","0.3735869690639797","0.4365618304061711","1","","","","","","","",""
"","html-keyboard-response","185","806529","0.0-101.0-1.0","""event"",""trial"",""time""
""fullscreenenter"",""0"",""4440""
""blur"",""101"",""550667""
""focus"",""101"",""550667""
","""event"",""trial"",""time""
""blur"",""101"",""550667""
","""event"",""trial"",""time""
""focus"",""101"",""550667""
","""event"",""trial"",""time""
""fullscreenenter"",""0"",""4440""
","
","null","<p></p>","null","","","","","","","","","","","","","","","","","","","","","","",""
"","do_trial","186","811331","0.0-102.0-0.0","""event"",""trial"",""time""
""fullscreenenter"",""0"",""4440""
""blur"",""101"",""550667""
""focus"",""101"",""550667""
","""event"",""trial"",""time""
""blur"",""101"",""550667""
","""event"",""trial"",""time""
""focus"",""101"",""550667""
","""event"",""trial"",""time""
""fullscreenenter"",""0"",""4440""
","
","275.09999999403954","","","","","","","","49","1,0,1","1","mountain","43","probe-227","0.30318108125062837","0.22822152526343573","0.4506044406908407","1","","","","","","","",""
"","html-keyboard-response","187","812332","0.0-102.0-1.0","""event"",""trial"",""time""
""fullscreenenter"",""0"",""4440""
""blur"",""101"",""550667""
""focus"",""101"",""550667""
","""event"",""trial"",""time""
""blur"",""101"",""550667""
","""event"",""trial"",""time""
""focus"",""101"",""550667""
","""event"",""trial"",""time""
""fullscreenenter"",""0"",""4440""
","
","null","<p></p>","null","","","","","","","","","","","","","","","","","","","","","","",""
"","do_trial","188","817088","0.0-103.0-0.0","""event"",""trial"",""time""
""fullscreenenter"",""0"",""4440""
""blur"",""101"",""550667""
""focus"",""101"",""550667""
","""event"",""trial"",""time""
""blur"",""101"",""550667""
","""event"",""trial"",""time""
""focus"",""101"",""550667""
","""event"",""trial"",""time""
""fullscreenenter"",""0"",""4440""
","
","228.5","","","","","","","","49","0,0,1","1","mountain","44","probe-123","0.10418711278298877","0.2308387654226937","0.5060341595179549","0","","","","","","","",""
"","html-keyboard-response","189","818090","0.0-103.0-1.0","""event"",""trial"",""time""
""fullscreenenter"",""0"",""4440""
""blur"",""101"",""550667""
""focus"",""101"",""550667""
","""event"",""trial"",""time""
""blur"",""101"",""550667""
","""event"",""trial"",""time""
""focus"",""101"",""550667""
","""event"",""trial"",""time""
""fullscreenenter"",""0"",""4440""
","
","null","<p></p>","null","","","","","","","","","","","","","","","","","","","","","","",""
"","do_trial","190","822877","0.0-104.0-0.0","""event"",""trial"",""time""
""fullscreenenter"",""0"",""4440""
""blur"",""101"",""550667""
""focus"",""101"",""550667""
","""event"",""trial"",""time""
""blur"",""101"",""550667""
","""event"",""trial"",""time""
""focus"",""101"",""550667""
","""event"",""trial"",""time""
""fullscreenenter"",""0"",""4440""
","
","260.59999999403954","","","","","","","","51","0,0,0","1","mountain","45","probe-85","0.14804863375460062","0.1734388726621529","0.5276013878823084","0","","","","","","","",""
"","html-keyboard-response","191","823879","0.0-104.0-1.0","""event"",""trial"",""time""
""fullscreenenter"",""0"",""4440""
""blur"",""101"",""550667""
""focus"",""101"",""550667""
","""event"",""trial"",""time""
""blur"",""101"",""550667""
","""event"",""trial"",""time""
""focus"",""101"",""550667""
","""event"",""trial"",""time""
""fullscreenenter"",""0"",""4440""
","
","null","<p></p>","null","","","","","","","","","","","","","","","","","","","","","","",""
"","do_trial","192","828688","0.0-105.0-0.0","""event"",""trial"",""time""
""fullscreenenter"",""0"",""4440""
""blur"",""101"",""550667""
""focus"",""101"",""550667""
","""event"",""trial"",""time""
""blur"",""101"",""550667""
","""event"",""trial"",""time""
""focus"",""101"",""550667""
","""event"",""trial"",""time""
""fullscreenenter"",""0"",""4440""
","
","282.40000000596046","","","","","","","","51","0,0,0","1","mountain","46","probe-54","0.0848154440249651","0.23599942352957187","0.5344216712903795","0","","","","","","","",""
"","html-keyboard-response","193","829690","0.0-105.0-1.0","""event"",""trial"",""time""
""fullscreenenter"",""0"",""4440""
""blur"",""101"",""550667""
""focus"",""101"",""550667""
","""event"",""trial"",""time""
""blur"",""101"",""550667""
","""event"",""trial"",""time""
""focus"",""101"",""550667""
","""event"",""trial"",""time""
""fullscreenenter"",""0"",""4440""
","
","null","<p></p>","null","","","","","","","","","","","","","","","","","","","","","","",""
"","do_trial","194","834580","0.0-106.0-0.0","""event"",""trial"",""time""
""fullscreenenter"",""0"",""4440""
""blur"",""101"",""550667""
""focus"",""101"",""550667""
","""event"",""trial"",""time""
""blur"",""101"",""550667""
","""event"",""trial"",""time""
""focus"",""101"",""550667""
","""event"",""trial"",""time""
""fullscreenenter"",""0"",""4440""
","
","362","","","","","","","","49","0,0,0","1","mountain","47","probe-92","0.18517999997054818","0.07315694324149927","0.6252558947777008","0","","","","","","","",""
"","html-keyboard-response","195","835582","0.0-106.0-1.0","""event"",""trial"",""time""
""fullscreenenter"",""0"",""4440""
""blur"",""101"",""550667""
""focus"",""101"",""550667""
","""event"",""trial"",""time""
""blur"",""101"",""550667""
","""event"",""trial"",""time""
""focus"",""101"",""550667""
","""event"",""trial"",""time""
""fullscreenenter"",""0"",""4440""
","
","null","<p></p>","null","","","","","","","","","","","","","","","","","","","","","","",""
"","do_trial","196","840353","0.0-107.0-0.0","""event"",""trial"",""time""
""fullscreenenter"",""0"",""4440""
""blur"",""101"",""550667""
""focus"",""101"",""550667""
","""event"",""trial"",""time""
""blur"",""101"",""550667""
","""event"",""trial"",""time""
""focus"",""101"",""550667""
","""event"",""trial"",""time""
""fullscreenenter"",""0"",""4440""
","
","234.5","","","","","","","","50","0,0,0","1","mountain","48","probe-42","0.17471478333248222","0.10189729586006119","0.5455049540565812","0","","","","","","","",""
"","html-keyboard-response","197","841354","0.0-107.0-1.0","""event"",""trial"",""time""
""fullscreenenter"",""0"",""4440""
""blur"",""101"",""550667""
""focus"",""101"",""550667""
","""event"",""trial"",""time""
""blur"",""101"",""550667""
","""event"",""trial"",""time""
""focus"",""101"",""550667""
","""event"",""trial"",""time""
""fullscreenenter"",""0"",""4440""
","
","null","<p></p>","null","","","","","","","","","","","","","","","","","","","","","","",""
"","do_trial","198","846086","0.0-108.0-0.0","""event"",""trial"",""time""
""fullscreenenter"",""0"",""4440""
""blur"",""101"",""550667""
""focus"",""101"",""550667""
","""event"",""trial"",""time""
""blur"",""101"",""550667""
","""event"",""trial"",""time""
""focus"",""101"",""550667""
","""event"",""trial"",""time""
""fullscreenenter"",""0"",""4440""
","
","205.09999999403954","","","","","","","","50","0,1,1","1","mountain","49","probe-70","0.12290374949049536","0.20281846786551555","0.5777883721698338","1","","","","","","","",""
"","html-keyboard-response","199","847088","0.0-108.0-1.0","""event"",""trial"",""time""
""fullscreenenter"",""0"",""4440""
""blur"",""101"",""550667""
""focus"",""101"",""550667""
","""event"",""trial"",""time""
""blur"",""101"",""550667""
","""event"",""trial"",""time""
""focus"",""101"",""550667""
","""event"",""trial"",""time""
""fullscreenenter"",""0"",""4440""
","
","null","<p></p>","null","","","","","","","","","","","","","","","","","","","","","","",""
"","do_trial","200","851907","0.0-109.0-0.0","""event"",""trial"",""time""
""fullscreenenter"",""0"",""4440""
""blur"",""101"",""550667""
""focus"",""101"",""550667""
","""event"",""trial"",""time""
""blur"",""101"",""550667""
","""event"",""trial"",""time""
""focus"",""101"",""550667""
","""event"",""trial"",""time""
""fullscreenenter"",""0"",""4440""
","
","292.40000000596046","","","","","","","","50","0,0,1","1","mountain","50","probe-209","0.13611535582934195","0.14101416221870797","0.6268937976445303","0","","","","","","","",""
"","html-keyboard-response","201","852908","0.0-109.0-1.0","""event"",""trial"",""time""
""fullscreenenter"",""0"",""4440""
""blur"",""101"",""550667""
""focus"",""101"",""550667""
","""event"",""trial"",""time""
""blur"",""101"",""550667""
","""event"",""trial"",""time""
""focus"",""101"",""550667""
","""event"",""trial"",""time""
""fullscreenenter"",""0"",""4440""
","
","null","<p></p>","null","","","","","","","","","","","","","","","","","","","","","","",""
"","do_trial","202","857680","0.0-110.0-0.0","""event"",""trial"",""time""
""fullscreenenter"",""0"",""4440""
""blur"",""101"",""550667""
""focus"",""101"",""550667""
","""event"",""trial"",""time""
""blur"",""101"",""550667""
","""event"",""trial"",""time""
""focus"",""101"",""550667""
","""event"",""trial"",""time""
""fullscreenenter"",""0"",""4440""
","
","244.70000000298023","","","","","","","","49","0,0,1","1","mountain","51","probe-78","0.13562666224473924","0.3993101903099809","0.5683600704457721","0","","","","","","","",""
"","html-keyboard-response","203","858682","0.0-110.0-1.0","""event"",""trial"",""time""
""fullscreenenter"",""0"",""4440""
""blur"",""101"",""550667""
""focus"",""101"",""550667""
","""event"",""trial"",""time""
""blur"",""101"",""550667""
","""event"",""trial"",""time""
""focus"",""101"",""550667""
","""event"",""trial"",""time""
""fullscreenenter"",""0"",""4440""
","
","null","<p></p>","null","","","","","","","","","","","","","","","","","","","","","","",""
"","do_trial","204","864405","0.0-111.0-0.0","""event"",""trial"",""time""
""fullscreenenter"",""0"",""4440""
""blur"",""101"",""550667""
""focus"",""101"",""550667""
","""event"",""trial"",""time""
""blur"",""101"",""550667""
","""event"",""trial"",""time""
""focus"",""101"",""550667""
","""event"",""trial"",""time""
""fullscreenenter"",""0"",""4440""
","
","1195.0999999940395","","","","","","","","51","0,0,1","1","mountain","52","probe-97","0.11154105900572918","0.40606056355752806","0.5684814171366235","1","","","","","","","",""
"","html-keyboard-response","205","865407","0.0-111.0-1.0","""event"",""trial"",""time""
""fullscreenenter"",""0"",""4440""
""blur"",""101"",""550667""
""focus"",""101"",""550667""
","""event"",""trial"",""time""
""blur"",""101"",""550667""
","""event"",""trial"",""time""
""focus"",""101"",""550667""
","""event"",""trial"",""time""
""fullscreenenter"",""0"",""4440""
","
","null","<p></p>","null","","","","","","","","","","","","","","","","","","","","","","",""
"","do_trial","206","872782","0.0-112.0-0.0","""event"",""trial"",""time""
""fullscreenenter"",""0"",""4440""
""blur"",""101"",""550667""
""focus"",""101"",""550667""
","""event"",""trial"",""time""
""blur"",""101"",""550667""
","""event"",""trial"",""time""
""focus"",""101"",""550667""
","""event"",""trial"",""time""
""fullscreenenter"",""0"",""4440""
","
","2846.800000011921","","","","","","","","51","0,0,1","1","mountain","53","probe-44","0.0720785969451365","0.2650424479449595","0.5681253612262349","1","","","","","","","",""
"","html-keyboard-response","207","873784","0.0-112.0-1.0","""event"",""trial"",""time""
""fullscreenenter"",""0"",""4440""
""blur"",""101"",""550667""
""focus"",""101"",""550667""
","""event"",""trial"",""time""
""blur"",""101"",""550667""
","""event"",""trial"",""time""
""focus"",""101"",""550667""
