success,trial_type,trial_index,time_elapsed,internal_node_id,interactions,blur_events,focus_events,fullscreenenter_events,fullscreenexit_events,rt,stimulus,key_press,subject_id,participant_id,age,gender,prompt,response,choice_outcomes,context_n,context_img_id,trial_n,probe_img_id,pR_red,pR_white,pR_black,outcome,contextArray_ind,validImageProbes,invalidImageProbes,pRew_Red,pRew_White,pRew_Black,availableForMemProbe,choice_blocks
TRUE,fullscreen,0,2149,0.0-0.0,"""event"",""trial"",""time""
""fullscreenenter"",""0"",""1172""
","
","
","""event"",""trial"",""time""
""fullscreenenter"",""0"",""1172""
","
",,,,,,,,,,,,,,,,,,,,,,,,,,
,pavlovia,1,2152,0.0-1.0,"""event"",""trial"",""time""
""fullscreenenter"",""0"",""1172""
","
","
","""event"",""trial"",""time""
""fullscreenenter"",""0"",""1172""
","
",,,,,,,,,,,,,,,,,,,,,,,,,,
,instruc1,2,47281,0.0-2.0,"""event"",""trial"",""time""
""fullscreenenter"",""0"",""1172""
","
","
","""event"",""trial"",""time""
""fullscreenenter"",""0"",""1172""
","
",null,run_exp/static/audio/clip_1_welcome.m4a,null,233,615,10,Male,"<div class='center'><p>Welcome! This is the first part of the study. It will last ~30 minutes. In part 1 and part 2 of the study, you are the head captain of a pirate ship traveling around the world to different islands. You will play a few different games throughout these two parts. Here is an overview of them:</p><br><p>Part 1 (today)</p><p>1. Instructions, practice game, and quiz</p><p>2. Pick a pirate game on 6 different islands</p><br><p>Part 2 (tomorrow)</p><p>3. Pick a pirate game and memory game</p><p>4. Where did you see this ship? </p></div>",,,,,,,,,,,,,,,,,,
,html-keyboard-response,3,47719,0.0-3.0,"""event"",""trial"",""time""
""fullscreenenter"",""0"",""1172""
","
","
","""event"",""trial"",""time""
""fullscreenenter"",""0"",""1172""
","
",437,"<div class='center'><p>Welcome! This is the first part of the study. It will last ~30 minutes. In part 1 and part 2 of the study, you are the head captain of a pirate ship traveling around the world to different islands. You will play a few different games throughout these two parts. Here is an overview of them:</p><br><p>Part 1 (today)</p><p>1. Instructions, practice game, and quiz</p><p>2. Pick a pirate game on 6 different islands</p><br><p>Part 2 (tomorrow)</p><p>3. Pick a pirate game and memory game</p><p>4. Where did you see this ship? </p><p><b>[Press the space bar to continue]</b></p></div>",32,,,,,,,,,,,,,,,,,,,,,,,
,instruc2,4,53019,0.0-4.0,"""event"",""trial"",""time""
""fullscreenenter"",""0"",""1172""
","
","
","""event"",""trial"",""time""
""fullscreenenter"",""0"",""1172""
","
",null,run_exp/static/audio/clip_2_different_places.m4a,null,,,,,"<div class='center'><p>Today, you’ll visit these 6 islands on your journey. You'll be able to see these islands from your ship.</p><p><img src='run_exp/static/images/contexts/all_contexts.png' height='500'></p></div>",,,,,,,,,,,,,,,,,,
,html-keyboard-response,5,68880,0.0-5.0,"""event"",""trial"",""time""
""fullscreenenter"",""0"",""1172""
","
","
","""event"",""trial"",""time""
""fullscreenenter"",""0"",""1172""
","
",15860.1,"<div class='center'><p>Today, you’ll visit these 6 islands on your journey. You'll be able to see these islands from your ship.</p><p><img src='run_exp/static/images/contexts/all_contexts.png' height='500'></p><p><b>[Press the space bar to continue]</b></p></div>",32,,,,,,,,,,,,,,,,,,,,,,,
,instruc3,6,78599,0.0-6.0,"""event"",""trial"",""time""
""fullscreenenter"",""0"",""1172""
","
","
","""event"",""trial"",""time""
""fullscreenenter"",""0"",""1172""
","
",null,run_exp/static/audio/clip_3_goal_of_game_1.m4a,null,,,,,"<div class='center'><p> The pirates on your ship will rob other ships as they leave the island.</p> These ships have just sold their goods to the islanders, so they will be filled with lots and lots of gold.</p><p><img src='run_exp/static/images/tutorial/ship_center.png' height='400'></p></div>",,,,,,,,,,,,,,,,,,
,html-keyboard-response,7,79050,0.0-7.0,"""event"",""trial"",""time""
""fullscreenenter"",""0"",""1172""
","
","
","""event"",""trial"",""time""
""fullscreenenter"",""0"",""1172""
","
",449.8999999,"<div class='center'><p> The pirates on your ship will rob other ships as they leave the island.</p> These ships have just sold their goods to the islanders, so they will be filled with lots and lots of gold.</p><p><img src='run_exp/static/images/tutorial/ship_center.png' height='400'></p><p><b>[Press the space bar to continue]</b></p></div>",32,,,,,,,,,,,,,,,,,,,,,,,
,instruc4,8,107036,0.0-8.0,"""event"",""trial"",""time""
""fullscreenenter"",""0"",""1172""
","
","
","""event"",""trial"",""time""
""fullscreenenter"",""0"",""1172""
","
",null,run_exp/static/audio/clip_4_goal_of_game_2.m4a,null,,,,,"<div class='center'><p>As the head captain, you do not have to rob any ships yourself. Another pirate will be doing the robbing for you. First, you will choose a pirate to rob the next ship.</p><p><img src='run_exp/static/images/tutorial/pirates_all_crop.png' height='200'></p><p>Then, you'll see if the pirate successfully robbed the ship of their gold. If they were successful, then you'll get a stack of gold coins like this:</p><p><img src='run_exp/static/images/tutorial/reward.png' height='150'></p><p> If they were <b>not</b> successful, then you'll get no gold coins, and you'll see a big red x like this: </p><p><img src='run_exp/static/images/tutorial/reward_no.png' height='150'></p><p> How much bonus money you make is based on how many gold coins you collect.</p><div>",,,,,,,,,,,,,,,,,,
,html-keyboard-response,9,108728,0.0-9.0,"""event"",""trial"",""time""
""fullscreenenter"",""0"",""1172""
","
","
","""event"",""trial"",""time""
""fullscreenenter"",""0"",""1172""
","
",1690.7,"<div class='center'><p>As the head captain, you do not have to rob any ships yourself. Another pirate will be doing the robbing for you. First, you will choose a pirate to rob the next ship.</p><p><img src='run_exp/static/images/tutorial/pirates_all_crop.png' height='200'></p><p>Then, you'll see if the pirate successfully robbed the ship of their gold. If they were successful, then you'll get a stack of gold coins like this:</p><p><img src='run_exp/static/images/tutorial/reward.png' height='150'></p><p> If they were <b>not</b> successful, then you'll get no gold coins, and you'll see a big red x like this: </p><p><img src='run_exp/static/images/tutorial/reward_no.png' height='150'></p><p> How much bonus money you make is based on how many gold coins you collect.</p<p><b>[Press the space bar to continue]</b></p></div>",32,,,,,,,,,,,,,,,,,,,,,,,
,instruc5,10,129068,0.0-10.0,"""event"",""trial"",""time""
""fullscreenenter"",""0"",""1172""
","
","
","""event"",""trial"",""time""
""fullscreenenter"",""0"",""1172""
","
",20339.6,run_exp/static/audio/clip_5_probabilistic.m4a,49,,,,,"<div class='center'><p>Even the most skilled pirate can not rob EVERY ship.</p><p> Some ships will have very strong protections against pirate attacks.</p><p> Blue beard, here, is very, very good at robbing ships, but he won't be successful every time he tries to rob one.</p><p> You can press the <b>‘1’</b> key on the keyboard to choose him.</p><p> Try choosing him 10 times to see how often he succeeds at robbing a ship. </p><p><img src='run_exp/static/images/tutorial/blue.png' height='500'></p></div>",,,,,,,,,,,,,,,,,,
,html-keyboard-response,11,130574,0.0-11.0,"""event"",""trial"",""time""
""fullscreenenter"",""0"",""1172""
","
","
","""event"",""trial"",""time""
""fullscreenenter"",""0"",""1172""
","
",null,<div class='center'><p><img src='run_exp/static/images/tutorial/blue_win.png' height='500'></p></div>,null,,,,,,,,,,,,,,,,,,,,,,,
,html-keyboard-response,12,131520,0.0-12.0,"""event"",""trial"",""time""
""fullscreenenter"",""0"",""1172""
","
","
","""event"",""trial"",""time""
""fullscreenenter"",""0"",""1172""
","
",945.8999999,<div class='center'><img src='run_exp/static/images/tutorial/blue.png' height='500'></p></div>,49,,,,,,,,,,,,,,,,,,,,,,,
,html-keyboard-response,13,133023,0.0-13.0,"""event"",""trial"",""time""
""fullscreenenter"",""0"",""1172""
","
","
","""event"",""trial"",""time""
""fullscreenenter"",""0"",""1172""
","
",null,<div class='center'><p><img src='run_exp/static/images/tutorial/blue_win.png' height='500'></p></div>,null,,,,,,,,,,,,,,,,,,,,,,,
,html-keyboard-response,14,134468,0.0-14.0,"""event"",""trial"",""time""
""fullscreenenter"",""0"",""1172""
","
","
","""event"",""trial"",""time""
""fullscreenenter"",""0"",""1172""
","
",1443.8,<div class='center'><img src='run_exp/static/images/tutorial/blue.png' height='500'></p></div>,49,,,,,,,,,,,,,,,,,,,,,,,
,html-keyboard-response,15,135968,0.0-15.0,"""event"",""trial"",""time""
""fullscreenenter"",""0"",""1172""
","
","
","""event"",""trial"",""time""
""fullscreenenter"",""0"",""1172""
","
",null,<div class='center'><p><img src='run_exp/static/images/tutorial/blue_win.png' height='500'></p></div>,null,,,,,,,,,,,,,,,,,,,,,,,
,html-keyboard-response,16,136515,0.0-16.0,"""event"",""trial"",""time""
""fullscreenenter"",""0"",""1172""
","
","
","""event"",""trial"",""time""
""fullscreenenter"",""0"",""1172""
","
",546,<div class='center'><img src='run_exp/static/images/tutorial/blue.png' height='500'></p></div>,49,,,,,,,,,,,,,,,,,,,,,,,
,html-keyboard-response,17,138020,0.0-17.0,"""event"",""trial"",""time""
""fullscreenenter"",""0"",""1172""
","
","
","""event"",""trial"",""time""
""fullscreenenter"",""0"",""1172""
","
",null,<div class='center'><p><img src='run_exp/static/images/tutorial/blue_no_win.png' height='500'></p></div>,null,,,,,,,,,,,,,,,,,,,,,,,
,html-keyboard-response,18,138563,0.0-18.0,"""event"",""trial"",""time""
""fullscreenenter"",""0"",""1172""
","
","
","""event"",""trial"",""time""
""fullscreenenter"",""0"",""1172""
","
",542.2,<div class='center'><img src='run_exp/static/images/tutorial/blue.png' height='500'></p></div>,49,,,,,,,,,,,,,,,,,,,,,,,
,html-keyboard-response,19,140068,0.0-19.0,"""event"",""trial"",""time""
""fullscreenenter"",""0"",""1172""
","
","
","""event"",""trial"",""time""
""fullscreenenter"",""0"",""1172""
","
",null,<div class='center'><p><img src='run_exp/static/images/tutorial/blue_win.png' height='500'></p></div>,null,,,,,,,,,,,,,,,,,,,,,,,
,html-keyboard-response,20,140633,0.0-20.0,"""event"",""trial"",""time""
""fullscreenenter"",""0"",""1172""
","
","
","""event"",""trial"",""time""
""fullscreenenter"",""0"",""1172""
","
",563.8,<div class='center'><img src='run_exp/static/images/tutorial/blue.png' height='500'></p></div>,49,,,,,,,,,,,,,,,,,,,,,,,
,html-keyboard-response,21,142137,0.0-21.0,"""event"",""trial"",""time""
""fullscreenenter"",""0"",""1172""
","
","
","""event"",""trial"",""time""
""fullscreenenter"",""0"",""1172""
","
",null,<div class='center'><p><img src='run_exp/static/images/tutorial/blue_win.png' height='500'></p></div>,null,,,,,,,,,,,,,,,,,,,,,,,
,html-keyboard-response,22,143063,0.0-22.0,"""event"",""trial"",""time""
""fullscreenenter"",""0"",""1172""
","
","
","""event"",""trial"",""time""
""fullscreenenter"",""0"",""1172""
","
",924.7,<div class='center'><img src='run_exp/static/images/tutorial/blue.png' height='500'></p></div>,49,,,,,,,,,,,,,,,,,,,,,,,
,html-keyboard-response,23,144565,0.0-23.0,"""event"",""trial"",""time""
""fullscreenenter"",""0"",""1172""
","
","
","""event"",""trial"",""time""
""fullscreenenter"",""0"",""1172""
","
",null,<div class='center'><p><img src='run_exp/static/images/tutorial/blue_win.png' height='500'></p></div>,null,,,,,,,,,,,,,,,,,,,,,,,
,html-keyboard-response,24,145121,0.0-24.0,"""event"",""trial"",""time""
""fullscreenenter"",""0"",""1172""
","
","
","""event"",""trial"",""time""
""fullscreenenter"",""0"",""1172""
","
",555.5999999,<div class='center'><img src='run_exp/static/images/tutorial/blue.png' height='500'></p></div>,49,,,,,,,,,,,,,,,,,,,,,,,
,html-keyboard-response,25,146623,0.0-25.0,"""event"",""trial"",""time""
""fullscreenenter"",""0"",""1172""
","
","
","""event"",""trial"",""time""
""fullscreenenter"",""0"",""1172""
","
",null,<div class='center'><p><img src='run_exp/static/images/tutorial/blue_no_win.png' height='500'></p></div>,null,,,,,,,,,,,,,,,,,,,,,,,
,html-keyboard-response,26,147101,0.0-26.0,"""event"",""trial"",""time""
""fullscreenenter"",""0"",""1172""
","
","
","""event"",""trial"",""time""
""fullscreenenter"",""0"",""1172""
","
",477.8999999,<div class='center'><img src='run_exp/static/images/tutorial/blue.png' height='500'></p></div>,49,,,,,,,,,,,,,,,,,,,,,,,
,html-keyboard-response,27,148607,0.0-27.0,"""event"",""trial"",""time""
""fullscreenenter"",""0"",""1172""
","
","
","""event"",""trial"",""time""
""fullscreenenter"",""0"",""1172""
","
",null,<div class='center'><p><img src='run_exp/static/images/tutorial/blue_win.png' height='500'></p></div>,null,,,,,,,,,,,,,,,,,,,,,,,
,html-keyboard-response,28,149329,0.0-28.0,"""event"",""trial"",""time""
""fullscreenenter"",""0"",""1172""
","
","
","""event"",""trial"",""time""
""fullscreenenter"",""0"",""1172""
","
",721.5999999,<div class='center'><img src='run_exp/static/images/tutorial/blue.png' height='500'></p></div>,49,,,,,,,,,,,,,,,,,,,,,,,
,html-keyboard-response,29,150833,0.0-29.0,"""event"",""trial"",""time""
""fullscreenenter"",""0"",""1172""
","
","
","""event"",""trial"",""time""
""fullscreenenter"",""0"",""1172""
","
",null,<div class='center'><p><img src='run_exp/static/images/tutorial/blue_win.png' height='500'></p></div>,null,,,,,,,,,,,,,,,,,,,,,,,
,instruc6,30,156266,0.0-30.0,"""event"",""trial"",""time""
""fullscreenenter"",""0"",""1172""
","
","
","""event"",""trial"",""time""
""fullscreenenter"",""0"",""1172""
","
",null,run_exp/static/audio/clip_6_blue_beard_outcome.m4a,null,,,,,"<div class='center'><p> See, he succeeded in robbing the ships most of the time but not every time. </p></div>",,,,,,,,,,,,,,,,,,
,html-keyboard-response,31,157328,0.0-31.0,"""event"",""trial"",""time""
""fullscreenenter"",""0"",""1172""
","
","
","""event"",""trial"",""time""
""fullscreenenter"",""0"",""1172""
","
",1061.2,"<div class='center'><p> See, he succeeded in robbing the ships most of the time but not every time. </p><p><b>[Press the space bar to continue]</b></p></div>",32,,,,,,,,,,,,,,,,,,,,,,,
,audio-keyboard-response,32,173303,0.0-32.0,"""event"",""trial"",""time""
""fullscreenenter"",""0"",""1172""
","
","
","""event"",""trial"",""time""
""fullscreenenter"",""0"",""1172""
","
",15974.4,run_exp/static/audio/clip_7_pick_pirate.m4a,51,,,,,,,,,,,,,,,,,,,,,,,
,audio-keyboard-response,33,177105,0.0-33.0-0.0,"""event"",""trial"",""time""
""fullscreenenter"",""0"",""1172""
","
","
","""event"",""trial"",""time""
""fullscreenenter"",""0"",""1172""
","
",3801.1,run_exp/static/audio/clip_8_chosen_pirate_win.m4a,32,,,,,,,,,,,,,,,,,,,,,,,
,audio-keyboard-response,34,179063,0.0-33.0-1.0,"""event"",""trial"",""time""
""fullscreenenter"",""0"",""1172""
","
","
","""event"",""trial"",""time""
""fullscreenenter"",""0"",""1172""
","
",1956.5,run_exp/static/audio/clip_9_pick_a_pirate_again.m4a,50,,,,,,,,,,,,,,,,,,,,,,,
,audio-keyboard-response,35,183743,0.0-34.0-0.0,"""event"",""trial"",""time""
""fullscreenenter"",""0"",""1172""
","
","
","""event"",""trial"",""time""
""fullscreenenter"",""0"",""1172""
","
",4679.1,run_exp/static/audio/clip_10_chosen_pirate_loss.m4a,32,,,,,,,,,,,,,,,,,,,,,,,
,instruc9,36,189226,0.0-35.0-0.0,"""event"",""trial"",""time""
""fullscreenenter"",""0"",""1172""
","
","
","""event"",""trial"",""time""
""fullscreenenter"",""0"",""1172""
","
",null,run_exp/static/audio/clip_11_time_out.m4a,null,,,,,"<div class='center'><p>If you don’t make your choice fast enough, you’ll have to wait a few seconds before you can make another one. </p><p><img src='run_exp/static/images/miscellaneous/hurry_up.png' height='500'></p></div>",,,,,,,,,,,,,,,,,,
,html-keyboard-response,37,190493,0.0-35.0-1.0,"""event"",""trial"",""time""
""fullscreenenter"",""0"",""1172""
","
","
","""event"",""trial"",""time""
""fullscreenenter"",""0"",""1172""
","
",1266.4,"<div class='center'><p>If you don’t make your choice fast enough, you’ll have to wait a few seconds before you can make another one. </p><p><img src='run_exp/static/images/miscellaneous/hurry_up.png' height='500'></p><p><b>[Press the space bar to continue]</b></p></div>",32,,,,,,,,,,,,,,,,,,,,,,,
,instruc10,38,229566,0.0-35.0-2.0,"""event"",""trial"",""time""
""fullscreenenter"",""0"",""1172""
","
","
","""event"",""trial"",""time""
""fullscreenenter"",""0"",""1172""
","
",null,run_exp/static/audio/clip_12_probe.m4a,null,,,,,"<div class='center'><p>Once you've chosen a pirate, you’ll be shown the ship they are robbing. You will never rob the same ship twice. Ships can be told apart from one another by the image on them. These are the goods that they sell. See, this ship has a travel mug on it. </p><p> You’ll have to remember which island you saw each ship on. You will win more gold coins and hence more bonus money if you remember correctly! To help you remember, you can imagine a story. For example, here, you could imagine a mug full of water in the desert. Or, as another example, if on the forest island, your pirate robbed a ship with an apple on it, you could imagine an apple falling from a tree in the forest. </p><p><img src='run_exp/static/images/tutorial/example_probe.png' height='500'></p></div>",,,,,,,,,,,,,,,,,,
,html-keyboard-response,39,232602,0.0-35.0-3.0,"""event"",""trial"",""time""
""fullscreenenter"",""0"",""1172""
","
","
","""event"",""trial"",""time""
""fullscreenenter"",""0"",""1172""
","
",3034.6,"<div class='center'><p>Once you've chosen a pirate, you’ll be shown the ship they are robbing. You will never rob the same ship twice. Ships can be told apart from one another by the image on them. These are the goods that they sell. See, this ship has a travel mug on it. </p><p> You’ll have to remember which island you saw each ship on. You will win more gold coins and hence more bonus money if you remember correctly! To help you remember, you can imagine a story. For example, here, you could imagine a mug full of water in the desert. Or, as another example, if on the forest island, your pirate robbed a ship with an apple on it, you could imagine an apple falling from a tree in the forest. </p><p><img src='run_exp/static/images/tutorial/example_probe.png' height='500'></p><p><b>[Press the space bar to continue]</b></p></div>",32,,,,,,,,,,,,,,,,,,,,,,,
,instruc11,40,249001,0.0-35.0-4.0,"""event"",""trial"",""time""
""fullscreenenter"",""0"",""1172""
","
","
","""event"",""trial"",""time""
""fullscreenenter"",""0"",""1172""
","
",null,run_exp/static/audio/clip_13_changepoint.m4a,null,,,,,"<div class='center'><p>How successful a pirate is at robbing ships will depend on the island you’re on.</p><p> A pirate may have visited this island many times before and gained a lot of practice robbing ships there.</p><p>So, they’re more likely to be successful than a pirate who has never visited the island before.</p></div>",,,,,,,,,,,,,,,,,,
,html-keyboard-response,41,250174,0.0-35.0-5.0,"""event"",""trial"",""time""
""fullscreenenter"",""0"",""1172""
","
","
","""event"",""trial"",""time""
""fullscreenenter"",""0"",""1172""
","
",1172.9,"<div class='center'><p>How successful a pirate is at robbing ships will depend on the island you’re on.</p><p> A pirate may have visited this island many times before and gained a lot of practice robbing ships there.</p><p>So, they’re more likely to be successful than a pirate who has never visited the island before.</p><p><b>[Press the space bar to continue]</b></p></div>",32,,,,,,,,,,,,,,,,,,,,,,,
,instruc12,42,291261,0.0-35.0-6.0,"""event"",""trial"",""time""
""fullscreenenter"",""0"",""1172""
","
","
","""event"",""trial"",""time""
""fullscreenenter"",""0"",""1172""
","
",null,run_exp/static/audio/clip_14_drift.m4a,null,,,,,"<div class='center'><p>How successful a pirate is at robbing ships can also change over the time spent on the island. </p><p> Ships may hear from islanders about the pirates coming and will improve their protections against the attack. This may make it harder to rob them.</p><p> Ships may also become lazy and weaken the strength of their protections. This may make it easier to rob them.</p><br><p>Things are always changing on the high seas! So, try your best to pay attention!</p><p><img src='run_exp/static/images/tutorial/contingency.png' height='500'></p></div>",,,,,,,,,,,,,,,,,,
,html-keyboard-response,43,292564,0.0-35.0-7.0,"""event"",""trial"",""time""
""fullscreenenter"",""0"",""1172""
","
","
","""event"",""trial"",""time""
""fullscreenenter"",""0"",""1172""
","
",1301.7,"<div class='center'><p>How successful a pirate is at robbing ships can also change over the time spent on the island. </p><p> Ships may hear from islanders about the pirates coming and will improve their protections against the attack. This may make it harder to rob them.</p><p> Ships may also become lazy and weaken the strength of their protections. This may make it easier to rob them.</p><br><p>Things are always changing on the high seas! So, try your best to pay attention!</p><p><img src='run_exp/static/images/tutorial/contingency.png' height='500'></p><p><b>[Press the space bar to continue]</b></p></div>",32,,,,,,,,,,,,,,,,,,,,,,,
,instruc13,44,327741,0.0-35.0-8.0,"""event"",""trial"",""time""
""fullscreenenter"",""0"",""1172""
","
","
","""event"",""trial"",""time""
""fullscreenenter"",""0"",""1172""
","
",null,run_exp/static/audio/clip_15_summary.m4a,null,,,,,"<div class='center'><p>Let's go over the instructions quickly again. You have two important things to do: </p><b><p> 1. Pick the pirate who is the best at robbing ships on the current island. </p></b><b><p> 2. Remember on which island a ship was robbed.</p> </b><p>The amount of bonus money you can win depends on both.</p><p><br><p>Let’s try a practice game. The game will start by showing you the pirates. First, pick a pirate using the <b> 1, 2, 3 </b> keys on your keyboard. When you are shown a ship, try to remember which island you’re on by making up a story.</p><p>This is just a practice game, so you’re not playing for money. </p><p> Good luck! This game will be very difficult but try your best!</p></div>",,,,,,,,,,,,,,,,,,
,html-keyboard-response,45,331680,0.0-35.0-9.0,"""event"",""trial"",""time""
""fullscreenenter"",""0"",""1172""
","
","
","""event"",""trial"",""time""
""fullscreenenter"",""0"",""1172""
","
",3938.9,"<div class='center'><p>Let's go over the instructions quickly again. You have two important things to do: </p><b><p> 1. Pick the pirate who is the best at robbing ships on the current island. </p></b><b><p> 2. Remember on which island a ship was robbed.</p> </b><p>The amount of bonus money you can win depends on both.</p><p><br><p>Let’s try a practice game. The game will start by showing you the pirates. First, pick a pirate using the <b> 1, 2, 3 </b> keys on your keyboard. When you are shown a ship, try to remember which island you’re on by making up a story.</p><p>This is just a practice game, so you’re not playing for money. </p><p> Good luck! This game will be very difficult but try your best!</p><p><b>[Press the space bar to continue]</b></p></div>",32,,,,,,,,,,,,,,,,,,,,,,,
,do_welcome,46,335689,0.0-35.0-10.0,"""event"",""trial"",""time""
""fullscreenenter"",""0"",""1172""
","
","
","""event"",""trial"",""time""
""fullscreenenter"",""0"",""1172""
","
",null,,,,,,,,null,,,,,,,,,,,,,,,,,
,do_trial,47,341697,0.0-35.0-11.0,"""event"",""trial"",""time""
""fullscreenenter"",""0"",""1172""
","
","
","""event"",""trial"",""time""
""fullscreenenter"",""0"",""1172""
","
",null,,,,,,,,null,"1,0,0",,,,,,,,,,,,,,,,
,html-keyboard-response,48,342700,0.0-36.0-0.0,"""event"",""trial"",""time""
""fullscreenenter"",""0"",""1172""
","
","
","""event"",""trial"",""time""
""fullscreenenter"",""0"",""1172""
","
",null,<p></p>,null,,,,,,,,,,,,,,,,,,,,,,,
,do_trial,49,349326,0.0-36.0-1.0,"""event"",""trial"",""time""
""fullscreenenter"",""0"",""1172""
","
","
","""event"",""trial"",""time""
""fullscreenenter"",""0"",""1172""
","
",2117.9,,,,,,,,51,"1,0,0",,,,,,,,,,,,,,,,
,html-keyboard-response,50,350329,0.0-37.0-0.0,"""event"",""trial"",""time""
""fullscreenenter"",""0"",""1172""
","
","
","""event"",""trial"",""time""
""fullscreenenter"",""0"",""1172""
","
",null,<p></p>,null,,,,,,,,,,,,,,,,,,,,,,,
,do_trial,51,356333,0.0-37.0-1.0,"""event"",""trial"",""time""
""fullscreenenter"",""0"",""1172""
","
","
","""event"",""trial"",""time""
""fullscreenenter"",""0"",""1172""
","
",null,,,,,,,,null,"1,1,0",,,,,,,,,,,,,,,,
,html-keyboard-response,52,357336,0.0-38.0-0.0,"""event"",""trial"",""time""
""fullscreenenter"",""0"",""1172""
","
","
","""event"",""trial"",""time""
""fullscreenenter"",""0"",""1172""
","
",null,<p></p>,null,,,,,,,,,,,,,,,,,,,,,,,
,do_trial,53,362937,0.0-38.0-1.0,"""event"",""trial"",""time""
""fullscreenenter"",""0"",""1172""
","
","
","""event"",""trial"",""time""
""fullscreenenter"",""0"",""1172""
","
",1093.9,,,,,,,,49,"1,1,0",,,,,,,,,,,,,,,,
,html-keyboard-response,54,363939,0.0-39.0-0.0,"""event"",""trial"",""time""
""fullscreenenter"",""0"",""1172""
","
","
","""event"",""trial"",""time""
""fullscreenenter"",""0"",""1172""
","
",null,<p></p>,null,,,,,,,,,,,,,,,,,,,,,,,
,do_trial,55,369947,0.0-39.0-1.0,"""event"",""trial"",""time""
""fullscreenenter"",""0"",""1172""
","
","
","""event"",""trial"",""time""
""fullscreenenter"",""0"",""1172""
","
",null,,,,,,,,null,"1,0,1",,,,,,,,,,,,,,,,
,html-keyboard-response,56,370951,0.0-40.0-0.0,"""event"",""trial"",""time""
""fullscreenenter"",""0"",""1172""
","
","
","""event"",""trial"",""time""
""fullscreenenter"",""0"",""1172""
","
",null,<p></p>,null,,,,,,,,,,,,,,,,,,,,,,,
,do_trial,57,376961,0.0-40.0-1.0,"""event"",""trial"",""time""
""fullscreenenter"",""0"",""1172""
","
","
","""event"",""trial"",""time""
""fullscreenenter"",""0"",""1172""
","
",null,,,,,,,,null,"1,0,1",,,,,,,,,,,,,,,,
,html-keyboard-response,58,377967,0.0-41.0-0.0,"""event"",""trial"",""time""
""fullscreenenter"",""0"",""1172""
","
","
","""event"",""trial"",""time""
""fullscreenenter"",""0"",""1172""
","
",null,<p></p>,null,,,,,,,,,,,,,,,,,,,,,,,
,do_trial,59,382784,0.0-41.0-1.0,"""event"",""trial"",""time""
""fullscreenenter"",""0"",""1172""
","
","
","""event"",""trial"",""time""
""fullscreenenter"",""0"",""1172""
","
",308.8,,,,,,,,50,"1,0,1",,,,,,,,,,,,,,,,
,html-keyboard-response,60,383785,0.0-42.0-0.0,"""event"",""trial"",""time""
""fullscreenenter"",""0"",""1172""
","
","
","""event"",""trial"",""time""
""fullscreenenter"",""0"",""1172""
","
",null,<p></p>,null,,,,,,,,,,,,,,,,,,,,,,,
,do_trial,61,389045,0.0-42.0-1.0,"""event"",""trial"",""time""
""fullscreenenter"",""0"",""1172""
","
","
","""event"",""trial"",""time""
""fullscreenenter"",""0"",""1172""
","
",756.3,,,,,,,,50,"0,1,0",,,,,,,,,,,,,,,,
,html-keyboard-response,62,390048,0.0-43.0-0.0,"""event"",""trial"",""time""
""fullscreenenter"",""0"",""1172""
","
","
","""event"",""trial"",""time""
""fullscreenenter"",""0"",""1172""
","
",null,<p></p>,null,,,,,,,,,,,,,,,,,,,,,,,
,do_trial,63,395099,0.0-43.0-1.0,"""event"",""trial"",""time""
""fullscreenenter"",""0"",""1172""
","
","
","""event"",""trial"",""time""
""fullscreenenter"",""0"",""1172""
","
",545.8,,,,,,,,51,"1,0,0",,,,,,,,,,,,,,,,
,do_bye,64,396602,0.0-44.0-0.0,"""event"",""trial"",""time""
""fullscreenenter"",""0"",""1172""
","
","
","""event"",""trial"",""time""
""fullscreenenter"",""0"",""1172""
","
",null,,,,,,,,null,,,,,,,,,,,,,,,,,
,do_travel,65,405608,0.0-44.0-1.0,"""event"",""trial"",""time""
""fullscreenenter"",""0"",""1172""
","
","
","""event"",""trial"",""time""
""fullscreenenter"",""0"",""1172""
","
",null,,,,,,,,null,,,,,,,,,,,,,,,,,
,do_welcome,66,409616,0.0-44.0-2.0,"""event"",""trial"",""time""
""fullscreenenter"",""0"",""1172""
","
","
","""event"",""trial"",""time""
""fullscreenenter"",""0"",""1172""
","
",null,,,,,,,,null,,,,,,,,,,,,,,,,,
,do_trial,67,414775,0.0-44.0-3.0,"""event"",""trial"",""time""
""fullscreenenter"",""0"",""1172""
","
","
","""event"",""trial"",""time""
""fullscreenenter"",""0"",""1172""
","
",654,,,,,,,,51,"1,0,0",,,,,,,,,,,,,,,,
,html-keyboard-response,68,415778,0.0-45.0-0.0,"""event"",""trial"",""time""
""fullscreenenter"",""0"",""1172""
","
","
","""event"",""trial"",""time""
""fullscreenenter"",""0"",""1172""
","
",null,<p></p>,null,,,,,,,,,,,,,,,,,,,,,,,
,do_trial,69,422717,0.0-45.0-1.0,"""event"",""trial"",""time""
""fullscreenenter"",""0"",""1172""
","
","
","""event"",""trial"",""time""
""fullscreenenter"",""0"",""1172""
","
",2434.3,,,,,,,,49,"1,0,1",,,,,,,,,,,,,,,,
,html-keyboard-response,70,423720,0.0-46.0-0.0,"""event"",""trial"",""time""
""fullscreenenter"",""0"",""1172""
","
","
","""event"",""trial"",""time""
""fullscreenenter"",""0"",""1172""
","
",null,<p></p>,null,,,,,,,,,,,,,,,,,,,,,,,
,do_trial,71,429401,0.0-46.0-1.0,"""event"",""trial"",""time""
""fullscreenenter"",""0"",""1172""
","
","
","""event"",""trial"",""time""
""fullscreenenter"",""0"",""1172""
","
",1175.2,,,,,,,,50,"1,1,0",,,,,,,,,,,,,,,,
,html-keyboard-response,72,430401,0.0-47.0-0.0,"""event"",""trial"",""time""
""fullscreenenter"",""0"",""1172""
","
","
","""event"",""trial"",""time""
""fullscreenenter"",""0"",""1172""
","
",null,<p></p>,null,,,,,,,,,,,,,,,,,,,,,,,
,do_trial,73,435354,0.0-47.0-1.0,"""event"",""trial"",""time""
""fullscreenenter"",""0"",""1172""
","
","
","""event"",""trial"",""time""
""fullscreenenter"",""0"",""1172""
","
",445,,,,,,,,51,"0,0,1",,,,,,,,,,,,,,,,
,html-keyboard-response,74,436356,0.0-48.0-0.0,"""event"",""trial"",""time""
""fullscreenenter"",""0"",""1172""
""fullscreenexit"",""75"",""436838""
","
","
","""event"",""trial"",""time""
""fullscreenenter"",""0"",""1172""
","""event"",""trial"",""time""
""fullscreenexit"",""75"",""436838""
",null,<p></p>,null,,,,,,,,,,,,,,,,,,,,,,,
,do_trial,75,442903,0.0-48.0-1.0,"""event"",""trial"",""time""
""fullscreenenter"",""0"",""1172""
""fullscreenexit"",""75"",""436838""
","
","
","""event"",""trial"",""time""
""fullscreenenter"",""0"",""1172""
","""event"",""trial"",""time""
""fullscreenexit"",""75"",""436838""
",2038.9,,,,,,,,49,"1,0,1",,,,,,,,,,,,,,,,
,html-keyboard-response,76,450346,0.0-49.0-0.0,"""event"",""trial"",""time""
""fullscreenenter"",""0"",""1172""
""fullscreenexit"",""75"",""436838""
","
","
","""event"",""trial"",""time""
""fullscreenenter"",""0"",""1172""
","""event"",""trial"",""time""
""fullscreenexit"",""75"",""436838""
",7441.7,<div class='center'><p><img src='run_exp/static/images/tutorial/prac_best_pirate.png'  height='500'></p></div>,49,,,,,,,,,,,,,,,,,,,,,,,
,html-keyboard-response,77,452214,0.0-50.0-0.0,"""event"",""trial"",""time""
""fullscreenenter"",""0"",""1172""
""fullscreenexit"",""75"",""436838""
","
","
","""event"",""trial"",""time""
""fullscreenenter"",""0"",""1172""
","""event"",""trial"",""time""
""fullscreenexit"",""75"",""436838""
",1866.9,<div class='center'><p>That's correct! Red beard was the best.</p><p><b>[Press the space bar to continue]</b></p></div>,32,,,,,,,,,,,,,,,,,,,,,,,
,html-keyboard-response,78,455251,0.0-50.0-1.0,"""event"",""trial"",""time""
""fullscreenenter"",""0"",""1172""
""fullscreenexit"",""75"",""436838""
","
","
","""event"",""trial"",""time""
""fullscreenenter"",""0"",""1172""
","""event"",""trial"",""time""
""fullscreenexit"",""75"",""436838""
",3036.9,<div class='center'><p><img src='run_exp/static/images/tutorial/prac_source.png'  height='500'></p></div>,50,,,,,,,,,,,,,,,,,,,,,,,
,html-keyboard-response,79,458311,0.0-51.0-0.0,"""event"",""trial"",""time""
""fullscreenenter"",""0"",""1172""
""fullscreenexit"",""75"",""436838""
","
","
","""event"",""trial"",""time""
""fullscreenenter"",""0"",""1172""
","""event"",""trial"",""time""
""fullscreenexit"",""75"",""436838""
",3058.9,<div class='center'><p>That's correct! You saw this ship on the cavern island.</p><p><b>[Press the space bar to continue]</b></p></div>,32,,,,,,,,,,,,,,,,,,,,,,,
,quiz_beginning,80,469544,0.0-51.0-1.0,"""event"",""trial"",""time""
""fullscreenenter"",""0"",""1172""
""fullscreenexit"",""75"",""436838""
","
","
","""event"",""trial"",""time""
""fullscreenenter"",""0"",""1172""
","""event"",""trial"",""time""
""fullscreenexit"",""75"",""436838""
",null,run_exp/static/audio/clip_16_quiz_intro.m4a,null,,,,,"<div class='center'><p>Good job on the practice game! Now, you will be asked some true or false questions to make sure you really understand the rules of the game.</p><p> Press <b>'1'</b> on the keyboard for true and press <b>'2'</b> for false.</p></div>",,,,,,,,,,,,,,,,,,
,audio-keyboard-response,81,476547,0.0-51.0-2.0,"""event"",""trial"",""time""
""fullscreenenter"",""0"",""1172""
""fullscreenexit"",""75"",""436838""
","
","
","""event"",""trial"",""time""
""fullscreenenter"",""0"",""1172""
","""event"",""trial"",""time""
""fullscreenexit"",""75"",""436838""
",7002.7,run_exp/static/audio/clip_17_q1.m4a,49,,,,,,,,,,,,,,,,,,,,,,,
,correct,82,478952,0.0-52.0-0.0,"""event"",""trial"",""time""
""fullscreenenter"",""0"",""1172""
""fullscreenexit"",""75"",""436838""
","
","
","""event"",""trial"",""time""
""fullscreenenter"",""0"",""1172""
","""event"",""trial"",""time""
""fullscreenexit"",""75"",""436838""
",null,run_exp/static/audio/clip_18_correct.m4a,null,,,,,<div class='center'><p>That's correct!</p></div>,,,,,,,,,,,,,,,,,,
,html-keyboard-response,83,479866,0.0-52.0-1.0,"""event"",""trial"",""time""
""fullscreenenter"",""0"",""1172""
""fullscreenexit"",""75"",""436838""
","
","
","""event"",""trial"",""time""
""fullscreenenter"",""0"",""1172""
","""event"",""trial"",""time""
""fullscreenexit"",""75"",""436838""
",913.6000001,<div class='center'><p>That's correct!</p><p><b>[Press the space bar to continue]</b></p></div>,32,,,,,,,,,,,,,,,,,,,,,,,
,audio-keyboard-response,84,486605,0.0-52.0-2.0,"""event"",""trial"",""time""
""fullscreenenter"",""0"",""1172""
""fullscreenexit"",""75"",""436838""
","
","
","""event"",""trial"",""time""
""fullscreenenter"",""0"",""1172""
","""event"",""trial"",""time""
""fullscreenexit"",""75"",""436838""
",6738.5,run_exp/static/audio/clip_20_q2.m4a,50,,,,,,,,,,,,,,,,,,,,,,,
,correct,85,488999,0.0-53.0-0.0,"""event"",""trial"",""time""
""fullscreenenter"",""0"",""1172""
""fullscreenexit"",""75"",""436838""
","
","
","""event"",""trial"",""time""
""fullscreenenter"",""0"",""1172""
","""event"",""trial"",""time""
""fullscreenexit"",""75"",""436838""
",null,run_exp/static/audio/clip_18_correct.m4a,null,,,,,<div class='center'><p>That's correct!</p></div>,,,,,,,,,,,,,,,,,,
,html-keyboard-response,86,489698,0.0-53.0-1.0,"""event"",""trial"",""time""
""fullscreenenter"",""0"",""1172""
""fullscreenexit"",""75"",""436838""
","
","
","""event"",""trial"",""time""
""fullscreenenter"",""0"",""1172""
","""event"",""trial"",""time""
""fullscreenexit"",""75"",""436838""
",698.5,<div class='center'><p>That's correct!</p><p><b>[Press the space bar to continue]</b></p></div>,32,,,,,,,,,,,,,,,,,,,,,,,
,audio-keyboard-response,87,495594,0.0-53.0-2.0,"""event"",""trial"",""time""
""fullscreenenter"",""0"",""1172""
""fullscreenexit"",""75"",""436838""
","
","
","""event"",""trial"",""time""
""fullscreenenter"",""0"",""1172""
","""event"",""trial"",""time""
""fullscreenexit"",""75"",""436838""
",5894.8,run_exp/static/audio/clip_22_q3.m4a,50,,,,,,,,,,,,,,,,,,,,,,,
,correct,88,498002,0.0-54.0-0.0,"""event"",""trial"",""time""
""fullscreenenter"",""0"",""1172""
""fullscreenexit"",""75"",""436838""
","
","
","""event"",""trial"",""time""
""fullscreenenter"",""0"",""1172""
","""event"",""trial"",""time""
""fullscreenexit"",""75"",""436838""
",null,run_exp/static/audio/clip_18_correct.m4a,null,,,,,<div class='center'><p>That's correct!</p></div>,,,,,,,,,,,,,,,,,,
,html-keyboard-response,89,498743,0.0-54.0-1.0,"""event"",""trial"",""time""
""fullscreenenter"",""0"",""1172""
""fullscreenexit"",""75"",""436838""
","
","
","""event"",""trial"",""time""
""fullscreenenter"",""0"",""1172""
","""event"",""trial"",""time""
""fullscreenexit"",""75"",""436838""
",741,<div class='center'><p>That's correct!</p><p><b>[Press the space bar to continue]</b></p></div>,32,,,,,,,,,,,,,,,,,,,,,,,
,audio-keyboard-response,90,502759,0.0-54.0-2.0,"""event"",""trial"",""time""
""fullscreenenter"",""0"",""1172""
""fullscreenexit"",""75"",""436838""
","
","
","""event"",""trial"",""time""
""fullscreenenter"",""0"",""1172""
","""event"",""trial"",""time""
""fullscreenexit"",""75"",""436838""
",4015.6,run_exp/static/audio/clip_24_q4.m4a,49,,,,,,,,,,,,,,,,,,,,,,,
,correct,91,505191,0.0-55.0-0.0,"""event"",""trial"",""time""
""fullscreenenter"",""0"",""1172""
""fullscreenexit"",""75"",""436838""
","
","
","""event"",""trial"",""time""
""fullscreenenter"",""0"",""1172""
","""event"",""trial"",""time""
""fullscreenexit"",""75"",""436838""
",null,run_exp/static/audio/clip_18_correct.m4a,null,,,,,<div class='center'><p>That's correct!</p></div>,,,,,,,,,,,,,,,,,,
,html-keyboard-response,92,506033,0.0-55.0-1.0,"""event"",""trial"",""time""
""fullscreenenter"",""0"",""1172""
""fullscreenexit"",""75"",""436838""
","
","
","""event"",""trial"",""time""
""fullscreenenter"",""0"",""1172""
","""event"",""trial"",""time""
""fullscreenexit"",""75"",""436838""
",841.5,<div class='center'><p>That's correct!</p><p><b>[Press the space bar to continue]</b></p></div>,32,,,,,,,,,,,,,,,,,,,,,,,
,q_all_corr,93,514514,0.0-56.0-0.0,"""event"",""trial"",""time""
""fullscreenenter"",""0"",""1172""
""fullscreenexit"",""75"",""436838""
","
","
","""event"",""trial"",""time""
""fullscreenenter"",""0"",""1172""
","""event"",""trial"",""time""
""fullscreenexit"",""75"",""436838""
",null,run_exp/static/audio/clip_27_quiz_all_correct.m4a,null,,,,,<div class='center'><p>Good job! You’re now ready to move on to the real game! Remember this game will be difficult but don't get discouraged and try your best!</p></div>,,,,,,,,,,,,,,,,,,
,html-keyboard-response,94,532202,0.0-56.0-1.0,"""event"",""trial"",""time""
""fullscreenenter"",""0"",""1172""
""fullscreenexit"",""75"",""436838""
","
","
","""event"",""trial"",""time""
""fullscreenenter"",""0"",""1172""
","""event"",""trial"",""time""
""fullscreenexit"",""75"",""436838""
",17687.8,<div class='center'><p>Good job! You’re now ready to move on to the real game! Remember this game will be difficult but don't get discouraged and try your best!</p><p><b>[Press the space bar to continue]</b></p></div>,32,,,,,,,,,,,,,,,,,,,,,,,
,do_welcome,95,536207,0.0-57.0-0.0,"""event"",""trial"",""time""
""fullscreenenter"",""0"",""1172""
""fullscreenexit"",""75"",""436838""
","
","
","""event"",""trial"",""time""
""fullscreenenter"",""0"",""1172""
","""event"",""trial"",""time""
""fullscreenexit"",""75"",""436838""
",null,,,,,,,,null,,,,,,,,,,,,,,,,,
,do_trial,96,541891,0.0-58.0-0.0,"""event"",""trial"",""time""
""fullscreenenter"",""0"",""1172""
""fullscreenexit"",""75"",""436838""
","
","
","""event"",""trial"",""time""
""fullscreenenter"",""0"",""1172""
","""event"",""trial"",""time""
""fullscreenexit"",""75"",""436838""
",1150,,,,,,,,51,"0,0,0",0,highway,0,probe-91,0.6,0.3,0.1,0,,,,,,,,
,html-keyboard-response,97,542894,0.0-58.0-1.0,"""event"",""trial"",""time""
""fullscreenenter"",""0"",""1172""
""fullscreenexit"",""75"",""436838""
","
","
","""event"",""trial"",""time""
""fullscreenenter"",""0"",""1172""
","""event"",""trial"",""time""
""fullscreenexit"",""75"",""436838""
",null,<p></p>,null,,,,,,,,,,,,,,,,,,,,,,,
,do_trial,98,549520,0.0-59.0-0.0,"""event"",""trial"",""time""
""fullscreenenter"",""0"",""1172""
""fullscreenexit"",""75"",""436838""
","
","
","""event"",""trial"",""time""
""fullscreenenter"",""0"",""1172""
","""event"",""trial"",""time""
""fullscreenexit"",""75"",""436838""
",2090.5,,,,,,,,50,"1,1,0",0,highway,1,probe-63,0.733100867,0.144356672,0.209284799,1,,,,,,,,
,html-keyboard-response,99,550523,0.0-59.0-1.0,"""event"",""trial"",""time""
""fullscreenenter"",""0"",""1172""
""fullscreenexit"",""75"",""436838""
","
","
","""event"",""trial"",""time""
""fullscreenenter"",""0"",""1172""
","""event"",""trial"",""time""
""fullscreenexit"",""75"",""436838""
",null,<p></p>,null,,,,,,,,,,,,,,,,,,,,,,,
,do_trial,100,556556,0.0-60.0-0.0,"""event"",""trial"",""time""
""fullscreenenter"",""0"",""1172""
""fullscreenexit"",""75"",""436838""
","
","
","""event"",""trial"",""time""
""fullscreenenter"",""0"",""1172""
","""event"",""trial"",""time""
""fullscreenexit"",""75"",""436838""
",null,,,,,,,,null,"0,0,1",0,highway,2,probe-137,0.703051471,0.162581128,0.097516364,,,,,,,,,
,html-keyboard-response,101,557559,0.0-60.0-1.0,"""event"",""trial"",""time""
""fullscreenenter"",""0"",""1172""
""fullscreenexit"",""75"",""436838""
","
","
","""event"",""trial"",""time""
""fullscreenenter"",""0"",""1172""
","""event"",""trial"",""time""
""fullscreenexit"",""75"",""436838""
",null,<p></p>,null,,,,,,,,,,,,,,,,,,,,,,,
,do_trial,102,562851,0.0-61.0-0.0,"""event"",""trial"",""time""
""fullscreenenter"",""0"",""1172""
""fullscreenexit"",""75"",""436838""
","
","
","""event"",""trial"",""time""
""fullscreenenter"",""0"",""1172""
","""event"",""trial"",""time""
""fullscreenexit"",""75"",""436838""
",757.8999999,,,,,,,,49,"0,0,0",0,highway,3,probe-150,0.578848789,0.269145772,0.080679599,0,,,,,,,,
,html-keyboard-response,103,563857,0.0-61.0-1.0,"""event"",""trial"",""time""
""fullscreenenter"",""0"",""1172""
""fullscreenexit"",""75"",""436838""
","
","
","""event"",""trial"",""time""
""fullscreenenter"",""0"",""1172""
","""event"",""trial"",""time""
""fullscreenexit"",""75"",""436838""
",null,<p></p>,null,,,,,,,,,,,,,,,,,,,,,,,
,do_trial,104,568720,0.0-62.0-0.0,"""event"",""trial"",""time""
""fullscreenenter"",""0"",""1172""
""fullscreenexit"",""75"",""436838""
","
","
","""event"",""trial"",""time""
""fullscreenenter"",""0"",""1172""
","""event"",""trial"",""time""
""fullscreenexit"",""75"",""436838""
",331.9000001,,,,,,,,50,"1,1,1",0,highway,4,probe-86,0.627118195,0.265755409,0.077126271,1,,,,,,,,
,html-keyboard-response,105,569723,0.0-62.0-1.0,"""event"",""trial"",""time""
""fullscreenenter"",""0"",""1172""
""fullscreenexit"",""75"",""436838""
","
","
","""event"",""trial"",""time""
""fullscreenenter"",""0"",""1172""
","""event"",""trial"",""time""
""fullscreenexit"",""75"",""436838""
",null,<p></p>,null,,,,,,,,,,,,,,,,,,,,,,,
,do_trial,106,574574,0.0-63.0-0.0,"""event"",""trial"",""time""
""fullscreenenter"",""0"",""1172""
""fullscreenexit"",""75"",""436838""
","
","
","""event"",""trial"",""time""
""fullscreenenter"",""0"",""1172""
","""event"",""trial"",""time""
""fullscreenexit"",""75"",""436838""
",316.2,,,,,,,,51,"1,1,0",0,highway,5,probe-198,0.511138099,0.259016478,0.112648038,0,,,,,,,,
,html-keyboard-response,107,575577,0.0-63.0-1.0,"""event"",""trial"",""time""
""fullscreenenter"",""0"",""1172""
""fullscreenexit"",""75"",""436838""
","
","
","""event"",""trial"",""time""
""fullscreenenter"",""0"",""1172""
","""event"",""trial"",""time""
""fullscreenexit"",""75"",""436838""
",null,<p></p>,null,,,,,,,,,,,,,,,,,,,,,,,
,do_trial,108,580580,0.0-64.0-0.0,"""event"",""trial"",""time""
""fullscreenenter"",""0"",""1172""
""fullscreenexit"",""75"",""436838""
","
","
","""event"",""trial"",""time""
""fullscreenenter"",""0"",""1172""
","""event"",""trial"",""time""
""fullscreenexit"",""75"",""436838""
",469.9000001,,,,,,,,49,"0,0,0",0,highway,6,probe-71,0.446591119,0.433366573,0.076649078,0,,,,,,,,
,html-keyboard-response,109,581583,0.0-64.0-1.0,"""event"",""trial"",""time""
""fullscreenenter"",""0"",""1172""
""fullscreenexit"",""75"",""436838""
","
","
","""event"",""trial"",""time""
""fullscreenenter"",""0"",""1172""
","""event"",""trial"",""time""
""fullscreenexit"",""75"",""436838""
",null,<p></p>,null,,,,,,,,,,,,,,,,,,,,,,,
,do_trial,110,586520,0.0-65.0-0.0,"""event"",""trial"",""time""
""fullscreenenter"",""0"",""1172""
""fullscreenexit"",""75"",""436838""
","
","
","""event"",""trial"",""time""
""fullscreenenter"",""0"",""1172""
","""event"",""trial"",""time""
""fullscreenexit"",""75"",""436838""
",404,,,,,,,,50,"0,1,0",0,highway,7,probe-88,0.391596895,0.398455119,0.090260286,1,,,,,,,,
,html-keyboard-response,111,587526,0.0-65.0-1.0,"""event"",""trial"",""time""
""fullscreenenter"",""0"",""1172""
""fullscreenexit"",""75"",""436838""
","
","
","""event"",""trial"",""time""
""fullscreenenter"",""0"",""1172""
","""event"",""trial"",""time""
""fullscreenexit"",""75"",""436838""
",null,<p></p>,null,,,,,,,,,,,,,,,,,,,,,,,
,do_trial,112,592391,0.0-66.0-0.0,"""event"",""trial"",""time""
""fullscreenenter"",""0"",""1172""
""fullscreenexit"",""75"",""436838""
","
","
","""event"",""trial"",""time""
""fullscreenenter"",""0"",""1172""
","""event"",""trial"",""time""
""fullscreenexit"",""75"",""436838""
",333.2,,,,,,,,50,"0,0,0",0,highway,8,probe-10,0.487790767,0.313330802,0.131249809,0,,,,,,,,
,html-keyboard-response,113,593394,0.0-66.0-1.0,"""event"",""trial"",""time""
""fullscreenenter"",""0"",""1172""
""fullscreenexit"",""75"",""436838""
","
","
","""event"",""trial"",""time""
""fullscreenenter"",""0"",""1172""
","""event"",""trial"",""time""
""fullscreenexit"",""75"",""436838""
",null,<p></p>,null,,,,,,,,,,,,,,,,,,,,,,,
,do_trial,114,598251,0.0-67.0-0.0,"""event"",""trial"",""time""
""fullscreenenter"",""0"",""1172""
""fullscreenexit"",""75"",""436838""
","
","
","""event"",""trial"",""time""
""fullscreenenter"",""0"",""1172""
","""event"",""trial"",""time""
""fullscreenexit"",""75"",""436838""
",326.6000001,,,,,,,,50,"0,0,0",0,highway,9,probe-214,0.451328691,0.165035205,0.122203146,0,,,,,,,,
,html-keyboard-response,115,599256,0.0-67.0-1.0,"""event"",""trial"",""time""
""fullscreenenter"",""0"",""1172""
""fullscreenexit"",""75"",""436838""
","
","
","""event"",""trial"",""time""
""fullscreenenter"",""0"",""1172""
","""event"",""trial"",""time""
""fullscreenexit"",""75"",""436838""
",null,<p></p>,null,,,,,,,,,,,,,,,,,,,,,,,
,do_trial,116,604170,0.0-68.0-0.0,"""event"",""trial"",""time""
""fullscreenenter"",""0"",""1172""
""fullscreenexit"",""75"",""436838""
","
","
","""event"",""trial"",""time""
""fullscreenenter"",""0"",""1172""
","""event"",""trial"",""time""
""fullscreenexit"",""75"",""436838""
",382.5999999,,,,,,,,50,"1,0,0",0,highway,10,probe-179,0.596274461,0.22276267,0.152591555,0,,,,,,,,
,html-keyboard-response,117,605173,0.0-68.0-1.0,"""event"",""trial"",""time""
""fullscreenenter"",""0"",""1172""
""fullscreenexit"",""75"",""436838""
","
","
","""event"",""trial"",""time""
""fullscreenenter"",""0"",""1172""
","""event"",""trial"",""time""
""fullscreenexit"",""75"",""436838""
",null,<p></p>,null,,,,,,,,,,,,,,,,,,,,,,,
,do_trial,118,610068,0.0-69.0-0.0,"""event"",""trial"",""time""
""fullscreenenter"",""0"",""1172""
""fullscreenexit"",""75"",""436838""
","
","
","""event"",""trial"",""time""
""fullscreenenter"",""0"",""1172""
","""event"",""trial"",""time""
""fullscreenexit"",""75"",""436838""
",359.8,,,,,,,,51,"0,0,0",0,highway,11,probe-27,0.635335551,0.28677561,0.198523928,0,,,,,,,,
,html-keyboard-response,119,611072,0.0-69.0-1.0,"""event"",""trial"",""time""
""fullscreenenter"",""0"",""1172""
""fullscreenexit"",""75"",""436838""
","
","
","""event"",""trial"",""time""
""fullscreenenter"",""0"",""1172""
","""event"",""trial"",""time""
""fullscreenexit"",""75"",""436838""
",null,<p></p>,null,,,,,,,,,,,,,,,,,,,,,,,
,do_trial,120,616007,0.0-70.0-0.0,"""event"",""trial"",""time""
""fullscreenenter"",""0"",""1172""
""fullscreenexit"",""75"",""436838""
","
","
","""event"",""trial"",""time""
""fullscreenenter"",""0"",""1172""
","""event"",""trial"",""time""
""fullscreenexit"",""75"",""436838""
",401.5,,,,,,,,49,"1,0,0",0,highway,12,probe-57,0.628472826,0.326895493,0.210695049,1,,,,,,,,
,html-keyboard-response,121,617010,0.0-70.0-1.0,"""event"",""trial"",""time""
""fullscreenenter"",""0"",""1172""
""fullscreenexit"",""75"",""436838""
","
","
","""event"",""trial"",""time""
""fullscreenenter"",""0"",""1172""
","""event"",""trial"",""time""
""fullscreenexit"",""75"",""436838""
",null,<p></p>,null,,,,,,,,,,,,,,,,,,,,,,,
,do_trial,122,622150,0.0-71.0-0.0,"""event"",""trial"",""time""
""fullscreenenter"",""0"",""1172""
""fullscreenexit"",""75"",""436838""
","
","
","""event"",""trial"",""time""
""fullscreenenter"",""0"",""1172""
","""event"",""trial"",""time""
""fullscreenexit"",""75"",""436838""
",606.2,,,,,,,,49,"1,0,0",0,highway,13,probe-42,0.677835325,0.411211254,0.293297337,1,,,,,,,,
,html-keyboard-response,123,623153,0.0-71.0-1.0,"""event"",""trial"",""time""
""fullscreenenter"",""0"",""1172""
""fullscreenexit"",""75"",""436838""
","
","
","""event"",""trial"",""time""
""fullscreenenter"",""0"",""1172""
","""event"",""trial"",""time""
""fullscreenexit"",""75"",""436838""
",null,<p></p>,null,,,,,,,,,,,,,,,,,,,,,,,
,do_trial,124,628043,0.0-72.0-0.0,"""event"",""trial"",""time""
""fullscreenenter"",""0"",""1172""
""fullscreenexit"",""75"",""436838""
","
","
","""event"",""trial"",""time""
""fullscreenenter"",""0"",""1172""
","""event"",""trial"",""time""
""fullscreenexit"",""75"",""436838""
",357.7,,,,,,,,50,"0,0,0",0,highway,14,probe-138,0.66669155,0.34307968,0.333987663,0,,,,,,,,
,html-keyboard-response,125,629046,0.0-72.0-1.0,"""event"",""trial"",""time""
""fullscreenenter"",""0"",""1172""
""fullscreenexit"",""75"",""436838""
","
","
","""event"",""trial"",""time""
""fullscreenenter"",""0"",""1172""
","""event"",""trial"",""time""
""fullscreenexit"",""75"",""436838""
",null,<p></p>,null,,,,,,,,,,,,,,,,,,,,,,,
,do_trial,126,633964,0.0-73.0-0.0,"""event"",""trial"",""time""
""fullscreenenter"",""0"",""1172""
""fullscreenexit"",""75"",""436838""
","
","
","""event"",""trial"",""time""
""fullscreenenter"",""0"",""1172""
","""event"",""trial"",""time""
""fullscreenexit"",""75"",""436838""
",382.4000001,,,,,,,,49,"1,0,0",0,highway,15,probe-143,0.637563827,0.333954755,0.299078839,1,,,,,,,,
,html-keyboard-response,127,634967,0.0-73.0-1.0,"""event"",""trial"",""time""
""fullscreenenter"",""0"",""1172""
""fullscreenexit"",""75"",""436838""
","
","
","""event"",""trial"",""time""
""fullscreenenter"",""0"",""1172""
","""event"",""trial"",""time""
""fullscreenexit"",""75"",""436838""
",null,<p></p>,null,,,,,,,,,,,,,,,,,,,,,,,
,do_trial,128,639831,0.0-74.0-0.0,"""event"",""trial"",""time""
""fullscreenenter"",""0"",""1172""
""fullscreenexit"",""75"",""436838""
","
","
","""event"",""trial"",""time""
""fullscreenenter"",""0"",""1172""
","""event"",""trial"",""time""
""fullscreenexit"",""75"",""436838""
",333.9000001,,,,,,,,49,"0,1,0",0,highway,16,probe-38,0.632491144,0.361614741,0.264875768,0,,,,,,,,
,html-keyboard-response,129,640834,0.0-74.0-1.0,"""event"",""trial"",""time""
""fullscreenenter"",""0"",""1172""
""fullscreenexit"",""75"",""436838""
","
","
","""event"",""trial"",""time""
""fullscreenenter"",""0"",""1172""
","""event"",""trial"",""time""
""fullscreenexit"",""75"",""436838""
",null,<p></p>,null,,,,,,,,,,,,,,,,,,,,,,,
,do_trial,130,646021,0.0-75.0-0.0,"""event"",""trial"",""time""
""fullscreenenter"",""0"",""1172""
""fullscreenexit"",""75"",""436838""
","
","
","""event"",""trial"",""time""
""fullscreenenter"",""0"",""1172""
","""event"",""trial"",""time""
""fullscreenexit"",""75"",""436838""
",654.4000001,,,,,,,,49,"1,0,0",0,highway,17,probe-14,0.73199312,0.382687781,0.265291183,1,,,,,,,,
,html-keyboard-response,131,647024,0.0-75.0-1.0,"""event"",""trial"",""time""
""fullscreenenter"",""0"",""1172""
""fullscreenexit"",""75"",""436838""
","
","
","""event"",""trial"",""time""
""fullscreenenter"",""0"",""1172""
","""event"",""trial"",""time""
""fullscreenexit"",""75"",""436838""
",null,<p></p>,null,,,,,,,,,,,,,,,,,,,,,,,
,do_trial,132,652008,0.0-76.0-0.0,"""event"",""trial"",""time""
""fullscreenenter"",""0"",""1172""
""fullscreenexit"",""75"",""436838""
","
","
","""event"",""trial"",""time""
""fullscreenenter"",""0"",""1172""
","""event"",""trial"",""time""
""fullscreenexit"",""75"",""436838""
",449.3,,,,,,,,49,"1,1,0",0,highway,18,probe-227,0.870233873,0.326112262,0.135424794,1,,,,,,,,
,html-keyboard-response,133,653011,0.0-76.0-1.0,"""event"",""trial"",""time""
""fullscreenenter"",""0"",""1172""
""fullscreenexit"",""75"",""436838""
","
","
","""event"",""trial"",""time""
""fullscreenenter"",""0"",""1172""
","""event"",""trial"",""time""
""fullscreenexit"",""75"",""436838""
",null,<p></p>,null,,,,,,,,,,,,,,,,,,,,,,,
,do_trial,134,657881,0.0-77.0-0.0,"""event"",""trial"",""time""
""fullscreenenter"",""0"",""1172""
""fullscreenexit"",""75"",""436838""
","
","
","""event"",""trial"",""time""
""fullscreenenter"",""0"",""1172""
","""event"",""trial"",""time""
""fullscreenexit"",""75"",""436838""
",334.8000002,,,,,,,,49,"1,0,0",0,highway,19,probe-37,0.691376347,0.211217471,0.058775134,1,,,,,,,,
,html-keyboard-response,135,658884,0.0-77.0-1.0,"""event"",""trial"",""time""
""fullscreenenter"",""0"",""1172""
""fullscreenexit"",""75"",""436838""
","
","
","""event"",""trial"",""time""
""fullscreenenter"",""0"",""1172""
","""event"",""trial"",""time""
""fullscreenexit"",""75"",""436838""
",null,<p></p>,null,,,,,,,,,,,,,,,,,,,,,,,
,do_trial,136,664593,0.0-78.0-0.0,"""event"",""trial"",""time""
""fullscreenenter"",""0"",""1172""
""fullscreenexit"",""75"",""436838""
","
","
","""event"",""trial"",""time""
""fullscreenenter"",""0"",""1172""
","""event"",""trial"",""time""
""fullscreenexit"",""75"",""436838""
",1178.1,,,,,,,,49,"1,0,0",0,highway,20,probe-59,0.552595815,0.158217769,0.132958826,1,,,,,,,,
,html-keyboard-response,137,665596,0.0-78.0-1.0,"""event"",""trial"",""time""
""fullscreenenter"",""0"",""1172""
""fullscreenexit"",""75"",""436838""
","
","
","""event"",""trial"",""time""
""fullscreenenter"",""0"",""1172""
","""event"",""trial"",""time""
""fullscreenexit"",""75"",""436838""
",null,<p></p>,null,,,,,,,,,,,,,,,,,,,,,,,
,do_trial,138,670500,0.0-79.0-0.0,"""event"",""trial"",""time""
""fullscreenenter"",""0"",""1172""
""fullscreenexit"",""75"",""436838""
","
","
","""event"",""trial"",""time""
""fullscreenenter"",""0"",""1172""
","""event"",""trial"",""time""
""fullscreenexit"",""75"",""436838""
",373.0999999,,,,,,,,49,"1,0,0",0,highway,21,probe-216,0.672158563,0.238352618,0.093930838,1,,,,,,,,
,html-keyboard-response,139,671503,0.0-79.0-1.0,"""event"",""trial"",""time""
""fullscreenenter"",""0"",""1172""
""fullscreenexit"",""75"",""436838""
","
","
","""event"",""trial"",""time""
""fullscreenenter"",""0"",""1172""
","""event"",""trial"",""time""
""fullscreenexit"",""75"",""436838""
",null,<p></p>,null,,,,,,,,,,,,,,,,,,,,,,,
,do_trial,140,676319,0.0-80.0-0.0,"""event"",""trial"",""time""
""fullscreenenter"",""0"",""1172""
""fullscreenexit"",""75"",""436838""
","
","
","""event"",""trial"",""time""
""fullscreenenter"",""0"",""1172""
","""event"",""trial"",""time""
""fullscreenexit"",""75"",""436838""
",280.3999999,,,,,,,,49,"1,0,0",0,highway,22,probe-181,0.675339378,0.169385138,0.095005045,1,,,,,,,,
,html-keyboard-response,141,677322,0.0-80.0-1.0,"""event"",""trial"",""time""
""fullscreenenter"",""0"",""1172""
""fullscreenexit"",""75"",""436838""
","
","
","""event"",""trial"",""time""
""fullscreenenter"",""0"",""1172""
","""event"",""trial"",""time""
""fullscreenexit"",""75"",""436838""
",null,<p></p>,null,,,,,,,,,,,,,,,,,,,,,,,
,do_trial,142,682260,0.0-81.0-0.0,"""event"",""trial"",""time""
""fullscreenenter"",""0"",""1172""
""fullscreenexit"",""75"",""436838""
","
","
","""event"",""trial"",""time""
""fullscreenenter"",""0"",""1172""
","""event"",""trial"",""time""
""fullscreenexit"",""75"",""436838""
",403.5,,,,,,,,49,"0,1,0",0,highway,23,probe-175,0.683769645,0.247330505,0.072472944,0,,,,,,,,
,html-keyboard-response,143,683263,0.0-81.0-1.0,"""event"",""trial"",""time""
""fullscreenenter"",""0"",""1172""
""fullscreenexit"",""75"",""436838""
","
","
","""event"",""trial"",""time""
""fullscreenenter"",""0"",""1172""
","""event"",""trial"",""time""
""fullscreenexit"",""75"",""436838""
",null,<p></p>,null,,,,,,,,,,,,,,,,,,,,,,,
,do_trial,144,688267,0.0-82.0-0.0,"""event"",""trial"",""time""
""fullscreenenter"",""0"",""1172""
""fullscreenexit"",""75"",""436838""
","
","
","""event"",""trial"",""time""
""fullscreenenter"",""0"",""1172""
","""event"",""trial"",""time""
""fullscreenexit"",""75"",""436838""
",469.2,,,,,,,,49,"0,0,0",0,highway,24,probe-177,0.660692871,0.221371199,0.193200768,0,,,,,,,,
,html-keyboard-response,145,689270,0.0-82.0-1.0,"""event"",""trial"",""time""
""fullscreenenter"",""0"",""1172""
""fullscreenexit"",""75"",""436838""
","
","
","""event"",""trial"",""time""
""fullscreenenter"",""0"",""1172""
","""event"",""trial"",""time""
""fullscreenexit"",""75"",""436838""
",null,<p></p>,null,,,,,,,,,,,,,,,,,,,,,,,
,do_trial,146,694295,0.0-83.0-0.0,"""event"",""trial"",""time""
""fullscreenenter"",""0"",""1172""
""fullscreenexit"",""75"",""436838""
","
","
","""event"",""trial"",""time""
""fullscreenenter"",""0"",""1172""
","""event"",""trial"",""time""
""fullscreenexit"",""75"",""436838""
",491.8999999,,,,,,,,49,"1,0,0",0,highway,25,probe-113,0.658916546,0.291650328,0.215320133,1,,,,,,,,
,html-keyboard-response,147,695300,0.0-83.0-1.0,"""event"",""trial"",""time""
""fullscreenenter"",""0"",""1172""
""fullscreenexit"",""75"",""436838""
","
","
","""event"",""trial"",""time""
""fullscreenenter"",""0"",""1172""
","""event"",""trial"",""time""
""fullscreenexit"",""75"",""436838""
",null,<p></p>,null,,,,,,,,,,,,,,,,,,,,,,,
,do_trial,148,700158,0.0-84.0-0.0,"""event"",""trial"",""time""
""fullscreenenter"",""0"",""1172""
""fullscreenexit"",""75"",""436838""
","
","
","""event"",""trial"",""time""
""fullscreenenter"",""0"",""1172""
","""event"",""trial"",""time""
""fullscreenexit"",""75"",""436838""
",323.2,,,,,,,,49,"0,0,0",0,highway,26,probe-224,0.624356027,0.104267136,0.16185985,0,,,,,,,,
,html-keyboard-response,149,701165,0.0-84.0-1.0,"""event"",""trial"",""time""
""fullscreenenter"",""0"",""1172""
""fullscreenexit"",""75"",""436838""
","
","
","""event"",""trial"",""time""
""fullscreenenter"",""0"",""1172""
","""event"",""trial"",""time""
""fullscreenexit"",""75"",""436838""
",null,<p></p>,null,,,,,,,,,,,,,,,,,,,,,,,
,do_trial,150,706391,0.0-85.0-0.0,"""event"",""trial"",""time""
""fullscreenenter"",""0"",""1172""
""fullscreenexit"",""75"",""436838""
","
","
","""event"",""trial"",""time""
""fullscreenenter"",""0"",""1172""
","""event"",""trial"",""time""
""fullscreenexit"",""75"",""436838""
",688.5999999,,,,,,,,49,"0,0,0",0,highway,27,probe-136,0.616899836,0.133690125,0.094885598,0,,,,,,,,
,html-keyboard-response,151,707394,0.0-85.0-1.0,"""event"",""trial"",""time""
""fullscreenenter"",""0"",""1172""
""fullscreenexit"",""75"",""436838""
","
","
","""event"",""trial"",""time""
""fullscreenenter"",""0"",""1172""
","""event"",""trial"",""time""
""fullscreenexit"",""75"",""436838""
",null,<p></p>,null,,,,,,,,,,,,,,,,,,,,,,,
,do_trial,152,712275,0.0-86.0-0.0,"""event"",""trial"",""time""
""fullscreenenter"",""0"",""1172""
""fullscreenexit"",""75"",""436838""
","
","
","""event"",""trial"",""time""
""fullscreenenter"",""0"",""1172""
","""event"",""trial"",""time""
""fullscreenexit"",""75"",""436838""
",345.3999999,,,,,,,,50,"1,0,0",0,highway,28,probe-54,0.6014935,0.187034423,0.065908208,0,,,,,,,,
,html-keyboard-response,153,713280,0.0-86.0-1.0,"""event"",""trial"",""time""
""fullscreenenter"",""0"",""1172""
""fullscreenexit"",""75"",""436838""
","
","
","""event"",""trial"",""time""
""fullscreenenter"",""0"",""1172""
","""event"",""trial"",""time""
""fullscreenexit"",""75"",""436838""
",null,<p></p>,null,,,,,,,,,,,,,,,,,,,,,,,
,do_trial,154,718122,0.0-87.0-0.0,"""event"",""trial"",""time""
""fullscreenenter"",""0"",""1172""
""fullscreenexit"",""75"",""436838""
","
","
","""event"",""trial"",""time""
""fullscreenenter"",""0"",""1172""
","""event"",""trial"",""time""
""fullscreenexit"",""75"",""436838""
",309.7,,,,,,,,51,"1,0,0",0,highway,29,probe-184,0.551779871,0.141241678,0.105106638,0,,,,,,,,
,html-keyboard-response,155,719125,0.0-87.0-1.0,"""event"",""trial"",""time""
""fullscreenenter"",""0"",""1172""
""fullscreenexit"",""75"",""436838""
","
","
","""event"",""trial"",""time""
""fullscreenenter"",""0"",""1172""
","""event"",""trial"",""time""
""fullscreenexit"",""75"",""436838""
",null,<p></p>,null,,,,,,,,,,,,,,,,,,,,,,,
,do_bye,156,720632,0.0-88.0-0.0,"""event"",""trial"",""time""
""fullscreenenter"",""0"",""1172""
""fullscreenexit"",""75"",""436838""
","
","
","""event"",""trial"",""time""
""fullscreenenter"",""0"",""1172""
","""event"",""trial"",""time""
""fullscreenexit"",""75"",""436838""
",null,,,,,,,,null,,,,,,,,,,,,,,,,,
,break,157,723283,0.0-88.0-1.0,"""event"",""trial"",""time""
""fullscreenenter"",""0"",""1172""
""fullscreenexit"",""75"",""436838""
","
","
","""event"",""trial"",""time""
""fullscreenenter"",""0"",""1172""
","""event"",""trial"",""time""
""fullscreenexit"",""75"",""436838""
",2650.8,"<div class='center'><p>Time to take a quick break! You have 2 minutes to rest, but you can move on sooner if you'd like.</p><p> Press the <b>space bar</b> to continue.</p></div>",32,,,,,,,,,,,,,,,,,,,,,,,
,do_travel,158,732290,0.0-89.0-0.0,"""event"",""trial"",""time""
""fullscreenenter"",""0"",""1172""
""fullscreenexit"",""75"",""436838""
","
","
","""event"",""trial"",""time""
""fullscreenenter"",""0"",""1172""
","""event"",""trial"",""time""
""fullscreenexit"",""75"",""436838""
",null,,,,,,,,null,,,,,,,,,,,,,,,,,
,do_welcome,159,736293,0.0-89.0-1.0,"""event"",""trial"",""time""
""fullscreenenter"",""0"",""1172""
""fullscreenexit"",""75"",""436838""
","
","
","""event"",""trial"",""time""
""fullscreenenter"",""0"",""1172""
","""event"",""trial"",""time""
""fullscreenexit"",""75"",""436838""
",null,,,,,,,,null,,,,,,,,,,,,,,,,,
,do_trial,160,741711,0.0-90.0-0.0,"""event"",""trial"",""time""
""fullscreenenter"",""0"",""1172""
""fullscreenexit"",""75"",""436838""
","
","
","""event"",""trial"",""time""
""fullscreenenter"",""0"",""1172""
","""event"",""trial"",""time""
""fullscreenexit"",""75"",""436838""
",888.2,,,,,,,,49,"1,0,0",1,mountain,30,probe-30,1,0.055601545,0.078180383,1,,,,,,,,
,html-keyboard-response,161,742714,0.0-90.0-1.0,"""event"",""trial"",""time""
""fullscreenenter"",""0"",""1172""
""fullscreenexit"",""75"",""436838""
","
","
","""event"",""trial"",""time""
""fullscreenenter"",""0"",""1172""
","""event"",""trial"",""time""
""fullscreenexit"",""75"",""436838""
",null,<p></p>,null,,,,,,,,,,,,,,,,,,,,,,,
,do_trial,162,747678,0.0-91.0-0.0,"""event"",""trial"",""time""
""fullscreenenter"",""0"",""1172""
""fullscreenexit"",""75"",""436838""
","
","
","""event"",""trial"",""time""
""fullscreenenter"",""0"",""1172""
","""event"",""trial"",""time""
""fullscreenexit"",""75"",""436838""
",429,,,,,,,,50,"1,0,0",1,mountain,31,probe-203,1,0.122789844,0.181933858,0,,,,,,,,
,html-keyboard-response,163,748680,0.0-91.0-1.0,"""event"",""trial"",""time""
""fullscreenenter"",""0"",""1172""
""fullscreenexit"",""75"",""436838""
","
","
","""event"",""trial"",""time""
""fullscreenenter"",""0"",""1172""
","""event"",""trial"",""time""
""fullscreenexit"",""75"",""436838""
",null,<p></p>,null,,,,,,,,,,,,,,,,,,,,,,,
,do_trial,164,753591,0.0-92.0-0.0,"""event"",""trial"",""time""
""fullscreenenter"",""0"",""1172""
""fullscreenexit"",""75"",""436838""
","
","
","""event"",""trial"",""time""
""fullscreenenter"",""0"",""1172""
","""event"",""trial"",""time""
""fullscreenexit"",""75"",""436838""
",381,,,,,,,,51,"1,0,0",1,mountain,32,probe-147,1,0.357679642,0.221716715,0,,,,,,,,
,html-keyboard-response,165,754597,0.0-92.0-1.0,"""event"",""trial"",""time""
""fullscreenenter"",""0"",""1172""
""fullscreenexit"",""75"",""436838""
","
","
","""event"",""trial"",""time""
""fullscreenenter"",""0"",""1172""
","""event"",""trial"",""time""
""fullscreenexit"",""75"",""436838""
",null,<p></p>,null,,,,,,,,,,,,,,,,,,,,,,,
,do_trial,166,759441,0.0-93.0-0.0,"""event"",""trial"",""time""
""fullscreenenter"",""0"",""1172""
""fullscreenexit"",""75"",""436838""
","
","
","""event"",""trial"",""time""
""fullscreenenter"",""0"",""1172""
","""event"",""trial"",""time""
""fullscreenexit"",""75"",""436838""
",313.5,,,,,,,,49,"1,0,0",1,mountain,33,probe-205,0.935010031,0.293905881,0.208500566,1,,,,,,,,
,html-keyboard-response,167,760444,0.0-93.0-1.0,"""event"",""trial"",""time""
""fullscreenenter"",""0"",""1172""
""fullscreenexit"",""75"",""436838""
","
","
","""event"",""trial"",""time""
""fullscreenenter"",""0"",""1172""
","""event"",""trial"",""time""
""fullscreenexit"",""75"",""436838""
",null,<p></p>,null,,,,,,,,,,,,,,,,,,,,,,,
,do_trial,168,765302,0.0-94.0-0.0,"""event"",""trial"",""time""
""fullscreenenter"",""0"",""1172""
""fullscreenexit"",""75"",""436838""
","
","
","""event"",""trial"",""time""
""fullscreenenter"",""0"",""1172""
","""event"",""trial"",""time""
""fullscreenexit"",""75"",""436838""
",327.5,,,,,,,,49,"1,1,0",1,mountain,34,probe-36,0.7390814,0.29637599,0.051428897,1,,,,,,,,
,html-keyboard-response,169,766305,0.0-94.0-1.0,"""event"",""trial"",""time""
""fullscreenenter"",""0"",""1172""
""fullscreenexit"",""75"",""436838""
","
","
","""event"",""trial"",""time""
""fullscreenenter"",""0"",""1172""
","""event"",""trial"",""time""
""fullscreenexit"",""75"",""436838""
",null,<p></p>,null,,,,,,,,,,,,,,,,,,,,,,,
,do_trial,170,771141,0.0-95.0-0.0,"""event"",""trial"",""time""
""fullscreenenter"",""0"",""1172""
""fullscreenexit"",""75"",""436838""
","
","
","""event"",""trial"",""time""
""fullscreenenter"",""0"",""1172""
","""event"",""trial"",""time""
""fullscreenexit"",""75"",""436838""
",305.8,,,,,,,,50,"1,1,0",1,mountain,35,probe-82,0.881299883,0.319742243,0.108654696,1,,,,,,,,
,html-keyboard-response,171,772144,0.0-95.0-1.0,"""event"",""trial"",""time""
""fullscreenenter"",""0"",""1172""
""fullscreenexit"",""75"",""436838""
","
","
","""event"",""trial"",""time""
""fullscreenenter"",""0"",""1172""
","""event"",""trial"",""time""
""fullscreenexit"",""75"",""436838""
",null,<p></p>,null,,,,,,,,,,,,,,,,,,,,,,,
,do_trial,172,777082,0.0-96.0-0.0,"""event"",""trial"",""time""
""fullscreenenter"",""0"",""1172""
""fullscreenexit"",""75"",""436838""
","
","
","""event"",""trial"",""time""
""fullscreenenter"",""0"",""1172""
","""event"",""trial"",""time""
""fullscreenexit"",""75"",""436838""
",407.3999999,,,,,,,,51,"1,1,0",1,mountain,36,probe-174,0.910169473,0.358893522,0.054973721,0,,,,,,,,
,html-keyboard-response,173,778085,0.0-96.0-1.0,"""event"",""trial"",""time""
""fullscreenenter"",""0"",""1172""
""fullscreenexit"",""75"",""436838""
","
","
","""event"",""trial"",""time""
""fullscreenenter"",""0"",""1172""
","""event"",""trial"",""time""
""fullscreenexit"",""75"",""436838""
",null,<p></p>,null,,,,,,,,,,,,,,,,,,,,,,,
,do_trial,174,782958,0.0-97.0-0.0,"""event"",""trial"",""time""
""fullscreenenter"",""0"",""1172""
""fullscreenexit"",""75"",""436838""
","
","
","""event"",""trial"",""time""
""fullscreenenter"",""0"",""1172""
","""event"",""trial"",""time""
""fullscreenexit"",""75"",""436838""
",338.8,,,,,,,,50,"0,1,0",1,mountain,37,probe-220,0.845821853,0.441057795,0.098834503,1,,,,,,,,
,html-keyboard-response,175,783963,0.0-97.0-1.0,"""event"",""trial"",""time""
""fullscreenenter"",""0"",""1172""
""fullscreenexit"",""75"",""436838""
","
","
","""event"",""trial"",""time""
""fullscreenenter"",""0"",""1172""
","""event"",""trial"",""time""
""fullscreenexit"",""75"",""436838""
",null,<p></p>,null,,,,,,,,,,,,,,,,,,,,,,,
,do_trial,176,788865,0.0-98.0-0.0,"""event"",""trial"",""time""
""fullscreenenter"",""0"",""1172""
""fullscreenexit"",""75"",""436838""
","
","
","""event"",""trial"",""time""
""fullscreenenter"",""0"",""1172""
","""event"",""trial"",""time""
""fullscreenexit"",""75"",""436838""
",366.1999998,,,,,,,,50,"1,0,0",1,mountain,38,probe-93,0.828586769,0.541421095,0.064573063,0,,,,,,,,
,html-keyboard-response,177,789868,0.0-98.0-1.0,"""event"",""trial"",""time""
""fullscreenenter"",""0"",""1172""
""fullscreenexit"",""75"",""436838""
","
","
","""event"",""trial"",""time""
""fullscreenenter"",""0"",""1172""
","""event"",""trial"",""time""
""fullscreenexit"",""75"",""436838""
",null,<p></p>,null,,,,,,,,,,,,,,,,,,,,,,,
,do_trial,178,794747,0.0-99.0-0.0,"""event"",""trial"",""time""
""fullscreenenter"",""0"",""1172""
""fullscreenexit"",""75"",""436838""
","
","
","""event"",""trial"",""time""
""fullscreenenter"",""0"",""1172""
","""event"",""trial"",""time""
""fullscreenexit"",""75"",""436838""
",345.6000001,,,,,,,,49,"0,1,0",1,mountain,39,probe-167,0.781024705,0.317179801,0.094171412,0,,,,,,,,
,html-keyboard-response,179,795750,0.0-99.0-1.0,"""event"",""trial"",""time""
""fullscreenenter"",""0"",""1172""
""fullscreenexit"",""75"",""436838""
","
","
","""event"",""trial"",""time""
""fullscreenenter"",""0"",""1172""
","""event"",""trial"",""time""
""fullscreenexit"",""75"",""436838""
",null,<p></p>,null,,,,,,,,,,,,,,,,,,,,,,,
,do_trial,180,800609,0.0-100.0-0.0,"""event"",""trial"",""time""
""fullscreenenter"",""0"",""1172""
""fullscreenexit"",""75"",""436838""
","
","
","""event"",""trial"",""time""
""fullscreenenter"",""0"",""1172""
","""event"",""trial"",""time""
""fullscreenexit"",""75"",""436838""
",323.8000002,,,,,,,,50,"1,1,1",1,mountain,40,probe-39,0.673798317,0.408252031,0.210501508,1,,,,,,,,
,html-keyboard-response,181,801612,0.0-100.0-1.0,"""event"",""trial"",""time""
""fullscreenenter"",""0"",""1172""
""fullscreenexit"",""75"",""436838""
","
","
","""event"",""trial"",""time""
""fullscreenenter"",""0"",""1172""
","""event"",""trial"",""time""
""fullscreenexit"",""75"",""436838""
",null,<p></p>,null,,,,,,,,,,,,,,,,,,,,,,,
,do_trial,182,806471,0.0-101.0-0.0,"""event"",""trial"",""time""
""fullscreenenter"",""0"",""1172""
""fullscreenexit"",""75"",""436838""
","
","
","""event"",""trial"",""time""
""fullscreenenter"",""0"",""1172""
","""event"",""trial"",""time""
""fullscreenexit"",""75"",""436838""
",323.7,,,,,,,,50,"1,0,0",1,mountain,41,probe-61,0.526515338,0.297387598,0.224514609,0,,,,,,,,
,html-keyboard-response,183,807474,0.0-101.0-1.0,"""event"",""trial"",""time""
""fullscreenenter"",""0"",""1172""
""fullscreenexit"",""75"",""436838""
","
","
","""event"",""trial"",""time""
""fullscreenenter"",""0"",""1172""
","""event"",""trial"",""time""
""fullscreenexit"",""75"",""436838""
",null,<p></p>,null,,,,,,,,,,,,,,,,,,,,,,,
,do_trial,184,812433,0.0-102.0-0.0,"""event"",""trial"",""time""
""fullscreenenter"",""0"",""1172""
""fullscreenexit"",""75"",""436838""
","
","
","""event"",""trial"",""time""
""fullscreenenter"",""0"",""1172""
","""event"",""trial"",""time""
""fullscreenexit"",""75"",""436838""
",424.1000001,,,,,,,,49,"0,0,0",1,mountain,42,probe-192,0.307267494,0.403418817,0.363574365,0,,,,,,,,
,html-keyboard-response,185,813436,0.0-102.0-1.0,"""event"",""trial"",""time""
""fullscreenenter"",""0"",""1172""
""fullscreenexit"",""75"",""436838""
","
","
","""event"",""trial"",""time""
""fullscreenenter"",""0"",""1172""
","""event"",""trial"",""time""
""fullscreenexit"",""75"",""436838""
",null,<p></p>,null,,,,,,,,,,,,,,,,,,,,,,,
,do_trial,186,818246,0.0-103.0-0.0,"""event"",""trial"",""time""
""fullscreenenter"",""0"",""1172""
""fullscreenexit"",""75"",""436838""
","
","
","""event"",""trial"",""time""
""fullscreenenter"",""0"",""1172""
","""event"",""trial"",""time""
""fullscreenexit"",""75"",""436838""
",279,,,,,,,,51,"0,0,0",1,mountain,43,probe-79,0.191117367,0.526905456,0.426559469,0,,,,,,,,
,html-keyboard-response,187,819249,0.0-103.0-1.0,"""event"",""trial"",""time""
""fullscreenenter"",""0"",""1172""
""fullscreenexit"",""75"",""436838""
","
","
","""event"",""trial"",""time""
""fullscreenenter"",""0"",""1172""
","""event"",""trial"",""time""
""fullscreenexit"",""75"",""436838""
",null,<p></p>,null,,,,,,,,,,,,,,,,,,,,,,,
,do_trial,188,824321,0.0-104.0-0.0,"""event"",""trial"",""time""
""fullscreenenter"",""0"",""1172""
""fullscreenexit"",""75"",""436838""
","
","
","""event"",""trial"",""time""
""fullscreenenter"",""0"",""1172""
","""event"",""trial"",""time""
""fullscreenexit"",""75"",""436838""
",540.9000001,,,,,,,,50,"0,1,1",1,mountain,44,probe-156,0.070534252,0.371625678,0.513372417,1,,,,,,,,
,html-keyboard-response,189,825324,0.0-104.0-1.0,"""event"",""trial"",""time""
""fullscreenenter"",""0"",""1172""
""fullscreenexit"",""75"",""436838""
","
","
","""event"",""trial"",""time""
""fullscreenenter"",""0"",""1172""
","""event"",""trial"",""time""
""fullscreenexit"",""75"",""436838""
",null,<p></p>,null,,,,,,,,,,,,,,,,,,,,,,,
,do_trial,190,830231,0.0-105.0-0.0,"""event"",""trial"",""time""
""fullscreenenter"",""0"",""1172""
""fullscreenexit"",""75"",""436838""
","
","
","""event"",""trial"",""time""
""fullscreenenter"",""0"",""1172""
","""event"",""trial"",""time""
""fullscreenexit"",""75"",""436838""
",371.9000001,,,,,,,,50,"0,0,0",1,mountain,45,probe-32,0.123067883,0.384121464,0.47483611,0,,,,,,,,
,html-keyboard-response,191,831234,0.0-105.0-1.0,"""event"",""trial"",""time""
""fullscreenenter"",""0"",""1172""
""fullscreenexit"",""75"",""436838""
","
","
","""event"",""trial"",""time""
""fullscreenenter"",""0"",""1172""
","""event"",""trial"",""time""
""fullscreenexit"",""75"",""436838""
",null,<p></p>,null,,,,,,,,,,,,,,,,,,,,,,,
,do_trial,192,836057,0.0-106.0-0.0,"""event"",""trial"",""time""
""fullscreenenter"",""0"",""1172""
""fullscreenexit"",""75"",""436838""
","
","
","""event"",""trial"",""time""
""fullscreenenter"",""0"",""1172""
","""event"",""trial"",""time""
""fullscreenexit"",""75"",""436838""
",289.3999999,,,,,,,,49,"0,0,0",1,mountain,46,probe-112,0.143589795,0.25399643,0.40057246,0,,,,,,,,
,html-keyboard-response,193,837060,0.0-106.0-1.0,"""event"",""trial"",""time""
""fullscreenenter"",""0"",""1172""
""fullscreenexit"",""75"",""436838""
","
","
","""event"",""trial"",""time""
""fullscreenenter"",""0"",""1172""
","""event"",""trial"",""time""
""fullscreenexit"",""75"",""436838""
",null,<p></p>,null,,,,,,,,,,,,,,,,,,,,,,,
,do_trial,194,842008,0.0-107.0-0.0,"""event"",""trial"",""time""
""fullscreenenter"",""0"",""1172""
""fullscreenexit"",""75"",""436838""
","
","
","""event"",""trial"",""time""
""fullscreenenter"",""0"",""1172""
","""event"",""trial"",""time""
""fullscreenexit"",""75"",""436838""
",415.0999999,,,,,,,,50,"0,1,1",1,mountain,47,probe-80,0.122637376,0.31101684,0.591441684,1,,,,,,,,
,html-keyboard-response,195,843011,0.0-107.0-1.0,"""event"",""trial"",""time""
""fullscreenenter"",""0"",""1172""
""fullscreenexit"",""75"",""436838""
","
","
","""event"",""trial"",""time""
""fullscreenenter"",""0"",""1172""
","""event"",""trial"",""time""
""fullscreenexit"",""75"",""436838""
",null,<p></p>,null,,,,,,,,,,,,,,,,,,,,,,,
,do_trial,196,848186,0.0-108.0-0.0,"""event"",""trial"",""time""
""fullscreenenter"",""0"",""1172""
""fullscreenexit"",""75"",""436838""
","
","
","""event"",""trial"",""time""
""fullscreenenter"",""0"",""1172""
","""event"",""trial"",""time""
""fullscreenexit"",""75"",""436838""
",640.3,,,,,,,,50,"0,0,1",1,mountain,48,probe-185,0.126164064,0.297537115,0.604591961,0,,,,,,,,
,html-keyboard-response,197,849190,0.0-108.0-1.0,"""event"",""trial"",""time""
""fullscreenenter"",""0"",""1172""
""fullscreenexit"",""75"",""436838""
","
","
","""event"",""trial"",""time""
""fullscreenenter"",""0"",""1172""
","""event"",""trial"",""time""
""fullscreenexit"",""75"",""436838""
",null,<p></p>,null,,,,,,,,,,,,,,,,,,,,,,,
,do_trial,198,854012,0.0-109.0-0.0,"""event"",""trial"",""time""
""fullscreenenter"",""0"",""1172""
""fullscreenexit"",""75"",""436838""
","
","
","""event"",""trial"",""time""
""fullscreenenter"",""0"",""1172""
","""event"",""trial"",""time""
""fullscreenexit"",""75"",""436838""
",288.8,,,,,,,,49,"0,1,1",1,mountain,49,probe-97,0.097276722,0.349254682,0.806879812,0,,,,,,,,
,html-keyboard-response,199,855015,0.0-109.0-1.0,"""event"",""trial"",""time""
""fullscreenenter"",""0"",""1172""
""fullscreenexit"",""75"",""436838""
","
","
","""event"",""trial"",""time""
""fullscreenenter"",""0"",""1172""
","""event"",""trial"",""time""
""fullscreenexit"",""75"",""436838""
",null,<p></p>,null,,,,,,,,,,,,,,,,,,,,,,,
,do_trial,200,859908,0.0-110.0-0.0,"""event"",""trial"",""time""
""fullscreenenter"",""0"",""1172""
""fullscreenexit"",""75"",""436838""
","
","
","""event"",""trial"",""time""
""fullscreenenter"",""0"",""1172""
","""event"",""trial"",""time""
""fullscreenexit"",""75"",""436838""
",358.7,,,,,,,,50,"0,1,1",1,mountain,50,probe-95,0.061501478,0.410412227,0.851705501,1,,,,,,,,
,html-keyboard-response,201,860911,0.0-110.0-1.0,"""event"",""trial"",""time""
""fullscreenenter"",""0"",""1172""
""fullscreenexit"",""75"",""436838""
","
","
","""event"",""trial"",""time""
""fullscreenenter"",""0"",""1172""
","""event"",""trial"",""time""
""fullscreenexit"",""75"",""436838""
",null,<p></p>,null,,,,,,,,,,,,,,,,,,,,,,,
,do_trial,202,865758,0.0-111.0-0.0,"""event"",""trial"",""time""
""fullscreenenter"",""0"",""1172""
""fullscreenexit"",""75"",""436838""
","
","
","""event"",""trial"",""time""
""fullscreenenter"",""0"",""1172""
","""event"",""trial"",""time""
""fullscreenexit"",""75"",""436838""
",312.2,,,,,,,,50,"1,1,0",1,mountain,51,probe-09,0.103702967,0.387259481,0.684953374,1,,,,,,,,
,html-keyboard-response,203,866761,0.0-111.0-1.0,"""event"",""trial"",""time""
""fullscreenenter"",""0"",""1172""
""fullscreenexit"",""75"",""436838""
","
","
","""event"",""trial"",""time""
""fullscreenenter"",""0"",""1172""
","""event"",""trial"",""time""
""fullscreenexit"",""75"",""436838""
",null,<p></p>,null,,,,,,,,,,,,,,,,,,,,,,,
,do_trial,204,871822,0.0-112.0-0.0,"""event"",""trial"",""time""
""fullscreenenter"",""0"",""1172""
""fullscreenexit"",""75"",""436838""
","
","
","""event"",""trial"",""time""
""fullscreenenter"",""0"",""1172""
","""event"",""trial"",""time""
""fullscreenexit"",""75"",""436838""
",525.9000001,,,,,,,,50,"0,0,1",1,mountain,52,probe-164,0.087314291,0.235136302,0.859693026,0,,,,,,,,
,html-keyboard-response,205,872824,0.0-112.0-1.0,"""event"",""trial"",""time""
""fullscreenenter"",""0"",""1172""
""fullscreenexit"",""75"",""436838""
","
","
","""event"",""trial"",""time""
""fullscreenenter"",""0"",""1172""
","""event"",""trial"",""time""
""fullscreenexit"",""75"",""436838""
",null,<p></p>,null,,,,,,,,,,,,,,,,,,,,,,,
,do_trial,206,877796,0.0-113.0-0.0,"""event"",""trial"",""time""
""fullscreenenter"",""0"",""1172""
""fullscreenexit"",""75"",""436838""
","
","
","""event"",""trial"",""time""
""fullscreenenter"",""0"",""1172""
","""event"",""trial"",""time""
""fullscreenexit"",""75"",""436838""
",437.2,,,,,,,,49,"0,1,1",1,mountain,53,probe-56,0.134054281,0.270108496,0.789219396,0,,,,,,,,
,html-keyboard-response,207,878799,0.0-113.0-1.0,"""event"",""trial"",""time""
""fullscreenenter"",""0"",""1172""
""fullscreenexit"",""75"",""436838""
","
","
","""event"",""trial"",""time""
""fullscreenenter"",""0"",""1172""
","""event"",""trial"",""time""
""fullscreenexit"",""75"",""436838""
",null,<p></p>,null,,,,,,,,,,,,,,,,,,,,,,,
,do_trial,208,883814,0.0-114.0-0.0,"""event"",""trial"",""time""
""fullscreenenter"",""0"",""1172""
""fullscreenexit"",""75"",""436838""
","
","
","""event"",""trial"",""time""
""fullscreenenter"",""0"",""1172""
","""event"",""trial"",""time""
""fullscreenexit"",""75"",""436838""
",480.8000002,,,,,,,,50,"0,1,0",1,mountain,54,probe-13,0.051403758,0.326092675,0.682541272,1,,,,,,,,
,html-keyboard-response,209,884817,0.0-114.0-1.0,"""event"",""trial"",""time""
""fullscreenenter"",""0"",""1172""
""fullscreenexit"",""75"",""436838""
","
","
","""event"",""trial"",""time""
""fullscreenenter"",""0"",""1172""
","""event"",""trial"",""time""
""fullscreenexit"",""75"",""436838""
",null,<p></p>,null,,,,,,,,,,,,,,,,,,,,,,,
,do_trial,210,889822,0.0-115.0-0.0,"""event"",""trial"",""time""
""fullscreenenter"",""0"",""1172""
""fullscreenexit"",""75"",""436838""
","
","
","""event"",""trial"",""time""
""fullscreenenter"",""0"",""1172""
","""event"",""trial"",""time""
""fullscreenexit"",""75"",""436838""
",471,,,,,,,,50,"0,1,1",1,mountain,55,probe-128,0.082480801,0.270625886,0.688673665,1,,,,,,,,
,html-keyboard-response,211,890826,0.0-115.0-1.0,"""event"",""trial"",""time""
""fullscreenenter"",""0"",""1172""
""fullscreenexit"",""75"",""436838""
","
","
","""event"",""trial"",""time""
""fullscreenenter"",""0"",""1172""
","""event"",""trial"",""time""
""fullscreenexit"",""75"",""436838""
",null,<p></p>,null,,,,,,,,,,,,,,,,,,,,,,,
,do_trial,212,895796,0.0-116.0-0.0,"""event"",""trial"",""time""
""fullscreenenter"",""0"",""1172""
""fullscreenexit"",""75"",""436838""
","
","
","""event"",""trial"",""time""
""fullscreenenter"",""0"",""1172""
","""event"",""trial"",""time""
""fullscreenexit"",""75"",""436838""
",435.0999999,,,,,,,,50,"0,0,1",1,mountain,56,probe-129,0.152873997,0.257020643,0.636282591,0,,,,,,,,
,html-keyboard-response,213,896801,0.0-116.0-1.0,"""event"",""trial"",""time""
""fullscreenenter"",""0"",""1172""
""fullscreenexit"",""75"",""436838""
","
","
","""event"",""trial"",""time""
""fullscreenenter"",""0"",""1172""
","""event"",""trial"",""time""
""fullscreenexit"",""75"",""436838""
",null,<p></p>,null,,,,,,,,,,,,,,,,,,,,,,,
,do_trial,214,901939,0.0-117.0-0.0,"""event"",""trial"",""time""
""fullscreenenter"",""0"",""1172""
""fullscreenexit"",""75"",""436838""
","
","
","""event"",""trial"",""time""
""fullscreenenter"",""0"",""1172""
","""event"",""trial"",""time""
""fullscreenexit"",""75"",""436838""
",602.0999999,,,,,,,,50,"0,0,1",1,mountain,57,probe-92,0.151506546,0.350871085,0.810499998,0,,,,,,,,
,html-keyboard-response,215,902942,0.0-117.0-1.0,"""event"",""trial"",""time""
""fullscreenenter"",""0"",""1172""
""fullscreenexit"",""75"",""436838""
","
","
","""event"",""trial"",""time""
""fullscreenenter"",""0"",""1172""
","""event"",""trial"",""time""
""fullscreenexit"",""75"",""436838""
",null,<p></p>,null,,,,,,,,,,,,,,,,,,,,,,,
,do_trial,216,908104,0.0-118.0-0.0,"""event"",""trial"",""time""
""fullscreenenter"",""0"",""1172""
""fullscreenexit"",""75"",""436838""
","
","
","""event"",""trial"",""time""
""fullscreenenter"",""0"",""1172""
","""event"",""trial"",""time""
""fullscreenexit"",""75"",""436838""
",627.3,,,,,,,,49,"1,1,0",1,mountain,58,probe-118,0.217275807,0.186739209,0.534568086,1,,,,,,,,
,html-keyboard-response,217,909109,0.0-118.0-1.0,"""event"",""trial"",""time""
""fullscreenenter"",""0"",""1172""
""fullscreenexit"",""75"",""436838""
","
","
","""event"",""trial"",""time""
""fullscreenenter"",""0"",""1172""
","""event"",""trial"",""time""
""fullscreenexit"",""75"",""436838""
",null,<p></p>,null,,,,,,,,,,,,,,,,,,,,,,,
,do_trial,218,913987,0.0-119.0-0.0,"""event"",""trial"",""time""
""fullscreenenter"",""0"",""1172""
""fullscreenexit"",""75"",""436838""
","
","
","""event"",""trial"",""time""
""fullscreenenter"",""0"",""1172""
","""event"",""trial"",""time""
""fullscreenexit"",""75"",""436838""
",342.4000001,,,,,,,,49,"1,1,1",1,mountain,59,probe-89,0.254472999,0.299843924,0.635113888,1,,,,,,,,
,html-keyboard-response,219,914990,0.0-119.0-1.0,"""event"",""trial"",""time""
""fullscreenenter"",""0"",""1172""
""fullscreenexit"",""75"",""436838""
","
","
","""event"",""trial"",""time""
""fullscreenenter"",""0"",""1172""
","""event"",""trial"",""time""
""fullscreenexit"",""75"",""436838""
",null,<p></p>,null,,,,,,,,,,,,,,,,,,,,,,,
,do_trial,220,919860,0.0-120.0-0.0,"""event"",""trial"",""time""
""fullscreenenter"",""0"",""1172""
""fullscreenexit"",""75"",""436838""
","
","
","""event"",""trial"",""time""
""fullscreenenter"",""0"",""1172""
","""event"",""trial"",""time""
""fullscreenexit"",""75"",""436838""
",335.0999999,,,,,,,,50,"0,0,1",1,mountain,60,probe-173,0.250721397,0.180106904,0.656369237,0,,,,,,,,
,html-keyboard-response,221,920863,0.0-120.0-1.0,"""event"",""trial"",""time""
""fullscreenenter"",""0"",""1172""
""fullscreenexit"",""75"",""436838""
","
","
","""event"",""trial"",""time""
""fullscreenenter"",""0"",""1172""
","""event"",""trial"",""time""
""fullscreenexit"",""75"",""436838""
",null,<p></p>,null,,,,,,,,,,,,,,,,,,,,,,,
,do_trial,222,925888,0.0-121.0-0.0,"""event"",""trial"",""time""
""fullscreenenter"",""0"",""1172""
""fullscreenexit"",""75"",""436838""
","
","
","""event"",""trial"",""time""
""fullscreenenter"",""0"",""1172""
","""event"",""trial"",""time""
""fullscreenexit"",""75"",""436838""
",491.2,,,,,,,,49,"0,0,1",1,mountain,61,probe-140,0.117816959,0.283120256,0.608874399,0,,,,,,,,
,html-keyboard-response,223,926891,0.0-121.0-1.0,"""event"",""trial"",""time""
""fullscreenenter"",""0"",""1172""
""fullscreenexit"",""75"",""436838""
","
","
","""event"",""trial"",""time""
""fullscreenenter"",""0"",""1172""
","""event"",""trial"",""time""
""fullscreenexit"",""75"",""436838""
",null,<p></p>,null,,,,,,,,,,,,,,,,,,,,,,,
,do_trial,224,931702,0.0-122.0-0.0,"""event"",""trial"",""time""
""fullscreenenter"",""0"",""1172""
""fullscreenexit"",""75"",""436838""
","
","
","""event"",""trial"",""time""
""fullscreenenter"",""0"",""1172""
","""event"",""trial"",""time""
""fullscreenexit"",""75"",""436838""
",279.8000002,,,,,,,,50,"0,1,1",1,mountain,62,probe-41,0.185206218,0.360495642,0.657234708,1,,,,,,,,
,html-keyboard-response,225,932705,0.0-122.0-1.0,"""event"",""trial"",""time""
""fullscreenenter"",""0"",""1172""
""fullscreenexit"",""75"",""436838""
","
","
","""event"",""trial"",""time""
""fullscreenenter"",""0"",""1172""
","""event"",""trial"",""time""
""fullscreenexit"",""75"",""436838""
",null,<p></p>,null,,,,,,,,,,,,,,,,,,,,,,,
,do_trial,226,937644,0.0-123.0-0.0,"""event"",""trial"",""time""
""fullscreenenter"",""0"",""1172""
""fullscreenexit"",""75"",""436838""
","
","
","""event"",""trial"",""time""
""fullscreenenter"",""0"",""1172""
","""event"",""trial"",""time""
""fullscreenexit"",""75"",""436838""
",405.9000001,,,,,,,,50,"1,1,1",1,mountain,63,probe-223,0.151878284,0.263259943,0.580676514,1,,,,,,,,
,html-keyboard-response,227,938647,0.0-123.0-1.0,"""event"",""trial"",""time""
""fullscreenenter"",""0"",""1172""
""fullscreenexit"",""75"",""436838""
","
","
","""event"",""trial"",""time""
""fullscreenenter"",""0"",""1172""
","""event"",""trial"",""time""
""fullscreenexit"",""75"",""436838""
",null,<p></p>,null,,,,,,,,,,,,,,,,,,,,,,,
,do_trial,228,943494,0.0-124.0-0.0,"""event"",""trial"",""time""
""fullscreenenter"",""0"",""1172""
""fullscreenexit"",""75"",""436838""
","
","
","""event"",""trial"",""time""
""fullscreenenter"",""0"",""1172""
","""event"",""trial"",""time""
""fullscreenexit"",""75"",""436838""
",313.4000001,,,,,,,,50,"1,0,0",1,mountain,64,probe-200,0.139664915,0.197424837,0.52592973,0,,,,,,,,
,html-keyboard-response,229,944498,0.0-124.0-1.0,"""event"",""trial"",""time""
""fullscreenenter"",""0"",""1172""
""fullscreenexit"",""75"",""436838""
","
","
","""event"",""trial"",""time""
""fullscreenenter"",""0"",""1172""
","""event"",""trial"",""time""
""fullscreenexit"",""75"",""436838""
",null,<p></p>,null,,,,,,,,,,,,,,,,,,,,,,,
,do_trial,230,949436,0.0-125.0-0.0,"""event"",""trial"",""time""
""fullscreenenter"",""0"",""1172""
""fullscreenexit"",""75"",""436838""
","
","
","""event"",""trial"",""time""
""fullscreenenter"",""0"",""1172""
","""event"",""trial"",""time""
""fullscreenexit"",""75"",""436838""
",403.5,,,,,,,,49,"0,1,0",1,mountain,65,probe-23,0.093382068,0.373555337,0.602031625,0,,,,,,,,
,html-keyboard-response,231,950439,0.0-125.0-1.0,"""event"",""trial"",""time""
""fullscreenenter"",""0"",""1172""
""fullscreenexit"",""75"",""436838""
","
","
","""event"",""trial"",""time""
""fullscreenenter"",""0"",""1172""
","""event"",""trial"",""time""
""fullscreenexit"",""75"",""436838""
",null,<p></p>,null,,,,,,,,,,,,,,,,,,,,,,,
,do_trial,232,955488,0.0-126.0-0.0,"""event"",""trial"",""time""
""fullscreenenter"",""0"",""1172""
""fullscreenexit"",""75"",""436838""
","
","
","""event"",""trial"",""time""
""fullscreenenter"",""0"",""1172""
","""event"",""trial"",""time""
""fullscreenexit"",""75"",""436838""
",514.7,,,,,,,,51,"0,0,1",1,mountain,66,probe-01,0.21757893,0.322843612,0.489841968,1,,,,,,,,
,html-keyboard-response,233,956491,0.0-126.0-1.0,"""event"",""trial"",""time""
""fullscreenenter"",""0"",""1172""
""fullscreenexit"",""75"",""436838""
","
","
","""event"",""trial"",""time""
""fullscreenenter"",""0"",""1172""
","""event"",""trial"",""time""
""fullscreenexit"",""75"",""436838""
",null,<p></p>,null,,,,,,,,,,,,,,,,,,,,,,,
,do_trial,234,961293,0.0-127.0-0.0,"""event"",""trial"",""time""
""fullscreenenter"",""0"",""1172""
""fullscreenexit"",""75"",""436838""
","
","
","""event"",""trial"",""time""
""fullscreenenter"",""0"",""1172""
","""event"",""trial"",""time""
""fullscreenexit"",""75"",""436838""
",267.3,,,,,,,,51,"0,0,0",1,mountain,67,probe-68,0.192021204,0.233949773,0.547045676,0,,,,,,,,
,html-keyboard-response,235,962297,0.0-127.0-1.0,"""event"",""trial"",""time""
""fullscreenenter"",""0"",""1172""
""fullscreenexit"",""75"",""436838""
","
","
","""event"",""trial"",""time""
""fullscreenenter"",""0"",""1172""
","""event"",""trial"",""time""
""fullscreenexit"",""75"",""436838""
",null,<p></p>,null,,,,,,,,,,,,,,,,,,,,,,,
,do_trial,236,967042,0.0-128.0-0.0,"""event"",""trial"",""time""
""fullscreenenter"",""0"",""1172""
""fullscreenexit"",""75"",""436838""
","
","
","""event"",""trial"",""time""
""fullscreenenter"",""0"",""1172""
","""event"",""trial"",""time""
""fullscreenexit"",""75"",""436838""
",211,,,,,,,,50,"0,0,1",1,mountain,68,probe-29,0.207272873,0.230619582,0.637763502,0,,,,,,,,
,html-keyboard-response,237,968045,0.0-128.0-1.0,"""event"",""trial"",""time""
""fullscreenenter"",""0"",""1172""
""fullscreenexit"",""75"",""436838""
","
","
","""event"",""trial"",""time""
""fullscreenenter"",""0"",""1172""
","""event"",""trial"",""time""
""fullscreenexit"",""75"",""436838""
",null,<p></p>,null,,,,,,,,,,,,,,,,,,,,,,,
,do_trial,238,972903,0.0-129.0-0.0,"""event"",""trial"",""time""
""fullscreenenter"",""0"",""1172""
""fullscreenexit"",""75"",""436838""
","
","
","""event"",""trial"",""time""
""fullscreenenter"",""0"",""1172""
","""event"",""trial"",""time""
""fullscreenexit"",""75"",""436838""
",323.9000001,,,,,,,,50,"0,0,1",1,mountain,69,probe-153,0.179658231,0.254577983,0.722303162,0,,,,,,,,
,html-keyboard-response,239,973906,0.0-129.0-1.0,"""event"",""trial"",""time""
""fullscreenenter"",""0"",""1172""
""fullscreenexit"",""75"",""436838""
","
","
","""event"",""trial"",""time""
""fullscreenenter"",""0"",""1172""
","""event"",""trial"",""time""
""fullscreenexit"",""75"",""436838""
",null,<p></p>,null,,,,,,,,,,,,,,,,,,,,,,,
,do_bye,240,975414,0.0-130.0-0.0,"""event"",""trial"",""time""
""fullscreenenter"",""0"",""1172""
""fullscreenexit"",""75"",""436838""
","
","
","""event"",""trial"",""time""
""fullscreenenter"",""0"",""1172""
","""event"",""trial"",""time""
""fullscreenexit"",""75"",""436838""
",null,,,,,,,,null,,,,,,,,,,,,,,,,,
,break,241,976813,0.0-130.0-1.0,"""event"",""trial"",""time""
""fullscreenenter"",""0"",""1172""
""fullscreenexit"",""75"",""436838""
","
","
","""event"",""trial"",""time""
""fullscreenenter"",""0"",""1172""
","""event"",""trial"",""time""
""fullscreenexit"",""75"",""436838""
",1398.8,"<div class='center'><p>Time to take a quick break! You have 2 minutes to rest, but you can move on sooner if you'd like.</p><p> Press the <b>space bar</b> to continue.</p></div>",32,,,,,,,,,,,,,,,,,,,,,,,
,do_travel,242,985818,0.0-131.0-0.0,"""event"",""trial"",""time""
""fullscreenenter"",""0"",""1172""
""fullscreenexit"",""75"",""436838""
","
","
","""event"",""trial"",""time""
""fullscreenenter"",""0"",""1172""
","""event"",""trial"",""time""
""fullscreenexit"",""75"",""436838""
",null,,,,,,,,null,,,,,,,,,,,,,,,,,
,do_welcome,243,989826,0.0-131.0-1.0,"""event"",""trial"",""time""
""fullscreenenter"",""0"",""1172""
""fullscreenexit"",""75"",""436838""
","
","
","""event"",""trial"",""time""
""fullscreenenter"",""0"",""1172""
","""event"",""trial"",""time""
""fullscreenexit"",""75"",""436838""
",null,,,,,,,,null,,,,,,,,,,,,,,,,,
,do_trial,244,995806,0.0-132.0-0.0,"""event"",""trial"",""time""
""fullscreenenter"",""0"",""1172""
""fullscreenexit"",""75"",""436838""
","
","
","""event"",""trial"",""time""
""fullscreenenter"",""0"",""1172""
","""event"",""trial"",""time""
""fullscreenexit"",""75"",""436838""
",1447.7,,,,,,,,49,"0,0,1",2,coast,70,probe-121,0.091314208,0.224761415,1,0,,,,,,,,
,html-keyboard-response,245,996809,0.0-132.0-1.0,"""event"",""trial"",""time""
""fullscreenenter"",""0"",""1172""
""fullscreenexit"",""75"",""436838""
","
","
","""event"",""trial"",""time""
""fullscreenenter"",""0"",""1172""
","""event"",""trial"",""time""
""fullscreenexit"",""75"",""436838""
",null,<p></p>,null,,,,,,,,,,,,,,,,,,,,,,,
,do_trial,246,1001669,0.0-133.0-0.0,"""event"",""trial"",""time""
""fullscreenenter"",""0"",""1172""
""fullscreenexit"",""75"",""436838""
","
","
","""event"",""trial"",""time""
""fullscreenenter"",""0"",""1172""
","""event"",""trial"",""time""
""fullscreenexit"",""75"",""436838""
",325.1999998,,,,,,,,50,"0,0,1",2,coast,71,probe-117,0.0858702,0.17600398,1,0,,,,,,,,
,html-keyboard-response,247,1002672,0.0-133.0-1.0,"""event"",""trial"",""time""
""fullscreenenter"",""0"",""1172""
""fullscreenexit"",""75"",""436838""
","
","
","""event"",""trial"",""time""
""fullscreenenter"",""0"",""1172""
","""event"",""trial"",""time""
""fullscreenexit"",""75"",""436838""
",null,<p></p>,null,,,,,,,,,,,,,,,,,,,,,,,
,do_trial,248,1007574,0.0-134.0-0.0,"""event"",""trial"",""time""
""fullscreenenter"",""0"",""1172""
""fullscreenexit"",""75"",""436838""
","
","
","""event"",""trial"",""time""
""fullscreenenter"",""0"",""1172""
","""event"",""trial"",""time""
""fullscreenexit"",""75"",""436838""
",369.5999999,,,,,,,,51,"0,0,1",2,coast,72,probe-107,0.05836627,0.288450579,0.875423071,1,,,,,,,,
,html-keyboard-response,249,1008577,0.0-134.0-1.0,"""event"",""trial"",""time""
""fullscreenenter"",""0"",""1172""
""fullscreenexit"",""75"",""436838""
","
","
","""event"",""trial"",""time""
""fullscreenenter"",""0"",""1172""
","""event"",""trial"",""time""
""fullscreenexit"",""75"",""436838""
",null,<p></p>,null,,,,,,,,,,,,,,,,,,,,,,,
,do_trial,250,1013505,0.0-135.0-0.0,"""event"",""trial"",""time""
""fullscreenenter"",""0"",""1172""
""fullscreenexit"",""75"",""436838""
","
","
","""event"",""trial"",""time""
""fullscreenenter"",""0"",""1172""
","""event"",""trial"",""time""
""fullscreenexit"",""75"",""436838""
",392.1999998,,,,,,,,51,"0,1,0",2,coast,73,probe-120,0.13078321,0.383083264,0.72731323,0,,,,,,,,
,html-keyboard-response,251,1014508,0.0-135.0-1.0,"""event"",""trial"",""time""
""fullscreenenter"",""0"",""1172""
""fullscreenexit"",""75"",""436838""
","
","
","""event"",""trial"",""time""
""fullscreenenter"",""0"",""1172""
","""event"",""trial"",""time""
""fullscreenexit"",""75"",""436838""
",null,<p></p>,null,,,,,,,,,,,,,,,,,,,,,,,
,do_trial,252,1019468,0.0-136.0-0.0,"""event"",""trial"",""time""
""fullscreenenter"",""0"",""1172""
""fullscreenexit"",""75"",""436838""
","
","
","""event"",""trial"",""time""
""fullscreenenter"",""0"",""1172""
","""event"",""trial"",""time""
""fullscreenexit"",""75"",""436838""
",425.1000001,,,,,,,,49,"0,1,1",2,coast,74,probe-74,0.062105534,0.388379207,0.774254057,0,,,,,,,,
,html-keyboard-response,253,1020471,0.0-136.0-1.0,"""event"",""trial"",""time""
""fullscreenenter"",""0"",""1172""
""fullscreenexit"",""75"",""436838""
","
","
","""event"",""trial"",""time""
""fullscreenenter"",""0"",""1172""
","""event"",""trial"",""time""
""fullscreenexit"",""75"",""436838""
",null,<p></p>,null,,,,,,,,,,,,,,,,,,,,,,,
,do_trial,254,1025437,0.0-137.0-0.0,"""event"",""trial"",""time""
""fullscreenenter"",""0"",""1172""
""fullscreenexit"",""75"",""436838""
","
","
","""event"",""trial"",""time""
""fullscreenenter"",""0"",""1172""
","""event"",""trial"",""time""
""fullscreenexit"",""75"",""436838""
",435,,,,,,,,50,"0,0,0",2,coast,75,probe-131,0.079992798,0.377361129,0.746674027,0,,,,,,,,
,html-keyboard-response,255,1026442,0.0-137.0-1.0,"""event"",""trial"",""time""
""fullscreenenter"",""0"",""1172""
""fullscreenexit"",""75"",""436838""
","
","
","""event"",""trial"",""time""
""fullscreenenter"",""0"",""1172""
","""event"",""trial"",""time""
""fullscreenexit"",""75"",""436838""
",null,<p></p>,null,,,,,,,,,,,,,,,,,,,,,,,
,do_trial,256,1031332,0.0-138.0-0.0,"""event"",""trial"",""time""
""fullscreenenter"",""0"",""1172""
""fullscreenexit"",""75"",""436838""
","
","
","""event"",""trial"",""time""
""fullscreenenter"",""0"",""1172""
","""event"",""trial"",""time""
""fullscreenexit"",""75"",""436838""
",358.9000001,,,,,,,,51,"0,0,1",2,coast,76,probe-180,0.055391651,0.239213113,0.808772687,1,,,,,,,,
,html-keyboard-response,257,1032337,0.0-138.0-1.0,"""event"",""trial"",""time""
""fullscreenenter"",""0"",""1172""
""fullscreenexit"",""75"",""436838""
","
","
","""event"",""trial"",""time""
""fullscreenenter"",""0"",""1172""
","""event"",""trial"",""time""
""fullscreenexit"",""75"",""436838""
",null,<p></p>,null,,,,,,,,,,,,,,,,,,,,,,,
,do_trial,258,1037197,0.0-139.0-0.0,"""event"",""trial"",""time""
""fullscreenenter"",""0"",""1172""
""fullscreenexit"",""75"",""436838""
","
","
","""event"",""trial"",""time""
""fullscreenenter"",""0"",""1172""
","""event"",""trial"",""time""
""fullscreenexit"",""75"",""436838""
",325.4000001,,,,,,,,51,"0,0,1",2,coast,77,probe-139,0.154470991,0.362372844,0.796538749,1,,,,,,,,
,html-keyboard-response,259,1038200,0.0-139.0-1.0,"""event"",""trial"",""time""
""fullscreenenter"",""0"",""1172""
""fullscreenexit"",""75"",""436838""
","
","
","""event"",""trial"",""time""
""fullscreenenter"",""0"",""1172""
","""event"",""trial"",""time""
""fullscreenexit"",""75"",""436838""
",null,<p></p>,null,,,,,,,,,,,,,,,,,,,,,,,
,do_trial,260,1042852,0.0-140.0-0.0,"""event"",""trial"",""time""
""fullscreenenter"",""0"",""1172""
""fullscreenexit"",""75"",""436838""
","
","