success,trial_type,trial_index,time_elapsed,internal_node_id,interactions,blur_events,focus_events,fullscreenenter_events,fullscreenexit_events,rt,stimulus,key_press,subject_id,participant_id,age,gender,prompt,response,choice_outcomes,context_n,context_img_id,trial_n,probe_img_id,pR_red,pR_white,pR_black,outcome,contextArray_ind,validImageProbes,invalidImageProbes,pRew_Red,pRew_White,pRew_Black,availableForMemProbe,choice_blocks
TRUE,fullscreen,0,4969,0.0-0.0,"""event"",""trial"",""time""
""fullscreenenter"",""0"",""4011""
","
","
","""event"",""trial"",""time""
""fullscreenenter"",""0"",""4011""
","
",,,,,,,,,,,,,,,,,,,,,,,,,,
,pavlovia,1,4972,0.0-1.0,"""event"",""trial"",""time""
""fullscreenenter"",""0"",""4011""
","
","
","""event"",""trial"",""time""
""fullscreenenter"",""0"",""4011""
","
",,,,,,,,,,,,,,,,,,,,,,,,,,
,instruc1,2,53496,0.0-2.0,"""event"",""trial"",""time""
""fullscreenenter"",""0"",""4011""
","
","
","""event"",""trial"",""time""
""fullscreenenter"",""0"",""4011""
","
",null,run_exp/static/audio/clip_1_welcome.m4a,null,265,710,13,Female,"<div class='center'><p>Welcome! This is the first part of the study. It will last ~30 minutes. In part 1 and part 2 of the study, you are the head captain of a pirate ship traveling around the world to different islands. You will play a few different games throughout these two parts. Here is an overview of them:</p><br><p>Part 1 (today)</p><p>1. Instructions, practice game, and quiz</p><p>2. Pick a pirate game on 6 different islands</p><br><p>Part 2 (tomorrow)</p><p>3. Pick a pirate game and memory game</p><p>4. Where did you see this ship? </p></div>",,,,,,,,,,,,,,,,,,
,html-keyboard-response,3,54089,0.0-3.0,"""event"",""trial"",""time""
""fullscreenenter"",""0"",""4011""
","
","
","""event"",""trial"",""time""
""fullscreenenter"",""0"",""4011""
","
",591,"<div class='center'><p>Welcome! This is the first part of the study. It will last ~30 minutes. In part 1 and part 2 of the study, you are the head captain of a pirate ship traveling around the world to different islands. You will play a few different games throughout these two parts. Here is an overview of them:</p><br><p>Part 1 (today)</p><p>1. Instructions, practice game, and quiz</p><p>2. Pick a pirate game on 6 different islands</p><br><p>Part 2 (tomorrow)</p><p>3. Pick a pirate game and memory game</p><p>4. Where did you see this ship? </p><p><b>[Press the space bar to continue]</b></p></div>",32,,,,,,,,,,,,,,,,,,,,,,,
,instruc2,4,59416,0.0-4.0,"""event"",""trial"",""time""
""fullscreenenter"",""0"",""4011""
","
","
","""event"",""trial"",""time""
""fullscreenenter"",""0"",""4011""
","
",null,run_exp/static/audio/clip_2_different_places.m4a,null,,,,,"<div class='center'><p>Today, you’ll visit these 6 islands on your journey. You'll be able to see these islands from your ship.</p><p><img src='run_exp/static/images/contexts/all_contexts.png' height='500'></p></div>",,,,,,,,,,,,,,,,,,
,html-keyboard-response,5,60827,0.0-5.0,"""event"",""trial"",""time""
""fullscreenenter"",""0"",""4011""
","
","
","""event"",""trial"",""time""
""fullscreenenter"",""0"",""4011""
","
",1408.3,"<div class='center'><p>Today, you’ll visit these 6 islands on your journey. You'll be able to see these islands from your ship.</p><p><img src='run_exp/static/images/contexts/all_contexts.png' height='500'></p><p><b>[Press the space bar to continue]</b></p></div>",32,,,,,,,,,,,,,,,,,,,,,,,
,instruc3,6,70516,0.0-6.0,"""event"",""trial"",""time""
""fullscreenenter"",""0"",""4011""
","
","
","""event"",""trial"",""time""
""fullscreenenter"",""0"",""4011""
","
",null,run_exp/static/audio/clip_3_goal_of_game_1.m4a,null,,,,,"<div class='center'><p> The pirates on your ship will rob other ships as they leave the island.</p> These ships have just sold their goods to the islanders, so they will be filled with lots and lots of gold.</p><p><img src='run_exp/static/images/tutorial/ship_center.png' height='400'></p></div>",,,,,,,,,,,,,,,,,,
,html-keyboard-response,7,71305,0.0-7.0,"""event"",""trial"",""time""
""fullscreenenter"",""0"",""4011""
","
","
","""event"",""trial"",""time""
""fullscreenenter"",""0"",""4011""
","
",787.1,"<div class='center'><p> The pirates on your ship will rob other ships as they leave the island.</p> These ships have just sold their goods to the islanders, so they will be filled with lots and lots of gold.</p><p><img src='run_exp/static/images/tutorial/ship_center.png' height='400'></p><p><b>[Press the space bar to continue]</b></p></div>",32,,,,,,,,,,,,,,,,,,,,,,,
,instruc4,8,99294,0.0-8.0,"""event"",""trial"",""time""
""fullscreenenter"",""0"",""4011""
","
","
","""event"",""trial"",""time""
""fullscreenenter"",""0"",""4011""
","
",null,run_exp/static/audio/clip_4_goal_of_game_2.m4a,null,,,,,"<div class='center'><p>As the head captain, you do not have to rob any ships yourself. Another pirate will be doing the robbing for you. First, you will choose a pirate to rob the next ship.</p><p><img src='run_exp/static/images/tutorial/pirates_all_crop.png' height='200'></p><p>Then, you'll see if the pirate successfully robbed the ship of their gold. If they were successful, then you'll get a stack of gold coins like this:</p><p><img src='run_exp/static/images/tutorial/reward.png' height='150'></p><p> If they were <b>not</b> successful, then you'll get no gold coins, and you'll see a big red x like this: </p><p><img src='run_exp/static/images/tutorial/reward_no.png' height='150'></p><p> How much bonus money you make is based on how many gold coins you collect.</p><div>",,,,,,,,,,,,,,,,,,
,html-keyboard-response,9,100526,0.0-9.0,"""event"",""trial"",""time""
""fullscreenenter"",""0"",""4011""
","
","
","""event"",""trial"",""time""
""fullscreenenter"",""0"",""4011""
","
",1230.7,"<div class='center'><p>As the head captain, you do not have to rob any ships yourself. Another pirate will be doing the robbing for you. First, you will choose a pirate to rob the next ship.</p><p><img src='run_exp/static/images/tutorial/pirates_all_crop.png' height='200'></p><p>Then, you'll see if the pirate successfully robbed the ship of their gold. If they were successful, then you'll get a stack of gold coins like this:</p><p><img src='run_exp/static/images/tutorial/reward.png' height='150'></p><p> If they were <b>not</b> successful, then you'll get no gold coins, and you'll see a big red x like this: </p><p><img src='run_exp/static/images/tutorial/reward_no.png' height='150'></p><p> How much bonus money you make is based on how many gold coins you collect.</p<p><b>[Press the space bar to continue]</b></p></div>",32,,,,,,,,,,,,,,,,,,,,,,,
,instruc5,10,121531,0.0-10.0,"""event"",""trial"",""time""
""fullscreenenter"",""0"",""4011""
","
","
","""event"",""trial"",""time""
""fullscreenenter"",""0"",""4011""
","
",21004.2,run_exp/static/audio/clip_5_probabilistic.m4a,49,,,,,"<div class='center'><p>Even the most skilled pirate can not rob EVERY ship.</p><p> Some ships will have very strong protections against pirate attacks.</p><p> Blue beard, here, is very, very good at robbing ships, but he won't be successful every time he tries to rob one.</p><p> You can press the <b>‘1’</b> key on the keyboard to choose him.</p><p> Try choosing him 10 times to see how often he succeeds at robbing a ship. </p><p><img src='run_exp/static/images/tutorial/blue.png' height='500'></p></div>",,,,,,,,,,,,,,,,,,
,html-keyboard-response,11,123035,0.0-11.0,"""event"",""trial"",""time""
""fullscreenenter"",""0"",""4011""
","
","
","""event"",""trial"",""time""
""fullscreenenter"",""0"",""4011""
","
",null,<div class='center'><p><img src='run_exp/static/images/tutorial/blue_win.png' height='500'></p></div>,null,,,,,,,,,,,,,,,,,,,,,,,
,html-keyboard-response,12,123099,0.0-12.0,"""event"",""trial"",""time""
""fullscreenenter"",""0"",""4011""
","
","
","""event"",""trial"",""time""
""fullscreenenter"",""0"",""4011""
","
",62.80000001,<div class='center'><img src='run_exp/static/images/tutorial/blue.png' height='500'></p></div>,49,,,,,,,,,,,,,,,,,,,,,,,
,html-keyboard-response,13,124612,0.0-13.0,"""event"",""trial"",""time""
""fullscreenenter"",""0"",""4011""
","
","
","""event"",""trial"",""time""
""fullscreenenter"",""0"",""4011""
","
",null,<div class='center'><p><img src='run_exp/static/images/tutorial/blue_win.png' height='500'></p></div>,null,,,,,,,,,,,,,,,,,,,,,,,
,html-keyboard-response,14,126153,0.0-14.0,"""event"",""trial"",""time""
""fullscreenenter"",""0"",""4011""
","
","
","""event"",""trial"",""time""
""fullscreenenter"",""0"",""4011""
","
",1540.2,<div class='center'><img src='run_exp/static/images/tutorial/blue.png' height='500'></p></div>,49,,,,,,,,,,,,,,,,,,,,,,,
,html-keyboard-response,15,127661,0.0-15.0,"""event"",""trial"",""time""
""fullscreenenter"",""0"",""4011""
","
","
","""event"",""trial"",""time""
""fullscreenenter"",""0"",""4011""
","
",null,<div class='center'><p><img src='run_exp/static/images/tutorial/blue_win.png' height='500'></p></div>,null,,,,,,,,,,,,,,,,,,,,,,,
,html-keyboard-response,16,128186,0.0-16.0,"""event"",""trial"",""time""
""fullscreenenter"",""0"",""4011""
","
","
","""event"",""trial"",""time""
""fullscreenenter"",""0"",""4011""
","
",523,<div class='center'><img src='run_exp/static/images/tutorial/blue.png' height='500'></p></div>,49,,,,,,,,,,,,,,,,,,,,,,,
,html-keyboard-response,17,129689,0.0-17.0,"""event"",""trial"",""time""
""fullscreenenter"",""0"",""4011""
","
","
","""event"",""trial"",""time""
""fullscreenenter"",""0"",""4011""
","
",null,<div class='center'><p><img src='run_exp/static/images/tutorial/blue_no_win.png' height='500'></p></div>,null,,,,,,,,,,,,,,,,,,,,,,,
,html-keyboard-response,18,130406,0.0-18.0,"""event"",""trial"",""time""
""fullscreenenter"",""0"",""4011""
","
","
","""event"",""trial"",""time""
""fullscreenenter"",""0"",""4011""
","
",716.1,<div class='center'><img src='run_exp/static/images/tutorial/blue.png' height='500'></p></div>,49,,,,,,,,,,,,,,,,,,,,,,,
,html-keyboard-response,19,131909,0.0-19.0,"""event"",""trial"",""time""
""fullscreenenter"",""0"",""4011""
","
","
","""event"",""trial"",""time""
""fullscreenenter"",""0"",""4011""
","
",null,<div class='center'><p><img src='run_exp/static/images/tutorial/blue_win.png' height='500'></p></div>,null,,,,,,,,,,,,,,,,,,,,,,,
,html-keyboard-response,20,132456,0.0-20.0,"""event"",""trial"",""time""
""fullscreenenter"",""0"",""4011""
","
","
","""event"",""trial"",""time""
""fullscreenenter"",""0"",""4011""
","
",546.6,<div class='center'><img src='run_exp/static/images/tutorial/blue.png' height='500'></p></div>,49,,,,,,,,,,,,,,,,,,,,,,,
,html-keyboard-response,21,133970,0.0-21.0,"""event"",""trial"",""time""
""fullscreenenter"",""0"",""4011""
","
","
","""event"",""trial"",""time""
""fullscreenenter"",""0"",""4011""
","
",null,<div class='center'><p><img src='run_exp/static/images/tutorial/blue_win.png' height='500'></p></div>,null,,,,,,,,,,,,,,,,,,,,,,,
,html-keyboard-response,22,134400,0.0-22.0,"""event"",""trial"",""time""
""fullscreenenter"",""0"",""4011""
","
","
","""event"",""trial"",""time""
""fullscreenenter"",""0"",""4011""
","
",428.6,<div class='center'><img src='run_exp/static/images/tutorial/blue.png' height='500'></p></div>,49,,,,,,,,,,,,,,,,,,,,,,,
,html-keyboard-response,23,135914,0.0-23.0,"""event"",""trial"",""time""
""fullscreenenter"",""0"",""4011""
","
","
","""event"",""trial"",""time""
""fullscreenenter"",""0"",""4011""
","
",null,<div class='center'><p><img src='run_exp/static/images/tutorial/blue_win.png' height='500'></p></div>,null,,,,,,,,,,,,,,,,,,,,,,,
,html-keyboard-response,24,136308,0.0-24.0,"""event"",""trial"",""time""
""fullscreenenter"",""0"",""4011""
","
","
","""event"",""trial"",""time""
""fullscreenenter"",""0"",""4011""
","
",393.5,<div class='center'><img src='run_exp/static/images/tutorial/blue.png' height='500'></p></div>,49,,,,,,,,,,,,,,,,,,,,,,,
,html-keyboard-response,25,137822,0.0-25.0,"""event"",""trial"",""time""
""fullscreenenter"",""0"",""4011""
","
","
","""event"",""trial"",""time""
""fullscreenenter"",""0"",""4011""
","
",null,<div class='center'><p><img src='run_exp/static/images/tutorial/blue_no_win.png' height='500'></p></div>,null,,,,,,,,,,,,,,,,,,,,,,,
,html-keyboard-response,26,138153,0.0-26.0,"""event"",""trial"",""time""
""fullscreenenter"",""0"",""4011""
","
","
","""event"",""trial"",""time""
""fullscreenenter"",""0"",""4011""
","
",330.4,<div class='center'><img src='run_exp/static/images/tutorial/blue.png' height='500'></p></div>,49,,,,,,,,,,,,,,,,,,,,,,,
,html-keyboard-response,27,139655,0.0-27.0,"""event"",""trial"",""time""
""fullscreenenter"",""0"",""4011""
","
","
","""event"",""trial"",""time""
""fullscreenenter"",""0"",""4011""
","
",null,<div class='center'><p><img src='run_exp/static/images/tutorial/blue_win.png' height='500'></p></div>,null,,,,,,,,,,,,,,,,,,,,,,,
,html-keyboard-response,28,140106,0.0-28.0,"""event"",""trial"",""time""
""fullscreenenter"",""0"",""4011""
","
","
","""event"",""trial"",""time""
""fullscreenenter"",""0"",""4011""
","
",450.3,<div class='center'><img src='run_exp/static/images/tutorial/blue.png' height='500'></p></div>,49,,,,,,,,,,,,,,,,,,,,,,,
,html-keyboard-response,29,141621,0.0-29.0,"""event"",""trial"",""time""
""fullscreenenter"",""0"",""4011""
","
","
","""event"",""trial"",""time""
""fullscreenenter"",""0"",""4011""
","
",null,<div class='center'><p><img src='run_exp/static/images/tutorial/blue_win.png' height='500'></p></div>,null,,,,,,,,,,,,,,,,,,,,,,,
,instruc6,30,147114,0.0-30.0,"""event"",""trial"",""time""
""fullscreenenter"",""0"",""4011""
","
","
","""event"",""trial"",""time""
""fullscreenenter"",""0"",""4011""
","
",null,run_exp/static/audio/clip_6_blue_beard_outcome.m4a,null,,,,,"<div class='center'><p> See, he succeeded in robbing the ships most of the time but not every time. </p></div>",,,,,,,,,,,,,,,,,,
,html-keyboard-response,31,148022,0.0-31.0,"""event"",""trial"",""time""
""fullscreenenter"",""0"",""4011""
","
","
","""event"",""trial"",""time""
""fullscreenenter"",""0"",""4011""
","
",906.2,"<div class='center'><p> See, he succeeded in robbing the ships most of the time but not every time. </p><p><b>[Press the space bar to continue]</b></p></div>",32,,,,,,,,,,,,,,,,,,,,,,,
,audio-keyboard-response,32,165279,0.0-32.0,"""event"",""trial"",""time""
""fullscreenenter"",""0"",""4011""
","
","
","""event"",""trial"",""time""
""fullscreenenter"",""0"",""4011""
","
",17254.1,run_exp/static/audio/clip_7_pick_pirate.m4a,50,,,,,,,,,,,,,,,,,,,,,,,
,audio-keyboard-response,33,169597,0.0-33.0-0.0,"""event"",""trial"",""time""
""fullscreenenter"",""0"",""4011""
","
","
","""event"",""trial"",""time""
""fullscreenenter"",""0"",""4011""
","
",4315,run_exp/static/audio/clip_8_chosen_pirate_win.m4a,32,,,,,,,,,,,,,,,,,,,,,,,
,audio-keyboard-response,34,172600,0.0-33.0-1.0,"""event"",""trial"",""time""
""fullscreenenter"",""0"",""4011""
","
","
","""event"",""trial"",""time""
""fullscreenenter"",""0"",""4011""
","
",3000.6,run_exp/static/audio/clip_9_pick_a_pirate_again.m4a,49,,,,,,,,,,,,,,,,,,,,,,,
,audio-keyboard-response,35,173942,0.0-34.0-0.0,"""event"",""trial"",""time""
""fullscreenenter"",""0"",""4011""
","
","
","""event"",""trial"",""time""
""fullscreenenter"",""0"",""4011""
","
",1340,run_exp/static/audio/clip_10_chosen_pirate_loss.m4a,32,,,,,,,,,,,,,,,,,,,,,,,
,instruc9,36,179432,0.0-35.0-0.0,"""event"",""trial"",""time""
""fullscreenenter"",""0"",""4011""
","
","
","""event"",""trial"",""time""
""fullscreenenter"",""0"",""4011""
","
",null,run_exp/static/audio/clip_11_time_out.m4a,null,,,,,"<div class='center'><p>If you don’t make your choice fast enough, you’ll have to wait a few seconds before you can make another one. </p><p><img src='run_exp/static/images/miscellaneous/hurry_up.png' height='500'></p></div>",,,,,,,,,,,,,,,,,,
,html-keyboard-response,37,180207,0.0-35.0-1.0,"""event"",""trial"",""time""
""fullscreenenter"",""0"",""4011""
","
","
","""event"",""trial"",""time""
""fullscreenenter"",""0"",""4011""
","
",774.3,"<div class='center'><p>If you don’t make your choice fast enough, you’ll have to wait a few seconds before you can make another one. </p><p><img src='run_exp/static/images/miscellaneous/hurry_up.png' height='500'></p><p><b>[Press the space bar to continue]</b></p></div>",32,,,,,,,,,,,,,,,,,,,,,,,
,instruc10,38,219293,0.0-35.0-2.0,"""event"",""trial"",""time""
""fullscreenenter"",""0"",""4011""
","
","
","""event"",""trial"",""time""
""fullscreenenter"",""0"",""4011""
","
",null,run_exp/static/audio/clip_12_probe.m4a,null,,,,,"<div class='center'><p>Once you've chosen a pirate, you’ll be shown the ship they are robbing. You will never rob the same ship twice. Ships can be told apart from one another by the image on them. These are the goods that they sell. See, this ship has a travel mug on it. </p><p> You’ll have to remember which island you saw each ship on. You will win more gold coins and hence more bonus money if you remember correctly! To help you remember, you can imagine a story. For example, here, you could imagine a mug full of water in the desert. Or, as another example, if on the forest island, your pirate robbed a ship with an apple on it, you could imagine an apple falling from a tree in the forest. </p><p><img src='run_exp/static/images/tutorial/example_probe.png' height='500'></p></div>",,,,,,,,,,,,,,,,,,
,html-keyboard-response,39,221647,0.0-35.0-3.0,"""event"",""trial"",""time""
""fullscreenenter"",""0"",""4011""
","
","
","""event"",""trial"",""time""
""fullscreenenter"",""0"",""4011""
","
",2353.6,"<div class='center'><p>Once you've chosen a pirate, you’ll be shown the ship they are robbing. You will never rob the same ship twice. Ships can be told apart from one another by the image on them. These are the goods that they sell. See, this ship has a travel mug on it. </p><p> You’ll have to remember which island you saw each ship on. You will win more gold coins and hence more bonus money if you remember correctly! To help you remember, you can imagine a story. For example, here, you could imagine a mug full of water in the desert. Or, as another example, if on the forest island, your pirate robbed a ship with an apple on it, you could imagine an apple falling from a tree in the forest. </p><p><img src='run_exp/static/images/tutorial/example_probe.png' height='500'></p><p><b>[Press the space bar to continue]</b></p></div>",32,,,,,,,,,,,,,,,,,,,,,,,
,instruc11,40,238052,0.0-35.0-4.0,"""event"",""trial"",""time""
""fullscreenenter"",""0"",""4011""
","
","
","""event"",""trial"",""time""
""fullscreenenter"",""0"",""4011""
","
",null,run_exp/static/audio/clip_13_changepoint.m4a,null,,,,,"<div class='center'><p>How successful a pirate is at robbing ships will depend on the island you’re on.</p><p> A pirate may have visited this island many times before and gained a lot of practice robbing ships there.</p><p>So, they’re more likely to be successful than a pirate who has never visited the island before.</p></div>",,,,,,,,,,,,,,,,,,
,html-keyboard-response,41,239863,0.0-35.0-5.0,"""event"",""trial"",""time""
""fullscreenenter"",""0"",""4011""
","
","
","""event"",""trial"",""time""
""fullscreenenter"",""0"",""4011""
","
",1809.8,"<div class='center'><p>How successful a pirate is at robbing ships will depend on the island you’re on.</p><p> A pirate may have visited this island many times before and gained a lot of practice robbing ships there.</p><p>So, they’re more likely to be successful than a pirate who has never visited the island before.</p><p><b>[Press the space bar to continue]</b></p></div>",32,,,,,,,,,,,,,,,,,,,,,,,
,instruc12,42,280955,0.0-35.0-6.0,"""event"",""trial"",""time""
""fullscreenenter"",""0"",""4011""
","
","
","""event"",""trial"",""time""
""fullscreenenter"",""0"",""4011""
","
",null,run_exp/static/audio/clip_14_drift.m4a,null,,,,,"<div class='center'><p>How successful a pirate is at robbing ships can also change over the time spent on the island. </p><p> Ships may hear from islanders about the pirates coming and will improve their protections against the attack. This may make it harder to rob them.</p><p> Ships may also become lazy and weaken the strength of their protections. This may make it easier to rob them.</p><br><p>Things are always changing on the high seas! So, try your best to pay attention!</p><p><img src='run_exp/static/images/tutorial/contingency.png' height='500'></p></div>",,,,,,,,,,,,,,,,,,
,html-keyboard-response,43,282356,0.0-35.0-7.0,"""event"",""trial"",""time""
""fullscreenenter"",""0"",""4011""
","
","
","""event"",""trial"",""time""
""fullscreenenter"",""0"",""4011""
","
",1399.7,"<div class='center'><p>How successful a pirate is at robbing ships can also change over the time spent on the island. </p><p> Ships may hear from islanders about the pirates coming and will improve their protections against the attack. This may make it harder to rob them.</p><p> Ships may also become lazy and weaken the strength of their protections. This may make it easier to rob them.</p><br><p>Things are always changing on the high seas! So, try your best to pay attention!</p><p><img src='run_exp/static/images/tutorial/contingency.png' height='500'></p><p><b>[Press the space bar to continue]</b></p></div>",32,,,,,,,,,,,,,,,,,,,,,,,
,instruc13,44,317535,0.0-35.0-8.0,"""event"",""trial"",""time""
""fullscreenenter"",""0"",""4011""
","
","
","""event"",""trial"",""time""
""fullscreenenter"",""0"",""4011""
","
",null,run_exp/static/audio/clip_15_summary.m4a,null,,,,,"<div class='center'><p>Let's go over the instructions quickly again. You have two important things to do: </p><b><p> 1. Pick the pirate who is the best at robbing ships on the current island. </p></b><b><p> 2. Remember on which island a ship was robbed.</p> </b><p>The amount of bonus money you can win depends on both.</p><p><br><p>Let’s try a practice game. The game will start by showing you the pirates. First, pick a pirate using the <b> 1, 2, 3 </b> keys on your keyboard. When you are shown a ship, try to remember which island you’re on by making up a story.</p><p>This is just a practice game, so you’re not playing for money. </p><p> Good luck! This game will be very difficult but try your best!</p></div>",,,,,,,,,,,,,,,,,,
,html-keyboard-response,45,318448,0.0-35.0-9.0,"""event"",""trial"",""time""
""fullscreenenter"",""0"",""4011""
","
","
","""event"",""trial"",""time""
""fullscreenenter"",""0"",""4011""
","
",910.2,"<div class='center'><p>Let's go over the instructions quickly again. You have two important things to do: </p><b><p> 1. Pick the pirate who is the best at robbing ships on the current island. </p></b><b><p> 2. Remember on which island a ship was robbed.</p> </b><p>The amount of bonus money you can win depends on both.</p><p><br><p>Let’s try a practice game. The game will start by showing you the pirates. First, pick a pirate using the <b> 1, 2, 3 </b> keys on your keyboard. When you are shown a ship, try to remember which island you’re on by making up a story.</p><p>This is just a practice game, so you’re not playing for money. </p><p> Good luck! This game will be very difficult but try your best!</p><p><b>[Press the space bar to continue]</b></p></div>",32,,,,,,,,,,,,,,,,,,,,,,,
,do_welcome,46,322462,0.0-35.0-10.0,"""event"",""trial"",""time""
""fullscreenenter"",""0"",""4011""
","
","
","""event"",""trial"",""time""
""fullscreenenter"",""0"",""4011""
","
",null,,,,,,,,null,,,,,,,,,,,,,,,,,
,do_trial,47,329092,0.0-35.0-11.0,"""event"",""trial"",""time""
""fullscreenenter"",""0"",""4011""
","
","
","""event"",""trial"",""time""
""fullscreenenter"",""0"",""4011""
","
",2109.7,,,,,,,,50,"1,0,0",,,,,,,,,,,,,,,,
,html-keyboard-response,48,330102,0.0-36.0-0.0,"""event"",""trial"",""time""
""fullscreenenter"",""0"",""4011""
","
","
","""event"",""trial"",""time""
""fullscreenenter"",""0"",""4011""
","
",null,<p></p>,null,,,,,,,,,,,,,,,,,,,,,,,
,do_trial,49,336631,0.0-36.0-1.0,"""event"",""trial"",""time""
""fullscreenenter"",""0"",""4011""
","
","
","""event"",""trial"",""time""
""fullscreenenter"",""0"",""4011""
","
",2013.4,,,,,,,,51,"1,1,0",,,,,,,,,,,,,,,,
,html-keyboard-response,50,337645,0.0-37.0-0.0,"""event"",""trial"",""time""
""fullscreenenter"",""0"",""4011""
","
","
","""event"",""trial"",""time""
""fullscreenenter"",""0"",""4011""
","
",null,<p></p>,null,,,,,,,,,,,,,,,,,,,,,,,
,do_trial,51,343656,0.0-37.0-1.0,"""event"",""trial"",""time""
""fullscreenenter"",""0"",""4011""
","
","
","""event"",""trial"",""time""
""fullscreenenter"",""0"",""4011""
","
",1500.3,,,,,,,,49,"1,0,1",,,,,,,,,,,,,,,,
,html-keyboard-response,52,344673,0.0-38.0-0.0,"""event"",""trial"",""time""
""fullscreenenter"",""0"",""4011""
","
","
","""event"",""trial"",""time""
""fullscreenenter"",""0"",""4011""
","
",null,<p></p>,null,,,,,,,,,,,,,,,,,,,,,,,
,do_trial,53,351438,0.0-38.0-1.0,"""event"",""trial"",""time""
""fullscreenenter"",""0"",""4011""
","
","
","""event"",""trial"",""time""
""fullscreenenter"",""0"",""4011""
","
",2253.6,,,,,,,,51,"0,1,0",,,,,,,,,,,,,,,,
,html-keyboard-response,54,352454,0.0-39.0-0.0,"""event"",""trial"",""time""
""fullscreenenter"",""0"",""4011""
","
","
","""event"",""trial"",""time""
""fullscreenenter"",""0"",""4011""
","
",null,<p></p>,null,,,,,,,,,,,,,,,,,,,,,,,
,do_trial,55,358537,0.0-39.0-1.0,"""event"",""trial"",""time""
""fullscreenenter"",""0"",""4011""
","
","
","""event"",""trial"",""time""
""fullscreenenter"",""0"",""4011""
","
",1565.7,,,,,,,,50,"1,0,0",,,,,,,,,,,,,,,,
,do_bye,56,360044,0.0-40.0-0.0,"""event"",""trial"",""time""
""fullscreenenter"",""0"",""4011""
","
","
","""event"",""trial"",""time""
""fullscreenenter"",""0"",""4011""
","
",null,,,,,,,,null,,,,,,,,,,,,,,,,,
,do_travel,57,369055,0.0-40.0-1.0,"""event"",""trial"",""time""
""fullscreenenter"",""0"",""4011""
","
","
","""event"",""trial"",""time""
""fullscreenenter"",""0"",""4011""
","
",null,,,,,,,,null,,,,,,,,,,,,,,,,,
,do_welcome,58,373084,0.0-40.0-2.0,"""event"",""trial"",""time""
""fullscreenenter"",""0"",""4011""
","
","
","""event"",""trial"",""time""
""fullscreenenter"",""0"",""4011""
","
",null,,,,,,,,null,,,,,,,,,,,,,,,,,
,do_trial,59,379425,0.0-40.0-3.0,"""event"",""trial"",""time""
""fullscreenenter"",""0"",""4011""
","
","
","""event"",""trial"",""time""
""fullscreenenter"",""0"",""4011""
","
",1821,,,,,,,,50,"1,0,0",,,,,,,,,,,,,,,,
,html-keyboard-response,60,380445,0.0-41.0-0.0,"""event"",""trial"",""time""
""fullscreenenter"",""0"",""4011""
","
","
","""event"",""trial"",""time""
""fullscreenenter"",""0"",""4011""
","
",null,<p></p>,null,,,,,,,,,,,,,,,,,,,,,,,
,do_trial,61,387306,0.0-41.0-1.0,"""event"",""trial"",""time""
""fullscreenenter"",""0"",""4011""
","
","
","""event"",""trial"",""time""
""fullscreenenter"",""0"",""4011""
","
",2338.3,,,,,,,,50,"1,0,1",,,,,,,,,,,,,,,,
,html-keyboard-response,62,388321,0.0-42.0-0.0,"""event"",""trial"",""time""
""fullscreenenter"",""0"",""4011""
","
","
","""event"",""trial"",""time""
""fullscreenenter"",""0"",""4011""
","
",null,<p></p>,null,,,,,,,,,,,,,,,,,,,,,,,
,do_trial,63,393150,0.0-42.0-1.0,"""event"",""trial"",""time""
""fullscreenenter"",""0"",""4011""
","
","
","""event"",""trial"",""time""
""fullscreenenter"",""0"",""4011""
","
",306.7,,,,,,,,51,"1,1,0",,,,,,,,,,,,,,,,
,html-keyboard-response,64,394164,0.0-43.0-0.0,"""event"",""trial"",""time""
""fullscreenenter"",""0"",""4011""
","
","
","""event"",""trial"",""time""
""fullscreenenter"",""0"",""4011""
","
",null,<p></p>,null,,,,,,,,,,,,,,,,,,,,,,,
,do_trial,65,398982,0.0-43.0-1.0,"""event"",""trial"",""time""
""fullscreenenter"",""0"",""4011""
","
","
","""event"",""trial"",""time""
""fullscreenenter"",""0"",""4011""
","
",302.6,,,,,,,,49,"0,0,1",,,,,,,,,,,,,,,,
,html-keyboard-response,66,399997,0.0-44.0-0.0,"""event"",""trial"",""time""
""fullscreenenter"",""0"",""4011""
","
","
","""event"",""trial"",""time""
""fullscreenenter"",""0"",""4011""
","
",null,<p></p>,null,,,,,,,,,,,,,,,,,,,,,,,
,do_trial,67,404781,0.0-44.0-1.0,"""event"",""trial"",""time""
""fullscreenenter"",""0"",""4011""
","
","
","""event"",""trial"",""time""
""fullscreenenter"",""0"",""4011""
","
",271,,,,,,,,49,"1,0,1",,,,,,,,,,,,,,,,
,html-keyboard-response,68,407020,0.0-45.0-0.0,"""event"",""trial"",""time""
""fullscreenenter"",""0"",""4011""
","
","
","""event"",""trial"",""time""
""fullscreenenter"",""0"",""4011""
","
",2237.5,<div class='center'><p><img src='run_exp/static/images/tutorial/prac_best_pirate.png'  height='500'></p></div>,49,,,,,,,,,,,,,,,,,,,,,,,
,html-keyboard-response,69,408816,0.0-46.0-0.0,"""event"",""trial"",""time""
""fullscreenenter"",""0"",""4011""
","
","
","""event"",""trial"",""time""
""fullscreenenter"",""0"",""4011""
","
",1794.5,<div class='center'><p>That's correct! Red beard was the best.</p><p><b>[Press the space bar to continue]</b></p></div>,32,,,,,,,,,,,,,,,,,,,,,,,
,html-keyboard-response,70,412694,0.0-46.0-1.0,"""event"",""trial"",""time""
""fullscreenenter"",""0"",""4011""
","
","
","""event"",""trial"",""time""
""fullscreenenter"",""0"",""4011""
","
",3877.2,<div class='center'><p><img src='run_exp/static/images/tutorial/prac_source.png'  height='500'></p></div>,50,,,,,,,,,,,,,,,,,,,,,,,
,html-keyboard-response,71,413784,0.0-47.0-0.0,"""event"",""trial"",""time""
""fullscreenenter"",""0"",""4011""
","
","
","""event"",""trial"",""time""
""fullscreenenter"",""0"",""4011""
","
",1088.8,<div class='center'><p>That's correct! You saw this ship on the cavern island.</p><p><b>[Press the space bar to continue]</b></p></div>,32,,,,,,,,,,,,,,,,,,,,,,,
,quiz_beginning,72,425747,0.0-47.0-1.0,"""event"",""trial"",""time""
""fullscreenenter"",""0"",""4011""
","
","
","""event"",""trial"",""time""
""fullscreenenter"",""0"",""4011""
","
",null,run_exp/static/audio/clip_16_quiz_intro.m4a,null,,,,,"<div class='center'><p>Good job on the practice game! Now, you will be asked some true or false questions to make sure you really understand the rules of the game.</p><p> Press <b>'1'</b> on the keyboard for true and press <b>'2'</b> for false.</p></div>",,,,,,,,,,,,,,,,,,
,audio-keyboard-response,73,431048,0.0-47.0-2.0,"""event"",""trial"",""time""
""fullscreenenter"",""0"",""4011""
","
","
","""event"",""trial"",""time""
""fullscreenenter"",""0"",""4011""
","
",5298.6,run_exp/static/audio/clip_17_q1.m4a,49,,,,,,,,,,,,,,,,,,,,,,,
,correct,74,433466,0.0-48.0-0.0,"""event"",""trial"",""time""
""fullscreenenter"",""0"",""4011""
","
","
","""event"",""trial"",""time""
""fullscreenenter"",""0"",""4011""
","
",null,run_exp/static/audio/clip_18_correct.m4a,null,,,,,<div class='center'><p>That's correct!</p></div>,,,,,,,,,,,,,,,,,,
,html-keyboard-response,75,434975,0.0-48.0-1.0,"""event"",""trial"",""time""
""fullscreenenter"",""0"",""4011""
","
","
","""event"",""trial"",""time""
""fullscreenenter"",""0"",""4011""
","
",1507.4,<div class='center'><p>That's correct!</p><p><b>[Press the space bar to continue]</b></p></div>,32,,,,,,,,,,,,,,,,,,,,,,,
,audio-keyboard-response,76,444501,0.0-48.0-2.0,"""event"",""trial"",""time""
""fullscreenenter"",""0"",""4011""
","
","
","""event"",""trial"",""time""
""fullscreenenter"",""0"",""4011""
","
",9523.6,run_exp/static/audio/clip_20_q2.m4a,50,,,,,,,,,,,,,,,,,,,,,,,
,correct,77,446884,0.0-49.0-0.0,"""event"",""trial"",""time""
""fullscreenenter"",""0"",""4011""
","
","
","""event"",""trial"",""time""
""fullscreenenter"",""0"",""4011""
","
",null,run_exp/static/audio/clip_18_correct.m4a,null,,,,,<div class='center'><p>That's correct!</p></div>,,,,,,,,,,,,,,,,,,
,html-keyboard-response,78,447597,0.0-49.0-1.0,"""event"",""trial"",""time""
""fullscreenenter"",""0"",""4011""
","
","
","""event"",""trial"",""time""
""fullscreenenter"",""0"",""4011""
","
",711.4,<div class='center'><p>That's correct!</p><p><b>[Press the space bar to continue]</b></p></div>,32,,,,,,,,,,,,,,,,,,,,,,,
,audio-keyboard-response,79,454064,0.0-49.0-2.0,"""event"",""trial"",""time""
""fullscreenenter"",""0"",""4011""
","
","
","""event"",""trial"",""time""
""fullscreenenter"",""0"",""4011""
","
",6467.1,run_exp/static/audio/clip_22_q3.m4a,50,,,,,,,,,,,,,,,,,,,,,,,
,correct,80,456466,0.0-50.0-0.0,"""event"",""trial"",""time""
""fullscreenenter"",""0"",""4011""
","
","
","""event"",""trial"",""time""
""fullscreenenter"",""0"",""4011""
","
",null,run_exp/static/audio/clip_18_correct.m4a,null,,,,,<div class='center'><p>That's correct!</p></div>,,,,,,,,,,,,,,,,,,
,html-keyboard-response,81,457048,0.0-50.0-1.0,"""event"",""trial"",""time""
""fullscreenenter"",""0"",""4011""
","
","
","""event"",""trial"",""time""
""fullscreenenter"",""0"",""4011""
","
",580.3,<div class='center'><p>That's correct!</p><p><b>[Press the space bar to continue]</b></p></div>,32,,,,,,,,,,,,,,,,,,,,,,,
,audio-keyboard-response,82,461266,0.0-50.0-2.0,"""event"",""trial"",""time""
""fullscreenenter"",""0"",""4011""
","
","
","""event"",""trial"",""time""
""fullscreenenter"",""0"",""4011""
","
",4217,run_exp/static/audio/clip_24_q4.m4a,49,,,,,,,,,,,,,,,,,,,,,,,
,correct,83,463687,0.0-51.0-0.0,"""event"",""trial"",""time""
""fullscreenenter"",""0"",""4011""
","
","
","""event"",""trial"",""time""
""fullscreenenter"",""0"",""4011""
","
",null,run_exp/static/audio/clip_18_correct.m4a,null,,,,,<div class='center'><p>That's correct!</p></div>,,,,,,,,,,,,,,,,,,
,html-keyboard-response,84,463991,0.0-51.0-1.0,"""event"",""trial"",""time""
""fullscreenenter"",""0"",""4011""
","
","
","""event"",""trial"",""time""
""fullscreenenter"",""0"",""4011""
","
",302.7,<div class='center'><p>That's correct!</p><p><b>[Press the space bar to continue]</b></p></div>,32,,,,,,,,,,,,,,,,,,,,,,,
,q_all_corr,85,472467,0.0-52.0-0.0,"""event"",""trial"",""time""
""fullscreenenter"",""0"",""4011""
","
","
","""event"",""trial"",""time""
""fullscreenenter"",""0"",""4011""
","
",null,run_exp/static/audio/clip_27_quiz_all_correct.m4a,null,,,,,<div class='center'><p>Good job! You’re now ready to move on to the real game! Remember this game will be difficult but don't get discouraged and try your best!</p></div>,,,,,,,,,,,,,,,,,,
,html-keyboard-response,86,473270,0.0-52.0-1.0,"""event"",""trial"",""time""
""fullscreenenter"",""0"",""4011""
","
","
","""event"",""trial"",""time""
""fullscreenenter"",""0"",""4011""
","
",801.5,<div class='center'><p>Good job! You’re now ready to move on to the real game! Remember this game will be difficult but don't get discouraged and try your best!</p><p><b>[Press the space bar to continue]</b></p></div>,32,,,,,,,,,,,,,,,,,,,,,,,
,do_welcome,87,477293,0.0-53.0-0.0,"""event"",""trial"",""time""
""fullscreenenter"",""0"",""4011""
","
","
","""event"",""trial"",""time""
""fullscreenenter"",""0"",""4011""
","
",null,,,,,,,,null,,,,,,,,,,,,,,,,,
,do_trial,88,483233,0.0-54.0-0.0,"""event"",""trial"",""time""
""fullscreenenter"",""0"",""4011""
","
","
","""event"",""trial"",""time""
""fullscreenenter"",""0"",""4011""
","
",1386.1,,,,,,,,50,"1,0,0",0,coast,0,probe-155,0.6,0.3,0.1,0,,,,,,,,
,html-keyboard-response,89,484244,0.0-54.0-1.0,"""event"",""trial"",""time""
""fullscreenenter"",""0"",""4011""
","
","
","""event"",""trial"",""time""
""fullscreenenter"",""0"",""4011""
","
",null,<p></p>,null,,,,,,,,,,,,,,,,,,,,,,,
,do_trial,90,489336,0.0-55.0-0.0,"""event"",""trial"",""time""
""fullscreenenter"",""0"",""4011""
","
","
","""event"",""trial"",""time""
""fullscreenenter"",""0"",""4011""
","
",513.9,,,,,,,,51,"0,0,0",0,coast,1,probe-27,0.633825691,0.338176177,0.19294165,0,,,,,,,,
,html-keyboard-response,91,490352,0.0-55.0-1.0,"""event"",""trial"",""time""
""fullscreenenter"",""0"",""4011""
","
","
","""event"",""trial"",""time""
""fullscreenenter"",""0"",""4011""
","
",null,<p></p>,null,,,,,,,,,,,,,,,,,,,,,,,
,do_trial,92,495399,0.0-56.0-0.0,"""event"",""trial"",""time""
""fullscreenenter"",""0"",""4011""
","
","
","""event"",""trial"",""time""
""fullscreenenter"",""0"",""4011""
","
",493.9,,,,,,,,49,"1,1,0",0,coast,2,probe-225,0.637652236,0.326637838,0.172656138,1,,,,,,,,
,html-keyboard-response,93,496414,0.0-56.0-1.0,"""event"",""trial"",""time""
""fullscreenenter"",""0"",""4011""
","
","
","""event"",""trial"",""time""
""fullscreenenter"",""0"",""4011""
","
",null,<p></p>,null,,,,,,,,,,,,,,,,,,,,,,,
,do_trial,94,501632,0.0-57.0-0.0,"""event"",""trial"",""time""
""fullscreenenter"",""0"",""4011""
","
","
","""event"",""trial"",""time""
""fullscreenenter"",""0"",""4011""
","
",669,,,,,,,,49,"1,0,0",0,coast,3,probe-209,0.753490458,0.340431755,0.055478562,1,,,,,,,,
,html-keyboard-response,95,502647,0.0-57.0-1.0,"""event"",""trial"",""time""
""fullscreenenter"",""0"",""4011""
","
","
","""event"",""trial"",""time""
""fullscreenenter"",""0"",""4011""
","
",null,<p></p>,null,,,,,,,,,,,,,,,,,,,,,,,
,do_trial,96,507630,0.0-58.0-0.0,"""event"",""trial"",""time""
""fullscreenenter"",""0"",""4011""
","
","
","""event"",""trial"",""time""
""fullscreenenter"",""0"",""4011""
","
",433.9,,,,,,,,49,"1,1,0",0,coast,4,probe-143,0.704799461,0.428199584,0.155709723,1,,,,,,,,
,html-keyboard-response,97,508646,0.0-58.0-1.0,"""event"",""trial"",""time""
""fullscreenenter"",""0"",""4011""
","
","
","""event"",""trial"",""time""
""fullscreenenter"",""0"",""4011""
","
",null,<p></p>,null,,,,,,,,,,,,,,,,,,,,,,,
,do_trial,98,513562,0.0-59.0-0.0,"""event"",""trial"",""time""
""fullscreenenter"",""0"",""4011""
","
","
","""event"",""trial"",""time""
""fullscreenenter"",""0"",""4011""
","
",367.8,,,,,,,,49,"1,0,0",0,coast,5,probe-93,0.800659197,0.351957568,0.259961091,1,,,,,,,,
,html-keyboard-response,99,514578,0.0-59.0-1.0,"""event"",""trial"",""time""
""fullscreenenter"",""0"",""4011""
","
","
","""event"",""trial"",""time""
""fullscreenenter"",""0"",""4011""
","
",null,<p></p>,null,,,,,,,,,,,,,,,,,,,,,,,
,do_trial,100,520160,0.0-60.0-0.0,"""event"",""trial"",""time""
""fullscreenenter"",""0"",""4011""
","
","
","""event"",""trial"",""time""
""fullscreenenter"",""0"",""4011""
","
",1023.6,,,,,,,,49,"1,0,0",0,coast,6,probe-56,0.927846827,0.298837364,0.168010655,1,,,,,,,,
,html-keyboard-response,101,521177,0.0-60.0-1.0,"""event"",""trial"",""time""
""fullscreenenter"",""0"",""4011""
","
","
","""event"",""trial"",""time""
""fullscreenenter"",""0"",""4011""
","
",null,<p></p>,null,,,,,,,,,,,,,,,,,,,,,,,
,do_trial,102,526975,0.0-61.0-0.0,"""event"",""trial"",""time""
""fullscreenenter"",""0"",""4011""
","
","
","""event"",""trial"",""time""
""fullscreenenter"",""0"",""4011""
","
",1243.1,,,,,,,,49,"1,0,0",0,coast,7,probe-89,0.729759635,0.248077139,0.160954188,1,,,,,,,,
,html-keyboard-response,103,527992,0.0-61.0-1.0,"""event"",""trial"",""time""
""fullscreenenter"",""0"",""4011""
","
","
","""event"",""trial"",""time""
""fullscreenenter"",""0"",""4011""
","
",null,<p></p>,null,,,,,,,,,,,,,,,,,,,,,,,
,do_trial,104,532542,0.0-62.0-0.0,"""event"",""trial"",""time""
""fullscreenenter"",""0"",""4011""
","
","
","""event"",""trial"",""time""
""fullscreenenter"",""0"",""4011""
","
",0.199999988,,,,,,,,49,"0,0,0",0,coast,8,probe-112,0.501626631,0.13450078,0.075517432,0,,,,,,,,
,html-keyboard-response,105,533558,0.0-62.0-1.0,"""event"",""trial"",""time""
""fullscreenenter"",""0"",""4011""
","
","
","""event"",""trial"",""time""
""fullscreenenter"",""0"",""4011""
","
",null,<p></p>,null,,,,,,,,,,,,,,,,,,,,,,,
,do_trial,106,539343,0.0-63.0-0.0,"""event"",""trial"",""time""
""fullscreenenter"",""0"",""4011""
","
","
","""event"",""trial"",""time""
""fullscreenenter"",""0"",""4011""
","
",1226.6,,,,,,,,49,"0,0,0",0,coast,9,probe-65,0.335739473,0.209754169,0.064450621,0,,,,,,,,
,html-keyboard-response,107,540357,0.0-63.0-1.0,"""event"",""trial"",""time""
""fullscreenenter"",""0"",""4011""
","
","
","""event"",""trial"",""time""
""fullscreenenter"",""0"",""4011""
","
",null,<p></p>,null,,,,,,,,,,,,,,,,,,,,,,,
,do_trial,108,546706,0.0-64.0-0.0,"""event"",""trial"",""time""
""fullscreenenter"",""0"",""4011""
","
","
","""event"",""trial"",""time""
""fullscreenenter"",""0"",""4011""
","
",1799.3,,,,,,,,49,"1,0,0",0,coast,10,probe-87,0.380933225,0.330240943,0.098208511,1,,,,,,,,
,html-keyboard-response,109,547723,0.0-64.0-1.0,"""event"",""trial"",""time""
""fullscreenenter"",""0"",""4011""
","
","
","""event"",""trial"",""time""
""fullscreenenter"",""0"",""4011""
","
",null,<p></p>,null,,,,,,,,,,,,,,,,,,,,,,,
,do_trial,110,553024,0.0-65.0-0.0,"""event"",""trial"",""time""
""fullscreenenter"",""0"",""4011""
","
","
","""event"",""trial"",""time""
""fullscreenenter"",""0"",""4011""
","
",755.6,,,,,,,,49,"0,0,0",0,coast,11,probe-106,0.473168969,0.313639111,0.059174418,0,,,,,,,,
,html-keyboard-response,111,554037,0.0-65.0-1.0,"""event"",""trial"",""time""
""fullscreenenter"",""0"",""4011""
","
","
","""event"",""trial"",""time""
""fullscreenenter"",""0"",""4011""
","
",null,<p></p>,null,,,,,,,,,,,,,,,,,,,,,,,
,do_trial,112,559572,0.0-66.0-0.0,"""event"",""trial"",""time""
""fullscreenenter"",""0"",""4011""
","
","
","""event"",""trial"",""time""
""fullscreenenter"",""0"",""4011""
","
",989.5,,,,,,,,49,"0,0,0",0,coast,12,probe-136,0.545399421,0.454586232,0.067637067,0,,,,,,,,
,html-keyboard-response,113,560588,0.0-66.0-1.0,"""event"",""trial"",""time""
""fullscreenenter"",""0"",""4011""
","
","
","""event"",""trial"",""time""
""fullscreenenter"",""0"",""4011""
","
",null,<p></p>,null,,,,,,,,,,,,,,,,,,,,,,,
,do_trial,114,565843,0.0-67.0-0.0,"""event"",""trial"",""time""
""fullscreenenter"",""0"",""4011""
","
","
","""event"",""trial"",""time""
""fullscreenenter"",""0"",""4011""
","
",710.3,,,,,,,,49,"1,0,0",0,coast,13,probe-156,0.56826154,0.434830887,0.094585217,1,,,,,,,,
,html-keyboard-response,115,566854,0.0-67.0-1.0,"""event"",""trial"",""time""
""fullscreenenter"",""0"",""4011""
","
","
","""event"",""trial"",""time""
""fullscreenenter"",""0"",""4011""
","
",null,<p></p>,null,,,,,,,,,,,,,,,,,,,,,,,
,do_trial,116,571686,0.0-68.0-0.0,"""event"",""trial"",""time""
""fullscreenenter"",""0"",""4011""
","
","
","""event"",""trial"",""time""
""fullscreenenter"",""0"",""4011""
","
",287.3,,,,,,,,49,"1,0,0",0,coast,14,probe-163,0.566808201,0.283118128,0.223563215,1,,,,,,,,
,html-keyboard-response,117,572703,0.0-68.0-1.0,"""event"",""trial"",""time""
""fullscreenenter"",""0"",""4011""
","
","
","""event"",""trial"",""time""
""fullscreenenter"",""0"",""4011""
","
",null,<p></p>,null,,,,,,,,,,,,,,,,,,,,,,,
,do_trial,118,577818,0.0-69.0-0.0,"""event"",""trial"",""time""
""fullscreenenter"",""0"",""4011""
","
","
","""event"",""trial"",""time""
""fullscreenenter"",""0"",""4011""
","
",570.5,,,,,,,,49,"0,0,0",0,coast,15,probe-105,0.567261527,0.16011826,0.16284542,0,,,,,,,,
,html-keyboard-response,119,578834,0.0-69.0-1.0,"""event"",""trial"",""time""
""fullscreenenter"",""0"",""4011""
","
","
","""event"",""trial"",""time""
""fullscreenenter"",""0"",""4011""
","
",null,<p></p>,null,,,,,,,,,,,,,,,,,,,,,,,
,do_trial,120,583719,0.0-70.0-0.0,"""event"",""trial"",""time""
""fullscreenenter"",""0"",""4011""
","
","
","""event"",""trial"",""time""
""fullscreenenter"",""0"",""4011""
","
",335.4,,,,,,,,49,"0,1,0",0,coast,16,probe-02,0.537803912,0.238339409,0.063424591,0,,,,,,,,
,html-keyboard-response,121,584730,0.0-70.0-1.0,"""event"",""trial"",""time""
""fullscreenenter"",""0"",""4011""
","
","
","""event"",""trial"",""time""
""fullscreenenter"",""0"",""4011""
","
",null,<p></p>,null,,,,,,,,,,,,,,,,,,,,,,,
,do_trial,122,589784,0.0-71.0-0.0,"""event"",""trial"",""time""
""fullscreenenter"",""0"",""4011""
","
","
","""event"",""trial"",""time""
""fullscreenenter"",""0"",""4011""
","
",495.4,,,,,,,,49,"1,1,0",0,coast,17,probe-53,0.600055819,0.427881222,0.154284926,1,,,,,,,,
,html-keyboard-response,123,590799,0.0-71.0-1.0,"""event"",""trial"",""time""
""fullscreenenter"",""0"",""4011""
","
","
","""event"",""trial"",""time""
""fullscreenenter"",""0"",""4011""
","
",null,<p></p>,null,,,,,,,,,,,,,,,,,,,,,,,
,do_trial,124,595982,0.0-72.0-0.0,"""event"",""trial"",""time""
""fullscreenenter"",""0"",""4011""
","
","
","""event"",""trial"",""time""
""fullscreenenter"",""0"",""4011""
","
",626.4,,,,,,,,49,"1,0,0",0,coast,18,probe-46,0.723582512,0.174108111,0.147710394,1,,,,,,,,
,html-keyboard-response,125,596998,0.0-72.0-1.0,"""event"",""trial"",""time""
""fullscreenenter"",""0"",""4011""
","
","
","""event"",""trial"",""time""
""fullscreenenter"",""0"",""4011""
","
",null,<p></p>,null,,,,,,,,,,,,,,,,,,,,,,,
,do_trial,126,602015,0.0-73.0-0.0,"""event"",""trial"",""time""
""fullscreenenter"",""0"",""4011""
","
","
","""event"",""trial"",""time""
""fullscreenenter"",""0"",""4011""
","
",463.4,,,,,,,,49,"0,0,1",0,coast,19,probe-201,0.608455918,0.065434276,0.141146517,0,,,,,,,,
,html-keyboard-response,127,603031,0.0-73.0-1.0,"""event"",""trial"",""time""
""fullscreenenter"",""0"",""4011""
","
","
","""event"",""trial"",""time""
""fullscreenenter"",""0"",""4011""
","
",null,<p></p>,null,,,,,,,,,,,,,,,,,,,,,,,
,do_trial,128,607930,0.0-74.0-0.0,"""event"",""trial"",""time""
""fullscreenenter"",""0"",""4011""
","
","
","""event"",""trial"",""time""
""fullscreenenter"",""0"",""4011""
","
",342.1,,,,,,,,49,"0,0,0",0,coast,20,probe-82,0.643925591,0.164231257,0.052892265,0,,,,,,,,
,html-keyboard-response,129,608945,0.0-74.0-1.0,"""event"",""trial"",""time""
""fullscreenenter"",""0"",""4011""
","
","
","""event"",""trial"",""time""
""fullscreenenter"",""0"",""4011""
","
",null,<p></p>,null,,,,,,,,,,,,,,,,,,,,,,,
,do_trial,130,613763,0.0-75.0-0.0,"""event"",""trial"",""time""
""fullscreenenter"",""0"",""4011""
","
","
","""event"",""trial"",""time""
""fullscreenenter"",""0"",""4011""
","
",264.6,,,,,,,,49,"1,0,0",0,coast,21,probe-200,0.602746343,0.155693734,0.101745337,1,,,,,,,,
,html-keyboard-response,131,614778,0.0-75.0-1.0,"""event"",""trial"",""time""
""fullscreenenter"",""0"",""4011""
","
","
","""event"",""trial"",""time""
""fullscreenenter"",""0"",""4011""
","
",null,<p></p>,null,,,,,,,,,,,,,,,,,,,,,,,
,do_trial,132,619908,0.0-76.0-0.0,"""event"",""trial"",""time""
""fullscreenenter"",""0"",""4011""
","
","
","""event"",""trial"",""time""
""fullscreenenter"",""0"",""4011""
","
",585.4,,,,,,,,49,"1,1,0",0,coast,22,probe-51,0.482945506,0.28021743,0.137962371,1,,,,,,,,
,html-keyboard-response,133,620913,0.0-76.0-1.0,"""event"",""trial"",""time""
""fullscreenenter"",""0"",""4011""
","
","
","""event"",""trial"",""time""
""fullscreenenter"",""0"",""4011""
","
",null,<p></p>,null,,,,,,,,,,,,,,,,,,,,,,,
,do_trial,134,625926,0.0-77.0-0.0,"""event"",""trial"",""time""
""fullscreenenter"",""0"",""4011""
","
","
","""event"",""trial"",""time""
""fullscreenenter"",""0"",""4011""
","
",463.6,,,,,,,,49,"0,0,0",0,coast,23,probe-83,0.482122163,0.180738809,0.112218897,0,,,,,,,,
,html-keyboard-response,135,626937,0.0-77.0-1.0,"""event"",""trial"",""time""
""fullscreenenter"",""0"",""4011""
","
","
","""event"",""trial"",""time""
""fullscreenenter"",""0"",""4011""
","
",null,<p></p>,null,,,,,,,,,,,,,,,,,,,,,,,
,do_trial,136,632061,0.0-78.0-0.0,"""event"",""trial"",""time""
""fullscreenenter"",""0"",""4011""
","
","
","""event"",""trial"",""time""
""fullscreenenter"",""0"",""4011""
","
",555.9,,,,,,,,49,"0,0,1",0,coast,24,probe-181,0.354985247,0.170339512,0.350618779,0,,,,,,,,
,html-keyboard-response,137,633075,0.0-78.0-1.0,"""event"",""trial"",""time""
""fullscreenenter"",""0"",""4011""
","
","
","""event"",""trial"",""time""
""fullscreenenter"",""0"",""4011""
","
",null,<p></p>,null,,,,,,,,,,,,,,,,,,,,,,,
,do_trial,138,637993,0.0-79.0-0.0,"""event"",""trial"",""time""
""fullscreenenter"",""0"",""4011""
","
","
","""event"",""trial"",""time""
""fullscreenenter"",""0"",""4011""
","
",371.1,,,,,,,,49,"0,0,1",0,coast,25,probe-55,0.57284288,0.196239302,0.373307444,0,,,,,,,,
,html-keyboard-response,139,639008,0.0-79.0-1.0,"""event"",""trial"",""time""
""fullscreenenter"",""0"",""4011""
","
","
","""event"",""trial"",""time""
""fullscreenenter"",""0"",""4011""
","
",null,<p></p>,null,,,,,,,,,,,,,,,,,,,,,,,
,do_trial,140,644125,0.0-80.0-0.0,"""event"",""trial"",""time""
""fullscreenenter"",""0"",""4011""
","
","
","""event"",""trial"",""time""
""fullscreenenter"",""0"",""4011""
","
",563.1,,,,,,,,49,"0,0,1",0,coast,26,probe-197,0.548123486,0.267858522,0.378786107,0,,,,,,,,
,html-keyboard-response,141,645141,0.0-80.0-1.0,"""event"",""trial"",""time""
""fullscreenenter"",""0"",""4011""
","
","
","""event"",""trial"",""time""
""fullscreenenter"",""0"",""4011""
","
",null,<p></p>,null,,,,,,,,,,,,,,,,,,,,,,,
,do_trial,142,650507,0.0-81.0-0.0,"""event"",""trial"",""time""
""fullscreenenter"",""0"",""4011""
","
","
","""event"",""trial"",""time""
""fullscreenenter"",""0"",""4011""
","
",796.4,,,,,,,,49,"1,0,1",0,coast,27,probe-146,0.48934136,0.298659589,0.425757643,1,,,,,,,,
,html-keyboard-response,143,651524,0.0-81.0-1.0,"""event"",""trial"",""time""
""fullscreenenter"",""0"",""4011""
","
","
","""event"",""trial"",""time""
""fullscreenenter"",""0"",""4011""
","
",null,<p></p>,null,,,,,,,,,,,,,,,,,,,,,,,
,do_trial,144,656424,0.0-82.0-0.0,"""event"",""trial"",""time""
""fullscreenenter"",""0"",""4011""
","
","
","""event"",""trial"",""time""
""fullscreenenter"",""0"",""4011""
","
",347.8,,,,,,,,49,"0,1,0",0,coast,28,probe-134,0.576896787,0.33360669,0.061718026,0,,,,,,,,
,html-keyboard-response,145,657439,0.0-82.0-1.0,"""event"",""trial"",""time""
""fullscreenenter"",""0"",""4011""
","
","
","""event"",""trial"",""time""
""fullscreenenter"",""0"",""4011""
","
",null,<p></p>,null,,,,,,,,,,,,,,,,,,,,,,,
,do_trial,146,662415,0.0-83.0-0.0,"""event"",""trial"",""time""
""fullscreenenter"",""0"",""4011""
","
","
","""event"",""trial"",""time""
""fullscreenenter"",""0"",""4011""
","
",421.3,,,,,,,,49,"1,0,0",0,coast,29,probe-227,0.444901423,0.320827251,0.164287703,1,,,,,,,,
,html-keyboard-response,147,663422,0.0-83.0-1.0,"""event"",""trial"",""time""
""fullscreenenter"",""0"",""4011""
","
","
","""event"",""trial"",""time""
""fullscreenenter"",""0"",""4011""
","
",null,<p></p>,null,,,,,,,,,,,,,,,,,,,,,,,
,do_bye,148,664929,0.0-84.0-0.0,"""event"",""trial"",""time""
""fullscreenenter"",""0"",""4011""
","
","
","""event"",""trial"",""time""
""fullscreenenter"",""0"",""4011""
","
",null,,,,,,,,null,,,,,,,,,,,,,,,,,
,break,149,677224,0.0-84.0-1.0,"""event"",""trial"",""time""
""fullscreenenter"",""0"",""4011""
","
","
","""event"",""trial"",""time""
""fullscreenenter"",""0"",""4011""
","
",12293.9,"<div class='center'><p>Time to take a quick break! You have 2 minutes to rest, but you can move on sooner if you'd like.</p><p> Press the <b>space bar</b> to continue.</p></div>",32,,,,,,,,,,,,,,,,,,,,,,,
,do_travel,150,686244,0.0-85.0-0.0,"""event"",""trial"",""time""
""fullscreenenter"",""0"",""4011""
","
","
","""event"",""trial"",""time""
""fullscreenenter"",""0"",""4011""
","
",null,,,,,,,,null,,,,,,,,,,,,,,,,,
,do_welcome,151,690264,0.0-85.0-1.0,"""event"",""trial"",""time""
""fullscreenenter"",""0"",""4011""
","
","
","""event"",""trial"",""time""
""fullscreenenter"",""0"",""4011""
","
",null,,,,,,,,null,,,,,,,,,,,,,,,,,
,do_trial,152,696003,0.0-86.0-0.0,"""event"",""trial"",""time""
""fullscreenenter"",""0"",""4011""
","
","
","""event"",""trial"",""time""
""fullscreenenter"",""0"",""4011""
","
",1184.9,,,,,,,,49,"1,0,0",1,countryside,30,probe-208,1,0.434076285,0.148861772,1,,,,,,,,
,html-keyboard-response,153,697023,0.0-86.0-1.0,"""event"",""trial"",""time""
""fullscreenenter"",""0"",""4011""
","
","
","""event"",""trial"",""time""
""fullscreenenter"",""0"",""4011""
","
",null,<p></p>,null,,,,,,,,,,,,,,,,,,,,,,,
,do_trial,154,702703,0.0-87.0-0.0,"""event"",""trial"",""time""
""fullscreenenter"",""0"",""4011""
","
","
","""event"",""trial"",""time""
""fullscreenenter"",""0"",""4011""
","
",1129.1,,,,,,,,49,"1,0,0",1,countryside,31,probe-139,1,0.262968576,0.176461439,1,,,,,,,,
,html-keyboard-response,155,703720,0.0-87.0-1.0,"""event"",""trial"",""time""
""fullscreenenter"",""0"",""4011""
","
","
","""event"",""trial"",""time""
""fullscreenenter"",""0"",""4011""
","
",null,<p></p>,null,,,,,,,,,,,,,,,,,,,,,,,
,do_trial,156,708782,0.0-88.0-0.0,"""event"",""trial"",""time""
""fullscreenenter"",""0"",""4011""
","
","
","""event"",""trial"",""time""
""fullscreenenter"",""0"",""4011""
","
",505.8,,,,,,,,49,"1,0,0",1,countryside,32,probe-107,1,0.29039345,0.274196293,1,,,,,,,,
,html-keyboard-response,157,709796,0.0-88.0-1.0,"""event"",""trial"",""time""
""fullscreenenter"",""0"",""4011""
","
","
","""event"",""trial"",""time""
""fullscreenenter"",""0"",""4011""
","
",null,<p></p>,null,,,,,,,,,,,,,,,,,,,,,,,
,do_trial,158,714796,0.0-89.0-0.0,"""event"",""trial"",""time""
""fullscreenenter"",""0"",""4011""
","
","
","""event"",""trial"",""time""
""fullscreenenter"",""0"",""4011""
","
",451,,,,,,,,49,"0,0,0",1,countryside,33,probe-21,0.791181065,0.378041181,0.135502585,0,,,,,,,,
,html-keyboard-response,159,715810,0.0-89.0-1.0,"""event"",""trial"",""time""
""fullscreenenter"",""0"",""4011""
","
","
","""event"",""trial"",""time""
""fullscreenenter"",""0"",""4011""
","
",null,<p></p>,null,,,,,,,,,,,,,,,,,,,,,,,
,do_trial,160,720933,0.0-90.0-0.0,"""event"",""trial"",""time""
""fullscreenenter"",""0"",""4011""
","
","
","""event"",""trial"",""time""
""fullscreenenter"",""0"",""4011""
","
",571.6,,,,,,,,49,"1,0,0",1,countryside,34,probe-34,0.792828562,0.192855668,0.055446903,1,,,,,,,,
,html-keyboard-response,161,721944,0.0-90.0-1.0,"""event"",""trial"",""time""
""fullscreenenter"",""0"",""4011""
","
","
","""event"",""trial"",""time""
""fullscreenenter"",""0"",""4011""
","
",null,<p></p>,null,,,,,,,,,,,,,,,,,,,,,,,
,do_trial,162,727095,0.0-91.0-0.0,"""event"",""trial"",""time""
""fullscreenenter"",""0"",""4011""
","
","
","""event"",""trial"",""time""
""fullscreenenter"",""0"",""4011""
","
",600.9,,,,,,,,49,"1,0,0",1,countryside,35,probe-186,0.796652312,0.112897599,0.151637679,1,,,,,,,,
,html-keyboard-response,163,728106,0.0-91.0-1.0,"""event"",""trial"",""time""
""fullscreenenter"",""0"",""4011""
","
","
","""event"",""trial"",""time""
""fullscreenenter"",""0"",""4011""
","
",null,<p></p>,null,,,,,,,,,,,,,,,,,,,,,,,
,do_trial,164,733110,0.0-92.0-0.0,"""event"",""trial"",""time""
""fullscreenenter"",""0"",""4011""
","
","
","""event"",""trial"",""time""
""fullscreenenter"",""0"",""4011""
","
",446.8,,,,,,,,49,"0,1,0",1,countryside,36,probe-37,0.723193415,0.196345921,0.151260258,0,,,,,,,,
,html-keyboard-response,165,734126,0.0-92.0-1.0,"""event"",""trial"",""time""
""fullscreenenter"",""0"",""4011""
","
","
","""event"",""trial"",""time""
""fullscreenenter"",""0"",""4011""
","
",null,<p></p>,null,,,,,,,,,,,,,,,,,,,,,,,
,do_trial,166,739075,0.0-93.0-0.0,"""event"",""trial"",""time""
""fullscreenenter"",""0"",""4011""
","
","
","""event"",""trial"",""time""
""fullscreenenter"",""0"",""4011""
","
",393.5,,,,,,,,49,"1,0,1",1,countryside,37,probe-73,0.688419493,0.211008193,0.09309105,1,,,,,,,,
,html-keyboard-response,167,740093,0.0-93.0-1.0,"""event"",""trial"",""time""
""fullscreenenter"",""0"",""4011""
","
","
","""event"",""trial"",""time""
""fullscreenenter"",""0"",""4011""
","
",null,<p></p>,null,,,,,,,,,,,,,,,,,,,,,,,
,do_trial,168,744996,0.0-94.0-0.0,"""event"",""trial"",""time""
""fullscreenenter"",""0"",""4011""
","
","
","""event"",""trial"",""time""
""fullscreenenter"",""0"",""4011""
","
",350.3,,,,,,,,49,"1,0,0",1,countryside,38,probe-31,0.697365906,0.217350459,0.074981069,1,,,,,,,,
,html-keyboard-response,169,746007,0.0-94.0-1.0,"""event"",""trial"",""time""
""fullscreenenter"",""0"",""4011""
","
","
","""event"",""trial"",""time""
""fullscreenenter"",""0"",""4011""
","
",null,<p></p>,null,,,,,,,,,,,,,,,,,,,,,,,
,do_trial,170,750952,0.0-95.0-0.0,"""event"",""trial"",""time""
""fullscreenenter"",""0"",""4011""
","
","
","""event"",""trial"",""time""
""fullscreenenter"",""0"",""4011""
","
",391.7,,,,,,,,49,"1,0,0",1,countryside,39,probe-210,0.752650536,0.254169511,0.216424864,1,,,,,,,,
,html-keyboard-response,171,751958,0.0-95.0-1.0,"""event"",""trial"",""time""
""fullscreenenter"",""0"",""4011""
","
","
","""event"",""trial"",""time""
""fullscreenenter"",""0"",""4011""
","
",null,<p></p>,null,,,,,,,,,,,,,,,,,,,,,,,
,do_trial,172,757372,0.0-96.0-0.0,"""event"",""trial"",""time""
""fullscreenenter"",""0"",""4011""
","
","
","""event"",""trial"",""time""
""fullscreenenter"",""0"",""4011""
","
",838.6,,,,,,,,49,"1,0,0",1,countryside,40,probe-69,0.800910118,0.236879099,0.225521354,1,,,,,,,,
,html-keyboard-response,173,758388,0.0-96.0-1.0,"""event"",""trial"",""time""
""fullscreenenter"",""0"",""4011""
","
","
","""event"",""trial"",""time""
""fullscreenenter"",""0"",""4011""
","
",null,<p></p>,null,,,,,,,,,,,,,,,,,,,,,,,
,do_trial,174,763878,0.0-97.0-0.0,"""event"",""trial"",""time""
""fullscreenenter"",""0"",""4011""
","
","
","""event"",""trial"",""time""
""fullscreenenter"",""0"",""4011""
","
",939,,,,,,,,49,"1,0,0",1,countryside,41,probe-229,0.690691199,0.364580883,0.107570309,1,,,,,,,,
,html-keyboard-response,175,764887,0.0-97.0-1.0,"""event"",""trial"",""time""
""fullscreenenter"",""0"",""4011""
","
","
","""event"",""trial"",""time""
""fullscreenenter"",""0"",""4011""
","
",null,<p></p>,null,,,,,,,,,,,,,,,,,,,,,,,
,do_trial,176,769854,0.0-98.0-0.0,"""event"",""trial"",""time""
""fullscreenenter"",""0"",""4011""
","
","
","""event"",""trial"",""time""
""fullscreenenter"",""0"",""4011""
","
",420.3,,,,,,,,49,"0,0,1",1,countryside,42,probe-188,0.391999883,0.503493737,0.120018375,0,,,,,,,,
,html-keyboard-response,177,770869,0.0-98.0-1.0,"""event"",""trial"",""time""
""fullscreenenter"",""0"",""4011""
","
","
","""event"",""trial"",""time""
""fullscreenenter"",""0"",""4011""
","
",null,<p></p>,null,,,,,,,,,,,,,,,,,,,,,,,
,do_trial,178,775836,0.0-99.0-0.0,"""event"",""trial"",""time""
""fullscreenenter"",""0"",""4011""
","
","
","""event"",""trial"",""time""
""fullscreenenter"",""0"",""4011""
","
",415.7,,,,,,,,49,"0,1,0",1,countryside,43,probe-153,0.312767484,0.686515112,0.083987624,0,,,,,,,,
,html-keyboard-response,179,776851,0.0-99.0-1.0,"""event"",""trial"",""time""
""fullscreenenter"",""0"",""4011""
","
","
","""event"",""trial"",""time""
""fullscreenenter"",""0"",""4011""
","
",null,<p></p>,null,,,,,,,,,,,,,,,,,,,,,,,
,do_trial,180,781767,0.0-100.0-0.0,"""event"",""trial"",""time""
""fullscreenenter"",""0"",""4011""
","
","
","""event"",""trial"",""time""
""fullscreenenter"",""0"",""4011""
","
",359.4,,,,,,,,49,"0,0,0",1,countryside,44,probe-218,0.068433431,0.570999488,0.22335337,0,,,,,,,,
,html-keyboard-response,181,782782,0.0-100.0-1.0,"""event"",""trial"",""time""
""fullscreenenter"",""0"",""4011""
","
","
","""event"",""trial"",""time""
""fullscreenenter"",""0"",""4011""
","
",null,<p></p>,null,,,,,,,,,,,,,,,,,,,,,,,
,do_trial,182,787601,0.0-101.0-0.0,"""event"",""trial"",""time""
""fullscreenenter"",""0"",""4011""
","
","
","""event"",""trial"",""time""
""fullscreenenter"",""0"",""4011""
","
",274.4,,,,,,,,49,"0,1,1",1,countryside,45,probe-130,0.092868884,0.599174566,0.370967069,0,,,,,,,,
,html-keyboard-response,183,788616,0.0-101.0-1.0,"""event"",""trial"",""time""
""fullscreenenter"",""0"",""4011""
","
","
","""event"",""trial"",""time""
""fullscreenenter"",""0"",""4011""
","
",null,<p></p>,null,,,,,,,,,,,,,,,,,,,,,,,
,do_trial,184,794717,0.0-102.0-0.0,"""event"",""trial"",""time""
""fullscreenenter"",""0"",""4011""
","
","
","""event"",""trial"",""time""
""fullscreenenter"",""0"",""4011""
","
",1550.5,,,,,,,,50,"0,1,0",1,countryside,46,probe-15,0.051309132,0.570136643,0.385078619,1,,,,,,,,
,html-keyboard-response,185,795732,0.0-102.0-1.0,"""event"",""trial"",""time""
""fullscreenenter"",""0"",""4011""
","
","
","""event"",""trial"",""time""
""fullscreenenter"",""0"",""4011""
","
",null,<p></p>,null,,,,,,,,,,,,,,,,,,,,,,,
,do_trial,186,800603,0.0-103.0-0.0,"""event"",""trial"",""time""
""fullscreenenter"",""0"",""4011""
","
","
","""event"",""trial"",""time""
""fullscreenenter"",""0"",""4011""
","
",295.2,,,,,,,,50,"0,1,0",1,countryside,47,probe-211,0.097048721,0.52186883,0.484490501,1,,,,,,,,
,html-keyboard-response,187,801614,0.0-103.0-1.0,"""event"",""trial"",""time""
""fullscreenenter"",""0"",""4011""
","
","
","""event"",""trial"",""time""
""fullscreenenter"",""0"",""4011""
","
",null,<p></p>,null,,,,,,,,,,,,,,,,,,,,,,,
,do_trial,188,806547,0.0-104.0-0.0,"""event"",""trial"",""time""
""fullscreenenter"",""0"",""4011""
","
","
","""event"",""trial"",""time""
""fullscreenenter"",""0"",""4011""
","
",375.2,,,,,,,,50,"0,0,0",1,countryside,48,probe-67,0.145263854,0.482065005,0.304758394,0,,,,,,,,
,html-keyboard-response,189,807562,0.0-104.0-1.0,"""event"",""trial"",""time""
""fullscreenenter"",""0"",""4011""
","
","
","""event"",""trial"",""time""
""fullscreenenter"",""0"",""4011""
","
",null,<p></p>,null,,,,,,,,,,,,,,,,,,,,,,,
,do_trial,190,812364,0.0-105.0-0.0,"""event"",""trial"",""time""
""fullscreenenter"",""0"",""4011""
","
","
","""event"",""trial"",""time""
""fullscreenenter"",""0"",""4011""
","
",243.8,,,,,,,,51,"0,0,0",1,countryside,49,probe-101,0.057316724,0.552238099,0.273378604,0,,,,,,,,
,html-keyboard-response,191,813379,0.0-105.0-1.0,"""event"",""trial"",""time""
""fullscreenenter"",""0"",""4011""
","
","
","""event"",""trial"",""time""
""fullscreenenter"",""0"",""4011""
","
",null,<p></p>,null,,,,,,,,,,,,,,,,,,,,,,,
,do_trial,192,818234,0.0-106.0-0.0,"""event"",""trial"",""time""
""fullscreenenter"",""0"",""4011""
","
","
","""event"",""trial"",""time""
""fullscreenenter"",""0"",""4011""
","
",281.5,,,,,,,,50,"0,0,0",1,countryside,50,probe-187,0.082707818,0.541997437,0.201757644,0,,,,,,,,
,html-keyboard-response,193,819251,0.0-106.0-1.0,"""event"",""trial"",""time""
""fullscreenenter"",""0"",""4011""
","
","
","""event"",""trial"",""time""
""fullscreenenter"",""0"",""4011""
","
",null,<p></p>,null,,,,,,,,,,,,,,,,,,,,,,,
,do_trial,194,824162,0.0-107.0-0.0,"""event"",""trial"",""time""
""fullscreenenter"",""0"",""4011""
","
","
","""event"",""trial"",""time""
""fullscreenenter"",""0"",""4011""
","
",339.5,,,,,,,,49,"0,1,0",1,countryside,51,probe-90,0.113851736,0.547339584,0.212131138,0,,,,,,,,
,html-keyboard-response,195,825177,0.0-107.0-1.0,"""event"",""trial"",""time""
""fullscreenenter"",""0"",""4011""
","
","
","""event"",""trial"",""time""
""fullscreenenter"",""0"",""4011""
","
",null,<p></p>,null,,,,,,,,,,,,,,,,,,,,,,,
,do_trial,196,830344,0.0-108.0-0.0,"""event"",""trial"",""time""
""fullscreenenter"",""0"",""4011""
","
","
","""event"",""trial"",""time""
""fullscreenenter"",""0"",""4011""
","
",611.5,,,,,,,,50,"0,1,0",1,countryside,52,probe-230,0.174188615,0.592568384,0.221454362,1,,,,,,,,
,html-keyboard-response,197,831360,0.0-108.0-1.0,"""event"",""trial"",""time""
""fullscreenenter"",""0"",""4011""
","
","
","""event"",""trial"",""time""
""fullscreenenter"",""0"",""4011""
","
",null,<p></p>,null,,,,,,,,,,,,,,,,,,,,,,,
,do_trial,198,836292,0.0-109.0-0.0,"""event"",""trial"",""time""
""fullscreenenter"",""0"",""4011""
","
","
","""event"",""trial"",""time""
""fullscreenenter"",""0"",""4011""
","
",373.8,,,,,,,,50,"0,1,0",1,countryside,53,probe-102,0.125207377,0.633105619,0.095895196,1,,,,,,,,
,html-keyboard-response,199,837308,0.0-109.0-1.0,"""event"",""trial"",""time""
""fullscreenenter"",""0"",""4011""
","
","
","""event"",""trial"",""time""
""fullscreenenter"",""0"",""4011""
","
",null,<p></p>,null,,,,,,,,,,,,,,,,,,,,,,,
,do_trial,200,842417,0.0-110.0-0.0,"""event"",""trial"",""time""
""fullscreenenter"",""0"",""4011""
","
","
","""event"",""trial"",""time""
""fullscreenenter"",""0"",""4011""
","
",562,,,,,,,,50,"0,1,0",1,countryside,54,probe-76,0.222628858,0.678184557,0.132212641,1,,,,,,,,
,html-keyboard-response,201,843425,0.0-110.0-1.0,"""event"",""trial"",""time""
""fullscreenenter"",""0"",""4011""
","
","
","""event"",""trial"",""time""
""fullscreenenter"",""0"",""4011""
","
",null,<p></p>,null,,,,,,,,,,,,,,,,,,,,,,,
,do_trial,202,848308,0.0-111.0-0.0,"""event"",""trial"",""time""
""fullscreenenter"",""0"",""4011""
","
","
","""event"",""trial"",""time""
""fullscreenenter"",""0"",""4011""
","
",337.6,,,,,,,,50,"0,0,0",1,countryside,55,probe-103,0.246369304,0.647239554,0.135807021,0,,,,,,,,
,html-keyboard-response,203,849323,0.0-111.0-1.0,"""event"",""trial"",""time""
""fullscreenenter"",""0"",""4011""
","
","
","""event"",""trial"",""time""
""fullscreenenter"",""0"",""4011""
","
",null,<p></p>,null,,,,,,,,,,,,,,,,,,,,,,,
,do_trial,204,854124,0.0-112.0-0.0,"""event"",""trial"",""time""
""fullscreenenter"",""0"",""4011""
","
","
","""event"",""trial"",""time""
""fullscreenenter"",""0"",""4011""
","
",248.5,,,,,,,,49,"0,0,1",1,countryside,56,probe-149,0.218669563,0.606162278,0.0584037,0,,,,,,,,
,html-keyboard-response,205,855139,0.0-112.0-1.0,"""event"",""trial"",""time""
""fullscreenenter"",""0"",""4011""
","
","
","""event"",""trial"",""time""
""fullscreenenter"",""0"",""4011""
","
",null,<p></p>,null,,,,,,,,,,,,,,,,,,,,,,,
,do_trial,206,859937,0.0-113.0-0.0,"""event"",""trial"",""time""
""fullscreenenter"",""0"",""4011""
","
","
","""event"",""trial"",""time""
""fullscreenenter"",""0"",""4011""
","
",238.6,,,,,,,,50,"0,0,0",1,countryside,57,probe-204,0.0615587,0.557616031,0.191393674,0,,,,,,,,
,html-keyboard-response,207,860954,0.0-113.0-1.0,"""event"",""trial"",""time""
""fullscreenenter"",""0"",""4011""
","
","
","""event"",""trial"",""time""
""fullscreenenter"",""0"",""4011""
","
",null,<p></p>,null,,,,,,,,,,,,,,,,,,,,,,,
,do_trial,208,866139,0.0-114.0-0.0,"""event"",""trial"",""time""
""fullscreenenter"",""0"",""4011""
","
","
","""event"",""trial"",""time""
""fullscreenenter"",""0"",""4011""
","
",627.1,,,,,,,,50,"0,1,1",1,countryside,58,probe-171,0.148378118,0.640041713,0.272997929,1,,,,,,,,
,html-keyboard-response,209,867154,0.0-114.0-1.0,"""event"",""trial"",""time""
""fullscreenenter"",""0"",""4011""
","
","
","""event"",""trial"",""time""
""fullscreenenter"",""0"",""4011""
","
",null,<p></p>,null,,,,,,,,,,,,,,,,,,,,,,,
,do_trial,210,872021,0.0-115.0-0.0,"""event"",""trial"",""time""
""fullscreenenter"",""0"",""4011""
","
","
","""event"",""trial"",""time""
""fullscreenenter"",""0"",""4011""
","
",317.3,,,,,,,,50,"0,1,1",1,countryside,59,probe-166,0.192205288,0.606860638,0.199159114,1,,,,,,,,
,html-keyboard-response,211,873035,0.0-115.0-1.0,"""event"",""trial"",""time""
""fullscreenenter"",""0"",""4011""
","
","
","""event"",""trial"",""time""
""fullscreenenter"",""0"",""4011""
","
",null,<p></p>,null,,,,,,,,,,,,,,,,,,,,,,,
,do_trial,212,877620,0.0-116.0-0.0,"""event"",""trial"",""time""
""fullscreenenter"",""0"",""4011""
","
","
","""event"",""trial"",""time""
""fullscreenenter"",""0"",""4011""
","
",25.5,,,,,,,,50,"0,0,0",1,countryside,60,probe-63,0.183046218,0.546731077,0.22426258,0,,,,,,,,
,html-keyboard-response,213,878635,0.0-116.0-1.0,"""event"",""trial"",""time""
""fullscreenenter"",""0"",""4011""
","
","
","""event"",""trial"",""time""
""fullscreenenter"",""0"",""4011""
","
",null,<p></p>,null,,,,,,,,,,,,,,,,,,,,,,,
,do_trial,214,883918,0.0-117.0-0.0,"""event"",""trial"",""time""
""fullscreenenter"",""0"",""4011""
","
","
","""event"",""trial"",""time""
""fullscreenenter"",""0"",""4011""
","
",727.3,,,,,,,,50,"0,0,0",1,countryside,61,probe-28,0.063400105,0.508683483,0.170346697,0,,,,,,,,
,html-keyboard-response,215,884922,0.0-117.0-1.0,"""event"",""trial"",""time""
""fullscreenenter"",""0"",""4011""
","
","
","""event"",""trial"",""time""
""fullscreenenter"",""0"",""4011""
","
",null,<p></p>,null,,,,,,,,,,,,,,,,,,,,,,,
,do_trial,216,889922,0.0-118.0-0.0,"""event"",""trial"",""time""
""fullscreenenter"",""0"",""4011""
","
","
","""event"",""trial"",""time""
""fullscreenenter"",""0"",""4011""
","
",458.1,,,,,,,,49,"0,1,0",1,countryside,62,probe-123,0.113259913,0.610735409,0.244427997,0,,,,,,,,
,html-keyboard-response,217,890935,0.0-118.0-1.0,"""event"",""trial"",""time""
""fullscreenenter"",""0"",""4011""
","
","
","""event"",""trial"",""time""
""fullscreenenter"",""0"",""4011""
","
",null,<p></p>,null,,,,,,,,,,,,,,,,,,,,,,,
,do_trial,218,895815,0.0-119.0-0.0,"""event"",""trial"",""time""
""fullscreenenter"",""0"",""4011""
","
","
","""event"",""trial"",""time""
""fullscreenenter"",""0"",""4011""
","
",330.6,,,,,,,,51,"0,1,1",1,countryside,63,probe-74,0.111040983,0.548863677,0.332473216,1,,,,,,,,
,html-keyboard-response,219,896832,0.0-119.0-1.0,"""event"",""trial"",""time""
""fullscreenenter"",""0"",""4011""
","
","
","""event"",""trial"",""time""
""fullscreenenter"",""0"",""4011""
","
",null,<p></p>,null,,,,,,,,,,,,,,,,,,,,,,,
,do_trial,220,902024,0.0-120.0-0.0,"""event"",""trial"",""time""
""fullscreenenter"",""0"",""4011""
","
","
","""event"",""trial"",""time""
""fullscreenenter"",""0"",""4011""
","
",647.7,,,,,,,,51,"0,0,0",1,countryside,64,probe-158,0.153998919,0.390266365,0.331501562,0,,,,,,,,
,html-keyboard-response,221,903033,0.0-120.0-1.0,"""event"",""trial"",""time""
""fullscreenenter"",""0"",""4011""
","
","
","""event"",""trial"",""time""
""fullscreenenter"",""0"",""4011""
","
",null,<p></p>,null,,,,,,,,,,,,,,,,,,,,,,,
,do_trial,222,907915,0.0-121.0-0.0,"""event"",""trial"",""time""
""fullscreenenter"",""0"",""4011""
","
","
","""event"",""trial"",""time""
""fullscreenenter"",""0"",""4011""
","
",324.1,,,,,,,,50,"0,0,1",1,countryside,65,probe-128,0.106635355,0.677375734,0.17089325,0,,,,,,,,
,html-keyboard-response,223,908931,0.0-121.0-1.0,"""event"",""trial"",""time""
""fullscreenenter"",""0"",""4011""
","
","
","""event"",""trial"",""time""
""fullscreenenter"",""0"",""4011""
","
",null,<p></p>,null,,,,,,,,,,,,,,,,,,,,,,,
,do_trial,224,914315,0.0-122.0-0.0,"""event"",""trial"",""time""
""fullscreenenter"",""0"",""4011""
","
","
","""event"",""trial"",""time""
""fullscreenenter"",""0"",""4011""
","
",839.2,,,,,,,,49,"0,1,1",1,countryside,66,probe-129,0.134590124,0.684025524,0.140108458,0,,,,,,,,
,html-keyboard-response,225,915330,0.0-122.0-1.0,"""event"",""trial"",""time""
""fullscreenenter"",""0"",""4011""
","
","
","""event"",""trial"",""time""
""fullscreenenter"",""0"",""4011""
","
",null,<p></p>,null,,,,,,,,,,,,,,,,,,,,,,,
,do_trial,226,920783,0.0-123.0-0.0,"""event"",""trial"",""time""
""fullscreenenter"",""0"",""4011""
","
","
","""event"",""trial"",""time""
""fullscreenenter"",""0"",""4011""
","
",899.9,,,,,,,,51,"1,1,1",1,countryside,67,probe-190,0.110016327,0.695722757,0.190348574,1,,,,,,,,
,html-keyboard-response,227,921794,0.0-123.0-1.0,"""event"",""trial"",""time""
""fullscreenenter"",""0"",""4011""
","
","
","""event"",""trial"",""time""
""fullscreenenter"",""0"",""4011""
","
",null,<p></p>,null,,,,,,,,,,,,,,,,,,,,,,,
,do_trial,228,926662,0.0-124.0-0.0,"""event"",""trial"",""time""
""fullscreenenter"",""0"",""4011""
","
","
","""event"",""trial"",""time""
""fullscreenenter"",""0"",""4011""
","
",307,,,,,,,,51,"0,1,0",1,countryside,68,probe-142,0.077027683,0.755232481,0.324440218,0,,,,,,,,
,html-keyboard-response,229,927678,0.0-124.0-1.0,"""event"",""trial"",""time""
""fullscreenenter"",""0"",""4011""
","
","
","""event"",""trial"",""time""
""fullscreenenter"",""0"",""4011""
","
",null,<p></p>,null,,,,,,,,,,,,,,,,,,,,,,,
,do_trial,230,932560,0.0-125.0-0.0,"""event"",""trial"",""time""
""fullscreenenter"",""0"",""4011""
","
","
","""event"",""trial"",""time""
""fullscreenenter"",""0"",""4011""
","
",325.2,,,,,,,,50,"0,1,1",1,countryside,69,probe-140,0.053591639,0.793285245,0.265472136,1,,,,,,,,
,html-keyboard-response,231,933577,0.0-125.0-1.0,"""event"",""trial"",""time""
""fullscreenenter"",""0"",""4011""
","
","
","""event"",""trial"",""time""
""fullscreenenter"",""0"",""4011""
","
",null,<p></p>,null,,,,,,,,,,,,,,,,,,,,,,,
,do_bye,232,935094,0.0-126.0-0.0,"""event"",""trial"",""time""
""fullscreenenter"",""0"",""4011""
","
","
","""event"",""trial"",""time""
""fullscreenenter"",""0"",""4011""
","
",null,,,,,,,,null,,,,,,,,,,,,,,,,,
,break,233,983951,0.0-126.0-1.0,"""event"",""trial"",""time""
""fullscreenenter"",""0"",""4011""
","
","
","""event"",""trial"",""time""
""fullscreenenter"",""0"",""4011""
","
",48854.7,"<div class='center'><p>Time to take a quick break! You have 2 minutes to rest, but you can move on sooner if you'd like.</p><p> Press the <b>space bar</b> to continue.</p></div>",32,,,,,,,,,,,,,,,,,,,,,,,
,do_travel,234,992962,0.0-127.0-0.0,"""event"",""trial"",""time""
""fullscreenenter"",""0"",""4011""
","
","
","""event"",""trial"",""time""
""fullscreenenter"",""0"",""4011""
","
",null,,,,,,,,null,,,,,,,,,,,,,,,,,
,do_welcome,235,996972,0.0-127.0-1.0,"""event"",""trial"",""time""
""fullscreenenter"",""0"",""4011""
","
","
","""event"",""trial"",""time""
""fullscreenenter"",""0"",""4011""
","
",null,,,,,,,,null,,,,,,,,,,,,,,,,,
,do_trial,236,1002522,0.0-128.0-0.0,"""event"",""trial"",""time""
""fullscreenenter"",""0"",""4011""
","
","
","""event"",""trial"",""time""
""fullscreenenter"",""0"",""4011""
","
",978.6,,,,,,,,49,"0,1,1",2,city,70,probe-70,0.066525061,1,0.279223963,0,,,,,,,,
,html-keyboard-response,237,1003542,0.0-128.0-1.0,"""event"",""trial"",""time""
""fullscreenenter"",""0"",""4011""
","
","
","""event"",""trial"",""time""
""fullscreenenter"",""0"",""4011""
","
",null,<p></p>,null,,,,,,,,,,,,,,,,,,,,,,,
,do_trial,238,1008716,0.0-129.0-0.0,"""event"",""trial"",""time""
""fullscreenenter"",""0"",""4011""
","
","
","""event"",""trial"",""time""
""fullscreenenter"",""0"",""4011""
","
",618.4,,,,,,,,50,"0,1,1",2,city,71,probe-133,0.051581967,1,0.335369173,1,,,,,,,,
,html-keyboard-response,239,1009732,0.0-129.0-1.0,"""event"",""trial"",""time""
""fullscreenenter"",""0"",""4011""
","
","
","""event"",""trial"",""time""
""fullscreenenter"",""0"",""4011""
","
",null,<p></p>,null,,,,,,,,,,,,,,,,,,,,,,,
,do_trial,240,1014864,0.0-130.0-0.0,"""event"",""trial"",""time""
""fullscreenenter"",""0"",""4011""
","
","
","""event"",""trial"",""time""
""fullscreenenter"",""0"",""4011""
","
",583.3,,,,,,,,50,"0,1,0",2,city,72,probe-07,0.112648933,0.700077458,0.347995823,1,,,,,,,,
,html-keyboard-response,241,1015880,0.0-130.0-1.0,"""event"",""trial"",""time""
""fullscreenenter"",""0"",""4011""
","
","
","""event"",""trial"",""time""
""fullscreenenter"",""0"",""4011""
","
",null,<p></p>,null,,,,,,,,,,,,,,,,,,,,,,,
,do_trial,242,1020797,0.0-131.0-0.0,"""event"",""trial"",""time""
""fullscreenenter"",""0"",""4011""
","
","
","""event"",""trial"",""time""
""fullscreenenter"",""0"",""4011""
","
",366.5,,,,,,,,50,"0,1,0",2,city,73,probe-161,0.07759477,0.604236248,0.278704267,1,,,,,,,,
,html-keyboard-response,243,1021813,0.0-131.0-1.0,"""event"",""trial"",""time""
""fullscreenenter"",""0"",""4011""
","
","
","""event"",""trial"",""time""
""fullscreenenter"",""0"",""4011""
","
",null,<p></p>,null,,,,,,,,,,,,,,,,,,,,,,,
,do_trial,244,1026679,0.0-132.0-0.0,"""event"",""trial"",""time""
""fullscreenenter"",""0"",""4011""
","
","
","""event"",""trial"",""time""
""fullscreenenter"",""0"",""4011""
","
",309.5,,,,,,,,50,"0,1,0",2,city,74,probe-92,0.095023035,0.658028483,0.27090913,1,,,,,,,,
,html-keyboard-response,245,1027695,0.0-132.0-1.0,"""event"",""trial"",""time""
""fullscreenenter"",""0"",""4011""
","
","
","""event"",""trial"",""time""
""fullscreenenter"",""0"",""4011""
","
",null,<p></p>,null,,,,,,,,,,,,,,,,,,,,,,,
,do_trial,246,1032747,0.0-133.0-0.0,"""event"",""trial"",""time""
""fullscreenenter"",""0"",""4011""
","
","
","""event"",""trial"",""time""
""fullscreenenter"",""0"",""4011""
","
",509.4,,,,,,,,50,"0,1,0",2,city,75,probe-100,0.117787644,0.605182029,0.222232562,1,,,,,,,,
,html-keyboard-response,247,1033761,0.0-133.0-1.0,"""event"",""trial"",""time""
""fullscreenenter"",""0"",""4011""
","
","
","""event"",""trial"",""time""
""fullscreenenter"",""0"",""4011""
","
",null,<p></p>,null,,,,,,,,,,,,,,,,,,,,,,,
,do_trial,248,1038794,0.0-134.0-0.0,"""event"",""trial"",""time""
""fullscreenenter"",""0"",""4011""
","
","
","""event"",""trial"",""time""
""fullscreenenter"",""0"",""4011""
","
",481.5,,,,,,,,50,"0,0,0",2,city,76,probe-114,0.097099688,0.552758738,0.244858616,0,,,,,,,,
,html-keyboard-response,249,1039809,0.0-134.0-1.0,"""event"",""trial"",""time""
""fullscreenenter"",""0"",""4011""
","
","
","""event"",""trial"",""time""
""fullscreenenter"",""0"",""4011""
","
",null,<p></p>,null,,,,,,,,,,,,,,,,,,,,,,,
,do_trial,250,1044979,0.0-135.0-0.0,"""event"",""trial"",""time""
""fullscreenenter"",""0"",""4011""
","
","
","""event"",""trial"",""time""
""fullscreenenter"",""0"",""4011""
","
",621.4,,,,,,,,50,"0,1,0",2,city,77,probe-36,0.059778989,0.576835789,0.332727142,1,,,,,,,,
,html-keyboard-response,251,1045992,0.0-135.0-1.0,"""event"",""trial"",""time""
""fullscreenenter"",""0"",""4011""
","
","
","""event"",""trial"",""time""
""fullscreenenter"",""0"",""4011""
","
",null,<p></p>,null,,,,,,,,,,,,,,,,,,,,,,,
,do_trial,252,1051474,0.0-136.0-0.0,"""event"",""trial"",""time""
""fullscreenenter"",""0"",""4011""
","
","
","""event"",""trial"",""time""
""fullscreenenter"",""0"",""4011""
","
",929.7,,,,,,,,50,"0,1,1",2,city,78,probe-205,0.060651248,0.582555412,0.321675494,1,,,,,,,,
,html-keyboard-response,253,1052489,0.0-136.0-1.0,"""event"",""trial"",""time""
""fullscreenenter"",""0"",""4011""
","
","
","""event"",""trial"",""time""
""fullscreenenter"",""0"",""4011""
","
",null,<p></p>,null,,,,,,,,,,,,,,,,,,,,,,,
,do_trial,254,1057457,0.0-137.0-0.0,"""event"",""trial"",""time""
""fullscreenenter"",""0"",""4011""
","
","
","""event"",""trial"",""time""
""fullscreenenter"",""0"",""4011""
","
",422.7,,,,,,,,50,"0,1,0",2,city,79,probe-145,0.137420695,0.597118848,0.185465898,1,,,,,,,,
,html-keyboard-response,255,1058472,0.0-137.0-1.0,"""event"",""trial"",""time""
""fullscreenenter"",""0"",""4011""
","
","
","""event"",""trial"",""time""
""fullscreenenter"",""0"",""4011""
","
",null,<p></p>,null,,,,,,,,,,,,,,,,,,,,,,,
,do_trial,256,1063556,0.0-138.0-0.0,"""event"",""trial"",""time""
""fullscreenenter"",""0"",""4011""
","
","
","""event"",""trial"",""time""
""fullscreenenter"",""0"",""4011""
","
",534.7,,,,,,,,50,"0,1,1",2,city,80,probe-122,0.078664332,0.72480923,0.165288646,1,,,,,,,,
,html-keyboard-response,257,1064572,0.0-138.0-1.0,"""event"",""trial"",""time""
""fullscreenenter"",""0"",""4011""
","
","
","""event"",""trial"",""time""
""fullscreenenter"",""0"",""4011""
","
",null,<p></p>,null,,,,,,,,,,,,,,,,,,,,,,,
,do_trial,258,1069705,0.0-139.0-0.0,"""event"",""trial"",""time""
""fullscreenenter"",""0"",""4011""
","
","
","""event"",""trial"",""time""
""fullscreenenter"",""0"",""4011""
","
",558.8,,,,,,,,50,"0,1,0",2,city,81,probe-198,0.079347804,0.637347269,0.095093615,1,,,,,,,,
,html-keyboard-response,259,1070721,0.0-139.0-1.0,"""event"",""trial"",""time""
""fullscreenenter"",""0"",""4011""
","
","
","""event"",""trial"",""time""
""fullscreenenter"",""0"",""4011""
","
",null,<p></p>,null,,,,,,,,,,,,,,,,,,,,,,,
,do_trial,260,1075588,0.0-140.0-0.0,"""event"",""trial"",""time""
""fullscreenenter"",""0"",""4011""
","
","
","""event"",""trial"",""time""
""fullscreenenter"",""0"",""4011""
","
",304.6,,,,,,,,50,"0,0,0",2,city,82,probe-126,0.344784023,0.471590391,0.081235868,0,,,,,,,,
,html-keyboard-response,261,1076600,0.0-140.0-1.0,"""event"",""trial"",""time""
""fullscreenenter"",""0"",""4011""
","
","
","""event"",""trial"",""time""
""fullscreenenter"",""0"",""4011""
","
",null,<p></p>,null,,,,,,,,,,,,,,,,,,,,,,,
,do_trial,262,1081453,0.0-141.0-0.0,"""event"",""trial"",""time""
""fullscreenenter"",""0"",""4011""
","
","
","""event"",""trial"",""time""
""fullscreenenter"",""0"",""4011""
","
",302,,,,,,,,50,"0,0,0",2,city,83,probe-24,0.349812532,0.242528256,0.112336483,0,,,,,,,,
,html-keyboard-response,263,1082463,0.0-141.0-1.0,"""event"",""trial"",""time""
""fullscreenenter"",""0"",""4011""
","
","
","""event"",""trial"",""time""
""fullscreenenter"",""0"",""4011""
","
",null,<p></p>,null,,,,,,,,,,,,,,,,,,,,,,,
,do_trial,264,1087836,0.0-142.0-0.0,"""event"",""trial"",""time""
""fullscreenenter"",""0"",""4011""
","
","
","""event"",""trial"",""time""
""fullscreenenter"",""0"",""4011""
","
",807.1,,,,,,,,51,"1,1,0",2,city,84,probe-66,0.46052156,0.172863637,0.425098337,0,,,,,,,,
,html-keyboard-response,265,1088851,0.0-142.0-1.0,"""event"",""trial"",""time""
""fullscreenenter"",""0"",""4011""
","
","
","""event"",""trial"",""time""
""fullscreenenter"",""0"",""4011""
","
",null,<p></p>,null,,,,,,,,,,,,,,,,,,,,,,,
,do_trial,266,1093849,0.0-143.0-0.0,"""event"",""trial"",""time""
""fullscreenenter"",""0"",""4011""
","
","
","""event"",""trial"",""time""
""fullscreenenter"",""0"",""4011""
","
",437.6,,,,,,,,49,"0,0,0",2,city,85,probe-131,0.574299279,0.163309559,0.367151738,0,,,,,,,,
,html-keyboard-response,267,1094866,0.0-143.0-1.0,"""event"",""trial"",""time""
""fullscreenenter"",""0"",""4011""
","
","
","""event"",""trial"",""time""
""fullscreenenter"",""0"",""4011""
","
",null,<p></p>,null,,,,,,,,,,,,,,,,,,,,,,,
,do_trial,268,1099682,0.0-144.0-0.0,"""event"",""trial"",""time""
""fullscreenenter"",""0"",""4011""
","
","
","""event"",""trial"",""time""
""fullscreenenter"",""0"",""4011""
","
",258.8,,,,,,,,50,"0,0,1",2,city,86,probe-195,0.470403936,0.127118665,0.393867576,0,,,,,,,,
,html-keyboard-response,269,1100699,0.0-144.0-1.0,"""event"",""trial"",""time""
""fullscreenenter"",""0"",""4011""
","
","
","""event"",""trial"",""time""
""fullscreenenter"",""0"",""4011""
","
",null,<p></p>,null,,,,,,,,,,,,,,,,,,,,,,,
,do_trial,270,1105600,0.0-145.0-0.0,"""event"",""trial"",""time""
""fullscreenenter"",""0"",""4011""
","
","
","""event"",""trial"",""time""
""fullscreenenter"",""0"",""4011""
","
",350.6,,,,,,,,50,"1,0,0",2,city,87,probe-111,0.548568821,0.130237587,0.357174097,0,,,,,,,,
,html-keyboard-response,271,1106615,0.0-145.0-1.0,"""event"",""trial"",""time""
""fullscreenenter"",""0"",""4011""
","
","
","""event"",""trial"",""time""
""fullscreenenter"",""0"",""4011""
","
",null,<p></p>,null,,,,,,,,,,,,,,,,,,,,,,,
,do_trial,272,1111782,0.0-146.0-0.0,"""event"",""trial"",""time""
""fullscreenenter"",""0"",""4011""
","
","
","""event"",""trial"",""time""
""fullscreenenter"",""0"",""4011""
","
",611.5,,,,,,,,49,"1,0,0",2,city,88,probe-62,0.445356452,0.114062125,0.395616697,1,,,,,,,,
,html-keyboard-response,273,1112798,0.0-146.0-1.0,"""event"",""trial"",""time""
""fullscreenenter"",""0"",""4011""
","
","
","""event"",""trial"",""time""
""fullscreenenter"",""0"",""4011""
","
",null,<p></p>,null,,,,,,,,,,,,,,,,,,,,,,,
,do_trial,274,1117696,0.0-147.0-0.0,"""event"",""trial"",""time""
""fullscreenenter"",""0"",""4011""
","
","
","""event"",""trial"",""time""
""fullscreenenter"",""0"",""4011""
","
",343.5,,,,,,,,49,"1,1,0",2,city,89,probe-162,0.627571753,0.23615092,0.226184853,1,,,,,,,,
,html-keyboard-response,275,1118713,0.0-147.0-1.0,"""event"",""trial"",""time""
""fullscreenenter"",""0"",""4011""
","
","
","""event"",""trial"",""time""
""fullscreenenter"",""0"",""4011""
","
",null,<p></p>,null,,,,,,,,,,,,,,,,,,,,,,,
,do_trial,276,1123722,0.0-148.0-0.0,"""event"",""trial"",""time""
""fullscreenenter"",""0"",""4011""
","
","
","""event"",""trial"",""time""
""fullscreenenter"",""0"",""4011""
","
",455.4,,,,,,,,49,"0,0,0",2,city,90,probe-71,0.666066333,0.239900787,0.119832051,0,,,,,,,,
,html-keyboard-response,277,1124730,0.0-148.0-1.0,"""event"",""trial"",""time""
""fullscreenenter"",""0"",""4011""
","
","
","""event"",""trial"",""time""
""fullscreenenter"",""0"",""4011""
","
",null,<p></p>,null,,,,,,,,,,,,,,,,,,,,,,,
,do_trial,278,1129677,0.0-149.0-0.0,"""event"",""trial"",""time""
""fullscreenenter"",""0"",""4011""
","
","
","""event"",""trial"",""time""
""fullscreenenter"",""0"",""4011""
","
",393.7,,,,,,,,49,"0,0,0",2,city,91,probe-94,0.676718172,0.232525893,0.197220872,0,,,,,,,,
,html-keyboard-response,279,1130695,0.0-149.0-1.0,"""event"",""trial"",""time""
""fullscreenenter"",""0"",""4011""
","
","
","""event"",""trial"",""time""
""fullscreenenter"",""0"",""4011""
","
",null,<p></p>,null,,,,,,,,,,,,,,,,,,,,,,,
,do_trial,280,1135843,0.0-150.0-0.0,"""event"",""trial"",""time""
""fullscreenenter"",""0"",""4011""
","
","
","""event"",""trial"",""time""
""fullscreenenter"",""0"",""4011""
","
",596.9,,,,,,,,50,"0,0,0",2,city,92,probe-52,0.568780232,0.255675454,0.247464826,0,,,,,,,,
,html-keyboard-response,281,1136860,0.0-150.0-1.0,"""event"",""trial"",""time""
""fullscreenenter"",""0"",""4011""
","
","
","""event"",""trial"",""time""
""fullscreenenter"",""0"",""4011""
","
",null,<p></p>,null,,,,,,,,,,,,,,,,,,,,,,,
,do_trial,282,1141977,0.0-151.0-0.0,"""event"",""trial"",""time""
""fullscreenenter"",""0"",""4011""
","
","
","""event"",""trial"",""time""
""fullscreenenter"",""0"",""4011""
","
",572,,,,,,,,51,"1,0,0",2,city,93,probe-172,0.592514528,0.290988844,0.265907028,0,,,,,,,,
,html-keyboard-response,283,1142992,0.0-151.0-1.0,"""event"",""trial"",""time""
""fullscreenenter"",""0"",""4011""
","
","
","""event"",""trial"",""time""
""fullscreenenter"",""0"",""4011""
","
",null,<p></p>,null,,,,,,,,,,,,,,,,,,,,,,,
,do_trial,284,1148809,0.0-152.0-0.0,"""event"",""trial"",""time""
""fullscreenenter"",""0"",""4011""
","
","
","""event"",""trial"",""time""
""fullscreenenter"",""0"",""4011""
","
",1267.9,,,,,,,,49,"1,0,1",2,city,94,probe-193,0.745772868,0.3356602,0.237847415,1,,,,,,,,
,html-keyboard-response,285,1149825,0.0-152.0-1.0,"""event"",""trial"",""time""
""fullscreenenter"",""0"",""4011""
","
","
","""event"",""trial"",""time""
""fullscreenenter"",""0"",""4011""
","
",null,<p></p>,null,,,,,,,,,,,,,,,,,,,,,,,
,do_trial,286,1154689,0.0-153.0-0.0,"""event"",""trial"",""time""
""fullscreenenter"",""0"",""4011""
","
","
","""event"",""trial"",""time""
""fullscreenenter"",""0"",""4011""
","
",314.8,,,,,,,,49,"1,1,0",2,city,95,probe-120,0.648603339,0.136463891,0.260078798,1,,,,,,,,
,html-keyboard-response,287,1155690,0.0-153.0-1.0,"""event"",""trial"",""time""
""fullscreenenter"",""0"",""4011""
","
","
","""event"",""trial"",""time""
""fullscreenenter"",""0"",""4011""
","
",null,<p></p>,null,,,,,,,,,,,,,,,,,,,,,,,
,do_trial,288,1160589,0.0-154.0-0.0,"""event"",""trial"",""time""
""fullscreenenter"",""0"",""4011""
","
","
","""event"",""trial"",""time""
""fullscreenenter"",""0"",""4011""
","
",349.6,,,,,,,,49,"1,0,0",2,city,96,probe-127,0.579814656,0.060326209,0.309769057,1,,,,,,,,
,html-keyboard-response,289,1161592,0.0-154.0-1.0,"""event"",""trial"",""time""
""fullscreenenter"",""0"",""4011""
","
","
","""event"",""trial"",""time""
""fullscreenenter"",""0"",""4011""
","
",null,<p></p>,null,,,,,,,,,,,,,,,,,,,,,,,
,do_trial,290,1166656,0.0-155.0-0.0,"""event"",""trial"",""time""
""fullscreenenter"",""0"",""4011""
","
","
","""event"",""trial"",""time""
""fullscreenenter"",""0"",""4011""
","
",514.6,,,,,,,,49,"0,0,0",2,city,97,probe-147,0.566334208,0.081237667,0.352180348,0,,,,,,,,
,html-keyboard-response,291,1167671,0.0-155.0-1.0,"""event"",""trial"",""time""
""fullscreenenter"",""0"",""4011""
","
","
","""event"",""trial"",""time""
""fullscreenenter"",""0"",""4011""
","
",null,<p></p>,null,,,,,,,,,,,,,,,,,,,,,,,
,do_trial,292,1172571,0.0-156.0-0.0,"""event"",""trial"",""time""
""fullscreenenter"",""0"",""4011""
","
","
","""event"",""trial"",""time""
""fullscreenenter"",""0"",""4011""
","
",354.8,,,,,,,,49,"1,0,0",2,city,98,probe-42,0.725980937,0.199723015,0.362376315,1,,,,,,,,
,html-keyboard-response,293,1173587,0.0-156.0-1.0,"""event"",""trial"",""time""
""fullscreenenter"",""0"",""4011""
","
","
","""event"",""trial"",""time""
""fullscreenenter"",""0"",""4011""
","
",null,<p></p>,null,,,,,,,,,,,,,,,,,,,,,,,
,do_trial,294,1179402,0.0-157.0-0.0,"""event"",""trial"",""time""
""fullscreenenter"",""0"",""4011""
","
","
","""event"",""trial"",""time""
""fullscreenenter"",""0"",""4011""
","
",1264.7,,,,,,,,49,"0,0,0",2,city,99,probe-124,0.733376223,0.193400125,0.267823609,0,,,,,,,,
,html-keyboard-response,295,1180419,0.0-157.0-1.0,"""event"",""trial"",""time""
""fullscreenenter"",""0"",""4011""
","
","
","""event"",""trial"",""time""
""fullscreenenter"",""0"",""4011""
","
",null,<p></p>,null,,,,,,,,,,,,,,,,,,,,,,,
,do_trial,296,1185279,0.0-158.0-0.0,"""event"",""trial"",""time""
""fullscreenenter"",""0"",""4011""
","
","
","""event"",""trial"",""time""
""fullscreenenter"",""0"",""4011""
","
",302.5,,,,,,,,49,"1,1,0",2,city,100,probe-150,0.752672227,0.346075517,0.230442182,1,,,,,,,,
,html-keyboard-response,297,1186285,0.0-158.0-1.0,"""event"",""trial"",""time""
""fullscreenenter"",""0"",""4011""
","
","
","""event"",""trial"",""time""
""fullscreenenter"",""0"",""4011""
","
",null,<p></p>,null,,,,,,,,,,,,,,,,,,,,,,,
,do_trial,298,1191118,0.0-159.0-0.0,"""event"",""trial"",""time""
""fullscreenenter"",""0"",""4011""
","
","
","""event"",""trial"",""time""
""fullscreenenter"",""0"",""4011""
","
",282.2,,,,,,,,49,"1,1,1",2,city,101,probe-16,0.657297489,0.195727283,0.234639575,1,,,,,,,,
,html-keyboard-response,299,1192134,0.0-159.0-1.0,"""event"",""trial"",""time""
""fullscreenenter"",""0"",""4011""
","
","
","""event"",""trial"",""time""
""fullscreenenter"",""0"",""4011""
","
",null,<p></p>,null,,,,,,,,,,,,,,,,,,,,,,,
,do_trial,300,1197051,0.0-160.0-0.0,"""event"",""trial"",""time""
""fullscreenenter"",""0"",""4011""
","
","
","""event"",""trial"",""time""
""fullscreenenter"",""0"",""4011""
","
",359.8,,,,,,,,49,"1,0,0",2,city,102,probe-47,0.485796818,0.173422845,0.309136378,1,,,,,,,,
,html-keyboard-response,301,1198057,0.0-160.0-1.0,"""event"",""trial"",""time""
""fullscreenenter"",""0"",""4011""
","
","
","""event"",""trial"",""time""
""fullscreenenter"",""0"",""4011""
","
",null,<p></p>,null,,,,,,,,,,,,,,,,,,,,,,,
,do_trial,302,1202933,0.0-161.0-0.0,"""event"",""trial"",""time""
""fullscreenenter"",""0"",""4011""
","
","
","""event"",""trial"",""time""
""fullscreenenter"",""0"",""4011""
","
",320,,,,,,,,49,"0,0,0",2,city,103,probe-50,0.588965202,0.127170646,0.30209926,0,,,,,,,,
,html-keyboard-response,303,1203950,0.0-161.0-1.0,"""event"",""trial"",""time""
""fullscreenenter"",""0"",""4011""
","
","
","""event"",""trial"",""time""
""fullscreenenter"",""0"",""4011""
","
",null,<p></p>,null,,,,,,,,,,,,,,,,,,,,,,,
,do_trial,304,1208832,0.0-162.0-0.0,"""event"",""trial"",""time""
""fullscreenenter"",""0"",""4011""
","
","
","""event"",""trial"",""time""
""fullscreenenter"",""0"",""4011""
","
",335.2,,,,,,,,49,"1,0,0",2,city,104,probe-217,0.544032785,0.085741468,0.436601256,1,,,,,,,,
,html-keyboard-response,305,1209847,0.0-162.0-1.0,"""event"",""trial"",""time""
""fullscreenenter"",""0"",""4011""
","
","
","""event"",""trial"",""time""
""fullscreenenter"",""0"",""4011""
","
",null,<p></p>,null,,,,,,,,,,,,,,,,,,,,,,,
,do_trial,306,1214784,0.0-163.0-0.0,"""event"",""trial"",""time""
""fullscreenenter"",""0"",""4011""
","
","
","""event"",""trial"",""time""
""fullscreenenter"",""0"",""4011""
","
",386.1,,,,,,,,49,"1,1,0",2,city,105,probe-41,0.593497288,0.119432387,0.485654247,1,,,,,,,,
,html-keyboard-response,307,1215796,0.0-163.0-1.0,"""event"",""trial"",""time""
""fullscreenenter"",""0"",""4011""
","
","
","""event"",""trial"",""time""
""fullscreenenter"",""0"",""4011""
","
",null,<p></p>,null,,,,,,,,,,,,,,,,,,,,,,,
,do_trial,308,1220614,0.0-164.0-0.0,"""event"",""trial"",""time""
""fullscreenenter"",""0"",""4011""
","
","
","""event"",""trial"",""time""
""fullscreenenter"",""0"",""4011""
","
",271.3,,,,,,,,49,"0,0,1",2,city,106,probe-84,0.75110288,0.149847193,0.481149037,0,,,,,,,,
,html-keyboard-response,309,1221630,0.0-164.0-1.0,"""event"",""trial"",""time""
""fullscreenenter"",""0"",""4011""
","
","
","""event"",""trial"",""time""
""fullscreenenter"",""0"",""4011""
","
",null,<p></p>,null,,,,,,,,,,,,,,,,,,,,,,,
,do_trial,310,1226522,0.0-165.0-0.0,"""event"",""trial"",""time""
""fullscreenenter"",""0"",""4011""
","
","
","""event"",""trial"",""time""
""fullscreenenter"",""0"",""4011""
","
",339.2,,,,,,,,49,"1,0,0",2,city,107,probe-98,0.62010914,0.099294551,0.468278964,1,,,,,,,,
,html-keyboard-response,311,1227531,0.0-165.0-1.0,"""event"",""trial"",""time""
""fullscreenenter"",""0"",""4011""
","
","
","""event"",""trial"",""time""
""fullscreenenter"",""0"",""4011""
","
",null,<p></p>,null,,,,,,,,,,,,,,,,,,,,,,,
,do_trial,312,1232581,0.0-166.0-0.0,"""event"",""trial"",""time""
""fullscreenenter"",""0"",""4011""
","
","
","""event"",""trial"",""time""
""fullscreenenter"",""0"",""4011""
","
",470.6,,,,,,,,49,"1,0,1",2,city,108,probe-168,0.532323396,0.063185632,0.469764078,1,,,,,,,,
,html-keyboard-response,313,1233594,0.0-166.0-1.0,"""event"",""trial"",""time""
""fullscreenenter"",""0"",""4011""
","
","
","""event"",""trial"",""time""
""fullscreenenter"",""0"",""4011""
","
",null,<p></p>,null,,,,,,,,,,,,,,,,,,,,,,,
,do_trial,314,1238530,0.0-167.0-0.0,"""event"",""trial"",""time""
""fullscreenenter"",""0"",""4011""
","
","
","""event"",""trial"",""time""
""fullscreenenter"",""0"",""4011""
","
",388.9,,,,,,,,49,"0,0,1",2,city,109,probe-05,0.445870217,0.086606482,0.348191024,0,,,,,,,,
,html-keyboard-response,315,1239544,0.0-167.0-1.0,"""event"",""trial"",""time""
""fullscreenenter"",""0"",""4011""
","
","
","""event"",""trial"",""time""
""fullscreenenter"",""0"",""4011""
","
",null,<p></p>,null,,,,,,,,,,,,,,,,,,,,,,,
,do_bye,316,1241060,0.0-168.0-0.0,"""event"",""trial"",""time""
""fullscreenenter"",""0"",""4011""
","
","
","""event"",""trial"",""time""
""fullscreenenter"",""0"",""4011""
","
",null,,,,,,,,null,,,,,,,,,,,,,,,,,
,break,317,1296130,0.0-168.0-1.0,"""event"",""trial"",""time""
""fullscreenenter"",""0"",""4011""
","
","
","""event"",""trial"",""time""
""fullscreenenter"",""0"",""4011""
","
",55067.7,"<div class='center'><p>Time to take a quick break! You have 2 minutes to rest, but you can move on sooner if you'd like.</p><p> Press the <b>space bar</b> to continue.</p></div>",32,,,,,,,,,,,,,,,,,,,,,,,
,do_travel,318,1305151,0.0-169.0-0.0,"""event"",""trial"",""time""
""fullscreenenter"",""0"",""4011""
","
","
","""event"",""trial"",""time""
""fullscreenenter"",""0"",""4011""
","
",null,,,,,,,,null,,,,,,,,,,,,,,,,,
,do_welcome,319,1309171,0.0-169.0-1.0,"""event"",""trial"",""time""
""fullscreenenter"",""0"",""4011""
","
","
","""event"",""trial"",""time""
""fullscreenenter"",""0"",""4011""
","
",null,,,,,,,,null,,,,,,,,,,,,,,,,,
,do_trial,320,1315411,0.0-170.0-0.0,"""event"",""trial"",""time""
""fullscreenenter"",""0"",""4011""
","
","
","""event"",""trial"",""time""
""fullscreenenter"",""0"",""4011""
","
",1661.3,,,,,,,,51,"1,0,0",3,forest,110,probe-39,1,0.209554564,0.253667617,0,,,,,,,,
,html-keyboard-response,321,1316430,0.0-170.0-1.0,"""event"",""trial"",""time""
""fullscreenenter"",""0"",""4011""
","
","
","""event"",""trial"",""time""
""fullscreenenter"",""0"",""4011""
","
",null,<p></p>,null,,,,,,,,,,,,,,,,,,,,,,,
,do_trial,322,1321565,0.0-171.0-0.0,"""event"",""trial"",""time""
""fullscreenenter"",""0"",""4011""
","
","
","""event"",""trial"",""time""
""fullscreenenter"",""0"",""4011""
","
",582.1,,,,,,,,50,"1,0,0",3,forest,111,probe-77,1,0.207046637,0.218899628,0,,,,,,,,
,html-keyboard-response,323,1322581,0.0-171.0-1.0,"""event"",""trial"",""time""
""fullscreenenter"",""0"",""4011""
","
","
","""event"",""trial"",""time""
""fullscreenenter"",""0"",""4011""
","
",null,<p></p>,null,,,,,,,,,,,,,,,,,,,,,,,
,do_trial,324,1327494,0.0-172.0-0.0,"""event"",""trial"",""time""
""fullscreenenter"",""0"",""4011""
","
","
","""event"",""trial"",""time""
""fullscreenenter"",""0"",""4011""
","
",359.7,,,,,,,,49,"1,0,0",3,forest,112,probe-35,0.878530289,0.149090542,0.409752176,1,,,,,,,,
,html-keyboard-response,325,1328497,0.0-172.0-1.0,"""event"",""trial"",""time""
""fullscreenenter"",""0"",""4011""
","
","
","""event"",""trial"",""time""
""fullscreenenter"",""0"",""4011""
","
",null,<p></p>,null,,,,,,,,,,,,,,,,,,,,,,,
,do_trial,326,1333512,0.0-173.0-0.0,"""event"",""trial"",""time""
""fullscreenenter"",""0"",""4011""
","
","
","""event"",""trial"",""time""
""fullscreenenter"",""0"",""4011""
","
",464.5,,,,,,,,49,"0,0,0",3,forest,113,probe-174,0.733904385,0.075566318,0.365539503,0,,,,,,,,
,html-keyboard-response,327,1334529,0.0-173.0-1.0,"""event"",""trial"",""time""
""fullscreenenter"",""0"",""4011""
","
","
","""event"",""trial"",""time""
""fullscreenenter"",""0"",""4011""
","
",null,<p></p>,null,,,,,,,,,,,,,,,,,,,,,,,
,do_trial,328,1340729,0.0-174.0-0.0,"""event"",""trial"",""time""
""fullscreenenter"",""0"",""4011""
","
","
","""event"",""trial"",""time""
""fullscreenenter"",""0"",""4011""
","
",1651.3,,,,,,,,49,"0,0,1",3,forest,114,probe-22,0.610564506,0.092876451,0.284619614,0,,,,,,,,
,html-keyboard-response,329,1341744,0.0-174.0-1.0,"""event"",""trial"",""time""
""fullscreenenter"",""0"",""4011""
","
","
","""event"",""trial"",""time""
""fullscreenenter"",""0"",""4011""
","
",null,<p></p>,null,,,,,,,,,,,,,,,,,,,,,,,
,do_trial,330,1346744,0.0-175.0-0.0,"""event"",""trial"",""time""
""fullscreenenter"",""0"",""4011""
","
","
","""event"",""trial"",""time""
""fullscreenenter"",""0"",""4011""
","
",457.4,,,,,,,,50,"0,0,0",3,forest,115,probe-104,0.631838842,0.125633669,0.26766547,0,,,,,,,,
,html-keyboard-response,331,1347753,0.0-175.0-1.0,"""event"",""trial"",""time""
""fullscreenenter"",""0"",""4011""
","
","
","""event"",""trial"",""time""
""fullscreenenter"",""0"",""4011""
","
",null,<p></p>,null,,,,,,,,,,,,,,,,,,,,,,,
,do_trial,332,1352686,0.0-176.0-0.0,"""event"",""trial"",""time""
""fullscreenenter"",""0"",""4011""
","
","
","""event"",""trial"",""time""
""fullscreenenter"",""0"",""4011""
","
",386.5,,,,,,,,51,"0,0,0",3,forest,116,probe-224,0.743711492,0.099515316,0.266923685,0,,,,,,,,
,html-keyboard-response,333,1353693,0.0-176.0-1.0,"""event"",""trial"",""time""
""fullscreenenter"",""0"",""4011""
","
","
","""event"",""trial"",""time""
""fullscreenenter"",""0"",""4011""
","
",null,<p></p>,null,,,,,,,,,,,,,,,,,,,,,,,
