"success","trial_type","trial_index","time_elapsed","internal_node_id","rt","stimulus","key_press","subject_id","response","choice_outcomes","context_n","context_img_id","trial_n","probe_img_id","pR_red","pR_white","pR_black","outcome","contextArray_ind","validImageProbes","invalidImageProbes","pRew_Red","pRew_White","pRew_Black","availableForMemProbe","choice_blocks"
"true","fullscreen","0","3733","0.0-0.0","","","","","","","","","","","","","","","","","","","","","",""
"","pavlovia","1","3741","0.0-1.0","","","","","","","","","","","","","","","","","","","","","",""
"","html-keyboard-response","2","15160","0.0-2.0","11416.09999999404","<div class='center'><p>Welcome! This is the first day of the experiment which will last ~30 minutes. In this experiment, you are the head captain of a pirate ship traveling around the world to different places. You will complete several different tasks during this experiment. Here is an overview of these tasks:</p><br><p>Day 1</p><p>1. Tutorial and quiz</p><p>2. Pick a pirate game in 6 different places</p><br><p>Day 2</p><p>3. Pick a pirate game and memory game</p><p>4. Final questions and payment</p><br><p>If you complete the entire experiment, you will receive $15 and a possible bonus payment.</p><p><b>[Press the space bar to begin the tutorial]</b></p></div>","32","60fee403bbe959b22e9ac3df","","","","","","","","","","","","","","","","","",""
"","html-keyboard-response","3","23990","0.0-3.0","8828.59999999404","<div class='center'><p>You are the head captain of a pirate ship.</p><p> Your pirates rob other ships as they leave the marketplace port.</p> These ships have just sold all their goods at the marketplace, so they have lots and lots of gold on them.</p><p><img src='run_exp/static/images/ship_center.png' height='400'></p><p><b>[Press the space bar to continue]</b></p></div>","32","","","","","","","","","","","","","","","","","","",""
"","html-keyboard-response","4","37617","0.0-4.0","13625.90000000596","<div class='center'><p>As the head captain, you do not have to rob any ships yourself.</p><p>You get to choose which pirate you want to rob the next ship. </p><p>If they are successful at robbing the ship, then you will get gold coins.</p><p> If they are not successful, then you will get no gold coins.</p><p> The more coins you collect, the more bonus money you will win. So, choose your pirate wisely.</p><p><img src='run_exp/static/images/goal.png' height='400'></p><p><b>[Press the space bar to continue]</b></p><div>","32","","","","","","","","","","","","","","","","","","",""
"","html-keyboard-response","5","50920","0.0-5.0","13297.299999982119","<div class='center'><p>Even the most skilled pirate will not be able to rob EVERY ship.</p><p> Some ships will have very strong defenses against attacks.</p><p> For example, blue beard, here,  is very good at robbing ships.</p><p> You can press the <b>‘1’</b> button on the keyboard to choose him.</p><p> Try choosing him 10 times to see how often he is successful at robbing ships. </p><p><img src='run_exp/static/images/blue.png' height='500'></p></div>","49","","","","","","","","","","","","","","","","","","",""
"","html-keyboard-response","6","52433","0.0-6.0","null","<br><br><br><br><p><img src='run_exp/static/images/blue_win.png' height='500'></p>","null","","","","","","","","","","","","","","","","","","",""
"","html-keyboard-response","7","53840","0.0-7.0","1405.4000000059605","<br><br><br><br><p><img src='run_exp/static/images/blue.png' height='500'></p>","49","","","","","","","","","","","","","","","","","","",""
"","html-keyboard-response","8","55350","0.0-8.0","null","<br><br><br><br><p><img src='run_exp/static/images/blue_win.png' height='500'></p>","null","","","","","","","","","","","","","","","","","","",""
"","html-keyboard-response","9","56232","0.0-9.0","881.6999999880791","<br><br><br><br><p><img src='run_exp/static/images/blue.png' height='500'></p>","49","","","","","","","","","","","","","","","","","","",""
"","html-keyboard-response","10","57734","0.0-10.0","null","<br><br><br><br><p><img src='run_exp/static/images/blue_win.png' height='500'></p>","null","","","","","","","","","","","","","","","","","","",""
"","html-keyboard-response","11","58298","0.0-11.0","562.9000000059605","<br><br><br><br><p><img src='run_exp/static/images/blue.png' height='500'></p>","49","","","","","","","","","","","","","","","","","","",""
"","html-keyboard-response","12","59808","0.0-12.0","null","<br><br><br><br><p><img src='run_exp/static/images/blue_no_win.png' height='500'></p>","null","","","","","","","","","","","","","","","","","","",""
"","html-keyboard-response","13","60785","0.0-13.0","975.8000000119209","<br><br><br><br><p><img src='run_exp/static/images/blue.png' height='500'></p>","49","","","","","","","","","","","","","","","","","","",""
"","html-keyboard-response","14","62298","0.0-14.0","null","<br><br><br><br><p><img src='run_exp/static/images/blue_win.png' height='500'></p>","null","","","","","","","","","","","","","","","","","","",""
"","html-keyboard-response","15","63613","0.0-15.0","1313.699999988079","<br><br><br><br><p><img src='run_exp/static/images/blue.png' height='500'></p>","49","","","","","","","","","","","","","","","","","","",""
"","html-keyboard-response","16","65116","0.0-16.0","null","<br><br><br><br><p><img src='run_exp/static/images/blue_win.png' height='500'></p>","null","","","","","","","","","","","","","","","","","","",""
"","html-keyboard-response","17","65728","0.0-17.0","610.8000000119209","<br><br><br><br><p><img src='run_exp/static/images/blue.png' height='500'></p>","49","","","","","","","","","","","","","","","","","","",""
"","html-keyboard-response","18","67233","0.0-18.0","null","<br><br><br><br><p><img src='run_exp/static/images/blue_win.png' height='500'></p>","null","","","","","","","","","","","","","","","","","","",""
"","html-keyboard-response","19","67797","0.0-19.0","563.1000000238419","<br><br><br><br><p><img src='run_exp/static/images/blue.png' height='500'></p>","49","","","","","","","","","","","","","","","","","","",""
"","html-keyboard-response","20","69303","0.0-20.0","null","<br><br><br><br><p><img src='run_exp/static/images/blue_no_win.png' height='500'></p>","null","","","","","","","","","","","","","","","","","","",""
"","html-keyboard-response","21","70117","0.0-21.0","813.8000000119209","<br><br><br><br><p><img src='run_exp/static/images/blue.png' height='500'></p>","49","","","","","","","","","","","","","","","","","","",""
"","html-keyboard-response","22","71619","0.0-22.0","null","<br><br><br><br><p><img src='run_exp/static/images/blue_win.png' height='500'></p>","null","","","","","","","","","","","","","","","","","","",""
"","html-keyboard-response","23","72189","0.0-23.0","569.1000000238419","<br><br><br><br><p><img src='run_exp/static/images/blue.png' height='500'></p>","49","","","","","","","","","","","","","","","","","","",""
"","html-keyboard-response","24","73690","0.0-24.0","null","<br><br><br><br><p><img src='run_exp/static/images/blue_win.png' height='500'></p>","null","","","","","","","","","","","","","","","","","","",""
"","html-keyboard-response","25","79665","0.0-25.0","5973.5","<div class='center'><p> See, he was successful at robbing the ships most of the time but not every time. </p><p><b>[Press the space bar to continue]</b></p></div>","32","","","","","","","","","","","","","","","","","","",""
"","html-keyboard-response","26","94615","0.0-26.0","14949.09999999404","<div class='center'><p>In the game, you will get to choose which of three pirates you want to rob the next ship. <p>Press the <b>‘1’</b> button on your keyboard to pick the pirate with the red beard.</p><p> Press <b>‘2’</b> to pick the pirate with the white beard.</p><p> Press <b>‘3’</b> to pick the pirate with the black beard.</p><p>Try picking a pirate now!</p><p><img src='run_exp/static/images/all_pirates.png' height='500'></p></div>","51","","","","","","","","","","","","","","","","","","",""
"","html-keyboard-response","27","96562","0.0-27.0-0.0","1942.5999999940395","<div class='center'><p>This pirate was successful at robbing the ship!</p><p><img src='run_exp/static/images/black_win.png' height='500'></p><p><b>[Press the space bar to continue]</b></p></div>","32","","","","","","","","","","","","","","","","","","",""
"","html-keyboard-response","28","99249","0.0-27.0-1.0","2685.9000000059605","<div class='center'><p>Now try choosing another</p><p><img src='run_exp/static/images/all_pirates.png' height='500'></p></div>","50","","","","","","","","","","","","","","","","","","",""
"","html-keyboard-response","29","101631","0.0-28.0-0.0","2382","<div class='center'><p>This pirate was not successful at robbing the ship!</p><p><img src='run_exp/static/images/white_no_win.png' height='500'></p><p><b>[Press the space bar to continue]</b></p></div>","32","","","","","","","","","","","","","","","","","","",""
"","html-keyboard-response","30","107187","0.0-29.0-0.0","5555","<div class='center'><p>You’ll stop at these 6 places on your journey.</p><p><img src='run_exp/static/images/all_contexts.png' height='500'></p><p><b>[Press the space bar to continue]</b></p></div>","32","","","","","","","","","","","","","","","","","","",""
"","html-keyboard-response","31","116519","0.0-29.0-1.0","9339.299999982119","<div class='center'><p>How good a pirate is at robbing ships will depend on the current place.</p><p> Some pirates will have been to the place before, and will have more experience robbing ships there.</p><p>So, they will be more successful at stealing gold and bringing it back to you.</p><p><b>[Press the space bar to continue]</b></p></div>","32","","","","","","","","","","","","","","","","","","",""
"","html-keyboard-response","32","127526","0.0-29.0-2.0","11005.700000017881","<div class='center'><p>How successful a pirate is at robbing ships can also change in a place.<p> Ships may hear about the pirates coming and will improve their defenses. This may make it more difficult to rob them.</p><p> Ships may also grow lazy and lower their defenses. This may make it easier to rob them.</p><br><p>Things are always changing on the high seas! So, try your best to pay attention!</p><p><img src='run_exp/static/images/contingency.png' height='500'></p><p><b>[Press the space bar to continue]</b></p></div>","32","","","","","","","","","","","","","","","","","","",""
"","html-keyboard-response","33","171780","0.0-29.0-3.0","44253.80000001192","<div class='center'><p>Once you choose a pirate to rob a ship, you’ll be shown the ship they are robbing.</p><p>The ship will have a picture of the item they sold at the marketplace.</p><p> Try your best to remember the ship and where you saw the ship.</p><p> You’ll have to remember this for later, and remembering this correctly will help you win more bonus money!</p><p>You can remember the ship by remembering the item they sold at the marketplace</p><p>A helpful strategy is to try to come up with a story of the chosen pirate and ship’s item interacting with the scene.</p><p> For example, a ship might have sold travel mugs and you could imagine red beard walking through the city with a travel mug. </p><p>Or imagine an apple falling from a tree into white beard's hands in the forest.</p><p><img src='run_exp/static/images/example_probe.png' height='500'></p><p><b>[Press the space bar to continue]</b></p></div>","32","","","","","","","","","","","","","","","","","","",""
"","html-keyboard-response","34","176323","0.0-29.0-4.0","4541.799999982119","<div class='center'><p>If you don’t make your choice fast enough, you’ll have to wait a few seconds before you can make another one. </p><p>You can’t win more gold. You just have to sit and wait.</p><p><img src='run_exp/static/images/hurry_up.png' height='500'></p><p><b>[Press the space bar to continue]</b></p></div>","32","","","","","","","","","","","","","","","","","","",""
"","html-keyboard-response","35","217489","0.0-29.0-5.0","41163.69999998808","<div class='center'><p>Again, you have two important things to do: </p><b><p> 1. Pick the pirate who you think will be most successful at robbing the next ship.</p></b><b><p> 2. Remember where a pirate robbed a ship.</p> </b><p>Both are important in determining how much bonus money you’ll win.</p><br><p>Let’s try a practice game. The game will start by showing you the pirates. First pick a pirate using the <b> 1, 2, 3 </b> buttons on your keyboard. When you are shown a ship, try to remember the place you’re in by making up a story.</p><p> You only have 3 seconds to pick a pirate, so please make a choice quickly! If you are too slow, you’ll have to wait a bit during the time out.</p><p> Don’t feel rushed, but please do try to make a choice every time.</p><p>How good a pirate is at robbing a ship will change depending on the place they are in and how good the defenses are of the ship.</p> <p>This is just a practice game, so you’re not playing for money. </p><p>You’ll receive a bag which may or may not contain gold coins.</p><p> In the real game, though, you’ll be able to see whether or not you received the gold coins.</p><p> Good luck, remember press <b>'1'</b> to choose red beard, <b>'2'</b> to choose white beard, and <b>'3'</b> to choose black beard</p><p><b>[Press the space bar to begin the practice game]</b></p></div>","32","","","","","","","","","","","","","","","","","","",""
"","do_trial_prac","36","222777","0.0-29.0-6.0","756.7999999821186","","","","50","","","","","","","","","","","","","","","","",""
"","do_trial_prac","37","229053","0.0-29.0-7.0","1759.7000000178814","","","","49","","","","","","","","","","","","","","","","",""
"","do_trial_prac","38","235622","0.0-29.0-8.0","2059.5","","","","50","","","","","","","","","","","","","","","","",""
"","do_trial_prac","39","241616","0.0-29.0-9.0","1484.0999999940395","","","","51","","","","","","","","","","","","","","","","",""
"","do_trial_prac","40","248104","0.0-29.0-10.0","1972.699999988079","","","","50","","","","","","","","","","","","","","","","",""
"","html-keyboard-response","41","252281","0.0-29.0-11.0","4176.0999999940395","<div class='center'><p>Great job on the practice game!</p><p> Now, you will be asked you some true or false questions to make sure you really understand the rules of the game.</p><p> Press <b>'1'</b> on the keyboard for true and press <b>'2'</b> for false.</p><p><b>[Press the space bar to begin the quiz]</b></p></div>","32","","","","","","","","","","","","","","","","","","",""
"","html-keyboard-response","42","254394","0.0-29.0-12.0","2112","<div class='center'><p>You win bonus money by making choices as fast as possible.</p><p>Press 1 for true and press  2 for false.</p></div>","50","","","","","","","","","","","","","","","","","","",""
"","html-keyboard-response","43","255826","0.0-30.0-0.0","1431","<br><br><br><br><p>That's correct!</p> <p><b>[press the space bar to continue with the quiz]</b></p>","32","","","","","","","","","","","","","","","","","","",""
"","html-keyboard-response","44","259639","0.0-30.0-1.0","3812.5","<div class='center'><p>You press the <b>‘3’</b> button on the keyboard to choose the red bearded pirate? </p><p>Press 1 for true and press  2 for false.</p></div>","50","","","","","","","","","","","","","","","","","","",""
"","html-keyboard-response","45","260665","0.0-31.0-0.0","1025.0999999940395","<br><br><br><br><p>That's correct!</p> <p><b>[press the space bar to continue with the quiz]</b></p>","32","","","","","","","","","","","","","","","","","","",""
"","html-keyboard-response","46","262431","0.0-31.0-1.0","1766.5","<div class='center'><p>A pirate will always be equally successful at robbing ships in each place</p><p>Press 1 for true and press  2 for false.</p></div>","50","","","","","","","","","","","","","","","","","","",""
"","html-keyboard-response","47","263139","0.0-32.0-0.0","706.5","<br><br><br><br><p>That's correct!</p> <p><b>[press the space bar to continue with the quiz]</b></p>","32","","","","","","","","","","","","","","","","","","",""
"","html-keyboard-response","48","266061","0.0-32.0-1.0","2921.199999988079","<div class='center'><p>You should remember the place where a pirate robbed a ship.</p><p>Press 1 for true and press  2 for false.</p></div>","49","","","","","","","","","","","","","","","","","","",""
"","html-keyboard-response","49","266887","0.0-33.0-0.0","809.5","<br><br><br><br><p>That's correct!</p> <p><b>[press the space bar to continue with the quiz]</b></p>","32","","","","","","","","","","","","","","","","","","",""
"","html-keyboard-response","50","270623","0.0-34.0-0.0","3708.0999999940395","<br><br><br><br><p>Good job! You’re now ready to move on to the real game!</p> <p><br>[press the space bar to begin!]</br></p>","32","","","","","","","","","","","","","","","","","","",""
"","do_welcome","51","272130","0.0-35.0-0.0","null","","","","null","","","","","","","","","","","","","","","","",""
"","do_trial","52","277968","0.0-36.0-0.0","1195.9000000059605","","","","49","1,0,0","0","coast","0","probe-34","1","0.4","0.1","1","","","","","","","",""
"","do_trial","53","283703","0.0-37.0-0.0","1077.4000000059605","","","","50","1,0,0","0","coast","1","probe-53","1","0.40143949784005506","0.20042715605738146","0","","","","","","","",""
"","do_trial","54","289623","0.0-38.0-0.0","1259.699999988079","","","","49","1,1,0","0","coast","2","probe-87","1","0.43789565564639715","0.2958061293576442","1","","","","","","","",""
"","do_trial","55","295026","0.0-39.0-0.0","834.3999999761581","","","","51","1,1,0","0","coast","3","probe-69","1","0.38739855926871514","0.2875145435058527","0","","","","","","","",""
"","do_trial","56","300533","0.0-40.0-0.0","937.4000000059605","","","","49","1,1,0","0","coast","4","probe-127","0.8882408303204319","0.33779413184323287","0.29121663909322815","1","","","","","","","",""
"","do_trial","57","307146","0.0-41.0-0.0","2004.0999999940395","","","","49","1,0,0","0","coast","5","probe-223","0.8359338572909473","0.25632739586118136","0.15064409970809275","1","","","","","","","",""
"","do_trial","58","312338","0.0-42.0-0.0","616.0999999940395","","","","49","1,0,0","0","coast","6","probe-76","0.7246611854501396","0.13198685334172144","0.09551422891901488","1","","","","","","","",""
"","do_trial","59","317966","0.0-43.0-0.0","1048.9000000059605","","","","49","1,0,0","0","coast","7","probe-196","0.8559943648009259","0.18576564715778496","0.19651193314748194","1","","","","","","","",""
"","do_trial","60","323896","0.0-44.0-0.0","1281","","","","49","0,0,0","0","coast","8","probe-135","0.6473798155578336","0.29414587150220783","0.0953883325476567","0","","","","","","","",""
"","do_trial","61","329075","0.0-45.0-0.0","551.2999999821186","","","","50","1,0,0","0","coast","9","probe-60","0.6032765538360091","0.35687921894018215","0.06863754921465258","0","","","","","","","",""
"","do_trial","62","334099","0.0-46.0-0.0","447.19999998807907","","","","51","1,0,0","0","coast","10","probe-212","0.5974563230941342","0.41825264439417814","0.06404399346360976","0","","","","","","","",""
"","do_trial","63","339071","0.0-47.0-0.0","400.2000000178814","","","","49","1,1,0","0","coast","11","probe-67","0.4721453416501564","0.5746093380855589","0.07986233399641295","1","","","","","","","",""
"","do_trial","64","344277","0.0-48.0-0.0","567.1999999880791","","","","49","1,0,1","0","coast","12","probe-96","0.4715655571364279","0.5926642390851463","0.13985955969610253","1","","","","","","","",""
"","do_trial","65","349719","0.0-49.0-0.0","814.7000000178814","","","","49","1,1,0","0","coast","13","probe-108","0.43204532176792704","0.5454692502558307","0.1783345207106119","1","","","","","","","",""
"","do_trial","66","355084","0.0-50.0-0.0","798.0999999940395","","","","49","0,1,1","0","coast","14","probe-150","0.44524297966804427","0.6573067904440422","0.14245022233239465","0","","","","","","","",""
"","do_trial","67","360067","0.0-51.0-0.0","425.19999998807907","","","","49","0,1,0","0","coast","15","probe-36","0.6956425949049455","0.8112201057971932","0.20421952789512265","0","","","","","","","",""
"","do_trial","68","365141","0.0-52.0-0.0","439.2000000178814","","","","50","1,1,0","0","coast","16","probe-06","0.5559428962507614","0.8105242323482117","0.06303867376862674","1","","","","","","","",""
"","do_trial","69","371699","0.0-53.0-0.0","1997.8999999761581","","","","49","0,1,0","0","coast","17","probe-119","0.5089166533012452","0.7395926843064038","0.12264255470271226","0","","","","","","","",""
"","do_trial","70","376624","0.0-54.0-0.0","306.40000000596046","","","","50","1,1,0","0","coast","18","probe-65","0.49241781266678963","0.8492689835149535","0.06780507556517171","1","","","","","","","",""
"","do_trial","71","381575","0.0-55.0-0.0","389.90000000596046","","","","50","0,1,0","0","coast","19","probe-213","0.6210810423019776","0.8788081269354983","0.15816007557116543","1","","","","","","","",""
"","do_trial","72","386922","0.0-56.0-0.0","780.7999999821186","","","","50","1,1,0","0","coast","20","probe-169","0.6234599435721815","0.9077047994779172","0.05823183810948757","1","","","","","","","",""
"","do_trial","73","392217","0.0-57.0-0.0","673.1000000238419","","","","50","0,1,0","0","coast","21","probe-11","0.5825939909145686","0.8477169983138272","0.11996060327724546","1","","","","","","","",""
"","do_trial","74","398070","0.0-58.0-0.0","1296","","","","50","0,1,0","0","coast","22","probe-167","0.5253604626679753","0.8836071205821129","0.0556517088087591","1","","","","","","","",""
"","do_trial","75","403915","0.0-59.0-0.0","1268.7999999821186","","","","50","0,0,1","0","coast","23","probe-09","0.4811618369197108","0.924344508547757","0.11582751545642474","0","","","","","","","",""
"","do_trial","76","409040","0.0-60.0-0.0","445.19999998807907","","","","51","0,0,0","0","coast","24","probe-144","0.46249887122368116","0.8988309051474146","0.14802318977162313","0","","","","","","","",""
"","do_trial","77","414129","0.0-61.0-0.0","422.5","","","","50","0,1,0","0","coast","25","probe-92","0.5738505794733486","0.9209399768370251","0.09341365997648618","1","","","","","","","",""
"","do_trial","78","419671","0.0-62.0-0.0","944.4000000059605","","","","50","0,1,0","0","coast","26","probe-16","0.36441164873751897","0.9171049104237777","0.08589398823191051","1","","","","","","","",""
"","do_trial","79","425316","0.0-63.0-0.0","1006.4000000059605","","","","49","0,0,1","0","coast","27","probe-01","0.3319033463406961","0.9070301672617832","0.22000331433525966","0","","","","","","","",""
"","do_trial","80","430240","0.0-64.0-0.0","341.09999999403954","","","","50","0,1,1","0","coast","28","probe-113","0.42326209849851204","0.8165662784675014","0.2074012660565617","1","","","","","","","",""
"","do_trial","81","435647","0.0-65.0-0.0","837.4000000059605","","","","50","0,0,0","0","coast","29","probe-132","0.35622992597595693","0.9203727276503518","0.2585617211683269","0","","","","","","","",""
"","do_trial","82","440582","0.0-66.0-0.0","321.30000001192093","","","","51","0,1,0","0","coast","30","probe-110","0.4719152100018541","0.9168251420557898","0.2108063042281395","0","","","","","","","",""
"","do_trial","83","445311","0.0-67.0-0.0","172.10000002384186","","","","49","1,1,0","0","coast","31","probe-128","0.4582468691088391","0.9339237954427515","0.20075014057222476","1","","","","","","","",""
"","do_trial","84","450368","0.0-68.0-0.0","487.40000000596046","","","","49","0,1,0","0","coast","32","probe-139","0.3612247314301017","0.7314279166652863","0.23339513014482355","0","","","","","","","",""
"","do_trial","85","455251","0.0-69.0-0.0","258.30000001192093","","","","50","0,0,0","0","coast","33","probe-103","0.33931382964541407","0.7064766147578152","0.24191850126391756","0","","","","","","","",""
"","do_trial","86","460147","0.0-70.0-0.0","256.09999999403954","","","","50","0,1,1","0","coast","34","probe-218","0.2778993110862477","0.670398673863377","0.23078888557738367","1","","","","","","","",""
"","do_trial","87","465267","0.0-71.0-0.0","464.2000000178814","","","","49","0,1,1","0","coast","35","probe-71","0.4659584019120835","0.7913438953954076","0.3112200895854506","0","","","","","","","",""
"","do_trial","88","470167","0.0-72.0-0.0","304.09999999403954","","","","50","1,0,0","0","coast","36","probe-08","0.5272914414544261","0.797641546897113","0.1573084405323086","0","","","","","","","",""
"","do_trial","89","475243","0.0-73.0-0.0","513.9000000059605","","","","50","1,1,0","0","coast","37","probe-216","0.4405378021489971","0.8155545352627617","0.1806299460294899","1","","","","","","","",""
"","do_trial","90","480417","0.0-74.0-0.0","542.6999999880791","","","","49","0,1,0","0","coast","38","probe-168","0.2594734781739751","0.8530006277705597","0.1496848320210667","0","","","","","","","",""
"","do_trial","91","486124","0.0-75.0-0.0","1082.5","","","","51","0,1,0","0","coast","39","probe-86","0.31331501987895277","0.8880017733201224","0.16746891747857842","0","","","","","","","",""
"","do_bye","92","487635","0.0-76.0-0.0","null","","","","null","","","","","","","","","","","","","","","","",""
"","do_travel","93","493644","0.0-77.0-0.0","null","","","","null","","","","","","","","","","","","","","","","",""
"","do_welcome","94","495152","0.0-77.0-1.0","null","","","","null","","","","","","","","","","","","","","","","",""
"","do_trial","95","501794","0.0-78.0-0.0","1989.8999999761581","","","","50","0,1,0","1","countryside","40","probe-177","0.4072716276465096","1","0.14220010606907388","1","","","","","","","",""
"","do_trial","96","506885","0.0-79.0-0.0","456.59999999403954","","","","50","0,1,0","1","countryside","41","probe-80","0.40658586342001807","1","0.06179400954833987","1","","","","","","","",""
"","do_trial","97","511884","0.0-80.0-0.0","416.59999999403954","","","","50","0,1,0","1","countryside","42","probe-89","0.37685345164937983","1","0.09157775842479382","1","","","","","","","",""
"","do_trial","98","517151","0.0-81.0-0.0","671.3999999761581","","","","50","0,1,0","1","countryside","43","probe-47","0.3211255308410824","1","0.12725602099651556","1","","","","","","","",""
"","do_trial","99","522225","0.0-82.0-0.0","470.69999998807907","","","","50","0,1,0","1","countryside","44","probe-151","0.38929259047982895","0.8840461925975736","0.07116379982948066","1","","","","","","","",""
"","do_trial","100","527195","0.0-83.0-0.0","333.69999998807907","","","","50","1,1,0","1","countryside","45","probe-194","0.41986100741197846","0.8871609009811533","0.0803104682398349","1","","","","","","","",""
"","do_trial","101","532267","0.0-84.0-0.0","514.3000000119209","","","","50","1,0,1","1","countryside","46","probe-183","0.3348986648796622","0.6687841176450848","0.20896312692173","0","","","","","","","",""
"","do_trial","102","537194","0.0-85.0-0.0","309.89999997615814","","","","49","1,1,1","1","countryside","47","probe-30","0.4026085334348622","0.710075865224402","0.2375003681677444","1","","","","","","","",""
"","do_trial","103","542140","0.0-86.0-0.0","319.90000000596046","","","","49","0,0,0","1","countryside","48","probe-170","0.3340521078456988","0.651088567565271","0.1169035072412088","0","","","","","","","",""
"","do_trial","104","547018","0.0-87.0-0.0","319.7999999821186","","","","50","0,1,0","1","countryside","49","probe-176","0.3016306887418828","0.8049294185464598","0.08313511060336506","1","","","","","","","",""
"","do_trial","105","551970","0.0-88.0-0.0","311.30000001192093","","","","51","1,1,0","1","countryside","50","probe-77","0.47580777046956835","0.5556428804121887","0.05170033851811384","0","","","","","","","",""
"","do_trial","106","557068","0.0-89.0-0.0","445.80000001192093","","","","50","1,1,0","1","countryside","51","probe-148","0.721648541618599","0.4225468593010991","0.17726359606362493","1","","","","","","","",""
"","do_trial","107","562183","0.0-90.0-0.0","547","","","","50","1,1,0","1","countryside","52","probe-70","0.7522110773861294","0.4425648453829139","0.07926339679101878","1","","","","","","","",""
"","do_trial","108","567095","0.0-91.0-0.0","318","","","","50","1,0,0","1","countryside","53","probe-28","0.6986997079807045","0.4007537703692924","0.11506122103406612","0","","","","","","","",""
"","do_trial","109","572000","0.0-92.0-0.0","305.59999999403954","","","","49","0,1,0","1","countryside","54","probe-165","0.784739037700829","0.43535043770918813","0.18191860635983823","0","","","","","","","",""
"","do_trial","110","576942","0.0-93.0-0.0","305.19999998807907","","","","50","1,0,0","1","countryside","55","probe-224","0.8771790256633233","0.26050164713332086","0.1295843164496591","0","","","","","","","",""
"","do_trial","111","581887","0.0-94.0-0.0","313.39999997615814","","","","51","1,0,0","1","countryside","56","probe-49","0.6880729789490119","0.16453692501959374","0.10337581695506101","0","","","","","","","",""
"","do_trial","112","586775","0.0-95.0-0.0","296.59999999403954","","","","50","1,0,0","1","countryside","57","probe-94","0.765838332049934","0.27683441714225365","0.17221597713240946","0","","","","","","","",""
"","do_trial","113","591631","0.0-96.0-0.0","296.90000000596046","","","","50","1,1,0","1","countryside","58","probe-134","0.7435912763583076","0.37060463273408933","0.105852199282304","1","","","","","","","",""
"","do_trial","114","596560","0.0-97.0-0.0","309.2000000178814","","","","50","1,1,0","1","countryside","59","probe-231","0.7271595075115205","0.5152233145610495","0.14564593423896013","1","","","","","","","",""
"","do_trial","115","601913","0.0-98.0-0.0","782.5","","","","50","1,1,0","1","countryside","60","probe-189","0.7794817706699415","0.5019526937185987","0.07615197704885003","1","","","","","","","",""
"","do_trial","116","607019","0.0-99.0-0.0","549.4000000059605","","","","50","1,0,1","1","countryside","61","probe-175","0.7063474032440312","0.448578734989999","0.1727177479541563","0","","","","","","","",""
"","do_trial","117","611992","0.0-100.0-0.0","334.10000002384186","","","","49","1,1,1","1","countryside","62","probe-142","0.7696198849128074","0.4262400241429897","0.1370356982622841","1","","","","","","","",""
"","do_trial","118","617074","0.0-101.0-0.0","455.7000000178814","","","","49","1,1,0","1","countryside","63","probe-26","0.6535164565164857","0.5114110467514295","0.0554316252065607","1","","","","","","","",""
"","do_trial","119","622195","0.0-102.0-0.0","557.5999999940395","","","","49","0,0,1","1","countryside","64","probe-230","0.6879476136091235","0.5026758616923034","0.09045849711499013","0","","","","","","","",""
"","do_trial","120","627155","0.0-103.0-0.0","334.90000000596046","","","","51","1,0,0","1","countryside","65","probe-15","0.7471459892011559","0.5128828047896377","0.20845920551698757","0","","","","","","","",""
"","do_trial","121","632101","0.0-104.0-0.0","348.19999998807907","","","","49","1,1,0","1","countryside","66","probe-44","0.7735324935315234","0.40354692624346067","0.15482702094653608","1","","","","","","","",""
"","do_trial","122","636975","0.0-105.0-0.0","303","","","","50","1,0,0","1","countryside","67","probe-32","0.7367227088026593","0.39868598455987764","0.1259252714350355","0","","","","","","","",""
"","do_trial","123","641910","0.0-106.0-0.0","306.5","","","","49","1,0,0","1","countryside","68","probe-181","0.7456817630816337","0.2791784116586789","0.11214559300882844","1","","","","","","","",""
"","do_trial","124","646857","0.0-107.0-0.0","377","","","","49","1,0,0","1","countryside","69","probe-221","0.8107256884598983","0.2691191283166304","0.18030653514243086","1","","","","","","","",""
"","do_trial","125","651893","0.0-108.0-0.0","451.7000000178814","","","","49","1,0,0","1","countryside","70","probe-104","0.8306073415144334","0.30628463445576404","0.10179061116538839","1","","","","","","","",""
"","do_trial","126","657112","0.0-109.0-0.0","560.5999999940395","","","","50","1,0,0","1","countryside","71","probe-02","0.8354962835285545","0.45692911112877815","0.10248238742454696","0","","","","","","","",""
"","do_trial","127","662084","0.0-110.0-0.0","398.89999997615814","","","","49","1,0,0","1","countryside","72","probe-227","0.8724774162699189","0.5417909397813483","0.14886575214757738","1","","","","","","","",""
"","do_trial","128","667093","0.0-111.0-0.0","450.59999999403954","","","","49","1,0,0","1","countryside","73","probe-48","0.9454161797434856","0.559122951668118","0.08609041484786807","1","","","","","","","",""
"","do_trial","129","672064","0.0-112.0-0.0","356.60000002384186","","","","49","1,1,0","1","countryside","74","probe-202","0.803945815274146","0.4605530709388722","0.06535722764932181","1","","","","","","","",""
"","do_trial","130","677286","0.0-113.0-0.0","616.9000000059605","","","","49","1,0,1","1","countryside","75","probe-118","0.864044702685586","0.33499603162404534","0.12387454970214949","1","","","","","","","",""
"","do_trial","131","682403","0.0-114.0-0.0","527.6999999880791","","","","49","1,0,0","1","countryside","76","probe-236","0.7391165284567657","0.364336020212741","0.1493634286048075","1","","","","","","","",""
"","do_trial","132","687392","0.0-115.0-0.0","369.40000000596046","","","","49","0,0,0","1","countryside","77","probe-173","0.7307025681082118","0.41134538287329997","0.1357055663188504","0","","","","","","","",""
"","do_trial","133","692323","0.0-116.0-0.0","330.5","","","","50","1,1,0","1","countryside","78","probe-237","0.7745979033640465","0.4934965851237941","0.06486286602228736","1","","","","","","","",""
"","do_trial","134","697377","0.0-117.0-0.0","450.09999999403954","","","","50","0,1,0","1","countryside","79","probe-172","0.8515163618499143","0.4006833078727793","0.07765608251592258","1","","","","","","","",""
"","do_bye","135","698901","0.0-118.0-0.0","null","","","","null","","","","","","","","","","","","","","","","",""
"","do_travel","136","704913","0.0-119.0-0.0","null","","","","null","","","","","","","","","","","","","","","","",""
"","do_welcome","137","706437","0.0-119.0-1.0","null","","","","null","","","","","","","","","","","","","","","","",""
"","do_trial","138","713444","0.0-120.0-0.0","2412.699999988079","","","","49","1,1,1","2","city","80","probe-195","1","0.43849103208564144","0.2437385547799434","1","","","","","","","",""
"","do_trial","139","718518","0.0-121.0-0.0","474.59999999403954","","","","49","1,0,0","2","city","81","probe-61","1","0.42741028772762757","0.2565879443288002","1","","","","","","","",""
"","do_trial","140","724236","0.0-122.0-0.0","1080.1000000238419","","","","49","1,0,0","2","city","82","probe-83","1","0.4585033430280298","0.14352315344731095","1","","","","","","","",""
"","do_trial","141","729289","0.0-123.0-0.0","391.09999999403954","","","","49","1,0,0","2","city","83","probe-185","1","0.30971500977771904","0.18785584294744875","1","","","","","","","",""
"","do_trial","142","734178","0.0-124.0-0.0","310.30000001192093","","","","49","1,1,0","2","city","84","probe-45","0.8036293811261321","0.5120587347258448","0.0938010771840916","1","","","","","","","",""
"","do_trial","143","739107","0.0-125.0-0.0","314.2999999821186","","","","49","1,0,0","2","city","85","probe-208","0.9204788946905765","0.4536099301480321","0.11084440716937911","1","","","","","","","",""
"","do_trial","144","744192","0.0-126.0-0.0","457.40000000596046","","","","49","1,1,0","2","city","86","probe-137","0.8887129000317735","0.3211556891519656","0.17613921406391383","1","","","","","","","",""
"","do_trial","145","749049","0.0-127.0-0.0","283.19999998807907","","","","49","1,0,0","2","city","87","probe-145","0.9283746852501124","0.4192295248598603","0.15394471650521108","1","","","","","","","",""
"","do_trial","146","754045","0.0-128.0-0.0","363.7000000178814","","","","49","1,1,0","2","city","88","probe-120","0.9089006656993711","0.4530671482158148","0.06175899409363471","1","","","","","","","",""
"","do_trial","147","759047","0.0-129.0-0.0","371.40000000596046","","","","49","1,1,0","2","city","89","probe-93","0.8482429361764643","0.546819924480893","0.07402257827198745","1","","","","","","","",""
"","do_trial","148","764164","0.0-130.0-0.0","553.1000000238419","","","","49","1,1,1","2","city","90","probe-79","0.75137936686252","0.5212319096118702","0.41660594235830417","1","","","","","","","",""
"","do_trial","149","769067","0.0-131.0-0.0","332.89999997615814","","","","49","0,0,1","2","city","91","probe-131","0.566532066506033","0.3102883049667993","0.5936085139576978","0","","","","","","","",""
"","do_trial","150","774016","0.0-132.0-0.0","308.2000000178814","","","","49","1,0,1","2","city","92","probe-37","0.35395572167293166","0.5092001788939347","0.7630491191820954","1","","","","","","","",""
"","do_trial","151","778941","0.0-133.0-0.0","359.80000001192093","","","","51","0,1,1","2","city","93","probe-116","0.40586807138193","0.5131745430685242","0.5537442145615445","1","","","","","","","",""
"","do_trial","152","784052","0.0-134.0-0.0","486.69999998807907","","","","51","0,1,0","2","city","94","probe-25","0.1368945734569211","0.5070081285771662","0.4634739694771331","0","","","","","","","",""
"","do_trial","153","789081","0.0-135.0-0.0","385.5","","","","51","0,0,0","2","city","95","probe-146","0.12901620343979484","0.4444296415544722","0.5687887650841544","0","","","","","","","",""
"","do_trial","154","794106","0.0-136.0-0.0","412.69999998807907","","","","50","0,0,1","2","city","96","probe-114","0.08696840916517852","0.44649531823812355","0.5738087237846549","0","","","","","","","",""
"","do_trial","155","799037","0.0-137.0-0.0","271.19999998807907","","","","49","0,1,1","2","city","97","probe-141","0.1158427840695667","0.6909090806928481","0.5192708726290606","0","","","","","","","",""
"","do_trial","156","803712","0.0-138.0-0.0","0.20000001788139343","","","","49","0,0,1","2","city","98","probe-157","0.05041480634391817","0.5538163052693339","0.666388074484321","0","","","","","","","",""
"","do_trial","157","808615","0.0-139.0-0.0","343.2000000178814","","","","49","0,1,1","2","city","99","probe-122","0.07763777412870514","0.504037064335976","0.7533579767497649","0","","","","","","","",""
"","do_trial","158","813505","0.0-140.0-0.0","299.2000000178814","","","","50","0,0,1","2","city","100","probe-78","0.08706832247107565","0.4231926984677879","0.6800713378152194","0","","","","","","","",""
"","do_trial","159","818506","0.0-141.0-0.0","395.19999998807907","","","","51","0,0,1","2","city","101","probe-10","0.13648504219379015","0.3619328456190647","0.6872222787430239","1","","","","","","","",""
"","do_trial","160","823596","0.0-142.0-0.0","522.5","","","","51","0,0,1","2","city","102","probe-182","0.06101355595183087","0.3558720921770528","0.8409670268369788","1","","","","","","","",""
"","do_trial","161","828590","0.0-143.0-0.0","357.2999999821186","","","","51","0,0,1","2","city","103","probe-235","0.09186084282273577","0.49404666099599304","0.7909036403730945","1","","","","","","","",""
"","do_trial","162","833571","0.0-144.0-0.0","380.19999998807907","","","","51","0,0,1","2","city","104","probe-100","0.06840975954405468","0.35394749019069727","0.863482517851076","1","","","","","","","",""
"","do_trial","163","838507","0.0-145.0-0.0","373.7000000178814","","","","51","0,1,0","2","city","105","probe-90","0.12963414168018642","0.5549924154853417","0.8446339288624647","0","","","","","","","",""
"","do_trial","164","843541","0.0-146.0-0.0","384.30000001192093","","","","51","0,0,1","2","city","106","probe-158","0.08066519748328886","0.597774393330954","0.9165370315237306","1","","","","","","","",""
"","do_trial","165","848532","0.0-147.0-0.0","403.40000000596046","","","","51","0,1,1","2","city","107","probe-59","0.2062951434475903","0.5233597792798397","0.8080544368102167","1","","","","","","","",""
"","do_trial","166","853652","0.0-148.0-0.0","528.4000000059605","","","","51","0,1,0","2","city","108","probe-29","0.2063399709975949","0.3587017261733645","0.8071055277036525","0","","","","","","","",""
"","do_trial","167","858798","0.0-149.0-0.0","519.0999999940395","","","","50","0,1,0","2","city","109","probe-179","0.08894586271952072","0.33603188697399544","0.8906119329689804","1","","","","","","","",""
"","do_trial","168","864332","0.0-150.0-0.0","907.2000000178814","","","","50","1,0,0","2","city","110","probe-62","0.2819517148859218","0.28609827787389946","0.885664905792747","0","","","","","","","",""
"","do_trial","169","869297","0.0-151.0-0.0","344.59999999403954","","","","49","0,0,1","2","city","111","probe-41","0.17029700784318577","0.37093266584921664","0.8888014472947146","0","","","","","","","",""
"","do_trial","170","874304","0.0-152.0-0.0","363.5","","","","51","0,0,0","2","city","112","probe-111","0.16282997287360906","0.28235888977925405","0.9017872892032561","0","","","","","","","",""
"","do_trial","171","879266","0.0-153.0-0.0","308.40000000596046","","","","50","1,0,1","2","city","113","probe-124","0.1750530432745598","0.0700262053750605","0.7962947452452346","0","","","","","","","",""
"","do_trial","172","884343","0.0-154.0-0.0","499.5","","","","51","0,0,0","2","city","114","probe-191","0.10440223126146991","0.2608506092859745","0.8315449940201658","0","","","","","","","",""
"","do_trial","173","889458","0.0-155.0-0.0","478.69999998807907","","","","49","0,0,1","2","city","115","probe-07","0.07640838574890943","0.2905342839419329","0.9354114200356668","0","","","","","","","",""
"","do_trial","174","894531","0.0-156.0-0.0","447.5","","","","50","0,0,0","2","city","116","probe-102","0.07837182640679838","0.388516935586104","0.8935495868884354","0","","","","","","","",""
"","do_trial","175","899410","0.0-157.0-0.0","317.5","","","","49","0,1,1","2","city","117","probe-03","0.05905265401200243","0.3938321829802263","0.8970584409285551","0","","","","","","","",""
"","do_trial","176","904600","0.0-158.0-0.0","516.5999999940395","","","","51","0,1,1","2","city","118","probe-203","0.05823115365900307","0.31869052055119723","0.8794499397372871","1","","","","","","","",""
"","do_trial","177","909685","0.0-159.0-0.0","441.5","","","","51","0,0,1","2","city","119","probe-91","0.0715506129950375","0.41183380270854486","0.9377292144226645","1","","","","","","","",""
"","do_bye","178","911204","0.0-160.0-0.0","null","","","","null","","","","","","","","","","","","","","","","",""
"","do_travel","179","917216","0.0-161.0-0.0","null","","","","null","","","","","","","","","","","","","","","","",""
"","do_welcome","180","918725","0.0-161.0-1.0","null","","","","null","","","","","","","","","","","","","","","","",""
"","do_trial","181","924200","0.0-162.0-0.0","827.3000000119209","","","","50","0,0,1","3","mountain","120","probe-95","0.1553479365103353","0.3889357672360108","1","0","","","","","","","",""
"","do_trial","182","929153","0.0-163.0-0.0","398","","","","49","0,0,1","3","mountain","121","probe-159","0.17624499318417564","0.3407544941362324","1","0","","","","","","","",""
"","do_trial","183","934051","0.0-164.0-0.0","264.90000000596046","","","","51","1,0,1","3","mountain","122","probe-240","0.19530155635444008","0.33192398243611043","1","1","","","","","","","",""
"","do_trial","184","939033","0.0-165.0-0.0","353.7999999821186","","","","51","0,0,1","3","mountain","123","probe-84","0.08134493216458714","0.34028545627541185","1","1","","","","","","","",""
"","do_trial","185","944341","0.0-166.0-0.0","735.4000000059605","","","","51","0,0,1","3","mountain","124","probe-215","0.11400094228565727","0.4665674245796793","0.9195612388977733","1","","","","","","","",""
"","do_trial","186","949590","0.0-167.0-0.0","624.7999999821186","","","","51","0,0,0","3","mountain","125","probe-184","0.17722255356813257","0.4485390861364447","0.7942977990526185","0","","","","","","","",""
"","do_trial","187","954870","0.0-168.0-0.0","633.5999999940395","","","","50","0,0,1","3","mountain","126","probe-211","0.13971768805790055","0.4961160682034683","0.8853312024401623","0","","","","","","","",""
"","do_trial","188","959854","0.0-169.0-0.0","383.80000001192093","","","","49","0,0,1","3","mountain","127","probe-17","0.13848931272972473","0.36934969433962783","0.8720989736946164","0","","","","","","","",""
"","do_trial","189","964801","0.0-170.0-0.0","384","","","","51","0,1,1","3","mountain","128","probe-225","0.20063707456349406","0.3866435686833859","0.749894171000327","1","","","","","","","",""
"","do_trial","190","970504","0.0-171.0-0.0","1082.0999999940395","","","","51","0,1,1","3","mountain","129","probe-39","0.1339396075263027","0.4930023485632055","0.9155848896247119","1","","","","","","","",""
"","do_trial","191","975883","0.0-172.0-0.0","733","","","","51","0,0,1","3","mountain","130","probe-40","0.08088195166860247","0.5622339811634859","0.675347798459826","1","","","","","","","",""
"","do_trial","192","981543","0.0-173.0-0.0","1075.5","","","","51","1,1,0","3","mountain","131","probe-143","0.15071549736028517","0.6668656132611918","0.5593594154500624","0","","","","","","","",""
"","do_trial","193","987412","0.0-174.0-0.0","1302.4000000059605","","","","51","0,0,1","3","mountain","132","probe-75","0.32043543699099986","0.6967018037907624","0.52494935430083","1","","","","","","","",""
"","do_trial","194","993129","0.0-175.0-0.0","1151.4000000059605","","","","51","0,1,0","3","mountain","133","probe-160","0.2927446426585422","0.8247338140181927","0.5122662873578256","0","","","","","","","",""
"","do_trial","195","998821","0.0-176.0-0.0","1130.699999988079","","","","50","0,0,1","3","mountain","134","probe-130","0.22628565435306405","0.7255777939717887","0.5587410181998327","0","","","","","","","",""
"","do_trial","196","1003948","0.0-177.0-0.0","464.09999999403954","","","","49","1,1,1","3","mountain","135","probe-68","0.18919491237432273","0.8838575573971587","0.4359937923457541","1","","","","","","","",""
"","do_trial","197","1009749","0.0-178.0-0.0","1203.300000011921","","","","49","1,1,0","3","mountain","136","probe-112","0.22918830430710846","0.7953502581904861","0.40957578143350054","1","","","","","","","",""
"","do_trial","198","1015379","0.0-179.0-0.0","1035.7000000178814","","","","49","0,1,1","3","mountain","137","probe-107","0.14192076727950595","0.8883794293393932","0.39175008761007873","0","","","","","","","",""
"","do_trial","199","1020904","0.0-180.0-0.0","927","","","","51","0,1,0","3","mountain","138","probe-121","0.08745678936902071","0.8855185474116722","0.374559014297944","0","","","","","","","",""
"","do_trial","200","1025935","0.0-181.0-0.0","463","","","","50","1,0,0","3","mountain","139","probe-97","0.1390716732084489","0.9294174020280509","0.35236820337890346","0","","","","","","","",""
"","do_trial","201","1031406","0.0-182.0-0.0","849.5","","","","51","0,1,0","3","mountain","140","probe-192","0.1606496311230987","0.910044269070423","0.27182072553633296","0","","","","","","","",""
"","do_trial","202","1036374","0.0-183.0-0.0","372.2999999821186","","","","50","0,0,0","3","mountain","141","probe-239","0.11141632107540125","0.7461285540728612","0.3289671447688242","0","","","","","","","",""
"","do_trial","203","1041404","0.0-184.0-0.0","380.90000000596046","","","","49","0,1,1","3","mountain","142","probe-222","0.06574175050242208","0.7080825318178361","0.4063425239283417","0","","","","","","","",""
"","do_trial","204","1046381","0.0-185.0-0.0","421","","","","51","0,1,0","3","mountain","143","probe-233","0.06926530552178259","0.6580751060479209","0.27926399260818263","0","","","","","","","",""
"","do_trial","205","1051545","0.0-186.0-0.0","542.5","","","","50","0,1,0","3","mountain","144","probe-198","0.16758318636932665","0.788545555758252","0.25524583081827645","1","","","","","","","",""
"","do_trial","206","1056581","0.0-187.0-0.0","438","","","","50","1,1,0","3","mountain","145","probe-115","0.08586572065158758","0.8635639645411235","0.3166895035851616","1","","","","","","","",""
"","do_trial","207","1061833","0.0-188.0-0.0","687.3999999761581","","","","50","0,0,1","3","mountain","146","probe-12","0.0962376416061821","0.8829975972538645","0.3779388240773742","0","","","","","","","",""
"","do_trial","208","1066728","0.0-189.0-0.0","268.5","","","","49","0,1,0","3","mountain","147","probe-66","0.051713256054464134","0.8042769073247616","0.40896989526070054","0","","","","","","","",""
"","do_trial","209","1071761","0.0-190.0-0.0","417.59999999403954","","","","51","0,1,1","3","mountain","148","probe-161","0.075775596616091","0.6937755303265981","0.3952956230996492","1","","","","","","","",""
"","do_trial","210","1077324","0.0-191.0-0.0","1004.7000000178814","","","","50","0,0,1","3","mountain","149","probe-205","0.07385369056981145","0.7959377803453841","0.3635026820038161","0","","","","","","","",""
"","do_trial","211","1082196","0.0-192.0-0.0","303.5","","","","51","0,1,1","3","mountain","150","probe-201","0.14342676075675598","0.750589407430108","0.5542246588648362","1","","","","","","","",""
"","do_trial","212","1087499","0.0-193.0-0.0","662.4000000059605","","","","51","0,1,1","3","mountain","151","probe-58","0.24605160552522065","0.7886371810230471","0.5983199863279218","1","","","","","","","",""
"","do_trial","213","1092543","0.0-194.0-0.0","406.09999999403954","","","","51","0,1,1","3","mountain","152","probe-27","0.14472509159686983","0.7561535202000143","0.5558750493654667","1","","","","","","","",""
"","do_trial","214","1097523","0.0-195.0-0.0","418.19999998807907","","","","51","0,1,1","3","mountain","153","probe-31","0.3708578847143449","0.6340110017171595","0.4619800166176241","1","","","","","","","",""
"","do_trial","215","1102644","0.0-196.0-0.0","466.40000000596046","","","","51","0,1,1","3","mountain","154","probe-228","0.1505644949333944","0.6112358888828192","0.4268257834183015","1","","","","","","","",""
"","do_trial","216","1108716","0.0-197.0-0.0","1432","","","","51","0,1,0","3","mountain","155","probe-64","0.16020889287257284","0.6817251895500474","0.43730158733072516","0","","","","","","","",""
"","do_trial","217","1113737","0.0-198.0-0.0","391.7000000178814","","","","51","0,1,1","3","mountain","156","probe-210","0.10535017875466585","0.7678606750068415","0.431413879863771","1","","","","","","","",""
"","do_trial","218","1119159","0.0-199.0-0.0","841.1999999880791","","","","51","0,1,1","3","mountain","157","probe-149","0.13800259402694193","0.8008956514234137","0.4935750287021086","1","","","","","","","",""
"","do_trial","219","1124568","0.0-200.0-0.0","814.8999999761581","","","","51","0,1,0","3","mountain","158","probe-209","0.1324106418451031","0.8683291226650676","0.4349167052294726","0","","","","","","","",""
"","do_trial","220","1129931","0.0-201.0-0.0","731.9000000059605","","","","50","0,1,1","3","mountain","159","probe-220","0.05668734398808097","0.8276737008060252","0.38750988992097013","1","","","","","","","",""
"","do_bye","221","1131449","0.0-202.0-0.0","null","","","","null","","","","","","","","","","","","","","","","",""
"","do_travel","222","1137456","0.0-203.0-0.0","null","","","","null","","","","","","","","","","","","","","","","",""
"","do_welcome","223","1138975","0.0-203.0-1.0","null","","","","null","","","","","","","","","","","","","","","","",""
"","do_trial","224","1145112","0.0-204.0-0.0","1518.2000000178814","","","","49","0,1,0","4","highway","160","probe-219","0.13651170536174473","1","0.39373203370693555","0","","","","","","","",""
"","do_trial","225","1150305","0.0-205.0-0.0","544.1999999880791","","","","50","0,1,1","4","highway","161","probe-190","0.09782387969816717","1","0.37810955795525564","1","","","","","","","",""
"","do_trial","226","1155742","0.0-206.0-0.0","882","","","","50","0,1,0","4","highway","162","probe-05","0.1611228597680852","1","0.2817632596051634","1","","","","","","","",""
"","do_trial","227","1162877","0.0-207.0-0.0","2549","","","","50","0,1,0","4","highway","163","probe-56","0.14892516761255142","1","0.42514600058679364","1","","","","","","","",""
"","do_trial","228","1168106","0.0-208.0-0.0","622.0999999940395","","","","50","0,1,1","4","highway","164","probe-200","0.11037092829721502","0.9427872821457827","0.3943189828999053","1","","","","","","","",""
"","do_trial","229","1173629","0.0-209.0-0.0","961","","","","50","0,1,0","4","highway","165","probe-123","0.051748994352927666","0.8089332388912845","0.5045768956297773","1","","","","","","","",""
"","do_trial","230","1179891","0.0-210.0-0.0","1701.699999988079","","","","50","0,1,0","4","highway","166","probe-81","0.12779233447576516","0.8616859832735404","0.5091555762148905","1","","","","","","","",""
"","do_trial","231","1186301","0.0-211.0-0.0","1848.7000000178814","","","","50","0,1,0","4","highway","167","probe-109","0.1963017109173768","0.8858332582081818","0.5184392350385459","1","","","","","","","",""
"","do_trial","232","1192150","0.0-212.0-0.0","1286.5","","","","50","0,0,1","4","highway","168","probe-193","0.16983473646001224","0.7436029150757646","0.5005406960190278","0","","","","","","","",""
"","do_trial","233","1197140","0.0-213.0-0.0","420.10000002384186","","","","49","0,1,0","4","highway","169","probe-133","0.10529779456557682","0.7512255101571012","0.449877313333435","0","","","","","","","",""
"","do_trial","234","1202094","0.0-214.0-0.0","328.69999998807907","","","","50","1,1,0","4","highway","170","probe-63","0.3485914341290402","0.4915013645510946","0.5375745153494802","1","","","","","","","",""
"","do_trial","235","1207367","0.0-215.0-0.0","636.0999999940395","","","","50","0,0,0","4","highway","171","probe-22","0.45156654128309753","0.26860209064583","0.4689365973462825","0","","","","","","","",""
"","do_trial","236","1212339","0.0-216.0-0.0","400.09999999403954","","","","50","0,0,0","4","highway","172","probe-23","0.6116167863137675","0.20664875079211553","0.369355086366184","0","","","","","","","",""
"","do_trial","237","1217194","0.0-217.0-0.0","269.5","","","","51","0,0,1","4","highway","173","probe-147","0.7229484488738673","0.14491877324859773","0.4238696853792847","1","","","","","","","",""
"","do_trial","238","1222216","0.0-218.0-0.0","428.5","","","","51","1,0,0","4","highway","174","probe-04","0.7228778950042704","0.2552780620866805","0.43255293082172686","0","","","","","","","",""
"","do_trial","239","1227054","0.0-219.0-0.0","272.69999998807907","","","","50","1,0,0","4","highway","175","probe-152","0.6230096399109591","0.05536764039351088","0.24376880566682477","0","","","","","","","",""
"","do_trial","240","1232060","0.0-220.0-0.0","398","","","","49","1,0,0","4","highway","176","probe-14","0.761945169310927","0.09840729944526935","0.2932888511760692","1","","","","","","","",""
"","do_trial","241","1237311","0.0-221.0-0.0","671.4000000059605","","","","49","0,0,0","4","highway","177","probe-206","0.8157202217790688","0.1287300553868552","0.23244554590098127","0","","","","","","","",""
"","do_trial","242","1242598","0.0-222.0-0.0","729.1999999880791","","","","51","1,0,0","4","highway","178","probe-199","0.8049785351021201","0.17918227986292512","0.2165645178122865","0","","","","","","","",""
"","do_trial","243","1247611","0.0-223.0-0.0","406.30000001192093","","","","49","0,0,0","4","highway","179","probe-188","0.7537936012834747","0.2487446844513424","0.3926330644758081","0","","","","","","","",""
"","do_trial","244","1252591","0.0-224.0-0.0","364","","","","50","1,0,1","4","highway","180","probe-180","0.7646685482618933","0.3270109023493879","0.30411812138699384","0","","","","","","","",""
"","do_trial","245","1257574","0.0-225.0-0.0","408.90000000596046","","","","50","1,0,0","4","highway","181","probe-178","0.8535809345758771","0.3391305685793743","0.39468419719262166","0","","","","","","","",""
"","do_trial","246","1262541","0.0-226.0-0.0","323.10000002384186","","","","51","1,0,0","4","highway","182","probe-136","0.8569814199655862","0.25151592807979795","0.3384326208527857","0","","","","","","","",""
"","do_trial","247","1267680","0.0-227.0-0.0","495.09999999403954","","","","49","1,0,0","4","highway","183","probe-166","0.8033230141058587","0.2653254580847545","0.18491794731833217","1","","","","","","","",""
"","do_trial","248","1273467","0.0-228.0-0.0","1220.5","","","","50","0,0,0","4","highway","184","probe-35","0.6544008494477694","0.21327380068186938","0.17529640650033962","0","","","","","","","",""
"","do_trial","249","1278317","0.0-229.0-0.0","280.69999998807907","","","","49","1,0,1","4","highway","185","probe-99","0.7112479517319724","0.16194521007426663","0.42574378618544134","1","","","","","","","",""
"","do_trial","250","1283467","0.0-230.0-0.0","505.59999999403954","","","","49","1,1,0","4","highway","186","probe-24","0.6672116791428885","0.10865982594301364","0.4603057355928803","1","","","","","","","",""
"","do_trial","251","1288398","0.0-231.0-0.0","283.5","","","","49","0,1,1","4","highway","187","probe-207","0.7388850063810282","0.07905020918154923","0.5194398962797222","0","","","","","","","",""
"","do_trial","252","1293371","0.0-232.0-0.0","419.5","","","","51","1,0,0","4","highway","188","probe-117","0.7757729610742904","0.06971278027094518","0.5936829559389659","0","","","","","","","",""
"","do_trial","253","1298401","0.0-233.0-0.0","398.5","","","","50","0,0,0","4","highway","189","probe-72","0.6851186614723075","0.1281719869522374","0.41553339897845876","0","","","","","","","",""
"","do_trial","254","1304539","0.0-234.0-0.0","null","","","","null","0,0,1","4","highway","190","probe-238","0.6119460339166573","0.051751925386992366","0.443121523182437","","","","","","","","",""
"","do_trial","255","1309583","0.0-235.0-0.0","423.7000000178814","","","","50","1,0,0","4","highway","191","probe-229","0.7609235022380404","0.06702175987069829","0.3754406697043467","0","","","","","","","",""
"","do_trial","256","1314432","0.0-236.0-0.0","276.90000000596046","","","","51","0,1,0","4","highway","192","probe-232","0.7350970136808593","0.05415035996886757","0.5200724911983172","0","","","","","","","",""
"","do_trial","257","1319375","0.0-237.0-0.0","320.7999999821186","","","","49","1,0,0","4","highway","193","probe-155","0.6704624896841456","0.1082791954330025","0.38551411865059837","1","","","","","","","",""
"","do_trial","258","1324397","0.0-238.0-0.0","373.09999999403954","","","","49","1,0,0","4","highway","194","probe-55","0.5600018278053376","0.09429635005493156","0.2983217359020351","1","","","","","","","",""
"","do_trial","259","1329497","0.0-239.0-0.0","530.9000000059605","","","","50","1,0,0","4","highway","195","probe-197","0.6649544097899909","0.21847076245378552","0.28340648795971657","0","","","","","","","",""
"","do_trial","260","1334363","0.0-240.0-0.0","284","","","","49","1,0,0","4","highway","196","probe-54","0.732793460891202","0.172575267759916","0.38411182492215995","1","","","","","","","",""
"","do_trial","261","1339613","0.0-241.0-0.0","615.6000000238419","","","","49","1,0,0","4","highway","197","probe-106","0.8077411246365555","0.07454918912015435","0.4075227871849107","1","","","","","","","",""
"","do_trial","262","1345076","0.0-242.0-0.0","901.6999999880791","","","","49","1,0,0","4","highway","198","probe-125","0.8936892779300175","0.16455265979499342","0.4885005002990043","1","","","","","","","",""
"","do_trial","263","1351145","0.0-243.0-0.0","null","","","","null","1,0,1","4","highway","199","probe-38","0.7320836290631794","0.2064417472401032","0.520539251411588","","","","","","","","",""
"","do_bye","264","1352653","0.0-244.0-0.0","null","","","","null","","","","","","","","","","","","","","","","",""
"","do_travel","265","1358671","0.0-245.0-0.0","null","","","","null","","","","","","","","","","","","","","","","",""
"","do_welcome","266","1360186","0.0-245.0-1.0","null","","","","null","","","","","","","","","","","","","","","","",""
"","do_trial","267","1365513","0.0-246.0-0.0","757","","","","49","1,1,0","5","forest","200","probe-52","1","0.055838930078267526","0.4601367740592455","1","","","","","","","",""
"","do_trial","268","1371020","0.0-247.0-0.0","915.4000000059605","","","","49","1,0,0","5","forest","201","probe-163","1","0.13063455344301694","0.3641615999407331","1","","","","","","","",""
"","do_trial","269","1376667","0.0-248.0-0.0","987.5999999940395","","","","49","1,0,0","5","forest","202","probe-21","1","0.052183594280465664","0.23876295505843048","1","","","","","","","",""
"","do_trial","270","1381758","0.0-249.0-0.0","486.09999999403954","","","","49","1,0,0","5","forest","203","probe-217","1","0.09784515984778015","0.087679079802137","1","","","","","","","",""
"","do_trial","271","1387158","0.0-250.0-0.0","821.6000000238419","","","","49","1,0,1","5","forest","204","probe-33","0.8787875118507821","0.10528157667554393","0.27223925182596875","1","","","","","","","",""
"","do_trial","272","1392350","0.0-251.0-0.0","629.0999999940395","","","","49","1,0,0","5","forest","205","probe-186","0.7701704336793759","0.05109237163087089","0.26657685820816185","1","","","","","","","",""
"","do_trial","273","1397651","0.0-252.0-0.0","663.5999999940395","","","","49","1,0,0","5","forest","206","probe-156","0.8897050896277218","0.10863491975514727","0.20268598114591072","1","","","","","","","",""
"","do_trial","274","1403740","0.0-253.0-0.0","1464.5999999940395","","","","49","0,0,0","5","forest","207","probe-88","0.908816619532938","0.22891325002103757","0.08218996241701707","0","","","","","","","",""
"","do_trial","275","1408766","0.0-254.0-0.0","406.2999999821186","","","","50","1,0,0","5","forest","208","probe-187","0.906221516366527","0.1488972840515381","0.2101122723405442","0","","","","","","","",""
"","do_trial","276","1413714","0.0-255.0-0.0","367.7000000178814","","","","51","1,1,0","5","forest","209","probe-105","0.8043049443915089","0.17292726050007873","0.19499388145654123","0","","","","","","","",""
"","do_trial","277","1418909","0.0-256.0-0.0","560.7000000178814","","","","49","1,0,0","5","forest","210","probe-50","0.6068474077722853","0.480020467776598","0.22202918967964505","1","","","","","","","",""
"","do_trial","278","1424632","0.0-257.0-0.0","1079.0999999940395","","","","49","0,1,0","5","forest","211","probe-51","0.6023904915215113","0.5840601533638711","0.0969800638026289","0","","","","","","","",""
"","do_trial","279","1429794","0.0-258.0-0.0","568.9000000059605","","","","49","0,1,0","5","forest","212","probe-73","0.42476287916360095","0.7007427035109436","0.18030420861659605","0","","","","","","","",""
"","do_trial","280","1434836","0.0-259.0-0.0","484.69999998807907","","","","50","0,1,0","5","forest","213","probe-226","0.40912033818745835","0.7650823705090349","0.12420642799714232","1","","","","","","","",""
"","do_trial","281","1441501","0.0-260.0-0.0","2024.7999999821186","","","","50","0,0,0","5","forest","214","probe-140","0.41127726186720304","0.7695349961235965","0.061425516718436705","0","","","","","","","",""
"","do_trial","282","1447438","0.0-261.0-0.0","1372.7000000178814","","","","49","1,1,0","5","forest","215","probe-20","0.6018076762157449","0.6819228824393107","0.168662595385301","1","","","","","","","",""
"","do_trial","283","1454588","0.0-262.0-0.0","2580.699999988079","","","","49","0,0,0","5","forest","216","probe-174","0.5571728554966463","0.9126577214032655","0.17935476784303284","0","","","","","","","",""
"","do_trial","284","1459819","0.0-263.0-0.0","600.9000000059605","","","","50","0,1,0","5","forest","217","probe-46","0.4807796337978823","0.8885793165594325","0.160718817588337","1","","","","","","","",""
"","do_trial","285","1465811","0.0-264.0-0.0","1425.0999999940395","","","","50","1,0,0","5","forest","218","probe-101","0.4037401641126489","0.8057110881660817","0.09754722042239353","0","","","","","","","",""
"","do_trial","286","1470832","0.0-265.0-0.0","452.90000000596046","","","","51","0,1,1","5","forest","219","probe-164","0.5027592032365718","0.861904966120447","0.23958941297227923","1","","","","","","","",""
"","do_trial","287","1476201","0.0-266.0-0.0","719.9000000059605","","","","51","0,0,1","5","forest","220","probe-171","0.5111061316252533","0.9121091532011205","0.16301948204247707","1","","","","","","","",""
"","do_trial","288","1481415","0.0-267.0-0.0","586","","","","51","0,1,0","5","forest","221","probe-162","0.39288843080466124","0.9227278340761104","0.1449313209181287","0","","","","","","","",""
"","do_trial","289","1486038","0.0-268.0-0.0","44.30000001192093","","","","49","0,1,0","5","forest","222","probe-19","0.44511587298324445","0.8570948565706528","0.19814086772435005","0","","","","","","","",""
"","do_trial","290","1490963","0.0-269.0-0.0","293.59999999403954","","","","50","0,1,0","5","forest","223","probe-82","0.36676546495937135","0.5898872435571899","0.30567505517751853","1","","","","","","","",""
"","do_trial","291","1496605","0.0-270.0-0.0","997","","","","50","0,1,0","5","forest","224","probe-13","0.24558419275986468","0.5721603652177933","0.18776828805453583","1","","","","","","","",""
"","do_trial","292","1502677","0.0-271.0-0.0","null","","","","null","0,1,0","5","forest","225","probe-204","0.23736800775118239","0.7696533180985361","0.10877892105498596","","","","","","","","",""
"","do_trial","293","1507608","0.0-272.0-0.0","310.39999997615814","","","","49","1,1,1","5","forest","226","probe-153","0.47192722009811106","0.8020230217653532","0.1266287298913532","1","","","","","","","",""
"","do_trial","294","1512683","0.0-273.0-0.0","506.40000000596046","","","","49","0,1,0","5","forest","227","probe-154","0.4944508150100049","0.869856411200542","0.2719840624323928","0","","","","","","","",""
"","do_trial","295","1517588","0.0-274.0-0.0","275.69999998807907","","","","50","1,1,0","5","forest","228","probe-98","0.4534586290044027","0.7859980355203194","0.13321367346379528","1","","","","","","","",""
"","do_trial","296","1522624","0.0-275.0-0.0","461.59999999403954","","","","50","0,0,1","5","forest","229","probe-85","0.4690502331243133","0.6812996158229844","0.19669649358944605","0","","","","","","","",""
"","do_trial","297","1527523","0.0-276.0-0.0","322.59999999403954","","","","51","0,1,0","5","forest","230","probe-74","0.3688375924911676","0.8435614469134766","0.08288521027914293","0","","","","","","","",""
"","do_trial","298","1532489","0.0-277.0-0.0","325.09999999403954","","","","50","0,1,0","5","forest","231","probe-43","0.2788523918313403","0.6607617937531746","0.06904014930035964","1","","","","","","","",""
"","do_trial","299","1537686","0.0-278.0-0.0","595.5","","","","49","1,1,0","5","forest","232","probe-57","0.41824911244285984","0.7318016749894761","0.2294650597327054","1","","","","","","","",""
"","do_trial","300","1543030","0.0-279.0-0.0","784.6999999880791","","","","49","0,0,0","5","forest","233","probe-42","0.34921261267175624","0.6577187145728935","0.07285000828821639","0","","","","","","","",""
"","do_trial","301","1548033","0.0-280.0-0.0","363.69999998807907","","","","50","0,1,0","5","forest","234","probe-138","0.3820278269324125","0.8423846418325311","0.1406963713921654","1","","","","","","","",""
"","do_trial","302","1553644","0.0-281.0-0.0","972.4000000059605","","","","50","0,1,0","5","forest","235","probe-234","0.2991881557272744","0.7887399999692372","0.2058707756989042","1","","","","","","","",""
"","do_trial","303","1559243","0.0-282.0-0.0","1033.7000000178814","","","","51","0,1,0","5","forest","236","probe-18","0.40752105548601436","0.7918137278653113","0.139044338542309","0","","","","","","","",""
"","do_trial","304","1564224","0.0-283.0-0.0","423.7000000178814","","","","50","1,1,0","5","forest","237","probe-126","0.37363978201158765","0.8231180850026337","0.145752984036824","1","","","","","","","",""
"","do_trial","305","1569146","0.0-284.0-0.0","312.5","","","","50","0,1,1","5","forest","238","probe-129","0.5174456867207516","0.8758685331991347","0.054564755544913635","1","","","","","","","",""
"","do_trial","306","1574082","0.0-285.0-0.0","324.5","","","","50","1,1,0","5","forest","239","probe-214","0.5525593223629462","0.8526171625860067","0.14108108551726048","1","","","","","","","",""
"","do_bye","307","1575597","0.0-286.0-0.0","null","","","","null","","","","","","","","","","","","","","","","",""
"","html-keyboard-response","308","1579146","0.0-286.0-1.0","3547.199999988079","<div class='center'>You are all done with the first part of the experiment! Thank you for participating. Tomorrow, you will recieve an invite to participate in the next phase of the experiment which you must complete by the end of the day. <p><b>[Press the space bar to end the experiment]</b></p></div>","32","","","","","","","","","","","","0,1,5,2,4,3","33,52,86,68,126,222,75,195,134,59,211,66,95,107,149,35,5,118,64,212,168,10,166,8,143,91,15,0,112,131,109,127,138,102,217,70,7,215,167,85,176,79,88,46,150,193,182,29,169,175,76,147,69,27,164,223,48,93,133,230,188,174,141,25,229,14,43,31,180,220,103,1,226,47,201,117,235,172,236,171,194,60,82,184,44,207,136,144,119,92,78,130,36,115,24,145,113,140,156,121,77,9,181,234,99,89,157,58,28,178,61,40,110,123,190,6,101,2,202,90,94,158,239,83,214,183,210,16,224,38,39,142,74,159,129,67,111,106,120,96,191,238,221,232,197,114,11,65,160,204,200,57,26,30,227,63,209,148,208,219,218,189,4,55,199,122,80,108,192,132,62,21,22,146,3,151,13,205,198,187,179,177,135,165,34,98,23,206,116,71,237,228,231,154,54,196,53,105,124,37,51,162,20,216,32,185,155,87,186,104,49,50,72,225,139,19,173,45,100,163,170,161,18,81,12,203,152,153,97,84,73,42,56,41,137,233,17,125,128,213","6,13,14,10,7,0,9,1,2,12,18,16,11,4,3,17,8,5,15","0.4464899373497941,0.32763705402537585,0.43811933394767577,0.4703686066511684,0.5211013679547903,0.34386665416785434,0.3268075793577878,0.3650017989278206,0.25947191644850975,0.3564938595593571,0.2430339886817656,0.1733470801378767,0.05582042778482595,0.08709972273306342,0.1329495519355817,0.07769024192801469,0.08599434051193489,0.12800053813120144,0.08525204447222633,0.05112209693219089,0.27828113320925996,0.2873816541460365,0.2977184764681541,0.2761235712310521,0.14011713436110987,0.09423692096184542,0.23606174677926897,0.05571711617907667,0.05579373348942314,0.10880649190047245,0.11798151465786774,0.07154611520186036,0.059829118779466665,0.06308754440159901,0.1772843077260827,0.10231719435899843,0.06073121851989668,0.07316952871249578,0.169711802799428,0.221866944842384,0.239603761312108,0.11902690242335524,0.19817811492455684,0.24322443651107034,0.26435477300124804,0.2661139324550721,0.20744546895637506,0.35725938890775766,0.38198654476726634,0.34143825771545017,0.4298622771587148,0.3689324214158296,0.47644752768373727,0.6472594204681877,0.5910375706529644,0.63977347243445,0.5392779158237044,0.4218712146599238,0.3694199965286642,0.30726245634202026,0.41405088544669283,0.5391825334233685,0.43133418157194214,0.5216080759302304,0.41473480793578615,0.48213628911049067,0.3964956246386237,0.30751451697483867,0.44317139369146036,0.43642470979608816,0.607493019638589,0.6499155107852462,0.6876199122876844,0.7332457269791026,0.6701898927194273,0.5251441504148495,0.6602814553420567,0.5992960600372922,0.6473274697890409,0.6715486626554495,0.7742139710210475,0.9173984037822153,0.8135435114254408,0.7683931288797899,0.7757453319720243,0.8455821407746487,0.7897421954748137,0.7599454910188354,0.7463557745240348,0.7028589022506998,1,0.8693407282797599,0.7898510633717167,0.9272799084098694,0.7828257929423882,0.8917114669457219,0.863141933612137,0.7409938322887015,0.7739630399708937,0.7820961494888208,0.520625103395676,0.43979245172159204,0.4359192188064378,0.2576209105445827,0.25754284891423923,0.1523221267970879,0.10968451294034051,0.13561297740187928,0.1074273067757668,0.06431783862600032,0.11012576210278179,0.12864683458057294,0.07861972073378443,0.1247584630742879,0.061612972905296604,0.18140887642443496,0.13429953936303363,0.2189587328666493,0.1521467313771493,0.15798622774622267,0.23044637672955567,0.09391819370380958,0.15765955273417265,0.16623225565888855,0.08161447303013196,0.08448281397016402,0.09573380868476827,0.19500229457964136,0.16055029688337324,0.08305828989962696,0.07596048856975252,0.18062269896635375,0.2418282106526748,0.1836659565329118,0.16924251718796263,0.23839430461148736,0.2469889204202203,0.2969320758020491,0.2328612455600063,0.5334558029434161,0.6531322608858703,0.7815991934839345,0.9116437582427296,0.8711814907786731,0.7728283724221003,0.7789686157878378,0.7797787764724932,0.834505494104921,0.8856764680651145,0.9332853556749239,1,0.9280724660855748,0.8561123752903858,0.8045053321535427,0.9088988316630205,0.783327925649152,0.7321425024502353,0.809912691681742,0.8034945924190866,0.7038351574159617,0.7304722084695275,0.7535401256337706,0.5832275924700041,0.6199272435802283,0.5860627575874174,0.6008361678562222,0.6180843719217153,0.6556216752233397,0.514300547050757,0.5085200384750651,0.5014155452995818,0.3727718622215796,0.28250721867774536,0.35831616791426263,0.5604304707707535,0.5744216875767671,0.47561146539937793,0.6025191598971995,0.5798499166607296,0.5746877825576386","1,0.883785567566509,0.8766849991488246,0.8935043195080016,0.8539247385350466,0.8619358214578626,0.7425149345819544,0.8105491168394336,0.8286820124740705,0.8215825762971541,0.7304293787489675,0.7149775542803589,0.5780949281382732,0.5757500669598019,0.6100867620319105,0.6206866030812299,0.4426410730809688,0.4179233448099501,0.40405974256186417,0.46041288992641927,0.29939678874685116,0.2854818894967042,0.4570247997460858,0.4328815472949195,0.36947508743120666,0.37034531421678796,0.28945974350106524,0.17851716714663865,0.3161918907007919,0.24904173211610933,0.3011722306599403,0.30727786690005043,0.48772615337646463,0.5613116936724096,0.5547119066618363,0.37373179027679554,0.34572705675028503,0.45202308917317197,0.4242275101789098,0.3442337162357598,0.5319927375065052,0.668176096749938,0.7967359751266884,0.7194213018917286,0.6913303972067214,0.7740647352037193,0.9076468848754645,0.7426391774743489,0.9465839667679704,0.8464703943768863,0.795094766846611,0.7154341035679977,0.8055976990493277,0.7391976492694007,0.7404662319599588,0.7773606989422771,0.8245428501778801,0.7988962628819855,0.8034736793965546,0.7286796755623389,1,0.936908596239295,0.7948057105285071,0.7770412771000436,0.6832492300340605,0.7532818121581815,0.8050619562617713,0.8093146982150654,0.885354181723663,0.817321225990145,0.6627028948902149,0.5946600345571379,0.45218584871142575,0.4730969337268839,0.5698391032034874,0.49406560856323967,0.6115277545743046,0.44411106247777216,0.39202201298028216,0.3267585018316531,0.1991283336792068,0.3426290204245147,0.37862931649239295,0.448043894154178,0.48003043470565077,0.5519005103875176,0.3602317526321371,0.3241447077173337,0.48661075067916626,0.47859017231837214,0.40090220336000815,0.37516440764954195,0.3271291430866096,0.4280206770635263,0.38892542471329405,0.24044189782732464,0.16603959340095656,0.4012395221999146,0.41005295681903575,0.2577654466860985,0.3818580368810334,0.4448963387261554,0.5685538068244821,0.6707059229613874,0.6828864746318764,0.6248117128463312,0.7852380549364502,0.7306725831952592,0.6811343205438307,0.6276741866221065,0.7812791712629027,0.7535401959160732,0.7270098166394702,0.8186058278205984,0.6323594505774973,0.6212182132850149,0.6125126975439743,0.5375907760870332,0.6529032895430446,0.7331368531916431,1,0.94979375262854,0.8390521796068288,0.8471705055759068,0.6711790828227391,0.7628118844514705,0.8014353105329651,0.9410638238749741,0.9035891761985678,0.7285458540465668,0.8752521864954561,0.8887344262258823,0.7261824360059128,0.7931430674441436,0.6757377311910086,0.6803314433801083,0.8529279384295744,0.7218112305651377,0.8528985557946978,0.5993331124174431,0.44260460187178424,0.5396646554679354,0.5211838353898929,0.5337686532290977,0.4879771494090345,0.3960277455802088,0.19519251872511426,0.2591132749161855,0.34503808239463424,0.37776796693369585,0.3460706933059328,0.4418565427354944,0.3903340106079688,0.4490235566226106,0.3980991885240065,0.3825184719817645,0.4442363549978105,0.42523421579354453,0.45345204953026697,0.6460683573050233,0.6562448568073417,0.7758560505246382,0.8645841148216284,0.930261417135137,0.9383869774171538,0.9292161964172041,0.8964654259311436,0.8644743636208081,0.7802165737788168,0.8894994055133204,0.7050841772197509,0.6365963825103392,0.6168040872649656,0.7479201459826564,0.8238517948934623,0.8168462996161922,0.8950091574276715,0.8650013874997449,0.8801857443217237,0.9256485229543508","0.0837933829145701,0.08698092106999117,0.058367444326744365,0.09922038987483398,0.06712151304995788,0.1681133709456342,0.0799527886483465,0.08348505256721148,0.10209936781850726,0.09600116364356112,0.445500717295833,0.46368061481507744,0.5546051622164822,0.6996309655306006,0.7529393233886955,0.8976844548703632,0.8563305157434326,0.8891506166837013,0.888131872846757,0.8217424735152254,0.7763854124582475,0.7879460046378419,0.7361180196393472,0.7182383055740862,0.6761250910728019,0.7020794295960255,0.7433485616604185,0.774381699939359,0.7445593669532385,0.7794464896623728,1,0.9143476674133088,0.8471683336975181,0.8350207773394435,0.6732643604570341,0.7365425465759416,0.7609264267850075,0.8665478951096148,0.7829117217943278,0.7229046776532816,0.8327545156512787,0.6511292018455948,0.341685129432571,0.16324847968620138,0.14754184041244997,0.10364870751729206,0.19591395470435577,0.08785257302953652,0.05623571202721621,0.1808216978857245,0.07969335383785911,0.0503127838745899,0.21958566494737422,0.05896956367563311,0.21175004119520807,0.25626951429329453,0.18032677949122275,0.1454034755001608,0.13219688569924998,0.09838482465646221,0.1878119178848106,0.10223345813819075,0.06171917270234644,0.08437619067915356,0.15695895598649726,0.11269145126976227,0.11395116959637153,0.2199729962891609,0.2296788932351169,0.22654950866038362,0.1630707121336808,0.0793736337410549,0.17769537955632936,0.21573884973335575,0.09384097548166218,0.14787407848657225,0.06940354129463168,0.07257153075903677,0.21972885253319469,0.19393065581935312,0.06854174921639486,0.07979735709922689,0.08074752667158423,0.09726830397449324,0.26234094154048054,0.12736082678683147,0.0598180484199008,0.09498741779208114,0.09002688641187703,0.14282772910257488,0.2876864649330576,0.1745529147928854,0.09036149646262015,0.18521949261179402,0.12591525064307824,0.11230093160314386,0.13926555387522832,0.20245154630883463,0.12196679736924555,0.12895521627814965,0.236524615446616,0.33081117072022453,0.2927797404565204,0.32484759778452693,0.4947219903305009,0.27130937917917813,0.25184979390185236,0.2501033790307352,0.37329083469891156,0.4232928788572394,0.4330106100859322,0.34959532493577233,0.1813909073485268,0.38866040588294243,0.4688471139433018,0.3228809092705267,0.25084245675728234,0.17210611054515113,0.34955100570667036,0.2991944189799995,0.17500428921005529,0.2351165648396887,0.2636375474364745,0.2724688559304167,0.22415224434978726,0.17447928280636701,0.12695976759209515,0.17006904714094911,0.2616868786861004,0.33394622759426085,0.353610048807141,0.3264944737302244,0.3323044324228202,0.202424634703452,0.2699255683955157,0.12684537079103694,0.26611487642977794,0.44174078333263356,0.42546076127870935,0.4216396812766777,0.3801957263193224,0.22049759097321278,0.19905833051123695,0.25724225024853375,0.19086525415660305,0.13588307604869942,0.0629992351175613,0.09345045073695002,0.21734445902527263,0.32907151028196596,0.17955193967303779,0.16076108528711383,0.09186317484119336,0.10216262394629104,0.23046251646243326,0.2513113457987024,0.15284103848850744,0.13935552124892578,0.1362177685401682,0.1443313420856016,0.11852390805246969,0.0841308107688014,0.05584200196712542,0.0957048920051049,0.15539986595205568,0.25257556183314284,0.2223338256116681,0.11097727259250081,0.1042238233357967,0.07445538779985558,0.13476605596347974,0.16394543399889067,0.17145031686484324,0.15330405477885473,0.08988050047515656,0.0678877035894649,0.17128649866486392,0.09009619380956398,0.18772731037137277,0.061106501296419466","84,120,160,202,127,82,206,124,128,205,88,85,168,164,49,41,121,129,166,44,165,89,207,86,87,47,161,200,83,43,40,204,81,167,46,45,125,203,42,201,122,48,123,126,208,162,209,80,163,169","1,1,1,4,5,1,3,1,1,1,1,1,5,1,1,7,2,1,2,1,2,2,1,1,1,1,1,2,1,1,6,1,1,1,1,3,4,5,1,1,1,1,1,1,1,1,1,4,1,3,4,1,1,5,2,1,1,1,4,7"
