"success","trial_type","trial_index","time_elapsed","internal_node_id","rt","stimulus","key_press","subject_id","response","choice_outcomes","context_n","context_img_id","trial_n","probe_img_id","pR_red","pR_white","pR_black","outcome","contextArray_ind","validImageProbes","invalidImageProbes","pRew_Red","pRew_White","pRew_Black","availableForMemProbe","choice_blocks"
"true","fullscreen","0","4857","0.0-0.0","","","","","","","","","","","","","","","","","","","","","",""
"","pavlovia","1","4867","0.0-1.0","","","","","","","","","","","","","","","","","","","","","",""
"","html-keyboard-response","2","15846","0.0-2.0","10976.100000023842","<div class='center'><p>Welcome! This is the first day of the experiment which will last ~30 minutes. In this experiment, you are the head captain of a pirate ship traveling around the world to different places. You will complete several different tasks during this experiment. Here is an overview of these tasks:</p><br><p>Day 1</p><p>1. Tutorial and quiz</p><p>2. Pick a pirate game in 6 different places</p><br><p>Day 2</p><p>3. Pick a pirate game and memory game</p><p>4. Final questions and payment</p><br><p>If you complete the entire experiment, you will receive $15 and a possible bonus payment.</p><p><b>[Press the space bar to begin the tutorial]</b></p></div>","32","611343092396f1d9ed7018ad","","","","","","","","","","","","","","","","","",""
"","html-keyboard-response","3","21870","0.0-3.0","6022.800000071526","<div class='center'><p>You’ll stop at these 6 islands on your journey. You'll be able to see them in the distance from your ship.</p><p><img src='run_exp/static/images/contexts/all_contexts.png' height='500'></p><p><b>[Press the space bar to continue]</b></p></div>","32","","","","","","","","","","","","","","","","","","",""
"","html-keyboard-response","4","25932","0.0-4.0","4060.2999999523163","<div class='center'><p> The pirates on your ship will rob other ships as they leave island</p> These ships have just sold their things to the people living on the island, so they will have lots and lots of gold on them.</p><p><img src='run_exp/static/images/tutorial/ship_center.png' height='400'></p><p><b>[Press the space bar to continue]</b></p></div>","32","","","","","","","","","","","","","","","","","","",""
"","html-keyboard-response","5","36344","0.0-5.0","10408.699999928474","<div class='center'><p>As the head captain, you do not have to rob any ships yourself.</p><p>Another pirate will be doing the robbing for you. </p><p><img src='run_exp/static/images/tutorial/pirates_all_crop.png' height='200'></p><p>If they could rob the ship, then you will get a stack of gold coins like this:</p><p><img src='run_exp/static/images/tutorial/reward.png' height='150'></p><p> If they couldn't rob the ship, then you will get no gold coins and you'll see a big red x like this: </p><p><img src='run_exp/static/images/tutorial/reward_no.png' height='150'></p><p> How much bonus money you make is based on how many gold coins you collect.</p><p><b>[Press the space bar to continue]</b></p><div>","32","","","","","","","","","","","","","","","","","","",""
"","html-keyboard-response","6","57543","0.0-6.0","21198.100000023842","<div class='center'><p>Even the most skilled pirate can not rob EVERY ship.</p><p> Some ships will have very strong defenses against pirate attacks.</p><p> For example, blue beard, here, is very, very good at robbing ships.</p><p> You can press the <b>‘1’</b> button on the keyboard to choose him.</p><p> Try choosing him 10 times to see how often he can rob a ship. </p><p><img src='run_exp/static/images/tutorial/blue.png' height='500'></p></div>","49","","","","","","","","","","","","","","","","","","",""
"","html-keyboard-response","7","59049","0.0-7.0","null","<div class='center'><p><img src='run_exp/static/images/tutorial/blue_win.png' height='500'></p></div>","null","","","","","","","","","","","","","","","","","","",""
"","html-keyboard-response","8","59281","0.0-8.0","230.39999997615814","<div class='center'><img src='run_exp/static/images/tutorial/blue.png' height='500'></p></div>","49","","","","","","","","","","","","","","","","","","",""
"","html-keyboard-response","9","60787","0.0-9.0","null","<div class='center'><p><img src='run_exp/static/images/tutorial/blue_win.png' height='500'></p></div>","null","","","","","","","","","","","","","","","","","","",""
"","html-keyboard-response","10","60821","0.0-10.0","32.199999928474426","<div class='center'><img src='run_exp/static/images/tutorial/blue.png' height='500'></p></div>","49","","","","","","","","","","","","","","","","","","",""
"","html-keyboard-response","11","62335","0.0-11.0","null","<div class='center'><p><img src='run_exp/static/images/tutorial/blue_win.png' height='500'></p></div>","null","","","","","","","","","","","","","","","","","","",""
"","html-keyboard-response","12","63790","0.0-12.0","1453.7000000476837","<div class='center'><img src='run_exp/static/images/tutorial/blue.png' height='500'></p></div>","49","","","","","","","","","","","","","","","","","","",""
"","html-keyboard-response","13","65304","0.0-13.0","null","<div class='center'><p><img src='run_exp/static/images/tutorial/blue_no_win.png' height='500'></p></div>","null","","","","","","","","","","","","","","","","","","",""
"","html-keyboard-response","14","65592","0.0-14.0","286.8000000715256","<div class='center'><img src='run_exp/static/images/tutorial/blue.png' height='500'></p></div>","49","","","","","","","","","","","","","","","","","","",""
"","html-keyboard-response","15","67105","0.0-15.0","null","<div class='center'><p><img src='run_exp/static/images/tutorial/blue_win.png' height='500'></p></div>","null","","","","","","","","","","","","","","","","","","",""
"","html-keyboard-response","16","67141","0.0-16.0","33.89999997615814","<div class='center'><img src='run_exp/static/images/tutorial/blue.png' height='500'></p></div>","49","","","","","","","","","","","","","","","","","","",""
"","html-keyboard-response","17","68646","0.0-17.0","null","<div class='center'><p><img src='run_exp/static/images/tutorial/blue_win.png' height='500'></p></div>","null","","","","","","","","","","","","","","","","","","",""
"","html-keyboard-response","18","69212","0.0-18.0","564.6000000238419","<div class='center'><img src='run_exp/static/images/tutorial/blue.png' height='500'></p></div>","49","","","","","","","","","","","","","","","","","","",""
"","html-keyboard-response","19","70724","0.0-19.0","null","<div class='center'><p><img src='run_exp/static/images/tutorial/blue_win.png' height='500'></p></div>","null","","","","","","","","","","","","","","","","","","",""
"","html-keyboard-response","20","71271","0.0-20.0","544.7999999523163","<div class='center'><img src='run_exp/static/images/tutorial/blue.png' height='500'></p></div>","49","","","","","","","","","","","","","","","","","","",""
"","html-keyboard-response","21","72773","0.0-21.0","null","<div class='center'><p><img src='run_exp/static/images/tutorial/blue_no_win.png' height='500'></p></div>","null","","","","","","","","","","","","","","","","","","",""
"","html-keyboard-response","22","73179","0.0-22.0","405.60000002384186","<div class='center'><img src='run_exp/static/images/tutorial/blue.png' height='500'></p></div>","49","","","","","","","","","","","","","","","","","","",""
"","html-keyboard-response","23","74682","0.0-23.0","null","<div class='center'><p><img src='run_exp/static/images/tutorial/blue_win.png' height='500'></p></div>","null","","","","","","","","","","","","","","","","","","",""
"","html-keyboard-response","24","74991","0.0-24.0","307.39999997615814","<div class='center'><img src='run_exp/static/images/tutorial/blue.png' height='500'></p></div>","49","","","","","","","","","","","","","","","","","","",""
"","html-keyboard-response","25","76495","0.0-25.0","null","<div class='center'><p><img src='run_exp/static/images/tutorial/blue_win.png' height='500'></p></div>","null","","","","","","","","","","","","","","","","","","",""
"","html-keyboard-response","26","78570","0.0-26.0","2074.399999976158","<div class='center'><p> See, he could rob the ships most of the time but not every time. </p><p><b>[Press the space bar to continue]</b></p></div>","32","","","","","","","","","","","","","","","","","","",""
"","html-keyboard-response","27","83452","0.0-27.0","4880","<div class='center'><p>You will get to choose which of three pirates you want to rob the next ship. <p>Press the <b>‘1’</b> button on your keyboard to pick the pirate with the red beard.</p><p> Press <b>‘2’</b> to pick the pirate with the white beard.</p><p> Press <b>‘3’</b> to pick the pirate with the black beard.</p><p>Try picking a pirate now!</p><p><img src='run_exp/static/images/tutorial/all_pirates.png' height='500'></p></div>","50","","","","","","","","","","","","","","","","","","",""
"","html-keyboard-response","28","87641","0.0-28.0-0.0","4184.800000071526","<div class='center'><p>This pirate could rob the ship!</p><p><img src='run_exp/static/images/tutorial/white_win.png' height='500'></p><p><b>[Press the space bar to continue]</b></p></div>","32","","","","","","","","","","","","","","","","","","",""
"","html-keyboard-response","29","88200","0.0-28.0-1.0","557.7000000476837","<div class='center'><p>Now try choosing another</p><p><img src='run_exp/static/images/tutorial/all_pirates.png' height='500'></p></div>","49","","","","","","","","","","","","","","","","","","",""
"","html-keyboard-response","30","89211","0.0-29.0-0.0","1009","<div class='center'><p>This pirate could not rob the ship.</p><p><img src='run_exp/static/images/tutorial/red_no_win.png' height='500'></p><p><b>[Press the space bar to continue]</b></p></div>","32","","","","","","","","","","","","","","","","","","",""
"","html-keyboard-response","31","98222","0.0-30.0-0.0","9009","<div class='center'><p>If you don’t make your choice fast enough, you’ll have to wait a few seconds before you can make another one. </p><p>You can’t collect more gold coins. You just have to sit and wait.</p><p><img src='run_exp/static/images/miscellaneous/hurry_up.png' height='500'></p><p><b>[Press the space bar to continue]</b></p></div>","32","","","","","","","","","","","","","","","","","","",""
"","html-keyboard-response","32","115333","0.0-30.0-1.0","17110.400000095367","<div class='center'><p>Once you choose a pirate, you’ll be shown the ship they are robbing.</p><p>You will never rob the same ship twice.</p><p>Ships can be told apart from one another by the image on them.</p><p> Every time you see a ship, you will have to remember on which island you saw it.</p><p> Remembering correctly will help you win more bonus money!</p><p>A helpful strategy is to try to come up with a story of the object on the ship interacting with the current island scene.</p><p> For example, here, you could imagine a mug full of water in the desert. </p><p>For a ship with an apple on it on the forest island, you could imagine an apple falling from a tree in the forest.</p><p><img src='run_exp/static/images/tutorial/example_probe.png' height='500'></p><p><b>[Press the space bar to continue]</b></p></div>","32","","","","","","","","","","","","","","","","","","",""
"","html-keyboard-response","33","124901","0.0-30.0-2.0","9567.399999976158","<div class='center'><p>How good a pirate is at robbing ships will depend on the current island.</p><p> A pirate may have visited the island many times before and gained a lot of practice robbing ships there.</p><p>So, they're more likely to bring back gold coins than a pirate who has never visited this island before. </p><p><b>[Press the space bar to continue]</b></p></div>","32","","","","","","","","","","","","","","","","","","",""
"","html-keyboard-response","34","136034","0.0-30.0-3.0","11131.299999952316","<div class='center'><p>How good a pirate is at robbing ships can also change over the time spent on the island<p> Ships may hear from islanders about the pirates coming and will improve their protection against the attack. This may make it harder to rob them.</p><p> Ships may also become lazy and lower their protection. This may make it easier to rob them.</p><br><p>Things are always changing on the high seas! So, try your best to pay attention!</p><p><img src='run_exp/static/images/tutorial/contingency.png' height='500'></p><p><b>[Press the space bar to continue]</b></p></div>","32","","","","","","","","","","","","","","","","","","",""
"","html-keyboard-response","35","161954","0.0-30.0-4.0","25919","<div class='center'><p>Let's go over the instructions quickly again.You have two important things to do: </p><b><p> 1. Pick the pirate who is the best at robbing ships on the current island.</p></b><b><p> 2. Remember on which island a ship was robbed.</p> </b><p>How much bonus money you make is based on both. </p><br><p>Let’s try a practice game. The game will start by showing you the pirates. First pick a pirate using the <b> 1, 2, 3 </b> buttons on your keyboard. When you are shown a ship, try to remember the island you’re on by making up a story.</p><p> You only have 3 seconds to pick a pirate, so please make a choice quickly! If you are too slow, you’ll have to wait a bit during the time out.</p><p> Don’t feel rushed, but please do try to make a choice every time.</p><p>This is just a practice game, so you’re not playing for money. </p><p> Good luck, remember press <b>'1'</b> to choose red beard, <b>'2'</b> to choose white beard, and <b>'3'</b> to choose black beard</p><p><b>[Press the space bar to begin the practice game]</b></p></div>","32","","","","","","","","","","","","","","","","","","",""
"","do_welcome","36","163479","0.0-30.0-5.0","null","","","","null","","","","","","","","","","","","","","","","",""
"","do_trial","37","168673","0.0-30.0-6.0","674.1000000238419","","","","49","1,0,0","","","","","","","","","","","","","","","",""
"","html-keyboard-response","38","169677","0.0-31.0-0.0","null","<p></p>","null","","","","","","","","","","","","","","","","","","",""
"","do_trial","39","174844","0.0-31.0-1.0","653.1999999284744","","","","50","1,1,0","","","","","","","","","","","","","","","",""
"","html-keyboard-response","40","175846","0.0-32.0-0.0","null","<p></p>","null","","","","","","","","","","","","","","","","","","",""
"","do_trial","41","180707","0.0-32.0-1.0","348.7999999523163","","","","50","1,0,1","","","","","","","","","","","","","","","",""
"","html-keyboard-response","42","181713","0.0-33.0-0.0","null","<p></p>","null","","","","","","","","","","","","","","","","","","",""
"","do_trial","43","187052","0.0-33.0-1.0","822.1000000238419","","","","51","0,1,0","","","","","","","","","","","","","","","",""
"","html-keyboard-response","44","188063","0.0-34.0-0.0","null","<p></p>","null","","","","","","","","","","","","","","","","","","",""
"","do_trial","45","192935","0.0-34.0-1.0","356.7000000476837","","","","49","1,0,0","","","","","","","","","","","","","","","",""
"","do_bye","46","194450","0.0-35.0-0.0","null","","","","null","","","","","","","","","","","","","","","","",""
"","do_travel","47","200454","0.0-35.0-1.0","null","","","","null","","","","","","","","","","","","","","","","",""
"","do_welcome","48","201964","0.0-35.0-2.0","null","","","","null","","","","","","","","","","","","","","","","",""
"","do_trial","49","207052","0.0-35.0-3.0","566.5","","","","49","1,0,0","","","","","","","","","","","","","","","",""
"","html-keyboard-response","50","208066","0.0-36.0-0.0","null","<p></p>","null","","","","","","","","","","","","","","","","","","",""
"","do_trial","51","212830","0.0-36.0-1.0","243.60000002384186","","","","49","1,0,1","","","","","","","","","","","","","","","",""
"","html-keyboard-response","52","213836","0.0-37.0-0.0","null","<p></p>","null","","","","","","","","","","","","","","","","","","",""
"","do_trial","53","218775","0.0-37.0-1.0","415.10000002384186","","","","49","1,1,0","","","","","","","","","","","","","","","",""
"","html-keyboard-response","54","219781","0.0-38.0-0.0","null","<p></p>","null","","","","","","","","","","","","","","","","","","",""
"","do_trial","55","224586","0.0-38.0-1.0","290.2999999523163","","","","49","0,0,1","","","","","","","","","","","","","","","",""
"","html-keyboard-response","56","225597","0.0-39.0-0.0","null","<p></p>","null","","","","","","","","","","","","","","","","","","",""
"","do_trial","57","230829","0.0-39.0-1.0","711.5999999046326","","","","51","1,0,1","","","","","","","","","","","","","","","",""
"","html-keyboard-response","58","232921","0.0-40.0-0.0","2089.2000000476837","<div class='center'><p><img src='run_exp/static/images/tutorial/prac_best_pirate.png'  height='500'></p></div>","49","","","","","","","","","","","","","","","","","","",""
"","html-keyboard-response","59","234322","0.0-41.0-0.0","1400.5","<div class='center'><p>That's correct! Red beard was the best.</p><p><b>[Press the space bar to continue]</b></p></div>","32","","","","","","","","","","","","","","","","","","",""
"","html-keyboard-response","60","236444","0.0-41.0-1.0","2119.8000000715256","<div class='center'><p><img src='run_exp/static/images/tutorial/prac_source.png'  height='500'></p></div>","50","","","","","","","","","","","","","","","","","","",""
"","html-keyboard-response","61","237082","0.0-42.0-0.0","637.5","<div class='center'><p>That's correct! You saw this ship on the cavern island.</p><p><b>[Press the space bar to continue]</b></p></div>","32","","","","","","","","","","","","","","","","","","",""
"","html-keyboard-response","62","240472","0.0-42.0-1.0","3388.1999999284744","<div class='center'><p>Good job on the practice game! Now, you will be asked you some true or false questions to make sure you really understand the rules of the game.</p><p> Press <b>'1'</b> on the keyboard for true and press <b>'2'</b> for false.</p><p><b>[Press the space bar to begin the quiz]</b></p></div>","32","","","","","","","","","","","","","","","","","","",""
"","html-keyboard-response","63","249903","0.0-42.0-2.0","9430.299999952316","<div class='center'><p>You win bonus money by making choices as fast as possible.</p><p>Press 1 for true and press  2 for false.</p></div>","49","","","","","","","","","","","","","","","","","","",""
"","html-keyboard-response","64","253281","0.0-43.0-0.0","3375.899999976158","<<div class='center'><p>That’s incorrect! You win bonus money by collecting as many gold coins as possible!</p><p><b>[press the space bar to continue with the quiz]</b></p></div>","32","","","","","","","","","","","","","","","","","","",""
"","html-keyboard-response","65","254443","0.0-43.0-1.0","1160.6000000238419","<div class='center'><p>You press the <b>‘3’</b> button on the keyboard to choose the red bearded pirate. </p><p>Press 1 for true and press  2 for false.</p></div>","50","","","","","","","","","","","","","","","","","","",""
"","html-keyboard-response","66","255412","0.0-44.0-0.0","967.5","<div class='center'><p>That's correct!</p> <p><b>[press the space bar to continue with the quiz]</b></p></div>","32","","","","","","","","","","","","","","","","","","",""
"","html-keyboard-response","67","265894","0.0-44.0-1.0","10480.699999928474","<div class='center'><p>The pirate who is the best at robbing ships on the first island will be the best on every other island.</p><p>Press 1 for true and press  2 for false.</p></div>","50","","","","","","","","","","","","","","","","","","",""
"","html-keyboard-response","68","266931","0.0-45.0-0.0","1035.8999999761581","<div class='center'><p>That's correct!</p> <p><b>[press the space bar to continue with the quiz]</b></p></div>","32","","","","","","","","","","","","","","","","","","",""
"","html-keyboard-response","69","269633","0.0-45.0-1.0","2701.5","<div class='center'><p>You should remember the island where a pirate robbed a ship.</p><p>Press 1 for true and press  2 for false.</p></div>","49","","","","","","","","","","","","","","","","","","",""
"","html-keyboard-response","70","270122","0.0-46.0-0.0","484.3000000715256","<div class='center'><p>That's correct!</p> <p><b>[press the space bar to continue with the quiz]</b></p></div>","32","","","","","","","","","","","","","","","","","","",""
"","html-keyboard-response","71","275811","0.0-47.0-0.0","5688","<div class='center'><p>Oops, you missed some questions. Now that you’ve heard the correct answers. Try the quiz again! If you fail the quiz too many times, you won’t be able to do the experiment. </p> <p><br>[press the space bar to repeat the quiz]</br></p></div>","32","","","","","","","","","","","","","","","","","","",""
"","html-keyboard-response","72","277914","0.0-47.0-1.0","2101.7999999523163","<div class='center'><p>You win bonus money by making choices as fast as possible.</p><p>Press 1 for true and press  2 for false.</p></div>","49","","","","","","","","","","","","","","","","","","",""
"","html-keyboard-response","73","279104","0.0-48.0-0.0","1188.3999999761581","<<div class='center'><p>That’s incorrect! You win bonus money by collecting as many gold coins as possible!</p><p><b>[press the space bar to continue with the quiz]</b></p></div>","32","","","","","","","","","","","","","","","","","","",""
"","html-keyboard-response","74","283563","0.0-48.0-1.0","4458.799999952316","<div class='center'><p>You press the <b>‘3’</b> button on the keyboard to choose the red bearded pirate. </p><p>Press 1 for true and press  2 for false.</p></div>","50","","","","","","","","","","","","","","","","","","",""
"","html-keyboard-response","75","284433","0.0-49.0-0.0","868.8999999761581","<div class='center'><p>That's correct!</p> <p><b>[press the space bar to continue with the quiz]</b></p></div>","32","","","","","","","","","","","","","","","","","","",""
"","html-keyboard-response","76","286843","0.0-49.0-1.0","2408.399999976158","<div class='center'><p>The pirate who is the best at robbing ships on the first island will be the best on every other island.</p><p>Press 1 for true and press  2 for false.</p></div>","50","","","","","","","","","","","","","","","","","","",""
"","html-keyboard-response","77","287252","0.0-50.0-0.0","408","<div class='center'><p>That's correct!</p> <p><b>[press the space bar to continue with the quiz]</b></p></div>","32","","","","","","","","","","","","","","","","","","",""
"","html-keyboard-response","78","288535","0.0-50.0-1.0","1281.3999999761581","<div class='center'><p>You should remember the island where a pirate robbed a ship.</p><p>Press 1 for true and press  2 for false.</p></div>","50","","","","","","","","","","","","","","","","","","",""
"","html-keyboard-response","79","289773","0.0-51.0-0.0","1236.7999999523163","<div class='center'><p>That’s incorrect! You should remember the island where a pirate robbed a ship. You can try associating the object on the ship with the island to better remember.</p><p><b>[press the space bar to continue with the quiz]</b></p></div>","32","","","","","","","","","","","","","","","","","","",""
"","html-keyboard-response","80","292463","0.0-52.0-0.0","2689.5999999046326","<div class='center'><p>Oops, you missed some questions. Now that you’ve heard the correct answers. Try the quiz again! If you fail the quiz too many times, you won’t be able to do the experiment. </p> <p><br>[press the space bar to repeat the quiz]</br></p></div>","32","","","","","","","","","","","","","","","","","","",""
"","html-keyboard-response","81","294023","0.0-52.0-1.0","1558","<div class='center'><p>You win bonus money by making choices as fast as possible.</p><p>Press 1 for true and press  2 for false.</p></div>","50","","","","","","","","","","","","","","","","","","",""
"","html-keyboard-response","82","294553","0.0-53.0-0.0","529.3999999761581","<div class='center'><p>That's correct!</p> <p><b>[press the space bar to continue with the quiz]</b></p></div>","32","","","","","","","","","","","","","","","","","","",""
"","html-keyboard-response","83","296352","0.0-53.0-1.0","1797.7999999523163","<div class='center'><p>You press the <b>‘3’</b> button on the keyboard to choose the red bearded pirate. </p><p>Press 1 for true and press  2 for false.</p></div>","50","","","","","","","","","","","","","","","","","","",""
"","html-keyboard-response","84","296713","0.0-54.0-0.0","359.90000009536743","<div class='center'><p>That's correct!</p> <p><b>[press the space bar to continue with the quiz]</b></p></div>","32","","","","","","","","","","","","","","","","","","",""
"","html-keyboard-response","85","299625","0.0-54.0-1.0","2910.7000000476837","<div class='center'><p>The pirate who is the best at robbing ships on the first island will be the best on every other island.</p><p>Press 1 for true and press  2 for false.</p></div>","50","","","","","","","","","","","","","","","","","","",""
"","html-keyboard-response","86","300083","0.0-55.0-0.0","456.5","<div class='center'><p>That's correct!</p> <p><b>[press the space bar to continue with the quiz]</b></p></div>","32","","","","","","","","","","","","","","","","","","",""
"","html-keyboard-response","87","301793","0.0-55.0-1.0","1709","<div class='center'><p>You should remember the island where a pirate robbed a ship.</p><p>Press 1 for true and press  2 for false.</p></div>","49","","","","","","","","","","","","","","","","","","",""
"","html-keyboard-response","88","302183","0.0-56.0-0.0","373.2999999523163","<div class='center'><p>That's correct!</p> <p><b>[press the space bar to continue with the quiz]</b></p></div>","32","","","","","","","","","","","","","","","","","","",""
"","html-keyboard-response","89","303404","0.0-57.0-0.0","1219","<div class='center'><p>Good job! You’re now ready to move on to the real game!</p> <p><br>[press the space bar to begin!]</br></p></div>","32","","","","","","","","","","","","","","","","","","",""
"","do_welcome","90","304926","0.0-58.0-0.0","null","","","","null","","","","","","","","","","","","","","","","",""
"","do_trial","91","310472","0.0-59.0-0.0","904.7000000476837","","","","49","1,1,0","0","highway","0","probe-139","0.6","0.3","0.1","1","","","","","","","",""
"","html-keyboard-response","92","311481","0.0-59.0-1.0","null","<p></p>","null","","","","","","","","","","","","","","","","","","",""
"","do_trial","93","316541","0.0-60.0-0.0","428.2000000476837","","","","49","1,0,0","0","highway","1","probe-212","0.5591517137445424","0.3046461600714109","0.17138848639979182","1","","","","","","","",""
"","html-keyboard-response","94","317543","0.0-60.0-1.0","null","<p></p>","null","","","","","","","","","","","","","","","","","","",""
"","do_trial","95","322465","0.0-61.0-0.0","304.40000009536743","","","","49","1,1,0","0","highway","2","probe-40","0.8187505568654717","0.31332942727712365","0.22471359269522195","1","","","","","","","",""
"","html-keyboard-response","96","323478","0.0-61.0-1.0","null","<p></p>","null","","","","","","","","","","","","","","","","","","",""
"","do_trial","97","328369","0.0-62.0-0.0","270","","","","49","1,0,1","0","highway","3","probe-227","0.7194886747433037","0.24912975619947908","0.26423126757721993","1","","","","","","","",""
"","html-keyboard-response","98","329374","0.0-62.0-1.0","null","<p></p>","null","","","","","","","","","","","","","","","","","","",""
"","do_trial","99","334512","0.0-63.0-0.0","495","","","","49","1,1,0","0","highway","4","probe-16","0.721322858271826","0.28077069517348485","0.2185833660157358","1","","","","","","","",""
"","html-keyboard-response","100","335520","0.0-63.0-1.0","null","<p></p>","null","","","","","","","","","","","","","","","","","","",""
"","do_trial","101","340478","0.0-64.0-0.0","338.8000000715256","","","","49","1,0,1","0","highway","5","probe-50","0.7341748247108799","0.24403230225026587","0.17855536775022027","1","","","","","","","",""
"","html-keyboard-response","102","341484","0.0-64.0-1.0","null","<p></p>","null","","","","","","","","","","","","","","","","","","",""
"","do_trial","103","346473","0.0-65.0-0.0","355.89999997615814","","","","49","1,1,1","0","highway","6","probe-26","0.7498566229851993","0.3324250461853187","0.16967240971961267","1","","","","","","","",""
"","html-keyboard-response","104","347477","0.0-65.0-1.0","null","<p></p>","null","","","","","","","","","","","","","","","","","","",""
"","do_trial","105","352623","0.0-66.0-0.0","515.6000000238419","","","","49","1,1,0","0","highway","7","probe-213","0.6829119117137455","0.43103233623257853","0.12026010575648484","1","","","","","","","",""
"","html-keyboard-response","106","353633","0.0-66.0-1.0","null","<p></p>","null","","","","","","","","","","","","","","","","","","",""
"","do_trial","107","358784","0.0-67.0-0.0","550.3999999761581","","","","49","0,0,0","0","highway","8","probe-155","0.6236916857098479","0.4332621568931985","0.18737062569454263","0","","","","","","","",""
"","html-keyboard-response","108","359802","0.0-67.0-1.0","null","<p></p>","null","","","","","","","","","","","","","","","","","","",""
"","do_trial","109","364785","0.0-68.0-0.0","354.7000000476837","","","","50","1,1,0","0","highway","9","probe-69","0.45501321522788585","0.3118064751195933","0.21536743679960121","1","","","","","","","",""
"","html-keyboard-response","110","365787","0.0-68.0-1.0","null","<p></p>","null","","","","","","","","","","","","","","","","","","",""
"","do_trial","111","370814","0.0-69.0-0.0","382.2999999523163","","","","50","0,0,1","0","highway","10","probe-146","0.4675179689571578","0.22016002636683632","0.18809994227923146","0","","","","","","","",""
"","html-keyboard-response","112","371821","0.0-69.0-1.0","null","<p></p>","null","","","","","","","","","","","","","","","","","","",""
"","do_trial","113","376712","0.0-70.0-0.0","321.5","","","","51","1,0,1","0","highway","11","probe-27","0.4512425387830998","0.4478894277291017","0.12438292108251359","1","","","","","","","",""
"","html-keyboard-response","114","377715","0.0-70.0-1.0","null","<p></p>","null","","","","","","","","","","","","","","","","","","",""
"","do_trial","115","382721","0.0-71.0-0.0","379","","","","51","0,0,0","0","highway","12","probe-224","0.4991026673320093","0.36605775586455713","0.08274671699490656","0","","","","","","","",""
"","html-keyboard-response","116","383730","0.0-71.0-1.0","null","<p></p>","null","","","","","","","","","","","","","","","","","","",""
"","do_trial","117","388768","0.0-72.0-0.0","392.09999990463257","","","","49","0,0,0","0","highway","13","probe-114","0.7620564083046635","0.25638185305943767","0.16287982846124216","0","","","","","","","",""
"","html-keyboard-response","118","389786","0.0-72.0-1.0","null","<p></p>","null","","","","","","","","","","","","","","","","","","",""
"","do_trial","119","394699","0.0-73.0-0.0","270","","","","50","1,0,0","0","highway","14","probe-207","0.7371907832898432","0.30706582536518423","0.19671984780677393","0","","","","","","","",""
"","html-keyboard-response","120","395704","0.0-73.0-1.0","null","<p></p>","null","","","","","","","","","","","","","","","","","","",""
"","do_trial","121","400619","0.0-74.0-0.0","290.6999999284744","","","","51","1,0,0","0","highway","15","probe-75","0.675020187465465","0.21594036144840587","0.1728887149773405","0","","","","","","","",""
"","html-keyboard-response","122","401622","0.0-74.0-1.0","null","<p></p>","null","","","","","","","","","","","","","","","","","","",""
"","do_trial","123","406618","0.0-75.0-0.0","370.8000000715256","","","","49","0,0,0","0","highway","16","probe-178","0.5518608764175622","0.21582344892225253","0.12380411824812482","0","","","","","","","",""
"","html-keyboard-response","124","407628","0.0-75.0-1.0","null","<p></p>","null","","","","","","","","","","","","","","","","","","",""
"","do_trial","125","412599","0.0-76.0-0.0","333","","","","49","0,0,0","0","highway","17","probe-93","0.7544646568576947","0.17858997116991046","0.1130161973466642","0","","","","","","","",""
"","html-keyboard-response","126","413603","0.0-76.0-1.0","null","<p></p>","null","","","","","","","","","","","","","","","","","","",""
"","do_trial","127","418458","0.0-77.0-0.0","287","","","","50","0,0,1","0","highway","18","probe-35","0.6265162699284466","0.2128301676723518","0.20594161765738983","0","","","","","","","",""
"","html-keyboard-response","128","419477","0.0-77.0-1.0","null","<p></p>","null","","","","","","","","","","","","","","","","","","",""
"","do_trial","129","424504","0.0-78.0-0.0","395.2000000476837","","","","51","0,1,0","0","highway","19","probe-03","0.6396446864262205","0.2075093677325134","0.3356900459843976","0","","","","","","","",""
"","html-keyboard-response","130","425515","0.0-78.0-1.0","null","<p></p>","null","","","","","","","","","","","","","","","","","","",""
"","do_trial","131","430500","0.0-79.0-0.0","371.2999999523163","","","","51","1,0,1","0","highway","20","probe-74","0.7252824612087834","0.19157272783472967","0.05436875465480036","1","","","","","","","",""
"","html-keyboard-response","132","431507","0.0-79.0-1.0","null","<p></p>","null","","","","","","","","","","","","","","","","","","",""
"","do_trial","133","436515","0.0-80.0-0.0","361.89999997615814","","","","51","0,1,0","0","highway","21","probe-176","0.6942585065596897","0.31100922103799944","0.05373764539493202","0","","","","","","","",""
"","html-keyboard-response","134","437519","0.0-80.0-1.0","null","<p></p>","null","","","","","","","","","","","","","","","","","","",""
"","do_trial","135","443119","0.0-81.0-0.0","975.0999999046326","","","","51","1,1,0","0","highway","22","probe-87","0.7195376693877659","0.20196845204850924","0.05426807338914255","0","","","","","","","",""
"","html-keyboard-response","136","444128","0.0-81.0-1.0","null","<p></p>","null","","","","","","","","","","","","","","","","","","",""
"","do_trial","137","449034","0.0-82.0-0.0","277","","","","49","1,0,0","0","highway","23","probe-195","0.7302866141193053","0.25527540225753165","0.07129609541613358","1","","","","","","","",""
"","html-keyboard-response","138","450052","0.0-82.0-1.0","null","<p></p>","null","","","","","","","","","","","","","","","","","","",""
"","do_trial","139","455025","0.0-83.0-0.0","339.89999997615814","","","","49","1,0,0","0","highway","24","probe-216","0.7976495177372221","0.35367617795276024","0.1210373429810743","1","","","","","","","",""
"","html-keyboard-response","140","456033","0.0-83.0-1.0","null","<p></p>","null","","","","","","","","","","","","","","","","","","",""
"","do_trial","141","460941","0.0-84.0-0.0","266.60000002384186","","","","49","1,0,0","0","highway","25","probe-185","0.6860216478699915","0.42787838701405523","0.127321110175177","1","","","","","","","",""
"","html-keyboard-response","142","461947","0.0-84.0-1.0","null","<p></p>","null","","","","","","","","","","","","","","","","","","",""
"","do_trial","143","466997","0.0-85.0-0.0","410.10000002384186","","","","49","1,1,0","0","highway","26","probe-169","0.6002414340260964","0.32816259255517866","0.06740518594580355","1","","","","","","","",""
"","html-keyboard-response","144","468006","0.0-85.0-1.0","null","<p></p>","null","","","","","","","","","","","","","","","","","","",""
"","do_trial","145","472935","0.0-86.0-0.0","300.2000000476837","","","","49","0,0,0","0","highway","27","probe-48","0.4571911719158693","0.4356006428955223","0.06959924662877734","0","","","","","","","",""
"","html-keyboard-response","146","473939","0.0-86.0-1.0","null","<p></p>","null","","","","","","","","","","","","","","","","","","",""
"","do_trial","147","478848","0.0-87.0-0.0","287.2999999523163","","","","49","1,0,0","0","highway","28","probe-167","0.5450685977235911","0.3275587482927745","0.14847790890247442","1","","","","","","","",""
"","html-keyboard-response","148","479860","0.0-87.0-1.0","null","<p></p>","null","","","","","","","","","","","","","","","","","","",""
"","do_trial","149","484750","0.0-88.0-0.0","254.29999995231628","","","","49","1,0,0","0","highway","29","probe-96","0.6594814808500725","0.3887865283600443","0.08065517488681798","1","","","","","","","",""
"","html-keyboard-response","150","485760","0.0-88.0-1.0","null","<p></p>","null","","","","","","","","","","","","","","","","","","",""
"","do_bye","151","487278","0.0-89.0-0.0","null","","","","null","","","","","","","","","","","","","","","","",""
"","do_travel","152","493285","0.0-90.0-0.0","null","","","","null","","","","","","","","","","","","","","","","",""
"","do_welcome","153","494800","0.0-90.0-1.0","null","","","","null","","","","","","","","","","","","","","","","",""
"","do_trial","154","499944","0.0-91.0-0.0","520.2999999523163","","","","50","1,1,0","1","city","30","probe-157","1","0.3083399555658729","0.0907350516879751","1","","","","","","","",""
"","html-keyboard-response","155","500947","0.0-91.0-1.0","null","<p></p>","null","","","","","","","","","","","","","","","","","","",""
"","do_trial","156","505869","0.0-92.0-0.0","277","","","","50","1,1,0","1","city","31","probe-128","1","0.30320586451322085","0.1959458038178576","1","","","","","","","",""
"","html-keyboard-response","157","506871","0.0-92.0-1.0","null","<p></p>","null","","","","","","","","","","","","","","","","","","",""
"","do_trial","158","511808","0.0-93.0-0.0","298.7000000476837","","","","50","1,1,0","1","city","32","probe-55","1","0.3406793304179921","0.1451276200258888","1","","","","","","","",""
"","html-keyboard-response","159","512820","0.0-93.0-1.0","null","<p></p>","null","","","","","","","","","","","","","","","","","","",""
"","do_trial","160","517909","0.0-94.0-0.0","448.60000002384186","","","","50","1,0,0","1","city","33","probe-141","0.8046874811181088","0.21110906314081085","0.06240141063417097","0","","","","","","","",""
"","html-keyboard-response","161","518918","0.0-94.0-1.0","null","<p></p>","null","","","","","","","","","","","","","","","","","","",""
"","do_trial","162","523758","0.0-95.0-0.0","250.59999990463257","","","","51","0,0,1","1","city","34","probe-42","0.7762703247275182","0.4570351151795262","0.12182126118351357","1","","","","","","","",""
"","html-keyboard-response","163","524760","0.0-95.0-1.0","null","<p></p>","null","","","","","","","","","","","","","","","","","","",""
"","do_trial","164","529684","0.0-96.0-0.0","284.5","","","","51","1,0,0","1","city","35","probe-24","0.5920581418311562","0.2830371506547848","0.12286894441605688","0","","","","","","","",""
"","html-keyboard-response","165","530689","0.0-96.0-1.0","null","<p></p>","null","","","","","","","","","","","","","","","","","","",""
"","do_trial","166","535669","0.0-97.0-0.0","357.89999997615814","","","","50","1,0,0","1","city","36","probe-31","0.5810658851642841","0.3100835827151586","0.16000379775396545","0","","","","","","","",""
"","html-keyboard-response","167","536672","0.0-97.0-1.0","null","<p></p>","null","","","","","","","","","","","","","","","","","","",""
"","do_trial","168","541641","0.0-98.0-0.0","348.89999997615814","","","","49","0,1,0","1","city","37","probe-45","0.6151732747319766","0.5048061873470745","0.10195510405189091","0","","","","","","","",""
"","html-keyboard-response","169","542650","0.0-98.0-1.0","null","<p></p>","null","","","","","","","","","","","","","","","","","","",""
"","do_trial","170","547655","0.0-99.0-0.0","379.90000009536743","","","","51","1,1,0","1","city","38","probe-217","0.5897700428108364","0.40458454237870667","0.12490093414443319","0","","","","","","","",""
"","html-keyboard-response","171","548663","0.0-99.0-1.0","null","<p></p>","null","","","","","","","","","","","","","","","","","","",""
"","do_trial","172","553543","0.0-100.0-0.0","237.40000009536743","","","","50","1,0,0","1","city","39","probe-76","0.5994220323901696","0.22795494039566533","0.1114435297977125","0","","","","","","","",""
"","html-keyboard-response","173","554547","0.0-100.0-1.0","null","<p></p>","null","","","","","","","","","","","","","","","","","","",""
"","do_trial","174","559457","0.0-101.0-0.0","279.89999997615814","","","","50","1,0,0","1","city","40","probe-210","0.6250790031374139","0.2783366729679402","0.12397509395836048","0","","","","","","","",""
"","html-keyboard-response","175","560472","0.0-101.0-1.0","null","<p></p>","null","","","","","","","","","","","","","","","","","","",""
"","do_trial","176","565392","0.0-102.0-0.0","275.8000000715256","","","","50","1,0,1","1","city","41","probe-119","0.686891809889115","0.19439842801283042","0.1630270455270871","0","","","","","","","",""
"","html-keyboard-response","177","566396","0.0-102.0-1.0","null","<p></p>","null","","","","","","","","","","","","","","","","","","",""
"","do_trial","178","571342","0.0-103.0-0.0","321.5","","","","50","1,0,0","1","city","42","probe-10","0.47325708523244614","0.3880119433344373","0.2733326117995472","0","","","","","","","",""
"","html-keyboard-response","179","572351","0.0-103.0-1.0","null","<p></p>","null","","","","","","","","","","","","","","","","","","",""
"","do_trial","180","577282","0.0-104.0-0.0","288.2999999523163","","","","49","1,1,0","1","city","43","probe-11","0.5003081746930447","0.5382510106235333","0.29991560319853144","1","","","","","","","",""
"","html-keyboard-response","181","578287","0.0-104.0-1.0","null","<p></p>","null","","","","","","","","","","","","","","","","","","",""
"","do_trial","182","583162","0.0-105.0-0.0","251.5","","","","49","1,1,0","1","city","44","probe-19","0.3825752807017958","0.5156214693273813","0.402987910831625","1","","","","","","","",""
"","html-keyboard-response","183","584167","0.0-105.0-1.0","null","<p></p>","null","","","","","","","","","","","","","","","","","","",""
"","do_trial","184","589053","0.0-106.0-0.0","265","","","","49","0,0,0","1","city","45","probe-23","0.31799381599960297","0.4802864945619345","0.4140826415216055","0","","","","","","","",""
"","html-keyboard-response","185","590056","0.0-106.0-1.0","null","<p></p>","null","","","","","","","","","","","","","","","","","","",""
"","do_trial","186","594927","0.0-107.0-0.0","246.39999997615814","","","","50","0,1,0","1","city","46","probe-192","0.30030316423706127","0.726366544236791","0.48526041712014406","1","","","","","","","",""
"","html-keyboard-response","187","595929","0.0-107.0-1.0","null","<p></p>","null","","","","","","","","","","","","","","","","","","",""
"","do_trial","188","600893","0.0-108.0-0.0","394.09999990463257","","","","50","1,1,0","1","city","47","probe-65","0.24894450280632938","0.5981108566514393","0.4834530289913884","1","","","","","","","",""
"","html-keyboard-response","189","601900","0.0-108.0-1.0","null","<p></p>","null","","","","","","","","","","","","","","","","","","",""
"","do_trial","190","606884","0.0-109.0-0.0","368.60000002384186","","","","50","1,0,1","1","city","48","probe-99","0.2525484930786322","0.5729210250624162","0.3634590559399023","0","","","","","","","",""
"","html-keyboard-response","191","607892","0.0-109.0-1.0","null","<p></p>","null","","","","","","","","","","","","","","","","","","",""
"","do_trial","192","613061","0.0-110.0-0.0","543.3999999761581","","","","50","1,1,0","1","city","49","probe-77","0.18216485857634518","0.5801677226475402","0.2448666202910905","1","","","","","","","",""
"","html-keyboard-response","193","614072","0.0-110.0-1.0","null","<p></p>","null","","","","","","","","","","","","","","","","","","",""
"","do_trial","194","619084","0.0-111.0-0.0","420.5","","","","50","0,1,0","1","city","50","probe-18","0.1016905755141786","0.6729641380036651","0.14919746324372546","1","","","","","","","",""
"","html-keyboard-response","195","620089","0.0-111.0-1.0","null","<p></p>","null","","","","","","","","","","","","","","","","","","",""
"","do_trial","196","625163","0.0-112.0-0.0","437.8000000715256","","","","50","0,1,0","1","city","51","probe-36","0.06647808305247442","0.6321787200567622","0.1397231114583564","1","","","","","","","",""
"","html-keyboard-response","197","626170","0.0-112.0-1.0","null","<p></p>","null","","","","","","","","","","","","","","","","","","",""
"","do_trial","198","631158","0.0-113.0-0.0","343.39999997615814","","","","50","0,0,0","1","city","52","probe-110","0.10381387957377726","0.4835798184346924","0.15875096851035472","0","","","","","","","",""
"","html-keyboard-response","199","632168","0.0-113.0-1.0","null","<p></p>","null","","","","","","","","","","","","","","","","","","",""
"","do_trial","200","637128","0.0-114.0-0.0","311.2000000476837","","","","50","0,0,0","1","city","53","probe-150","0.07541540797210601","0.5586064405135586","0.29646302211579795","0","","","","","","","",""
"","html-keyboard-response","201","638131","0.0-114.0-1.0","null","<p></p>","null","","","","","","","","","","","","","","","","","","",""
"","do_trial","202","643193","0.0-115.0-0.0","409.7999999523163","","","","49","0,1,0","1","city","54","probe-72","0.13302761137848523","0.6155974977461065","0.2732556784842752","0","","","","","","","",""
"","html-keyboard-response","203","644205","0.0-115.0-1.0","null","<p></p>","null","","","","","","","","","","","","","","","","","","",""
"","do_trial","204","649130","0.0-116.0-0.0","303.10000002384186","","","","51","1,1,1","1","city","55","probe-184","0.14482286357442775","0.840843868386998","0.37369874183630486","1","","","","","","","",""
"","html-keyboard-response","205","650137","0.0-116.0-1.0","null","<p></p>","null","","","","","","","","","","","","","","","","","","",""
"","do_trial","206","655132","0.0-117.0-0.0","360.60000002384186","","","","51","0,1,1","1","city","56","probe-170","0.11740821786396832","0.6091266266202038","0.3581353287094741","1","","","","","","","",""
"","html-keyboard-response","207","656143","0.0-117.0-1.0","null","<p></p>","null","","","","","","","","","","","","","","","","","","",""
"","do_trial","208","661186","0.0-118.0-0.0","398.5","","","","51","0,1,0","1","city","57","probe-214","0.11596442155415208","0.6810056047328575","0.2741325240278774","0","","","","","","","",""
"","html-keyboard-response","209","662191","0.0-118.0-1.0","null","<p></p>","null","","","","","","","","","","","","","","","","","","",""
"","do_trial","210","667158","0.0-119.0-0.0","326.39999997615814","","","","50","1,1,0","1","city","58","probe-22","0.1395078368892173","0.8216705766647351","0.2751607526947614","1","","","","","","","",""
"","html-keyboard-response","211","668172","0.0-119.0-1.0","null","<p></p>","null","","","","","","","","","","","","","","","","","","",""
"","do_trial","212","673211","0.0-120.0-0.0","398.5","","","","50","0,1,1","1","city","59","probe-166","0.1295335293773764","0.633466212197378","0.36290426644090773","1","","","","","","","",""
"","html-keyboard-response","213","674216","0.0-120.0-1.0","null","<p></p>","null","","","","","","","","","","","","","","","","","","",""
"","do_trial","214","679236","0.0-121.0-0.0","391.09999990463257","","","","50","0,1,1","1","city","60","probe-73","0.1348663737432892","0.6333453811513867","0.3799696753215614","1","","","","","","","",""
"","html-keyboard-response","215","680246","0.0-121.0-1.0","null","<p></p>","null","","","","","","","","","","","","","","","","","","",""
"","do_trial","216","685431","0.0-122.0-0.0","594.1999999284744","","","","50","0,0,1","1","city","61","probe-29","0.0692336749632863","0.6617431242292565","0.2845125092487525","0","","","","","","","",""
"","html-keyboard-response","217","686441","0.0-122.0-1.0","null","<p></p>","null","","","","","","","","","","","","","","","","","","",""
"","do_trial","218","691351","0.0-123.0-0.0","286.60000002384186","","","","50","0,0,1","1","city","62","probe-181","0.10014218226973581","0.5466547604007188","0.15732227631382634","0","","","","","","","",""
"","html-keyboard-response","219","692357","0.0-123.0-1.0","null","<p></p>","null","","","","","","","","","","","","","","","","","","",""
"","do_trial","220","697307","0.0-124.0-0.0","308.2999999523163","","","","49","0,1,0","1","city","63","probe-52","0.051531946512470964","0.6167186288212635","0.21614214601880777","0","","","","","","","",""
"","html-keyboard-response","221","698321","0.0-124.0-1.0","null","<p></p>","null","","","","","","","","","","","","","","","","","","",""
"","do_trial","222","703206","0.0-125.0-0.0","244.5","","","","51","1,0,1","1","city","64","probe-140","0.10798221877314697","0.6329382456598552","0.21930873680346982","1","","","","","","","",""
"","html-keyboard-response","223","704218","0.0-125.0-1.0","null","<p></p>","null","","","","","","","","","","","","","","","","","","",""
"","do_trial","224","709274","0.0-126.0-0.0","467.2999999523163","","","","51","1,0,0","1","city","65","probe-111","0.21525785619412283","0.6560633558961824","0.18111050148764296","0","","","","","","","",""
"","html-keyboard-response","225","710279","0.0-126.0-1.0","null","<p></p>","null","","","","","","","","","","","","","","","","","","",""
"","do_trial","226","715143","0.0-127.0-0.0","254.79999995231628","","","","50","0,0,0","1","city","66","probe-85","0.31446815842408543","0.624660938032536","0.15438261424725594","0","","","","","","","",""
"","html-keyboard-response","227","716154","0.0-127.0-1.0","null","<p></p>","null","","","","","","","","","","","","","","","","","","",""
"","do_trial","228","721107","0.0-128.0-0.0","306.5","","","","51","1,1,0","1","city","67","probe-07","0.22907947095804326","0.7147942888973787","0.13979273209363988","0","","","","","","","",""
"","html-keyboard-response","229","722116","0.0-128.0-1.0","null","<p></p>","null","","","","","","","","","","","","","","","","","","",""
"","do_trial","230","727097","0.0-129.0-0.0","344.5","","","","49","0,1,0","1","city","68","probe-68","0.19092582293441154","0.6808154845249291","0.1165973524797719","0","","","","","","","",""
"","html-keyboard-response","231","728105","0.0-129.0-1.0","null","<p></p>","null","","","","","","","","","","","","","","","","","","",""
"","do_trial","232","733198","0.0-130.0-0.0","479.10000002384186","","","","50","0,1,0","1","city","69","probe-14","0.06762277769683142","0.7405459995088591","0.10997427588921437","1","","","","","","","",""
"","html-keyboard-response","233","734201","0.0-130.0-1.0","null","<p></p>","null","","","","","","","","","","","","","","","","","","",""
"","do_bye","234","735713","0.0-131.0-0.0","null","","","","null","","","","","","","","","","","","","","","","",""
"","do_travel","235","741721","0.0-132.0-0.0","null","","","","null","","","","","","","","","","","","","","","","",""
"","do_welcome","236","743231","0.0-132.0-1.0","null","","","","null","","","","","","","","","","","","","","","","",""
"","do_trial","237","748851","0.0-133.0-0.0","982","","","","51","0,1,0","2","countryside","70","probe-197","0.06917612103782177","1","0.32191156359302725","0","","","","","","","",""
"","html-keyboard-response","238","749863","0.0-133.0-1.0","null","<p></p>","null","","","","","","","","","","","","","","","","","","",""
"","do_trial","239","755064","0.0-134.0-0.0","557","","","","50","0,1,0","2","countryside","71","probe-125","0.07714664357318929","1","0.3014568222759101","1","","","","","","","",""
"","html-keyboard-response","240","756070","0.0-134.0-1.0","null","<p></p>","null","","","","","","","","","","","","","","","","","","",""
"","do_trial","241","761025","0.0-135.0-0.0","311.59999990463257","","","","50","0,0,0","2","countryside","72","probe-41","0.16479918891414158","0.6492901012858397","0.15478220923050207","0","","","","","","","",""
"","html-keyboard-response","242","762033","0.0-135.0-1.0","null","<p></p>","null","","","","","","","","","","","","","","","","","","",""
"","do_trial","243","766909","0.0-136.0-0.0","262.8000000715256","","","","49","0,1,0","2","countryside","73","probe-191","0.22761506766978848","0.5878037398271353","0.15989075683327922","0","","","","","","","",""
"","html-keyboard-response","244","767918","0.0-136.0-1.0","null","<p></p>","null","","","","","","","","","","","","","","","","","","",""
"","do_trial","245","772911","0.0-137.0-0.0","355.8000000715256","","","","50","0,0,0","2","countryside","74","probe-113","0.3595741033710404","0.5243167446982677","0.12718673215184864","0","","","","","","","",""
"","html-keyboard-response","246","773917","0.0-137.0-1.0","null","<p></p>","null","","","","","","","","","","","","","","","","","","",""
"","do_trial","247","778989","0.0-138.0-0.0","433","","","","51","0,1,0","2","countryside","75","probe-220","0.30691601373228833","0.5139450385397002","0.2503202807390306","0","","","","","","","",""
"","html-keyboard-response","248","779998","0.0-138.0-1.0","null","<p></p>","null","","","","","","","","","","","","","","","","","","",""
"","do_trial","249","785082","0.0-139.0-0.0","427.59999990463257","","","","50","0,1,0","2","countryside","76","probe-90","0.22241819790491646","0.5492510126406251","0.3570975403533505","1","","","","","","","",""
"","html-keyboard-response","250","786085","0.0-139.0-1.0","null","<p></p>","null","","","","","","","","","","","","","","","","","","",""
"","do_trial","251","791490","0.0-140.0-0.0","766.5","","","","50","0,0,0","2","countryside","77","probe-82","0.11663404877723316","0.5862275072532755","0.2645031186685405","0","","","","","","","",""
"","html-keyboard-response","252","792499","0.0-140.0-1.0","null","<p></p>","null","","","","","","","","","","","","","","","","","","",""
"","do_trial","253","797584","0.0-141.0-0.0","445.40000009536743","","","","50","0,0,1","2","countryside","78","probe-152","0.15909021150203242","0.6438543452669017","0.33197023114476104","0","","","","","","","",""
"","html-keyboard-response","254","798592","0.0-141.0-1.0","null","<p></p>","null","","","","","","","","","","","","","","","","","","",""
"","do_trial","255","803579","0.0-142.0-0.0","379.1999999284744","","","","49","0,1,0","2","countryside","79","probe-211","0.15996240645158266","0.6065589831782473","0.2928733618767171","0","","","","","","","",""
"","html-keyboard-response","256","804583","0.0-142.0-1.0","null","<p></p>","null","","","","","","","","","","","","","","","","","","",""
"","do_trial","257","809629","0.0-143.0-0.0","403.2000000476837","","","","50","0,1,0","2","countryside","80","probe-196","0.2836698797165659","0.486100200423488","0.2940437050977155","1","","","","","","","",""
"","html-keyboard-response","258","810631","0.0-143.0-1.0","null","<p></p>","null","","","","","","","","","","","","","","","","","","",""
"","do_trial","259","815688","0.0-144.0-0.0","388.1999999284744","","","","50","0,0,1","2","countryside","81","probe-09","0.38333952096498686","0.40142697977695113","0.3913979371229744","0","","","","","","","",""
"","html-keyboard-response","260","816692","0.0-144.0-1.0","null","<p></p>","null","","","","","","","","","","","","","","","","","","",""
"","do_trial","261","822311","0.0-145.0-0.0","963.1000000238419","","","","51","1,0,0","2","countryside","82","probe-46","0.5499502248348216","0.3135485776390407","0.39463618780470816","0","","","","","","","",""
"","html-keyboard-response","262","823314","0.0-145.0-1.0","null","<p></p>","null","","","","","","","","","","","","","","","","","","",""
"","do_trial","263","828351","0.0-146.0-0.0","417","","","","49","0,0,0","2","countryside","83","probe-89","0.6572137860092176","0.24199985975389385","0.3194798839747929","0","","","","","","","",""
"","html-keyboard-response","264","829353","0.0-146.0-1.0","null","<p></p>","null","","","","","","","","","","","","","","","","","","",""
"","do_trial","265","834269","0.0-147.0-0.0","262.2000000476837","","","","51","0,0,0","2","countryside","84","probe-81","0.5453753556124431","0.0885997005993846","0.34608700897675415","0","","","","","","","",""
"","html-keyboard-response","266","835272","0.0-147.0-1.0","null","<p></p>","null","","","","","","","","","","","","","","","","","","",""
"","do_trial","267","840115","0.0-148.0-0.0","263.10000002384186","","","","50","1,0,0","2","countryside","85","probe-63","0.5065731110831109","0.10747382550031624","0.4289404849117843","0","","","","","","","",""
"","html-keyboard-response","268","841118","0.0-148.0-1.0","null","<p></p>","null","","","","","","","","","","","","","","","","","","",""
"","do_trial","269","846165","0.0-149.0-0.0","388.39999997615814","","","","49","1,0,0","2","countryside","86","probe-226","0.40682038228329276","0.08105013451730343","0.3064700808568458","1","","","","","","","",""
"","html-keyboard-response","270","847167","0.0-149.0-1.0","null","<p></p>","null","","","","","","","","","","","","","","","","","","",""
"","do_trial","271","852059","0.0-150.0-0.0","271.7000000476837","","","","49","0,0,1","2","countryside","87","probe-225","0.4117970552159358","0.10212709508627081","0.3719173059853737","0","","","","","","","",""
"","html-keyboard-response","272","853070","0.0-150.0-1.0","null","<p></p>","null","","","","","","","","","","","","","","","","","","",""
"","do_trial","273","858360","0.0-151.0-0.0","708.3999999761581","","","","49","0,0,0","2","countryside","88","probe-98","0.49918453630434295","0.13248214705674405","0.3452948791121463","0","","","","","","","",""
"","html-keyboard-response","274","859367","0.0-151.0-1.0","null","<p></p>","null","","","","","","","","","","","","","","","","","","",""
"","do_trial","275","864577","0.0-152.0-0.0","614.3000000715256","","","","50","1,0,0","2","countryside","89","probe-164","0.4522959010104606","0.1805954913097495","0.18783921641825072","0","","","","","","","",""
"","html-keyboard-response","276","865588","0.0-152.0-1.0","null","<p></p>","null","","","","","","","","","","","","","","","","","","",""
"","do_trial","277","870747","0.0-153.0-0.0","504.09999990463257","","","","51","0,0,1","2","countryside","90","probe-130","0.582405930320598","0.17303627866684626","0.2956443612840262","1","","","","","","","",""
"","html-keyboard-response","278","871761","0.0-153.0-1.0","null","<p></p>","null","","","","","","","","","","","","","","","","","","",""
"","do_trial","279","876836","0.0-154.0-0.0","409.10000002384186","","","","51","1,0,0","2","countryside","91","probe-148","0.5278682349122005","0.14020763598155428","0.5025864525542045","0","","","","","","","",""
"","html-keyboard-response","280","877839","0.0-154.0-1.0","null","<p></p>","null","","","","","","","","","","","","","","","","","","",""
"","do_trial","281","882670","0.0-155.0-0.0","205.70000004768372","","","","50","0,0,0","2","countryside","92","probe-84","0.5683030355230405","0.12347900918515729","0.4660368220164783","0","","","","","","","",""
"","html-keyboard-response","282","883675","0.0-155.0-1.0","null","<p></p>","null","","","","","","","","","","","","","","","","","","",""
"","do_trial","283","888685","0.0-156.0-0.0","351","","","","49","1,1,1","2","countryside","93","probe-222","0.6872876172251811","0.279860450981946","0.4509546636053012","1","","","","","","","",""
"","html-keyboard-response","284","889696","0.0-156.0-1.0","null","<p></p>","null","","","","","","","","","","","","","","","","","","",""
"","do_trial","285","894686","0.0-157.0-0.0","346.5","","","","49","0,0,0","2","countryside","94","probe-104","0.5756638795851318","0.2279970713479816","0.5616107799373277","0","","","","","","","",""
"","html-keyboard-response","286","895696","0.0-157.0-1.0","null","<p></p>","null","","","","","","","","","","","","","","","","","","",""
"","do_trial","287","900633","0.0-158.0-0.0","291.60000002384186","","","","49","1,0,1","2","countryside","95","probe-17","0.4673212270700347","0.13210020689705382","0.54092818850872","1","","","","","","","",""
"","html-keyboard-response","288","901637","0.0-158.0-1.0","null","<p></p>","null","","","","","","","","","","","","","","","","","","",""
"","do_trial","289","906537","0.0-159.0-0.0","329.2000000476837","","","","49","0,0,1","2","countryside","96","probe-118","0.34073284077812177","0.17435264707853348","0.4905981346515255","0","","","","","","","",""
"","html-keyboard-response","290","907542","0.0-159.0-1.0","null","<p></p>","null","","","","","","","","","","","","","","","","","","",""
"","do_trial","291","912733","0.0-160.0-0.0","543.8000000715256","","","","50","0,0,1","2","countryside","97","probe-173","0.3676559879542174","0.15642103050610845","0.374944093722013","0","","","","","","","",""
"","html-keyboard-response","292","913740","0.0-160.0-1.0","null","<p></p>","null","","","","","","","","","","","","","","","","","","",""
"","do_trial","293","918879","0.0-161.0-0.0","486.89999997615814","","","","49","0,1,0","2","countryside","98","probe-151","0.4037761945016951","0.0612191134293356","0.2648391115198783","0","","","","","","","",""
"","html-keyboard-response","294","919884","0.0-161.0-1.0","null","<p></p>","null","","","","","","","","","","","","","","","","","","",""
"","do_trial","295","925183","0.0-162.0-0.0","723.7999999523163","","","","49","1,0,0","2","countryside","99","probe-88","0.466286284993583","0.05663533301985462","0.2598818959594245","1","","","","","","","",""
"","html-keyboard-response","296","926188","0.0-162.0-1.0","null","<p></p>","null","","","","","","","","","","","","","","","","","","",""
"","do_trial","297","931608","0.0-163.0-0.0","777.7999999523163","","","","49","0,0,1","2","countryside","100","probe-190","0.4063373373886008","0.08487664713849132","0.3733995422985501","0","","","","","","","",""
"","html-keyboard-response","298","932612","0.0-163.0-1.0","null","<p></p>","null","","","","","","","","","","","","","","","","","","",""
"","do_trial","299","938014","0.0-164.0-0.0","733.1999999284744","","","","51","0,0,0","2","countryside","101","probe-102","0.47999979077791727","0.21933968012349836","0.38172859159998035","0","","","","","","","",""
"","html-keyboard-response","300","939023","0.0-164.0-1.0","null","<p></p>","null","","","","","","","","","","","","","","","","","","",""
"","do_trial","301","943939","0.0-165.0-0.0","322.8000000715256","","","","49","0,0,0","2","countryside","102","probe-132","0.5597455994103696","0.2635502479341759","0.3627993167771598","0","","","","","","","",""
"","html-keyboard-response","302","944946","0.0-165.0-1.0","null","<p></p>","null","","","","","","","","","","","","","","","","","","",""
"","do_trial","303","950112","0.0-166.0-0.0","530.7999999523163","","","","50","0,0,0","2","countryside","103","probe-174","0.7705180583735818","0.20218002108868946","0.1024846977397624","0","","","","","","","",""
"","html-keyboard-response","304","951119","0.0-166.0-1.0","null","<p></p>","null","","","","","","","","","","","","","","","","","","",""
"","do_trial","305","956404","0.0-167.0-0.0","628.2999999523163","","","","49","0,1,0","2","countryside","104","probe-97","0.6754241500367958","0.17944764292816587","0.12754199347323117","0","","","","","","","",""
"","html-keyboard-response","306","957410","0.0-167.0-1.0","null","<p></p>","null","","","","","","","","","","","","","","","","","","",""
"","do_trial","307","962394","0.0-168.0-0.0","358.3000000715256","","","","50","1,0,0","2","countryside","105","probe-204","0.7011053047885324","0.10682282611076044","0.35190310235839684","0","","","","","","","",""
"","html-keyboard-response","308","963399","0.0-168.0-1.0","null","<p></p>","null","","","","","","","","","","","","","","","","","","",""
"","do_trial","309","968333","0.0-169.0-0.0","337.89999997615814","","","","51","0,0,1","2","countryside","106","probe-107","0.7113283807275488","0.055570991806840615","0.3301312484532915","1","","","","","","","",""
"","html-keyboard-response","310","969343","0.0-169.0-1.0","null","<p></p>","null","","","","","","","","","","","","","","","","","","",""
"","do_trial","311","974294","0.0-170.0-0.0","304.7000000476837","","","","51","1,0,1","2","countryside","107","probe-38","0.6342848183511408","0.06840345681811755","0.2837166219949568","1","","","","","","","",""
"","html-keyboard-response","312","975303","0.0-170.0-1.0","null","<p></p>","null","","","","","","","","","","","","","","","","","","",""
"","do_trial","313","980273","0.0-171.0-0.0","363.10000002384186","","","","51","0,0,0","2","countryside","108","probe-138","0.5653360726019411","0.08413760152214318","0.3798478164357751","0","","","","","","","",""
"","html-keyboard-response","314","981275","0.0-171.0-1.0","null","<p></p>","null","","","","","","","","","","","","","","","","","","",""
"","do_trial","315","986310","0.0-172.0-0.0","398","","","","51","0,1,0","2","countryside","109","probe-91","0.4877714939399526","0.1312109043270155","0.24684517223240726","0","","","","","","","",""
"","html-keyboard-response","316","987318","0.0-172.0-1.0","null","<p></p>","null","","","","","","","","","","","","","","","","","","",""
"","do_bye","317","988842","0.0-173.0-0.0","null","","","","null","","","","","","","","","","","","","","","","",""
"","do_travel","318","994848","0.0-174.0-0.0","null","","","","null","","","","","","","","","","","","","","","","",""
"","do_welcome","319","996359","0.0-174.0-1.0","null","","","","null","","","","","","","","","","","","","","","","",""
"","do_trial","320","1001703","0.0-175.0-0.0","695.4000000953674","","","","49","1,0,1","3","mountain","110","probe-54","1","0.14980176794553132","0.17077189755619476","1","","","","","","","",""
"","html-keyboard-response","321","1002712","0.0-175.0-1.0","null","<p></p>","null","","","","","","","","","","","","","","","","","","",""
"","do_trial","322","1007686","0.0-176.0-0.0","311.89999997615814","","","","49","1,0,1","3","mountain","111","probe-156","1","0.12649569514362413","0.2117782259376002","1","","","","","","","",""
"","html-keyboard-response","323","1008695","0.0-176.0-1.0","null","<p></p>","null","","","","","","","","","","","","","","","","","","",""
"","do_trial","324","1013739","0.0-177.0-0.0","430","","","","49","1,0,0","3","mountain","112","probe-124","0.681162250703216","0.15657109255727636","0.2538128265662204","1","","","","","","","",""
"","html-keyboard-response","325","1014743","0.0-177.0-1.0","null","<p></p>","null","","","","","","","","","","","","","","","","","","",""
"","do_trial","326","1020046","0.0-178.0-0.0","654.2000000476837","","","","49","0,0,1","3","mountain","113","probe-21","0.6190546437947341","0.135287430592188","0.23045515631451846","0","","","","","","","",""
"","html-keyboard-response","327","1021049","0.0-178.0-1.0","null","<p></p>","null","","","","","","","","","","","","","","","","","","",""
"","do_trial","328","1025979","0.0-179.0-0.0","297.6999999284744","","","","50","0,0,0","3","mountain","114","probe-106","0.7452033906822836","0.2883178499838365","0.26760897469741907","0","","","","","","","",""
"","html-keyboard-response","329","1026987","0.0-179.0-1.0","null","<p></p>","null","","","","","","","","","","","","","","","","","","",""
"","do_trial","330","1031850","0.0-180.0-0.0","273","","","","51","0,0,0","3","mountain","115","probe-182","0.545816433256417","0.2764486240328285","0.15537401145497795","0","","","","","","","",""
"","html-keyboard-response","331","1032855","0.0-180.0-1.0","null","<p></p>","null","","","","","","","","","","","","","","","","","","",""
"","do_trial","332","1037843","0.0-181.0-0.0","340","","","","49","0,0,0","3","mountain","116","probe-57","0.3779615091933431","0.22872786773150233","0.2753678832459303","0","","","","","","","",""
"","html-keyboard-response","333","1038849","0.0-181.0-1.0","null","<p></p>","null","","","","","","","","","","","","","","","","","","",""
"","do_trial","334","1043809","0.0-182.0-0.0","324.39999997615814","","","","49","1,0,0","3","mountain","117","probe-100","0.35444012194019814","0.1699057104144437","0.37697927675732684","1","","","","","","","",""
"","html-keyboard-response","335","1044814","0.0-182.0-1.0","null","<p></p>","null","","","","","","","","","","","","","","","","","","",""
"","do_trial","336","1049763","0.0-183.0-0.0","331.10000002384186","","","","49","1,0,0","3","mountain","118","probe-117","0.5308027117256026","0.1463688718777045","0.27942195702989636","1","","","","","","","",""
"","html-keyboard-response","337","1050770","0.0-183.0-1.0","null","<p></p>","null","","","","","","","","","","","","","","","","","","",""
"","do_trial","338","1055901","0.0-184.0-0.0","479.10000002384186","","","","49","0,1,0","3","mountain","119","probe-59","0.4597643107435092","0.23260711672923007","0.35381394214822853","0","","","","","","","",""
"","html-keyboard-response","339","1056909","0.0-184.0-1.0","null","<p></p>","null","","","","","","","","","","","","","","","","","","",""
"","do_trial","340","1061794","0.0-185.0-0.0","285.89999997615814","","","","49","1,0,0","3","mountain","120","probe-149","0.4269770087190261","0.1403959763250502","0.46618512563392417","1","","","","","","","",""
"","html-keyboard-response","341","1062804","0.0-185.0-1.0","null","<p></p>","null","","","","","","","","","","","","","","","","","","",""
"","do_trial","342","1067881","0.0-186.0-0.0","426.8000000715256","","","","49","0,1,0","3","mountain","121","probe-143","0.39580035686319665","0.25013302619683464","0.4980544822012906","0","","","","","","","",""
"","html-keyboard-response","343","1068885","0.0-186.0-1.0","null","<p></p>","null","","","","","","","","","","","","","","","","","","",""
"","do_trial","344","1073841","0.0-187.0-0.0","306.39999997615814","","","","50","1,0,0","3","mountain","122","probe-219","0.4225865581914866","0.37883449581372836","0.35800475455564645","0","","","","","","","",""
"","html-keyboard-response","345","1074850","0.0-187.0-1.0","null","<p></p>","null","","","","","","","","","","","","","","","","","","",""
"","do_trial","346","1079788","0.0-188.0-0.0","271","","","","49","0,1,1","3","mountain","123","probe-34","0.3258128298965874","0.42901425934312787","0.2617581348181011","0","","","","","","","",""
"","html-keyboard-response","347","1080792","0.0-188.0-1.0","null","<p></p>","null","","","","","","","","","","","","","","","","","","",""
"","do_trial","348","1085681","0.0-189.0-0.0","266.6999999284744","","","","49","0,0,0","3","mountain","124","probe-229","0.29405733552008784","0.45302450232671093","0.19631968243545944","0","","","","","","","",""
"","html-keyboard-response","349","1086685","0.0-189.0-1.0","null","<p></p>","null","","","","","","","","","","","","","","","","","","",""
"","do_trial","350","1091339","0.0-190.0-0.0","0.2999999523162842","","","","51","1,1,0","3","mountain","125","probe-20","0.24237224789213696","0.4836977526855509","0.1485506573179028","0","","","","","","","",""
"","html-keyboard-response","351","1092347","0.0-190.0-1.0","null","<p></p>","null","","","","","","","","","","","","","","","","","","",""
"","do_trial","352","1097582","0.0-191.0-0.0","581.6999999284744","","","","51","0,1,0","3","mountain","126","probe-199","0.3778022236900644","0.5295318573259733","0.06305575198910848","0","","","","","","","",""
"","html-keyboard-response","353","1098592","0.0-191.0-1.0","null","<p></p>","null","","","","","","","","","","","","","","","","","","",""
"","do_trial","354","1103573","0.0-192.0-0.0","355.89999997615814","","","","49","0,0,0","3","mountain","127","probe-158","0.3968359509683549","0.5171987551992031","0.12901616502827573","0","","","","","","","",""
"","html-keyboard-response","355","1104585","0.0-192.0-1.0","null","<p></p>","null","","","","","","","","","","","","","","","","","","",""
"","do_trial","356","1109761","0.0-193.0-0.0","540","","","","49","0,0,0","3","mountain","128","probe-208","0.36925627667213645","0.5068082898615355","0.19026441304570774","0","","","","","","","",""
"","html-keyboard-response","357","1110769","0.0-193.0-1.0","null","<p></p>","null","","","","","","","","","","","","","","","","","","",""
"","do_trial","358","1115600","0.0-194.0-0.0","263","","","","49","0,1,0","3","mountain","129","probe-135","0.3663080869235138","0.60946459731679","0.22488269346170395","0","","","","","","","",""
"","html-keyboard-response","359","1116608","0.0-194.0-1.0","null","<p></p>","null","","","","","","","","","","","","","","","","","","",""
"","do_trial","360","1121695","0.0-195.0-0.0","434.10000002384186","","","","51","1,1,1","3","mountain","130","probe-159","0.4142128539407244","0.5985184443737955","0.15195888397529125","1","","","","","","","",""
"","html-keyboard-response","361","1122703","0.0-195.0-1.0","null","<p></p>","null","","","","","","","","","","","","","","","","","","",""
"","do_trial","362","1127830","0.0-196.0-0.0","469.2999999523163","","","","51","1,0,0","3","mountain","131","probe-218","0.3893930214650692","0.545713983837712","0.2516585976759982","0","","","","","","","",""
"","html-keyboard-response","363","1128837","0.0-196.0-1.0","null","<p></p>","null","","","","","","","","","","","","","","","","","","",""
"","do_trial","364","1133481","0.0-197.0-0.0","0.20000004768371582","","","","51","1,0,0","3","mountain","132","probe-101","0.35398406388300596","0.5567187777066734","0.19152711510910903","0","","","","","","","",""
"","html-keyboard-response","365","1134485","0.0-197.0-1.0","null","<p></p>","null","","","","","","","","","","","","","","","","","","",""
"","do_trial","366","1139600","0.0-198.0-0.0","491.10000002384186","","","","51","0,0,0","3","mountain","133","probe-142","0.15779892732058037","0.5491754764037926","0.07905829288685289","0","","","","","","","",""
"","html-keyboard-response","367","1140605","0.0-198.0-1.0","null","<p></p>","null","","","","","","","","","","","","","","","","","","",""
"","do_trial","368","1145638","0.0-199.0-0.0","400.5","","","","49","0,0,0","3","mountain","134","probe-121","0.41359708279178964","0.5891050965541716","0.057646362810204875","0","","","","","","","",""
"","html-keyboard-response","369","1146646","0.0-199.0-1.0","null","<p></p>","null","","","","","","","","","","","","","","","","","","",""
"","do_trial","370","1151882","0.0-200.0-0.0","595.6000000238419","","","","50","0,1,1","3","mountain","135","probe-162","0.39634040103271445","0.5578566673861317","0.07742160570336873","1","","","","","","","",""
"","html-keyboard-response","371","1152887","0.0-200.0-1.0","null","<p></p>","null","","","","","","","","","","","","","","","","","","",""
"","do_trial","372","1157902","0.0-201.0-0.0","347.39999997615814","","","","50","1,0,1","3","mountain","136","probe-126","0.4185898223835269","0.6265503542702916","0.16022693911703756","0","","","","","","","",""
"","html-keyboard-response","373","1158910","0.0-201.0-1.0","null","<p></p>","null","","","","","","","","","","","","","","","","","","",""
"","do_trial","374","1163892","0.0-202.0-0.0","314.7999999523163","","","","51","0,1,0","3","mountain","137","probe-215","0.3306581473231104","0.6666608522184154","0.24972757705165158","0","","","","","","","",""
"","html-keyboard-response","375","1164899","0.0-202.0-1.0","null","<p></p>","null","","","","","","","","","","","","","","","","","","",""
"","do_trial","376","1169887","0.0-203.0-0.0","333.6999999284744","","","","49","0,1,0","3","mountain","138","probe-39","0.27818668193753615","0.6589312822228323","0.10424394371445395","0","","","","","","","",""
"","html-keyboard-response","377","1170898","0.0-203.0-1.0","null","<p></p>","null","","","","","","","","","","","","","","","","","","",""
"","do_trial","378","1175779","0.0-204.0-0.0","285.89999997615814","","","","50","1,1,0","3","mountain","139","probe-58","0.23811825879300155","0.656489277088927","0.054714650241273","1","","","","","","","",""
"","html-keyboard-response","379","1176784","0.0-204.0-1.0","null","<p></p>","null","","","","","","","","","","","","","","","","","","",""
"","do_trial","380","1181844","0.0-205.0-0.0","466.6999999284744","","","","50","0,1,1","3","mountain","140","probe-186","0.27124546061046656","0.6287908014952996","0.0710029945864508","1","","","","","","","",""
"","html-keyboard-response","381","1182850","0.0-205.0-1.0","null","<p></p>","null","","","","","","","","","","","","","","","","","","",""
"","do_trial","382","1188173","0.0-206.0-0.0","671.5999999046326","","","","50","1,1,0","3","mountain","141","probe-78","0.28470560647572946","0.6664497680188239","0.09555046510970065","1","","","","","","","",""
"","html-keyboard-response","383","1189180","0.0-206.0-1.0","null","<p></p>","null","","","","","","","","","","","","","","","","","","",""
"","do_trial","384","1194125","0.0-207.0-0.0","351.7000000476837","","","","50","1,1,0","3","mountain","142","probe-13","0.2731977095806864","0.6283101313513325","0.17306047322104845","1","","","","","","","",""
"","html-keyboard-response","385","1195136","0.0-207.0-1.0","null","<p></p>","null","","","","","","","","","","","","","","","","","","",""
"","do_trial","386","1200198","0.0-208.0-0.0","404","","","","50","0,1,0","3","mountain","143","probe-44","0.18480370110249675","0.5954032985619653","0.11569904831133615","1","","","","","","","",""
"","html-keyboard-response","387","1201208","0.0-208.0-1.0","null","<p></p>","null","","","","","","","","","","","","","","","","","","",""
"","do_trial","388","1206176","0.0-209.0-0.0","314.89999997615814","","","","50","0,0,0","3","mountain","144","probe-189","0.2690659517062225","0.6249040504168422","0.18679889655833345","0","","","","","","","",""
"","html-keyboard-response","389","1207180","0.0-209.0-1.0","null","<p></p>","null","","","","","","","","","","","","","","","","","","",""
"","do_trial","390","1212298","0.0-210.0-0.0","488.7999999523163","","","","50","0,1,0","3","mountain","145","probe-53","0.2468528107068737","0.6316464801594158","0.05680198379579524","1","","","","","","","",""
"","html-keyboard-response","391","1213305","0.0-210.0-1.0","null","<p></p>","null","","","","","","","","","","","","","","","","","","",""
"","do_trial","392","1218199","0.0-211.0-0.0","285","","","","50","1,0,0","3","mountain","146","probe-177","0.23043938791205462","0.5937198293137071","0.0887511858266597","0","","","","","","","",""
"","html-keyboard-response","393","1219217","0.0-211.0-1.0","null","<p></p>","null","","","","","","","","","","","","","","","","","","",""
"","do_trial","394","1224159","0.0-212.0-0.0","292.3000000715256","","","","49","0,1,0","3","mountain","147","probe-153","0.2663069648863808","0.6059415592793315","0.19729270094985674","0","","","","","","","",""
"","html-keyboard-response","395","1225169","0.0-212.0-1.0","null","<p></p>","null","","","","","","","","","","","","","","","","","","",""
"","do_trial","396","1230336","0.0-213.0-0.0","522.5","","","","51","0,1,0","3","mountain","148","probe-47","0.38285267749570995","0.728983880278032","0.27414198048574007","0","","","","","","","",""
"","html-keyboard-response","397","1231340","0.0-213.0-1.0","null","<p></p>","null","","","","","","","","","","","","","","","","","","",""
"","do_trial","398","1236273","0.0-214.0-0.0","280.60000002384186","","","","50","0,1,0","3","mountain","149","probe-30","0.3479420143593685","0.6060938026827677","0.15551216785198416","1","","","","","","","",""
"","html-keyboard-response","399","1237280","0.0-214.0-1.0","null","<p></p>","null","","","","","","","","","","","","","","","","","","",""
"","do_bye","400","1238796","0.0-215.0-0.0","null","","","","null","","","","","","","","","","","","","","","","",""
"","do_travel","401","1244799","0.0-216.0-0.0","null","","","","null","","","","","","","","","","","","","","","","",""
"","do_welcome","402","1246316","0.0-216.0-1.0","null","","","","null","","","","","","","","","","","","","","","","",""
"","do_trial","403","1251376","0.0-217.0-0.0","439.89999997615814","","","","49","1,1,0","4","forest","150","probe-209","0.46622992475455227","1","0.165048271608028","1","","","","","","","",""
"","html-keyboard-response","404","1252389","0.0-217.0-1.0","null","<p></p>","null","","","","","","","","","","","","","","","","","","",""
"","do_trial","405","1257293","0.0-218.0-0.0","248.89999997615814","","","","49","0,1,0","4","forest","151","probe-37","0.465194661789465","1","0.16877187411137265","0","","","","","","","",""
"","html-keyboard-response","406","1258302","0.0-218.0-1.0","null","<p></p>","null","","","","","","","","","","","","","","","","","","",""
"","do_trial","407","1263270","0.0-219.0-0.0","318.6999999284744","","","","50","1,1,0","4","forest","152","probe-194","0.32081254136704745","0.8430087050823944","0.09888670508756786","1","","","","","","","",""
"","html-keyboard-response","408","1264273","0.0-219.0-1.0","null","<p></p>","null","","","","","","","","","","","","","","","","","","",""
"","do_trial","409","1269304","0.0-220.0-0.0","373.60000002384186","","","","51","1,1,0","4","forest","153","probe-70","0.33262567865986503","0.7100536295460591","0.12365143640787526","0","","","","","","","",""
"","html-keyboard-response","410","1270321","0.0-220.0-1.0","null","<p></p>","null","","","","","","","","","","","","","","","","","","",""
"","do_trial","411","1275582","0.0-221.0-0.0","598.5","","","","50","0,0,0","4","forest","154","probe-109","0.30004959697235417","0.6282908864189153","0.11256079166954877","0","","","","","","","",""
"","html-keyboard-response","412","1276600","0.0-221.0-1.0","null","<p></p>","null","","","","","","","","","","","","","","","","","","",""
"","do_trial","413","1281860","0.0-222.0-0.0","604.7000000476837","","","","49","0,0,0","4","forest","155","probe-122","0.4024213321364195","0.5378012204830236","0.12588685943747208","0","","","","","","","",""
"","html-keyboard-response","414","1282869","0.0-222.0-1.0","null","<p></p>","null","","","","","","","","","","","","","","","","","","",""
"","do_trial","415","1287791","0.0-223.0-0.0","305.6999999284744","","","","50","1,1,0","4","forest","156","probe-02","0.28630311980473283","0.5653882240064414","0.09396543729611656","1","","","","","","","",""
"","html-keyboard-response","416","1288794","0.0-223.0-1.0","null","<p></p>","null","","","","","","","","","","","","","","","","","","",""
"","do_trial","417","1293728","0.0-224.0-0.0","326.2999999523163","","","","50","1,1,0","4","forest","157","probe-15","0.326765958420842","0.5994591246870182","0.07145801534884098","1","","","","","","","",""
"","html-keyboard-response","418","1294733","0.0-224.0-1.0","null","<p></p>","null","","","","","","","","","","","","","","","","","","",""
"","do_trial","419","1299789","0.0-225.0-0.0","411.5","","","","50","0,1,0","4","forest","158","probe-123","0.2948464930045136","0.5926983223349294","0.055620298721554245","1","","","","","","","",""
"","html-keyboard-response","420","1300796","0.0-225.0-1.0","null","<p></p>","null","","","","","","","","","","","","","","","","","","",""
"","do_trial","421","1305727","0.0-226.0-0.0","300.59999990463257","","","","50","1,1,1","4","forest","159","probe-43","0.2188666438547188","0.43269994463708683","0.1661713943323044","1","","","","","","","",""
"","html-keyboard-response","422","1306729","0.0-226.0-1.0","null","<p></p>","null","","","","","","","","","","","","","","","","","","",""
"","do_trial","423","1311673","0.0-227.0-0.0","317.89999997615814","","","","50","0,0,0","4","forest","160","probe-83","0.180651264109165","0.39797647791026974","0.15716591694211474","0","","","","","","","",""
"","html-keyboard-response","424","1312679","0.0-227.0-1.0","null","<p></p>","null","","","","","","","","","","","","","","","","","","",""
"","do_trial","425","1317600","0.0-228.0-0.0","327.5","","","","50","1,0,0","4","forest","161","probe-105","0.2680563970689468","0.3509247094286898","0.1532169194040041","0","","","","","","","",""
"","html-keyboard-response","426","1318602","0.0-228.0-1.0","null","<p></p>","null","","","","","","","","","","","","","","","","","","",""
"","do_trial","427","1323590","0.0-229.0-0.0","300.1999999284744","","","","51","0,1,0","4","forest","162","probe-144","0.06565284245492103","0.33312936572239615","0.29389390840294094","0","","","","","","","",""
"","html-keyboard-response","428","1324597","0.0-229.0-1.0","null","<p></p>","null","","","","","","","","","","","","","","","","","","",""
"","do_trial","429","1329666","0.0-230.0-0.0","468.09999990463257","","","","49","0,0,0","4","forest","163","probe-137","0.20631869250854404","0.35295196469857476","0.5021502751443098","0","","","","","","","",""
"","html-keyboard-response","430","1330671","0.0-230.0-1.0","null","<p></p>","null","","","","","","","","","","","","","","","","","","",""
"","do_trial","431","1335731","0.0-231.0-0.0","416.3000000715256","","","","50","0,0,0","4","forest","164","probe-28","0.14236235163134997","0.36200997008544944","0.47723230763123603","0","","","","","","","",""
"","html-keyboard-response","432","1336747","0.0-231.0-1.0","null","<p></p>","null","","","","","","","","","","","","","","","","","","",""
"","do_trial","433","1342125","0.0-232.0-0.0","724.7000000476837","","","","50","0,1,1","4","forest","165","probe-198","0.10408604011999892","0.4448229410922951","0.6155467849742373","1","","","","","","","",""
"","html-keyboard-response","434","1343130","0.0-232.0-1.0","null","<p></p>","null","","","","","","","","","","","","","","","","","","",""
"","do_trial","435","1348292","0.0-233.0-0.0","515.6999999284744","","","","50","0,1,1","4","forest","166","probe-133","0.1760418697925957","0.4213185704069721","0.43674931767909997","1","","","","","","","",""
"","html-keyboard-response","436","1349304","0.0-233.0-1.0","null","<p></p>","null","","","","","","","","","","","","","","","","","","",""
"","do_trial","437","1354201","0.0-234.0-0.0","296.89999997615814","","","","50","0,0,0","4","forest","167","probe-188","0.17652663893059195","0.43847227156905133","0.49406019304280824","0","","","","","","","",""
"","html-keyboard-response","438","1355208","0.0-234.0-1.0","null","<p></p>","null","","","","","","","","","","","","","","","","","","",""
"","do_trial","439","1360152","0.0-235.0-0.0","296.6999999284744","","","","50","0,0,0","4","forest","168","probe-94","0.09689954290317049","0.3839273249173917","0.3995344248789928","0","","","","","","","",""
"","html-keyboard-response","440","1361156","0.0-235.0-1.0","null","<p></p>","null","","","","","","","","","","","","","","","","","","",""
"","do_trial","441","1366119","0.0-236.0-0.0","354.90000009536743","","","","49","0,0,0","4","forest","169","probe-201","0.1274239119544455","0.26171740495477475","0.5166984565710606","0","","","","","","","",""
"","html-keyboard-response","442","1367134","0.0-236.0-1.0","null","<p></p>","null","","","","","","","","","","","","","","","","","","",""
"","do_trial","443","1372123","0.0-237.0-0.0","338.60000002384186","","","","51","0,0,0","4","forest","170","probe-92","0.1301923172783377","0.3727897780393572","0.3884963984887759","0","","","","","","","",""
"","html-keyboard-response","444","1373126","0.0-237.0-1.0","null","<p></p>","null","","","","","","","","","","","","","","","","","","",""
"","do_trial","445","1377872","0.0-238.0-0.0","127","","","","50","0,0,0","4","forest","171","probe-67","0.08914052142209161","0.38165492547575397","0.3975157612336666","0","","","","","","","",""
"","html-keyboard-response","446","1378877","0.0-238.0-1.0","null","<p></p>","null","","","","","","","","","","","","","","","","","","",""
"","do_trial","447","1383811","0.0-239.0-0.0","316.10000002384186","","","","50","1,0,0","4","forest","172","probe-116","0.23024168864003153","0.3957428353507874","0.35239828143669033","0","","","","","","","",""
"","html-keyboard-response","448","1384818","0.0-239.0-1.0","null","<p></p>","null","","","","","","","","","","","","","","","","","","",""
"","do_trial","449","1389999","0.0-240.0-0.0","535.8000000715256","","","","50","1,1,0","4","forest","173","probe-161","0.13582943949680917","0.32643086086841006","0.37612234343949696","1","","","","","","","",""
"","html-keyboard-response","450","1391011","0.0-240.0-1.0","null","<p></p>","null","","","","","","","","","","","","","","","","","","",""
"","do_trial","451","1395980","0.0-241.0-0.0","310.7999999523163","","","","50","0,1,0","4","forest","174","probe-08","0.18838221066185704","0.23097220306410815","0.62695121678891","1","","","","","","","",""
"","html-keyboard-response","452","1396988","0.0-241.0-1.0","null","<p></p>","null","","","","","","","","","","","","","","","","","","",""
"","do_trial","453","1401951","0.0-242.0-0.0","296.2000000476837","","","","50","0,0,0","4","forest","175","probe-06","0.22488773150975427","0.139442924973449","0.5657441558723385","0","","","","","","","",""
"","html-keyboard-response","454","1402959","0.0-242.0-1.0","null","<p></p>","null","","","","","","","","","","","","","","","","","","",""
"","do_trial","455","1407940","0.0-243.0-0.0","320.59999990463257","","","","50","0,0,0","4","forest","176","probe-168","0.301435181605108","0.1315953776505198","0.49246736167766264","0","","","","","","","",""
"","html-keyboard-response","456","1408943","0.0-243.0-1.0","null","<p></p>","null","","","","","","","","","","","","","","","","","","",""
"","do_trial","457","1413808","0.0-244.0-0.0","272.59999990463257","","","","51","0,0,1","4","forest","177","probe-131","0.11481106905435073","0.211533139296421","0.5816056802534001","1","","","","","","","",""
"","html-keyboard-response","458","1414817","0.0-244.0-1.0","null","<p></p>","null","","","","","","","","","","","","","","","","","","",""
"","do_trial","459","1420090","0.0-245.0-0.0","635","","","","49","0,0,0","4","forest","178","probe-145","0.11758489854408226","0.24968569732717508","0.5612120461114634","0","","","","","","","",""
"","html-keyboard-response","460","1421100","0.0-245.0-1.0","null","<p></p>","null","","","","","","","","","","","","","","","","","","",""
"","do_trial","461","1426224","0.0-246.0-0.0","457.7000000476837","","","","51","0,0,1","4","forest","179","probe-61","0.14878774707456857","0.1474460031473462","0.5923491419120814","1","","","","","","","",""
"","html-keyboard-response","462","1427235","0.0-246.0-1.0","null","<p></p>","null","","","","","","","","","","","","","","","","","","",""
"","do_trial","463","1432178","0.0-247.0-0.0","290.8000000715256","","","","51","0,0,1","4","forest","180","probe-183","0.12155381567809918","0.08144190134278105","0.5893365840526775","1","","","","","","","",""
"","html-keyboard-response","464","1433190","0.0-247.0-1.0","null","<p></p>","null","","","","","","","","","","","","","","","","","","",""
"","do_trial","465","1438148","0.0-248.0-0.0","307.1999999284744","","","","51","0,0,1","4","forest","181","probe-64","0.13120685621799177","0.17893000067954995","0.6060746841545354","1","","","","","","","",""
"","html-keyboard-response","466","1439158","0.0-248.0-1.0","null","<p></p>","null","","","","","","","","","","","","","","","","","","",""
"","do_trial","467","1444121","0.0-249.0-0.0","314.5","","","","51","0,0,1","4","forest","182","probe-120","0.09147739219682023","0.30413946977834766","0.5501322745624885","1","","","","","","","",""
"","html-keyboard-response","468","1445135","0.0-249.0-1.0","null","<p></p>","null","","","","","","","","","","","","","","","","","","",""
"","do_trial","469","1450094","0.0-250.0-0.0","313.1999999284744","","","","51","0,0,1","4","forest","183","probe-200","0.21785099880941858","0.22886394581418693","0.5440511272421885","1","","","","","","","",""
"","html-keyboard-response","470","1451106","0.0-250.0-1.0","null","<p></p>","null","","","","","","","","","","","","","","","","","","",""
"","do_trial","471","1456010","0.0-251.0-0.0","278.3000000715256","","","","51","0,0,1","4","forest","184","probe-147","0.07946170572336803","0.12968946620024435","0.49045394953469934","1","","","","","","","",""
"","html-keyboard-response","472","1457014","0.0-251.0-1.0","null","<p></p>","null","","","","","","","","","","","","","","","","","","",""
"","do_trial","473","1461830","0.0-252.0-0.0","236.10000002384186","","","","51","0,1,1","4","forest","185","probe-71","0.12872533270646844","0.19197986419500662","0.5059346607242291","1","","","","","","","",""
"","html-keyboard-response","474","1462841","0.0-252.0-1.0","null","<p></p>","null","","","","","","","","","","","","","","","","","","",""
"","do_trial","475","1467831","0.0-253.0-0.0","342","","","","51","0,0,1","4","forest","186","probe-154","0.16002432109128564","0.22841469056471955","0.3865071210344145","1","","","","","","","",""
"","html-keyboard-response","476","1468847","0.0-253.0-1.0","null","<p></p>","null","","","","","","","","","","","","","","","","","","",""
"","do_trial","477","1473876","0.0-254.0-0.0","382.8000000715256","","","","51","0,1,0","4","forest","187","probe-175","0.33154791297178426","0.3838953065420133","0.4222459581867581","0","","","","","","","",""
"","html-keyboard-response","478","1474892","0.0-254.0-1.0","null","<p></p>","null","","","","","","","","","","","","","","","","","","",""
"","do_trial","479","1479793","0.0-255.0-0.0","288.60000002384186","","","","50","0,1,1","4","forest","188","probe-193","0.31014746532152543","0.510596794539397","0.5566400831994868","1","","","","","","","",""
"","html-keyboard-response","480","1480802","0.0-255.0-1.0","null","<p></p>","null","","","","","","","","","","","","","","","","","","",""
"","do_trial","481","1485900","0.0-256.0-0.0","446.5","","","","50","1,0,1","4","forest","189","probe-05","0.36382948193587994","0.45676616720416746","0.613035444853532","0","","","","","","","",""
"","html-keyboard-response","482","1486906","0.0-256.0-1.0","null","<p></p>","null","","","","","","","","","","","","","","","","","","",""
"","do_bye","483","1488428","0.0-257.0-0.0","null","","","","null","","","","","","","","","","","","","","","","",""
"","do_travel","484","1494433","0.0-258.0-0.0","null","","","","null","","","","","","","","","","","","","","","","",""
"","do_welcome","485","1495948","0.0-258.0-1.0","null","","","","null","","","","","","","","","","","","","","","","",""
"","do_trial","486","1501366","0.0-259.0-0.0","767.7999999523163","","","","49","1,1,1","5","coast","190","probe-230","0.11261542959962291","0.41126010194679624","1","1","","","","","","","",""
"","html-keyboard-response","487","1502373","0.0-259.0-1.0","null","<p></p>","null","","","","","","","","","","","","","","","","","","",""
"","do_trial","488","1507542","0.0-260.0-0.0","539.7999999523163","","","","49","1,0,1","5","coast","191","probe-172","0.0700210499602053","0.424015047758804","1","1","","","","","","","",""
"","html-keyboard-response","489","1508549","0.0-260.0-1.0","null","<p></p>","null","","","","","","","","","","","","","","","","","","",""
"","do_trial","490","1513508","0.0-261.0-0.0","298.5","","","","49","0,1,0","5","coast","192","probe-165","0.1200904872793648","0.34090151841890026","0.7923864178216726","0","","","","","","","",""
"","html-keyboard-response","491","1514519","0.0-261.0-1.0","null","<p></p>","null","","","","","","","","","","","","","","","","","","",""
"","do_trial","492","1519471","0.0-262.0-0.0","370.8000000715256","","","","50","0,1,1","5","coast","193","probe-33","0.11061925642176038","0.4942717464559652","0.7989921883903509","1","","","","","","","",""
"","html-keyboard-response","493","1520476","0.0-262.0-1.0","null","<p></p>","null","","","","","","","","","","","","","","","","","","",""
"","do_trial","494","1525394","0.0-263.0-0.0","261.7000000476837","","","","50","0,0,0","5","coast","194","probe-49","0.05836613453698376","0.4040724490817948","0.7666522842386414","0","","","","","","","",""
"","html-keyboard-response","495","1526403","0.0-263.0-1.0","null","<p></p>","null","","","","","","","","","","","","","","","","","","",""
"","do_trial","496","1531342","0.0-264.0-0.0","286.59999990463257","","","","51","1,1,1","5","coast","195","probe-103","0.200468551328091","0.21491573390006274","0.6781848878443179","1","","","","","","","",""
"","html-keyboard-response","497","1532352","0.0-264.0-1.0","null","<p></p>","null","","","","","","","","","","","","","","","","","","",""
"","do_trial","498","1537499","0.0-265.0-0.0","490.10000002384186","","","","51","0,0,1","5","coast","196","probe-56","0.05254878326813506","0.21581058537726716","0.6169697930567984","1","","","","","","","",""
"","html-keyboard-response","499","1538505","0.0-265.0-1.0","null","<p></p>","null","","","","","","","","","","","","","","","","","","",""
"","do_trial","500","1543444","0.0-266.0-0.0","291.59999990463257","","","","51","0,0,1","5","coast","197","probe-115","0.05181735140673692","0.3044221218267801","0.6781290219122971","1","","","","","","","",""
"","html-keyboard-response","501","1544448","0.0-266.0-1.0","null","<p></p>","null","","","","","","","","","","","","","","","","","","",""
"","do_trial","502","1549539","0.0-267.0-0.0","504.39999997615814","","","","51","1,0,1","5","coast","198","probe-203","0.21351287067519203","0.1932455115654568","0.6220358488979487","1","","","","","","","",""
"","html-keyboard-response","503","1550549","0.0-267.0-1.0","null","<p></p>","null","","","","","","","","","","","","","","","","","","",""
"","do_trial","504","1555453","0.0-268.0-0.0","260.2999999523163","","","","51","0,0,0","5","coast","199","probe-171","0.2832221946940913","0.12760655532258625","0.5933048515255992","0","","","","","","","",""
"","html-keyboard-response","505","1556464","0.0-268.0-1.0","null","<p></p>","null","","","","","","","","","","","","","","","","","","",""
"","do_trial","506","1561601","0.0-269.0-0.0","511.7000000476837","","","","50","0,0,0","5","coast","200","probe-60","0.17836069062367116","0.05058164394464612","0.6178193268605325","0","","","","","","","",""
"","html-keyboard-response","507","1562610","0.0-269.0-1.0","null","<p></p>","null","","","","","","","","","","","","","","","","","","",""
"","do_trial","508","1567541","0.0-270.0-0.0","290.5","","","","49","0,0,1","5","coast","201","probe-80","0.055883093827179715","0.14779369615468776","0.5936173002159217","0","","","","","","","",""
"","html-keyboard-response","509","1568543","0.0-270.0-1.0","null","<p></p>","null","","","","","","","","","","","","","","","","","","",""
"","do_trial","510","1573498","0.0-271.0-0.0","294","","","","51","0,1,1","5","coast","202","probe-136","0.0813112925846172","0.42111614718463486","0.4012004192286328","1","","","","","","","",""
"","html-keyboard-response","511","1574502","0.0-271.0-1.0","null","<p></p>","null","","","","","","","","","","","","","","","","","","",""
"","do_trial","512","1579474","0.0-272.0-0.0","303.2999999523163","","","","51","1,1,1","5","coast","203","probe-221","0.10467415938210735","0.575914826150913","0.35262803712002333","1","","","","","","","",""
"","html-keyboard-response","513","1580482","0.0-272.0-1.0","null","<p></p>","null","","","","","","","","","","","","","","","","","","",""
"","do_trial","514","1585716","0.0-273.0-0.0","629.1000000238419","","","","51","0,1,0","5","coast","204","probe-51","0.08423541575440448","0.3733005425812675","0.2674063452965103","0","","","","","","","",""
"","html-keyboard-response","515","1586727","0.0-273.0-1.0","null","<p></p>","null","","","","","","","","","","","","","","","","","","",""
"","do_trial","516","1591799","0.0-274.0-0.0","430.1999999284744","","","","51","0,0,0","5","coast","205","probe-187","0.16729509214258387","0.5182092603271423","0.1853311499561659","0","","","","","","","",""
"","html-keyboard-response","517","1592802","0.0-274.0-1.0","null","<p></p>","null","","","","","","","","","","","","","","","","","","",""
