"success","trial_type","trial_index","time_elapsed","internal_node_id","rt","stimulus","key_press","subject_id","response","choice_outcomes","context_n","context_img_id","trial_n","probe_img_id","pR_red","pR_white","pR_black","outcome","contextArray_ind","validImageProbes","invalidImageProbes","pRew_Red","pRew_White","pRew_Black","availableForMemProbe","choice_blocks"
"true","fullscreen","0","4114","0.0-0.0","","","","","","","","","","","","","","","","","","","","","",""
"","pavlovia","1","4126","0.0-1.0","","","","","","","","","","","","","","","","","","","","","",""
"","html-keyboard-response","2","19088","0.0-2.0","14956.299999952316","<div class='center'><p>Welcome! This is the first day of the experiment which will last ~30 minutes. In this experiment, you are the head captain of a pirate ship traveling around the world to different places. You will complete several different tasks during this experiment. Here is an overview of these tasks:</p><br><p>Day 1</p><p>1. Tutorial and quiz</p><p>2. Pick a pirate game in 6 different places</p><br><p>Day 2</p><p>3. Pick a pirate game and memory game</p><p>4. Final questions and payment</p><br><p>If you complete the entire experiment, you will receive $15 and a possible bonus payment.</p><p><b>[Press the space bar to begin the tutorial]</b></p></div>","32","610019cae69b9ad34c95e3b3","","","","","","","","","","","","","","","","","",""
"","html-keyboard-response","3","25256","0.0-3.0","6164.700000047684","<div class='center'><p>You’ll stop at these 6 islands on your journey. You'll be able to see them in the distance from your ship.</p><p><img src='run_exp/static/images/contexts/all_contexts.png' height='500'></p><p><b>[Press the space bar to continue]</b></p></div>","32","","","","","","","","","","","","","","","","","","",""
"","html-keyboard-response","4","30994","0.0-4.0","5735.299999952316","<div class='center'><p> The pirates on your ship will rob other ships as they leave island</p> These ships have just sold their things to the people living on the island, so they will have lots and lots of gold on them.</p><p><img src='run_exp/static/images/tutorial/ship_center.png' height='400'></p><p><b>[Press the space bar to continue]</b></p></div>","32","","","","","","","","","","","","","","","","","","",""
"","html-keyboard-response","5","40965","0.0-5.0","9967.599999904633","<div class='center'><p>As the head captain, you do not have to rob any ships yourself.</p><p>Another pirate will be doing the robbing for you. </p><p><img src='run_exp/static/images/tutorial/pirates_all_crop.png' height='200'></p><p>If they could rob the ship, then you will get a stack of gold coins like this:</p><p><img src='run_exp/static/images/tutorial/reward.png' height='150'></p><p> If they couldn't rob the ship, then you will get no gold coins and you'll see a big red x like this: </p><p><img src='run_exp/static/images/tutorial/reward_no.png' height='150'></p><p> How much bonus money you make is based on how many gold coins you collect.</p><p><b>[Press the space bar to continue]</b></p><div>","32","","","","","","","","","","","","","","","","","","",""
"","html-keyboard-response","6","54126","0.0-6.0","13154.5","<div class='center'><p>Even the most skilled pirate can not rob EVERY ship.</p><p> Some ships will have very strong defenses against pirate attacks.</p><p> For example, blue beard, here, is very, very good at robbing ships.</p><p> You can press the <b>‘1’</b> button on the keyboard to choose him.</p><p> Try choosing him 10 times to see how often he can rob a ship. </p><p><img src='run_exp/static/images/tutorial/blue.png' height='500'></p></div>","49","","","","","","","","","","","","","","","","","","",""
"","html-keyboard-response","7","55640","0.0-7.0","null","<div class='center'><p><img src='run_exp/static/images/tutorial/blue_win.png' height='500'></p></div>","null","","","","","","","","","","","","","","","","","","",""
"","html-keyboard-response","8","56924","0.0-8.0","1281.0999999046326","<div class='center'><img src='run_exp/static/images/tutorial/blue.png' height='500'></p></div>","49","","","","","","","","","","","","","","","","","","",""
"","html-keyboard-response","9","58439","0.0-9.0","null","<div class='center'><p><img src='run_exp/static/images/tutorial/blue_win.png' height='500'></p></div>","null","","","","","","","","","","","","","","","","","","",""
"","html-keyboard-response","10","59003","0.0-10.0","562","<div class='center'><img src='run_exp/static/images/tutorial/blue.png' height='500'></p></div>","49","","","","","","","","","","","","","","","","","","",""
"","html-keyboard-response","11","60521","0.0-11.0","null","<div class='center'><p><img src='run_exp/static/images/tutorial/blue_win.png' height='500'></p></div>","null","","","","","","","","","","","","","","","","","","",""
"","html-keyboard-response","12","60922","0.0-12.0","399.2000000476837","<div class='center'><img src='run_exp/static/images/tutorial/blue.png' height='500'></p></div>","49","","","","","","","","","","","","","","","","","","",""
"","html-keyboard-response","13","62446","0.0-13.0","null","<div class='center'><p><img src='run_exp/static/images/tutorial/blue_no_win.png' height='500'></p></div>","null","","","","","","","","","","","","","","","","","","",""
"","html-keyboard-response","14","63005","0.0-14.0","553.8000001907349","<div class='center'><img src='run_exp/static/images/tutorial/blue.png' height='500'></p></div>","49","","","","","","","","","","","","","","","","","","",""
"","html-keyboard-response","15","64516","0.0-15.0","null","<div class='center'><p><img src='run_exp/static/images/tutorial/blue_win.png' height='500'></p></div>","null","","","","","","","","","","","","","","","","","","",""
"","html-keyboard-response","16","64972","0.0-16.0","453.30000019073486","<div class='center'><img src='run_exp/static/images/tutorial/blue.png' height='500'></p></div>","49","","","","","","","","","","","","","","","","","","",""
"","html-keyboard-response","17","66490","0.0-17.0","null","<div class='center'><p><img src='run_exp/static/images/tutorial/blue_win.png' height='500'></p></div>","null","","","","","","","","","","","","","","","","","","",""
"","html-keyboard-response","18","66824","0.0-18.0","332.2999999523163","<div class='center'><img src='run_exp/static/images/tutorial/blue.png' height='500'></p></div>","49","","","","","","","","","","","","","","","","","","",""
"","html-keyboard-response","19","68329","0.0-19.0","null","<div class='center'><p><img src='run_exp/static/images/tutorial/blue_win.png' height='500'></p></div>","null","","","","","","","","","","","","","","","","","","",""
"","html-keyboard-response","20","68750","0.0-20.0","419.09999990463257","<div class='center'><img src='run_exp/static/images/tutorial/blue.png' height='500'></p></div>","49","","","","","","","","","","","","","","","","","","",""
"","html-keyboard-response","21","70272","0.0-21.0","null","<div class='center'><p><img src='run_exp/static/images/tutorial/blue_no_win.png' height='500'></p></div>","null","","","","","","","","","","","","","","","","","","",""
"","html-keyboard-response","22","70685","0.0-22.0","410.2000000476837","<div class='center'><img src='run_exp/static/images/tutorial/blue.png' height='500'></p></div>","49","","","","","","","","","","","","","","","","","","",""
"","html-keyboard-response","23","72194","0.0-23.0","null","<div class='center'><p><img src='run_exp/static/images/tutorial/blue_win.png' height='500'></p></div>","null","","","","","","","","","","","","","","","","","","",""
"","html-keyboard-response","24","72736","0.0-24.0","539.2999999523163","<div class='center'><img src='run_exp/static/images/tutorial/blue.png' height='500'></p></div>","49","","","","","","","","","","","","","","","","","","",""
"","html-keyboard-response","25","74240","0.0-25.0","null","<div class='center'><p><img src='run_exp/static/images/tutorial/blue_win.png' height='500'></p></div>","null","","","","","","","","","","","","","","","","","","",""
"","html-keyboard-response","26","75530","0.0-26.0","1289","<div class='center'><p> See, he could rob the ships most of the time but not every time. </p><p><b>[Press the space bar to continue]</b></p></div>","32","","","","","","","","","","","","","","","","","","",""
"","html-keyboard-response","27","82387","0.0-27.0","6853.700000047684","<div class='center'><p>You will get to choose which of three pirates you want to rob the next ship. <p>Press the <b>‘1’</b> button on your keyboard to pick the pirate with the red beard.</p><p> Press <b>‘2’</b> to pick the pirate with the white beard.</p><p> Press <b>‘3’</b> to pick the pirate with the black beard.</p><p>Try picking a pirate now!</p><p><img src='run_exp/static/images/tutorial/all_pirates.png' height='500'></p></div>","51","","","","","","","","","","","","","","","","","","",""
"","html-keyboard-response","28","84325","0.0-28.0-0.0","1934.5999999046326","<div class='center'><p>This pirate could rob the ship!</p><p><img src='run_exp/static/images/tutorial/black_win.png' height='500'></p><p><b>[Press the space bar to continue]</b></p></div>","32","","","","","","","","","","","","","","","","","","",""
"","html-keyboard-response","29","85506","0.0-28.0-1.0","1176.7000000476837","<div class='center'><p>Now try choosing another</p><p><img src='run_exp/static/images/tutorial/all_pirates.png' height='500'></p></div>","50","","","","","","","","","","","","","","","","","","",""
"","html-keyboard-response","30","86506","0.0-29.0-0.0","997.3999998569489","<div class='center'><p>This pirate could not rob the ship!</p><p><img src='run_exp/static/images/tutorial/white_no_win.png' height='500'></p><p><b>[Press the space bar to continue]</b></p></div>","32","","","","","","","","","","","","","","","","","","",""
"","html-keyboard-response","31","90313","0.0-30.0-0.0","3804.2000000476837","<div class='center'><p>If you don’t make your choice fast enough, you’ll have to wait a few seconds before you can make another one. </p><p>You can’t collect more gold coins. You just have to sit and wait.</p><p><img src='run_exp/static/images/miscellaneous/hurry_up.png' height='500'></p><p><b>[Press the space bar to continue]</b></p></div>","32","","","","","","","","","","","","","","","","","","",""
"","html-keyboard-response","32","109064","0.0-30.0-1.0","18747.799999952316","<div class='center'><p>Once you choose a pirate, you’ll be shown the ship they are robbing.</p><p>You will never rob the same ship twice.</p><p>Ships can be told apart from one another by the image on them.</p><p> Every time you see a ship, you will have to remember on which island you saw it.</p><p> Remembering correctly will help you win more bonus money!</p><p>A helpful strategy is to try to come up with a story of the object on the ship interacting with the current island scene.</p><p> For example, here, you could imagine a mug full of water in the desert. </p><p>For a ship with an apple on it on the forest island, you could imagine an apple falling from a tree in the forest.</p><p><img src='run_exp/static/images/tutorial/example_probe.png' height='500'></p><p><b>[Press the space bar to continue]</b></p></div>","32","","","","","","","","","","","","","","","","","","",""
"","html-keyboard-response","33","115632","0.0-30.0-2.0","6570.5","<div class='center'><p>How good a pirate is at robbing ships will depend on the current island.</p><p> A pirate may have visited the island many times before and gained a lot of practice robbing ships there.</p><p>So, they're more likely to bring back gold coins than a pirate who has never visited this island before. </p><p><b>[Press the space bar to continue]</b></p></div>","32","","","","","","","","","","","","","","","","","","",""
"","html-keyboard-response","34","124756","0.0-30.0-3.0","9121.199999809265","<div class='center'><p>How good a pirate is at robbing ships can also change over the time spent on the island<p> Ships may hear from islanders about the pirates coming and will improve their protection against the attack. This may make it harder to rob them.</p><p> Ships may also become lazy and lower their protection. This may make it easier to rob them.</p><br><p>Things are always changing on the high seas! So, try your best to pay attention!</p><p><img src='run_exp/static/images/tutorial/contingency.png' height='500'></p><p><b>[Press the space bar to continue]</b></p></div>","32","","","","","","","","","","","","","","","","","","",""
"","html-keyboard-response","35","140272","0.0-30.0-4.0","15514.700000047684","<div class='center'><p>Let's go over the instructions quickly again.You have two important things to do: </p><b><p> 1. Pick the pirate who is the best at robbing ships on the current island.</p></b><b><p> 2. Remember on which island a ship was robbed.</p> </b><p>How much bonus money you make is based on both. </p><br><p>Let’s try a practice game. The game will start by showing you the pirates. First pick a pirate using the <b> 1, 2, 3 </b> buttons on your keyboard. When you are shown a ship, try to remember the island you’re on by making up a story.</p><p> You only have 3 seconds to pick a pirate, so please make a choice quickly! If you are too slow, you’ll have to wait a bit during the time out.</p><p> Don’t feel rushed, but please do try to make a choice every time.</p><p>This is just a practice game, so you’re not playing for money. </p><p> Good luck, remember press <b>'1'</b> to choose red beard, <b>'2'</b> to choose white beard, and <b>'3'</b> to choose black beard</p><p><b>[Press the space bar to begin the practice game]</b></p></div>","32","","","","","","","","","","","","","","","","","","",""
"","do_welcome","36","141791","0.0-30.0-5.0","null","","","","null","","","","","","","","","","","","","","","","",""
"","do_trial","37","146829","0.0-30.0-6.0","494.90000009536743","","","","50","1,0,0","","","","","","","","","","","","","","","",""
"","html-keyboard-response","38","147832","0.0-31.0-0.0","null","<p></p>","null","","","","","","","","","","","","","","","","","","",""
"","do_trial","39","153130","0.0-31.0-1.0","764.5","","","","49","1,1,0","","","","","","","","","","","","","","","",""
"","html-keyboard-response","40","154146","0.0-32.0-0.0","null","<p></p>","null","","","","","","","","","","","","","","","","","","",""
"","do_trial","41","159261","0.0-32.0-1.0","600","","","","51","1,0,1","","","","","","","","","","","","","","","",""
"","html-keyboard-response","42","160276","0.0-33.0-0.0","null","<p></p>","null","","","","","","","","","","","","","","","","","","",""
"","do_trial","43","165702","0.0-33.0-1.0","898.2000000476837","","","","50","0,1,0","","","","","","","","","","","","","","","",""
"","html-keyboard-response","44","166718","0.0-34.0-0.0","null","<p></p>","null","","","","","","","","","","","","","","","","","","",""
"","do_trial","45","172078","0.0-34.0-1.0","820.9000000953674","","","","49","1,0,0","","","","","","","","","","","","","","","",""
"","do_bye","46","173598","0.0-35.0-0.0","null","","","","null","","","","","","","","","","","","","","","","",""
"","do_travel","47","179613","0.0-35.0-1.0","null","","","","null","","","","","","","","","","","","","","","","",""
"","do_welcome","48","181134","0.0-35.0-2.0","null","","","","null","","","","","","","","","","","","","","","","",""
"","do_trial","49","186440","0.0-35.0-3.0","780.7999999523163","","","","50","1,0,0","","","","","","","","","","","","","","","",""
"","html-keyboard-response","50","187452","0.0-36.0-0.0","null","<p></p>","null","","","","","","","","","","","","","","","","","","",""
"","do_trial","51","192397","0.0-36.0-1.0","415","","","","51","1,0,1","","","","","","","","","","","","","","","",""
"","html-keyboard-response","52","193418","0.0-37.0-0.0","null","<p></p>","null","","","","","","","","","","","","","","","","","","",""
"","do_trial","53","198344","0.0-37.0-1.0","410","","","","49","1,1,0","","","","","","","","","","","","","","","",""
"","html-keyboard-response","54","199360","0.0-38.0-0.0","null","<p></p>","null","","","","","","","","","","","","","","","","","","",""
"","do_trial","55","204275","0.0-38.0-1.0","397.10000014305115","","","","51","0,0,1","","","","","","","","","","","","","","","",""
"","html-keyboard-response","56","205281","0.0-39.0-0.0","null","<p></p>","null","","","","","","","","","","","","","","","","","","",""
"","do_trial","57","210557","0.0-39.0-1.0","750.2000000476837","","","","50","1,0,1","","","","","","","","","","","","","","","",""
"","html-keyboard-response","58","213122","0.0-40.0-0.0","2560","<div class='center'><p><img src='run_exp/static/images/tutorial/prac_best_pirate.png'  height='500'></p></div>","51","","","","","","","","","","","","","","","","","","",""
"","html-keyboard-response","59","214903","0.0-41.0-0.0","1778.2000000476837","<div class='center'><p>That's incorrect! Red beard was the best.</p><p><b>[Press the space bar to continue]</b></p></div>","32","","","","","","","","","","","","","","","","","","",""
"","html-keyboard-response","60","218250","0.0-41.0-1.0","3344","<div class='center'><p><img src='run_exp/static/images/tutorial/prac_source.png'  height='500'></p></div>","50","","","","","","","","","","","","","","","","","","",""
"","html-keyboard-response","61","219441","0.0-42.0-0.0","1189.5","<div class='center'><p>That's correct! You saw this ship on the cavern island.</p><p><b>[Press the space bar to continue]</b></p></div>","32","","","","","","","","","","","","","","","","","","",""
"","html-keyboard-response","62","222089","0.0-42.0-1.0","2645.9000000953674","<div class='center'><p>Good job on the practice game! Now, you will be asked you some true or false questions to make sure you really understand the rules of the game.</p><p> Press <b>'1'</b> on the keyboard for true and press <b>'2'</b> for false.</p><p><b>[Press the space bar to begin the quiz]</b></p></div>","32","","","","","","","","","","","","","","","","","","",""
"","html-keyboard-response","63","226749","0.0-42.0-2.0","4657.599999904633","<div class='center'><p>You win bonus money by making choices as fast as possible.</p><p>Press 1 for true and press  2 for false.</p></div>","49","","","","","","","","","","","","","","","","","","",""
"","html-keyboard-response","64","228662","0.0-43.0-0.0","1910.2000000476837","<<div class='center'><p>That’s incorrect! You win bonus money by collecting as many gold coins as possible!</p><p><b>[press the space bar to continue with the quiz]</b></p></div>","32","","","","","","","","","","","","","","","","","","",""
"","html-keyboard-response","65","231524","0.0-43.0-1.0","2860.7999999523163","<div class='center'><p>You press the <b>‘3’</b> button on the keyboard to choose the red bearded pirate. </p><p>Press 1 for true and press  2 for false.</p></div>","50","","","","","","","","","","","","","","","","","","",""
"","html-keyboard-response","66","232463","0.0-44.0-0.0","935.4000000953674","<div class='center'><p>That's correct!</p> <p><b>[press the space bar to continue with the quiz]</b></p></div>","32","","","","","","","","","","","","","","","","","","",""
"","html-keyboard-response","67","235092","0.0-44.0-1.0","2626.7000000476837","<div class='center'><p>The pirate who is the best at robbing ships on the first island will be the best on every other island.</p><p>Press 1 for true and press  2 for false.</p></div>","50","","","","","","","","","","","","","","","","","","",""
"","html-keyboard-response","68","235953","0.0-45.0-0.0","859.3999998569489","<div class='center'><p>That's correct!</p> <p><b>[press the space bar to continue with the quiz]</b></p></div>","32","","","","","","","","","","","","","","","","","","",""
"","html-keyboard-response","69","238493","0.0-45.0-1.0","2537.5999999046326","<div class='center'><p>You should remember the island where a pirate robbed a ship.</p><p>Press 1 for true and press  2 for false.</p></div>","49","","","","","","","","","","","","","","","","","","",""
"","html-keyboard-response","70","239342","0.0-46.0-0.0","843.7999999523163","<div class='center'><p>That's correct!</p> <p><b>[press the space bar to continue with the quiz]</b></p></div>","32","","","","","","","","","","","","","","","","","","",""
"","html-keyboard-response","71","242172","0.0-47.0-0.0","2828.5","<div class='center'><p>Oops, you missed some questions. Now that you’ve heard the correct answers. Try the quiz again! If you fail the quiz too many times, you won’t be able to do the experiment. </p> <p><br>[press the space bar to repeat the quiz]</br></p></div>","32","","","","","","","","","","","","","","","","","","",""
"","html-keyboard-response","72","243731","0.0-47.0-1.0","1556.1999998092651","<div class='center'><p>You win bonus money by making choices as fast as possible.</p><p>Press 1 for true and press  2 for false.</p></div>","50","","","","","","","","","","","","","","","","","","",""
"","html-keyboard-response","73","244512","0.0-48.0-0.0","779.6000001430511","<div class='center'><p>That's correct!</p> <p><b>[press the space bar to continue with the quiz]</b></p></div>","32","","","","","","","","","","","","","","","","","","",""
"","html-keyboard-response","74","246201","0.0-48.0-1.0","1686.5999999046326","<div class='center'><p>You press the <b>‘3’</b> button on the keyboard to choose the red bearded pirate. </p><p>Press 1 for true and press  2 for false.</p></div>","50","","","","","","","","","","","","","","","","","","",""
"","html-keyboard-response","75","246803","0.0-49.0-0.0","598.1000001430511","<div class='center'><p>That's correct!</p> <p><b>[press the space bar to continue with the quiz]</b></p></div>","32","","","","","","","","","","","","","","","","","","",""
"","html-keyboard-response","76","248781","0.0-49.0-1.0","1976.0999999046326","<div class='center'><p>The pirate who is the best at robbing ships on the first island will be the best on every other island.</p><p>Press 1 for true and press  2 for false.</p></div>","50","","","","","","","","","","","","","","","","","","",""
"","html-keyboard-response","77","249285","0.0-50.0-0.0","501.90000009536743","<div class='center'><p>That's correct!</p> <p><b>[press the space bar to continue with the quiz]</b></p></div>","32","","","","","","","","","","","","","","","","","","",""
"","html-keyboard-response","78","250910","0.0-50.0-1.0","1622.5","<div class='center'><p>You should remember the island where a pirate robbed a ship.</p><p>Press 1 for true and press  2 for false.</p></div>","49","","","","","","","","","","","","","","","","","","",""
"","html-keyboard-response","79","251433","0.0-51.0-0.0","494.5","<div class='center'><p>That's correct!</p> <p><b>[press the space bar to continue with the quiz]</b></p></div>","32","","","","","","","","","","","","","","","","","","",""
"","html-keyboard-response","80","252629","0.0-52.0-0.0","1193.3000001907349","<div class='center'><p>Good job! You’re now ready to move on to the real game!</p> <p><br>[press the space bar to begin!]</br></p></div>","32","","","","","","","","","","","","","","","","","","",""
"","do_welcome","81","254145","0.0-53.0-0.0","null","","","","null","","","","","","","","","","","","","","","","",""
"","do_trial","82","259526","0.0-54.0-0.0","788.9000000953674","","","","49","1,0,0","0","forest","0","probe-215","0.6","0.3","0.1","1","","","","","","","",""
"","html-keyboard-response","83","260546","0.0-54.0-1.0","null","<p></p>","null","","","","","","","","","","","","","","","","","","",""
"","do_trial","84","265809","0.0-55.0-0.0","644","","","","50","1,0,0","0","forest","1","probe-75","0.6208796297439284","0.20699328086689003","0.2128180710928984","0","","","","","","","",""
"","html-keyboard-response","85","266826","0.0-55.0-1.0","null","<p></p>","null","","","","","","","","","","","","","","","","","","",""
"","do_trial","86","271820","0.0-56.0-0.0","387.5","","","","49","0,0,0","0","forest","2","probe-217","0.7102678464873281","0.1884863811389801","0.22998377798480774","0","","","","","","","",""
"","html-keyboard-response","87","272835","0.0-56.0-1.0","null","<p></p>","null","","","","","","","","","","","","","","","","","","",""
"","do_trial","88","278284","0.0-57.0-0.0","822.7999999523163","","","","51","0,0,0","0","forest","3","probe-219","0.663577594728935","0.13969821649671318","0.20951094369683337","0","","","","","","","",""
"","html-keyboard-response","89","279301","0.0-57.0-1.0","null","<p></p>","null","","","","","","","","","","","","","","","","","","",""
"","do_trial","90","284443","0.0-58.0-0.0","552.3000001907349","","","","49","0,0,1","0","forest","4","probe-216","0.7436561616477642","0.2071235314161814","0.2307395297210801","0","","","","","","","",""
"","html-keyboard-response","91","285457","0.0-58.0-1.0","null","<p></p>","null","","","","","","","","","","","","","","","","","","",""
"","do_trial","92","290622","0.0-59.0-0.0","574.0999999046326","","","","50","1,0,0","0","forest","5","probe-164","0.7162521520274154","0.11495635717623737","0.13283370756567783","0","","","","","","","",""
"","html-keyboard-response","93","291638","0.0-59.0-1.0","null","<p></p>","null","","","","","","","","","","","","","","","","","","",""
"","do_trial","94","296823","0.0-60.0-0.0","604.3000001907349","","","","49","0,1,0","0","forest","6","probe-176","0.5481140993925716","0.1609022954774873","0.15261371675994995","0","","","","","","","",""
"","html-keyboard-response","95","297839","0.0-60.0-1.0","null","<p></p>","null","","","","","","","","","","","","","","","","","","",""
"","do_trial","96","303133","0.0-61.0-0.0","707.5","","","","49","1,0,0","0","forest","7","probe-226","0.5925881495558004","0.24806129395747303","0.11687117521149387","1","","","","","","","",""
"","html-keyboard-response","97","304149","0.0-61.0-1.0","null","<p></p>","null","","","","","","","","","","","","","","","","","","",""
"","do_trial","98","309305","0.0-62.0-0.0","566.2999999523163","","","","51","1,0,0","0","forest","8","probe-63","0.6595118285045378","0.07144015041926732","0.13839203298447417","0","","","","","","","",""
"","html-keyboard-response","99","310330","0.0-62.0-1.0","null","<p></p>","null","","","","","","","","","","","","","","","","","","",""
"","do_trial","100","315324","0.0-63.0-0.0","388.7000000476837","","","","49","1,0,1","0","forest","9","probe-29","0.5513623945975205","0.2814271581693823","0.14921146239904498","1","","","","","","","",""
"","html-keyboard-response","101","316347","0.0-63.0-1.0","null","<p></p>","null","","","","","","","","","","","","","","","","","","",""
"","do_trial","102","321572","0.0-64.0-0.0","615.4000000953674","","","","50","0,0,0","0","forest","10","probe-174","0.6740722400994458","0.21672413333491222","0.136027189423476","0","","","","","","","",""
"","html-keyboard-response","103","322591","0.0-64.0-1.0","null","<p></p>","null","","","","","","","","","","","","","","","","","","",""
"","do_trial","104","327777","0.0-65.0-0.0","576.7999999523163","","","","49","1,0,1","0","forest","11","probe-10","0.6660609409319801","0.277277764253059","0.11125650586716714","1","","","","","","","",""
"","html-keyboard-response","105","328800","0.0-65.0-1.0","null","<p></p>","null","","","","","","","","","","","","","","","","","","",""
"","do_trial","106","334130","0.0-66.0-0.0","748.4000000953674","","","","51","0,0,0","0","forest","12","probe-221","0.7280263094175742","0.3058487453176734","0.07634260727570179","0","","","","","","","",""
"","html-keyboard-response","107","335149","0.0-66.0-1.0","null","<p></p>","null","","","","","","","","","","","","","","","","","","",""
"","do_trial","108","340548","0.0-67.0-0.0","811.0999999046326","","","","49","1,0,0","0","forest","13","probe-60","0.65047725725918","0.4272240642172526","0.14407321385577593","1","","","","","","","",""
"","html-keyboard-response","109","341562","0.0-67.0-1.0","null","<p></p>","null","","","","","","","","","","","","","","","","","","",""
"","do_trial","110","348046","0.0-68.0-0.0","1909","","","","49","1,0,0","0","forest","14","probe-143","0.4759220918469652","0.44444457835719087","0.1244696096704214","1","","","","","","","",""
"","html-keyboard-response","111","349060","0.0-68.0-1.0","null","<p></p>","null","","","","","","","","","","","","","","","","","","",""
"","do_trial","112","354216","0.0-69.0-0.0","584","","","","49","1,1,0","0","forest","15","probe-47","0.4669494180774618","0.44205296847285513","0.09866208812858876","1","","","","","","","",""
"","html-keyboard-response","113","355221","0.0-69.0-1.0","null","<p></p>","null","","","","","","","","","","","","","","","","","","",""
"","do_trial","114","360240","0.0-70.0-0.0","412.40000009536743","","","","49","1,0,0","0","forest","16","probe-74","0.4563339758458368","0.4843209761123015","0.1456573339686222","1","","","","","","","",""
"","html-keyboard-response","115","361248","0.0-70.0-1.0","null","<p></p>","null","","","","","","","","","","","","","","","","","","",""
"","do_trial","116","366250","0.0-71.0-0.0","379.7000000476837","","","","49","0,1,0","0","forest","17","probe-26","0.4929715885419187","0.385835958823456","0.08942272627084893","0","","","","","","","",""
"","html-keyboard-response","117","367264","0.0-71.0-1.0","null","<p></p>","null","","","","","","","","","","","","","","","","","","",""
"","do_trial","118","372646","0.0-72.0-0.0","752","","","","50","0,0,1","0","forest","18","probe-41","0.5066246339880942","0.3854876237200802","0.1494790613505916","0","","","","","","","",""
"","html-keyboard-response","119","373667","0.0-72.0-1.0","null","<p></p>","null","","","","","","","","","","","","","","","","","","",""
"","do_trial","120","378956","0.0-73.0-0.0","663.1000001430511","","","","49","0,0,0","0","forest","19","probe-43","0.5250218537400927","0.41186990518596306","0.06796644457810662","0","","","","","","","",""
"","html-keyboard-response","121","379972","0.0-73.0-1.0","null","<p></p>","null","","","","","","","","","","","","","","","","","","",""
"","do_trial","122","384900","0.0-74.0-0.0","309.39999985694885","","","","49","1,0,0","0","forest","20","probe-84","0.4113724454531792","0.42568281570278926","0.06191202318045745","1","","","","","","","",""
"","html-keyboard-response","123","385916","0.0-74.0-1.0","null","<p></p>","null","","","","","","","","","","","","","","","","","","",""
"","do_trial","124","390807","0.0-75.0-0.0","292.7999999523163","","","","49","1,0,0","0","forest","21","probe-132","0.6514507497781753","0.4271946570065849","0.20512447251245522","1","","","","","","","",""
"","html-keyboard-response","125","391823","0.0-75.0-1.0","null","<p></p>","null","","","","","","","","","","","","","","","","","","",""
"","do_trial","126","396987","0.0-76.0-0.0","574.7999999523163","","","","49","1,1,0","0","forest","22","probe-128","0.5761323504329144","0.37477571814984667","0.09361319564718072","1","","","","","","","",""
"","html-keyboard-response","127","397991","0.0-76.0-1.0","null","<p></p>","null","","","","","","","","","","","","","","","","","","",""
"","do_trial","128","403058","0.0-77.0-0.0","499.7000000476837","","","","49","1,0,0","0","forest","23","probe-198","0.6820653597996812","0.3690044237852079","0.08128476431901191","1","","","","","","","",""
"","html-keyboard-response","129","404074","0.0-77.0-1.0","null","<p></p>","null","","","","","","","","","","","","","","","","","","",""
"","do_trial","130","409084","0.0-78.0-0.0","394","","","","49","0,1,0","0","forest","24","probe-213","0.7733155345452944","0.3372456369221818","0.08978239421331675","0","","","","","","","",""
"","html-keyboard-response","131","410097","0.0-78.0-1.0","null","<p></p>","null","","","","","","","","","","","","","","","","","","",""
"","do_trial","132","415080","0.0-79.0-0.0","404.5","","","","49","1,1,0","0","forest","25","probe-208","0.6269008969694648","0.2789619477045275","0.20530646813331252","1","","","","","","","",""
"","html-keyboard-response","133","416093","0.0-79.0-1.0","null","<p></p>","null","","","","","","","","","","","","","","","","","","",""
"","do_trial","134","421085","0.0-80.0-0.0","398.80000019073486","","","","49","0,0,0","0","forest","26","probe-30","0.5934129545809219","0.3477261586784096","0.12161734639768547","0","","","","","","","",""
"","html-keyboard-response","135","422100","0.0-80.0-1.0","null","<p></p>","null","","","","","","","","","","","","","","","","","","",""
"","do_trial","136","427330","0.0-81.0-0.0","652.1000001430511","","","","49","1,1,0","0","forest","27","probe-124","0.6486283650544824","0.43901671197347486","0.08445170231868009","1","","","","","","","",""
"","html-keyboard-response","137","428346","0.0-81.0-1.0","null","<p></p>","null","","","","","","","","","","","","","","","","","","",""
"","do_trial","138","433325","0.0-82.0-0.0","374.59999990463257","","","","49","0,0,0","0","forest","28","probe-116","0.6740529306699565","0.4466229913618762","0.11488407529026592","0","","","","","","","",""
"","html-keyboard-response","139","434341","0.0-82.0-1.0","null","<p></p>","null","","","","","","","","","","","","","","","","","","",""
"","do_trial","140","439218","0.0-83.0-0.0","296.89999985694885","","","","49","1,0,0","0","forest","29","probe-133","0.6805000332493863","0.3212560258653414","0.15228109669586765","1","","","","","","","",""
"","html-keyboard-response","141","440233","0.0-83.0-1.0","null","<p></p>","null","","","","","","","","","","","","","","","","","","",""
"","do_bye","142","441750","0.0-84.0-0.0","null","","","","null","","","","","","","","","","","","","","","","",""
"","do_travel","143","447765","0.0-85.0-0.0","null","","","","null","","","","","","","","","","","","","","","","",""
"","do_welcome","144","449286","0.0-85.0-1.0","null","","","","null","","","","","","","","","","","","","","","","",""
"","do_trial","145","455206","0.0-86.0-0.0","1299.4000000953674","","","","50","1,0,0","1","coast","30","probe-125","1","0.32549170031256486","0.06581995680195271","0","","","","","","","",""
"","html-keyboard-response","146","456221","0.0-86.0-1.0","null","<p></p>","null","","","","","","","","","","","","","","","","","","",""
"","do_trial","147","461219","0.0-87.0-0.0","398.7000000476837","","","","51","1,0,0","1","coast","31","probe-121","1","0.25554934727531126","0.10653580447819228","0","","","","","","","",""
"","html-keyboard-response","148","462236","0.0-87.0-1.0","null","<p></p>","null","","","","","","","","","","","","","","","","","","",""
"","do_trial","149","467391","0.0-88.0-0.0","531.2000000476837","","","","49","1,0,0","1","coast","32","probe-91","1","0.24698969460510165","0.13191817662522784","1","","","","","","","",""
"","html-keyboard-response","150","468414","0.0-88.0-1.0","null","<p></p>","null","","","","","","","","","","","","","","","","","","",""
"","do_trial","151","473590","0.0-89.0-0.0","574.6000001430511","","","","49","1,0,0","1","coast","33","probe-88","0.888390106365488","0.2338281358487527","0.17232147059164518","1","","","","","","","",""
"","html-keyboard-response","152","474610","0.0-89.0-1.0","null","<p></p>","null","","","","","","","","","","","","","","","","","","",""
"","do_trial","153","479496","0.0-90.0-0.0","304.39999985694885","","","","49","1,0,0","1","coast","34","probe-15","0.6726979741361276","0.3072535657998898","0.22621932770204567","1","","","","","","","",""
"","html-keyboard-response","154","480513","0.0-90.0-1.0","null","<p></p>","null","","","","","","","","","","","","","","","","","","",""
"","do_trial","155","485617","0.0-91.0-0.0","507.2999999523163","","","","49","0,1,0","1","coast","35","probe-02","0.6469997078506932","0.2770186964109583","0.20597767142484935","0","","","","","","","",""
"","html-keyboard-response","156","486623","0.0-91.0-1.0","null","<p></p>","null","","","","","","","","","","","","","","","","","","",""
"","do_trial","157","491578","0.0-92.0-0.0","355.2999999523163","","","","49","0,0,0","1","coast","36","probe-22","0.6224176506358863","0.20155089546989693","0.2310797058089246","0","","","","","","","",""
"","html-keyboard-response","158","492600","0.0-92.0-1.0","null","<p></p>","null","","","","","","","","","","","","","","","","","","",""
"","do_trial","159","497685","0.0-93.0-0.0","493.5","","","","49","1,0,1","1","coast","37","probe-79","0.6663601697505593","0.31496516534117197","0.2685546984111785","1","","","","","","","",""
"","html-keyboard-response","160","498709","0.0-93.0-1.0","null","<p></p>","null","","","","","","","","","","","","","","","","","","",""
"","do_trial","161","503652","0.0-94.0-0.0","319","","","","51","0,0,0","1","coast","38","probe-156","0.5815652706030328","0.3306336838778358","0.14490719497144283","0","","","","","","","",""
"","html-keyboard-response","162","504668","0.0-94.0-1.0","null","<p></p>","null","","","","","","","","","","","","","","","","","","",""
"","do_trial","163","509668","0.0-95.0-0.0","410","","","","49","0,0,0","1","coast","39","probe-193","0.5470715985068654","0.3828481050347107","0.1685444963374758","0","","","","","","","",""
"","html-keyboard-response","164","510686","0.0-95.0-1.0","null","<p></p>","null","","","","","","","","","","","","","","","","","","",""
"","do_trial","165","516797","0.0-96.0-0.0","null","","","","null","1,1,0","1","coast","40","probe-134","0.4905556874982002","0.3271904441727342","0.05542540932755873","","","","","","","","",""
"","html-keyboard-response","166","517819","0.0-96.0-1.0","null","<p></p>","null","","","","","","","","","","","","","","","","","","",""
"","do_trial","167","522960","0.0-97.0-0.0","537.2000000476837","","","","49","0,0,0","1","coast","41","probe-61","0.44335521222702895","0.3391499136730613","0.09714836427758311","0","","","","","","","",""
"","html-keyboard-response","168","523976","0.0-97.0-1.0","null","<p></p>","null","","","","","","","","","","","","","","","","","","",""
"","do_trial","169","529332","0.0-98.0-0.0","767.4000000953674","","","","49","1,0,1","1","coast","42","probe-214","0.5211903040788401","0.2832489927373136","0.15492798685083023","1","","","","","","","",""
"","html-keyboard-response","170","530341","0.0-98.0-1.0","null","<p></p>","null","","","","","","","","","","","","","","","","","","",""
"","do_trial","171","535714","0.0-99.0-0.0","787.5","","","","51","1,0,1","1","coast","43","probe-54","0.4156703348048369","0.24108165784286387","0.19510693443453747","1","","","","","","","",""
"","html-keyboard-response","172","536730","0.0-99.0-1.0","null","<p></p>","null","","","","","","","","","","","","","","","","","","",""
"","do_trial","173","541632","0.0-100.0-0.0","312.7999999523163","","","","49","0,0,0","1","coast","44","probe-197","0.43990637340358185","0.16302490225508037","0.3451531177795891","0","","","","","","","",""
"","html-keyboard-response","174","542649","0.0-100.0-1.0","null","<p></p>","null","","","","","","","","","","","","","","","","","","",""
"","do_trial","175","547634","0.0-101.0-0.0","390.89999985694885","","","","49","0,1,0","1","coast","45","probe-162","0.3490396030468596","0.22295571580378162","0.4488281248765513","0","","","","","","","",""
"","html-keyboard-response","176","548658","0.0-101.0-1.0","null","<p></p>","null","","","","","","","","","","","","","","","","","","",""
"","do_trial","177","553682","0.0-102.0-0.0","415.10000014305115","","","","49","1,0,0","1","coast","46","probe-105","0.24748227654515234","0.050146541692421776","0.5447794377109103","1","","","","","","","",""
"","html-keyboard-response","178","554698","0.0-102.0-1.0","null","<p></p>","null","","","","","","","","","","","","","","","","","","",""
"","do_trial","179","559810","0.0-103.0-0.0","516.0999999046326","","","","49","0,0,1","1","coast","47","probe-62","0.24568478198640273","0.12310640543360492","0.5966252749521018","0","","","","","","","",""
"","html-keyboard-response","180","560817","0.0-103.0-1.0","null","<p></p>","null","","","","","","","","","","","","","","","","","","",""
"","do_trial","181","565953","0.0-104.0-0.0","521.4000000953674","","","","49","1,0,1","1","coast","48","probe-151","0.26678514399492825","0.15857707322074036","0.6311192767752328","1","","","","","","","",""
"","html-keyboard-response","182","566957","0.0-104.0-1.0","null","<p></p>","null","","","","","","","","","","","","","","","","","","",""
"","do_trial","183","572465","0.0-105.0-0.0","890.7000000476837","","","","49","0,0,1","1","coast","49","probe-24","0.20864823748327893","0.12359174425926416","0.5856528414985592","0","","","","","","","",""
"","html-keyboard-response","184","573484","0.0-105.0-1.0","null","<p></p>","null","","","","","","","","","","","","","","","","","","",""
"","do_trial","185","578455","0.0-106.0-0.0","359.7000000476837","","","","49","0,0,0","1","coast","50","probe-135","0.2716874073801216","0.08354628020950944","0.541555089009198","0","","","","","","","",""
"","html-keyboard-response","186","579470","0.0-106.0-1.0","null","<p></p>","null","","","","","","","","","","","","","","","","","","",""
"","do_trial","187","584743","0.0-107.0-0.0","697.6000001430511","","","","49","0,0,1","1","coast","51","probe-13","0.20544726587677606","0.06259309860825887","0.7067119286180253","0","","","","","","","",""
"","html-keyboard-response","188","585765","0.0-107.0-1.0","null","<p></p>","null","","","","","","","","","","","","","","","","","","",""
"","do_trial","189","590572","0.0-108.0-0.0","210","","","","49","0,1,1","1","coast","52","probe-205","0.14838950856300046","0.15465239304395254","0.7082497424686676","0","","","","","","","",""
"","html-keyboard-response","190","591589","0.0-108.0-1.0","null","<p></p>","null","","","","","","","","","","","","","","","","","","",""
"","do_trial","191","596697","0.0-109.0-0.0","520.8999998569489","","","","49","0,0,0","1","coast","53","probe-71","0.16118527602294522","0.08390075663368177","0.6681904580024366","0","","","","","","","",""
"","html-keyboard-response","192","597713","0.0-109.0-1.0","null","<p></p>","null","","","","","","","","","","","","","","","","","","",""
"","do_trial","193","602769","0.0-110.0-0.0","480.2999999523163","","","","50","0,0,1","1","coast","54","probe-111","0.20015225215032081","0.12317901304181439","0.6327562677710815","0","","","","","","","",""
"","html-keyboard-response","194","603790","0.0-110.0-1.0","null","<p></p>","null","","","","","","","","","","","","","","","","","","",""
"","do_trial","195","608716","0.0-111.0-0.0","296.10000014305115","","","","49","0,0,0","1","coast","55","probe-114","0.3203978219915396","0.12050431443647407","0.4200475172796098","0","","","","","","","",""
"","html-keyboard-response","196","609730","0.0-111.0-1.0","null","<p></p>","null","","","","","","","","","","","","","","","","","","",""
"","do_trial","197","614847","0.0-112.0-0.0","489.40000009536743","","","","49","0,0,0","1","coast","56","probe-184","0.3441765063829574","0.27703992359489676","0.5075168248171407","0","","","","","","","",""
"","html-keyboard-response","198","615863","0.0-112.0-1.0","null","<p></p>","null","","","","","","","","","","","","","","","","","","",""
"","do_trial","199","621991","0.0-113.0-0.0","null","","","","null","0,0,1","1","coast","57","probe-204","0.3074896326612512","0.1406567014088142","0.46867908571068584","","","","","","","","",""
"","html-keyboard-response","200","623006","0.0-113.0-1.0","null","<p></p>","null","","","","","","","","","","","","","","","","","","",""
"","do_trial","201","628276","0.0-114.0-0.0","699.5999999046326","","","","49","0,0,1","1","coast","58","probe-96","0.1764227370534603","0.06126845641482302","0.5034957524286059","0","","","","","","","",""
"","html-keyboard-response","202","629296","0.0-114.0-1.0","null","<p></p>","null","","","","","","","","","","","","","","","","","","",""
"","do_trial","203","635080","0.0-115.0-0.0","1182.7000000476837","","","","51","0,0,1","1","coast","59","probe-167","0.1429507890629832","0.0753259978513293","0.5676155226396772","1","","","","","","","",""
"","html-keyboard-response","204","636096","0.0-115.0-1.0","null","<p></p>","null","","","","","","","","","","","","","","","","","","",""
"","do_trial","205","641056","0.0-116.0-0.0","372.2000000476837","","","","49","1,0,0","1","coast","60","probe-109","0.2663137130240967","0.06552271880291069","0.44733653973851456","1","","","","","","","",""
"","html-keyboard-response","206","642073","0.0-116.0-1.0","null","<p></p>","null","","","","","","","","","","","","","","","","","","",""
"","do_trial","207","648221","0.0-117.0-0.0","1557","","","","49","0,0,0","1","coast","61","probe-21","0.27082078997916553","0.09173237356688421","0.4432734811231463","0","","","","","","","",""
"","html-keyboard-response","208","649226","0.0-117.0-1.0","null","<p></p>","null","","","","","","","","","","","","","","","","","","",""
"","do_trial","209","654523","0.0-118.0-0.0","698.3999998569489","","","","49","1,0,1","1","coast","62","probe-58","0.2452164497621029","0.0953115391528981","0.5601455185241428","1","","","","","","","",""
"","html-keyboard-response","210","655540","0.0-118.0-1.0","null","<p></p>","null","","","","","","","","","","","","","","","","","","",""
"","do_trial","211","661463","0.0-119.0-0.0","1307.9000000953674","","","","51","0,0,1","1","coast","63","probe-06","0.33302358480786537","0.09531534301258736","0.5255393230323411","1","","","","","","","",""
"","html-keyboard-response","212","662467","0.0-119.0-1.0","null","<p></p>","null","","","","","","","","","","","","","","","","","","",""
"","do_trial","213","668793","0.0-120.0-0.0","1707.0999999046326","","","","49","0,0,0","1","coast","64","probe-210","0.4583974080643913","0.0620050607341732","0.6579948862901891","0","","","","","","","",""
"","html-keyboard-response","214","669815","0.0-120.0-1.0","null","<p></p>","null","","","","","","","","","","","","","","","","","","",""
"","do_trial","215","674866","0.0-121.0-0.0","464","","","","49","0,0,0","1","coast","65","probe-92","0.34077085727563955","0.12196112452754779","0.572184448858296","0","","","","","","","",""
"","html-keyboard-response","216","675883","0.0-121.0-1.0","null","<p></p>","null","","","","","","","","","","","","","","","","","","",""
"","do_trial","217","680880","0.0-122.0-0.0","419.90000009536743","","","","49","0,0,0","1","coast","66","probe-230","0.20939762898027184","0.09292316656171667","0.41610398329056575","0","","","","","","","",""
"","html-keyboard-response","218","681896","0.0-122.0-1.0","null","<p></p>","null","","","","","","","","","","","","","","","","","","",""
"","do_trial","219","687412","0.0-123.0-0.0","910.5999999046326","","","","51","0,0,1","1","coast","67","probe-56","0.36620886162081406","0.18062584042317156","0.4783057262032842","1","","","","","","","",""
"","html-keyboard-response","220","688419","0.0-123.0-1.0","null","<p></p>","null","","","","","","","","","","","","","","","","","","",""
"","do_trial","221","693396","0.0-124.0-0.0","360.7999999523163","","","","51","0,0,1","1","coast","68","probe-199","0.3774290103765886","0.07884388809248988","0.6071731569391934","1","","","","","","","",""
"","html-keyboard-response","222","694412","0.0-124.0-1.0","null","<p></p>","null","","","","","","","","","","","","","","","","","","",""
"","do_trial","223","700013","0.0-125.0-0.0","982.1000001430511","","","","51","1,0,1","1","coast","69","probe-118","0.31921004183910234","0.11009743194046934","0.5720549243485455","1","","","","","","","",""
"","html-keyboard-response","224","701037","0.0-125.0-1.0","null","<p></p>","null","","","","","","","","","","","","","","","","","","",""
"","do_bye","225","702553","0.0-126.0-0.0","null","","","","null","","","","","","","","","","","","","","","","",""
"","do_travel","226","708570","0.0-127.0-0.0","null","","","","null","","","","","","","","","","","","","","","","",""
"","do_welcome","227","710087","0.0-127.0-1.0","null","","","","null","","","","","","","","","","","","","","","","",""
"","do_trial","228","715647","0.0-128.0-0.0","991.2999999523163","","","","50","1,0,1","2","city","70","probe-177","0.2824883766431021","0.10289998567947643","1","0","","","","","","","",""
"","html-keyboard-response","229","716664","0.0-128.0-1.0","null","<p></p>","null","","","","","","","","","","","","","","","","","","",""
"","do_trial","230","721594","0.0-129.0-0.0","352.90000009536743","","","","50","1,0,1","2","city","71","probe-12","0.2818818213204059","0.08463811629047284","1","0","","","","","","","",""
"","html-keyboard-response","231","722616","0.0-129.0-1.0","null","<p></p>","null","","","","","","","","","","","","","","","","","","",""
"","do_trial","232","727549","0.0-130.0-0.0","321.5","","","","51","0,0,1","2","city","72","probe-173","0.24778620493486386","0.0657856117053682","0.9323519726232453","1","","","","","","","",""
"","html-keyboard-response","233","728565","0.0-130.0-1.0","null","<p></p>","null","","","","","","","","","","","","","","","","","","",""
"","do_trial","234","733596","0.0-131.0-0.0","424.2000000476837","","","","51","1,0,0","2","city","73","probe-59","0.40596595759196374","0.08045765465943591","0.6704748159102409","0","","","","","","","",""
"","html-keyboard-response","235","734601","0.0-131.0-1.0","null","<p></p>","null","","","","","","","","","","","","","","","","","","",""
"","do_trial","236","739568","0.0-132.0-0.0","346.40000009536743","","","","49","1,0,1","2","city","74","probe-115","0.3555409410176796","0.17135403951735328","0.5930820835051767","1","","","","","","","",""
"","html-keyboard-response","237","740583","0.0-132.0-1.0","null","<p></p>","null","","","","","","","","","","","","","","","","","","",""
"","do_trial","238","745559","0.0-133.0-0.0","346.7000000476837","","","","49","0,0,1","2","city","75","probe-187","0.47083974367026893","0.05866945321231562","0.5586121597442962","0","","","","","","","",""
"","html-keyboard-response","239","746582","0.0-133.0-1.0","null","<p></p>","null","","","","","","","","","","","","","","","","","","",""
"","do_trial","240","751452","0.0-134.0-0.0","287.7999999523163","","","","51","1,0,0","2","city","76","probe-44","0.2593861790323499","0.05537205149011264","0.5665636021901825","0","","","","","","","",""
"","html-keyboard-response","241","752455","0.0-134.0-1.0","null","<p></p>","null","","","","","","","","","","","","","","","","","","",""
"","do_trial","242","757643","0.0-135.0-0.0","583.6000001430511","","","","51","0,0,1","2","city","77","probe-34","0.24050523177210367","0.1131499952311172","0.6082952545767742","1","","","","","","","",""
"","html-keyboard-response","243","758659","0.0-135.0-1.0","null","<p></p>","null","","","","","","","","","","","","","","","","","","",""
"","do_trial","244","764135","0.0-136.0-0.0","879.2000000476837","","","","51","1,0,0","2","city","78","probe-223","0.2226370064668027","0.10628591587851884","0.5413123352908485","0","","","","","","","",""
"","html-keyboard-response","245","765152","0.0-136.0-1.0","null","<p></p>","null","","","","","","","","","","","","","","","","","","",""
"","do_trial","246","770663","0.0-137.0-0.0","907.4000000953674","","","","49","0,1,1","2","city","79","probe-57","0.3220762635365199","0.19805710887515368","0.568596165026218","0","","","","","","","",""
"","html-keyboard-response","247","771681","0.0-137.0-1.0","null","<p></p>","null","","","","","","","","","","","","","","","","","","",""
"","do_trial","248","776756","0.0-138.0-0.0","474.7999999523163","","","","51","0,0,1","2","city","80","probe-131","0.36348348430902","0.26840844306474393","0.6918052720390824","1","","","","","","","",""
"","html-keyboard-response","249","777772","0.0-138.0-1.0","null","<p></p>","null","","","","","","","","","","","","","","","","","","",""
"","do_trial","250","782794","0.0-139.0-0.0","441.40000009536743","","","","51","0,0,1","2","city","81","probe-170","0.29993566467394905","0.2573495040129471","0.7539920797135442","1","","","","","","","",""
"","html-keyboard-response","251","783811","0.0-139.0-1.0","null","<p></p>","null","","","","","","","","","","","","","","","","","","",""
"","do_trial","252","788810","0.0-140.0-0.0","393.5","","","","51","1,0,0","2","city","82","probe-77","0.31562245155123286","0.4632081332551377","0.5202952618594748","0","","","","","","","",""
"","html-keyboard-response","253","789825","0.0-140.0-1.0","null","<p></p>","null","","","","","","","","","","","","","","","","","","",""
"","do_trial","254","794817","0.0-141.0-0.0","378.5","","","","49","0,0,0","2","city","83","probe-20","0.18919942028163572","0.5255311011763986","0.5482588857629868","0","","","","","","","",""
"","html-keyboard-response","255","795832","0.0-141.0-1.0","null","<p></p>","null","","","","","","","","","","","","","","","","","","",""
"","do_trial","256","801154","0.0-142.0-0.0","738.5","","","","50","0,1,1","2","city","84","probe-149","0.06897564900918252","0.556226903062378","0.2849125934987335","1","","","","","","","",""
"","html-keyboard-response","257","802160","0.0-142.0-1.0","null","<p></p>","null","","","","","","","","","","","","","","","","","","",""
"","do_trial","258","807139","0.0-143.0-0.0","385","","","","50","0,1,0","2","city","85","probe-152","0.1482831742722958","0.5207570826655549","0.19560283663966138","1","","","","","","","",""
"","html-keyboard-response","259","808153","0.0-143.0-1.0","null","<p></p>","null","","","","","","","","","","","","","","","","","","",""
"","do_trial","260","813268","0.0-144.0-0.0","521.9000000953674","","","","50","0,0,0","2","city","86","probe-16","0.23942191250341566","0.5666854919972616","0.14825400787202417","0","","","","","","","",""
"","html-keyboard-response","261","814286","0.0-144.0-1.0","null","<p></p>","null","","","","","","","","","","","","","","","","","","",""
"","do_trial","262","819505","0.0-145.0-0.0","645.9000000953674","","","","50","0,0,1","2","city","87","probe-172","0.1458159700232826","0.41050337164049366","0.3080927651888707","0","","","","","","","",""
"","html-keyboard-response","263","820521","0.0-145.0-1.0","null","<p></p>","null","","","","","","","","","","","","","","","","","","",""
"","do_trial","264","825649","0.0-146.0-0.0","542.3999998569489","","","","50","0,1,1","2","city","88","probe-165","0.07596915748871391","0.6242882740873268","0.23220009648857398","1","","","","","","","",""
"","html-keyboard-response","265","826655","0.0-146.0-1.0","null","<p></p>","null","","","","","","","","","","","","","","","","","","",""
"","do_trial","266","832674","0.0-147.0-0.0","1427.2000000476837","","","","50","0,1,0","2","city","89","probe-107","0.07815159185809434","0.5838458292763229","0.2632936242403012","1","","","","","","","",""
"","html-keyboard-response","267","833688","0.0-147.0-1.0","null","<p></p>","null","","","","","","","","","","","","","","","","","","",""
"","do_trial","268","839109","0.0-148.0-0.0","852","","","","50","0,1,1","2","city","90","probe-140","0.08325310224840456","0.6181886488565776","0.24840536405966737","1","","","","","","","",""
"","html-keyboard-response","269","840133","0.0-148.0-1.0","null","<p></p>","null","","","","","","","","","","","","","","","","","","",""
"","do_trial","270","845973","0.0-149.0-0.0","1243.0999999046326","","","","50","0,0,0","2","city","91","probe-188","0.1819800829466571","0.6161405507699155","0.40594815439011017","0","","","","","","","",""
"","html-keyboard-response","271","846978","0.0-149.0-1.0","null","<p></p>","null","","","","","","","","","","","","","","","","","","",""
"","do_trial","272","853433","0.0-150.0-0.0","1851.9000000953674","","","","50","0,0,0","2","city","92","probe-97","0.22549978081649927","0.4264928156279844","0.2920098309457523","0","","","","","","","",""
"","html-keyboard-response","273","854457","0.0-150.0-1.0","null","<p></p>","null","","","","","","","","","","","","","","","","","","",""
"","do_trial","274","859982","0.0-151.0-0.0","911","","","","50","0,0,0","2","city","93","probe-191","0.3345111803912246","0.5266414475600623","0.30252756310101686","0","","","","","","","",""
"","html-keyboard-response","275","860988","0.0-151.0-1.0","null","<p></p>","null","","","","","","","","","","","","","","","","","","",""
"","do_trial","276","866287","0.0-152.0-0.0","700.5","","","","51","0,1,0","2","city","94","probe-101","0.21418164327569503","0.7232150121608987","0.3393081808666762","0","","","","","","","",""
"","html-keyboard-response","277","867291","0.0-152.0-1.0","null","<p></p>","null","","","","","","","","","","","","","","","","","","",""
"","do_trial","278","872289","0.0-153.0-0.0","406.59999990463257","","","","50","0,1,0","2","city","95","probe-93","0.1921260654949546","0.6232117515706146","0.3064888013625238","1","","","","","","","",""
"","html-keyboard-response","279","873302","0.0-153.0-1.0","null","<p></p>","null","","","","","","","","","","","","","","","","","","",""
"","do_trial","280","878204","0.0-154.0-0.0","320.90000009536743","","","","50","0,1,0","2","city","96","probe-65","0.0513588867848257","0.539969811473024","0.18417193795611908","1","","","","","","","",""
"","html-keyboard-response","281","879221","0.0-154.0-1.0","null","<p></p>","null","","","","","","","","","","","","","","","","","","",""
"","do_trial","282","886584","0.0-155.0-0.0","2768.5","","","","50","0,0,0","2","city","97","probe-155","0.06794551506878897","0.5754529474186424","0.2983685052999263","0","","","","","","","",""
"","html-keyboard-response","283","887604","0.0-155.0-1.0","null","<p></p>","null","","","","","","","","","","","","","","","","","","",""
"","do_trial","284","892912","0.0-156.0-0.0","684.3999998569489","","","","50","0,1,0","2","city","98","probe-189","0.08077856822811558","0.6429000203969152","0.3877590100006475","1","","","","","","","",""
"","html-keyboard-response","285","893928","0.0-156.0-1.0","null","<p></p>","null","","","","","","","","","","","","","","","","","","",""
"","do_trial","286","898958","0.0-157.0-0.0","403","","","","50","0,0,0","2","city","99","probe-103","0.11462706624704148","0.5622321304070272","0.22722283373211288","0","","","","","","","",""
"","html-keyboard-response","287","899964","0.0-157.0-1.0","null","<p></p>","null","","","","","","","","","","","","","","","","","","",""
"","do_trial","288","904844","0.0-158.0-0.0","280","","","","51","0,1,0","2","city","100","probe-04","0.16290215778550327","0.6755352647129871","0.18892800284972963","0","","","","","","","",""
"","html-keyboard-response","289","905857","0.0-158.0-1.0","null","<p></p>","null","","","","","","","","","","","","","","","","","","",""
"","do_trial","290","910765","0.0-159.0-0.0","282.2000000476837","","","","50","0,0,1","2","city","101","probe-35","0.1454542543607737","0.6221990221255856","0.22755686118237756","0","","","","","","","",""
"","html-keyboard-response","291","911782","0.0-159.0-1.0","null","<p></p>","null","","","","","","","","","","","","","","","","","","",""
"","do_trial","292","916738","0.0-160.0-0.0","339.30000019073486","","","","50","0,1,0","2","city","102","probe-186","0.09850914929777296","0.7101494998374284","0.2856631190692269","1","","","","","","","",""
"","html-keyboard-response","293","917742","0.0-160.0-1.0","null","<p></p>","null","","","","","","","","","","","","","","","","","","",""
"","do_trial","294","922711","0.0-161.0-0.0","367.10000014305115","","","","50","1,1,1","2","city","103","probe-147","0.0804461643642471","0.7619868251048878","0.30949935189480604","1","","","","","","","",""
"","html-keyboard-response","295","923728","0.0-161.0-1.0","null","<p></p>","null","","","","","","","","","","","","","","","","","","",""
"","do_trial","296","928823","0.0-162.0-0.0","509.09999990463257","","","","50","0,0,1","2","city","104","probe-98","0.08713815637496775","0.685256492513801","0.2874942739950127","0","","","","","","","",""
"","html-keyboard-response","297","929838","0.0-162.0-1.0","null","<p></p>","null","","","","","","","","","","","","","","","","","","",""
"","do_trial","298","934801","0.0-163.0-0.0","343.40000009536743","","","","51","0,1,0","2","city","105","probe-117","0.1923759772775945","0.7273806286274817","0.31716228121957957","0","","","","","","","",""
"","html-keyboard-response","299","935805","0.0-163.0-1.0","null","<p></p>","null","","","","","","","","","","","","","","","","","","",""
"","do_trial","300","940462","0.0-164.0-0.0","71.09999990463257","","","","50","0,0,0","2","city","106","probe-03","0.1017893924019621","0.7541680292451592","0.2109525124680556","0","","","","","","","",""
"","html-keyboard-response","301","941479","0.0-164.0-1.0","null","<p></p>","null","","","","","","","","","","","","","","","","","","",""
"","do_trial","302","946456","0.0-165.0-0.0","384.7999999523163","","","","51","0,1,1","2","city","107","probe-202","0.15484516342840776","0.7901036561129388","0.23659140227689715","1","","","","","","","",""
"","html-keyboard-response","303","947472","0.0-165.0-1.0","null","<p></p>","null","","","","","","","","","","","","","","","","","","",""
"","do_trial","304","953185","0.0-166.0-0.0","1136.5999999046326","","","","51","0,1,1","2","city","108","probe-154","0.10239309947016459","0.7290613347352647","0.18974562921225707","1","","","","","","","",""
"","html-keyboard-response","305","954202","0.0-166.0-1.0","null","<p></p>","null","","","","","","","","","","","","","","","","","","",""
"","do_trial","306","959377","0.0-167.0-0.0","590.0999999046326","","","","50","0,1,0","2","city","109","probe-142","0.09770501953427464","0.8674989511141209","0.1712929122583174","1","","","","","","","",""
"","html-keyboard-response","307","960393","0.0-167.0-1.0","null","<p></p>","null","","","","","","","","","","","","","","","","","","",""
"","do_bye","308","961911","0.0-168.0-0.0","null","","","","null","","","","","","","","","","","","","","","","",""
"","do_travel","309","967919","0.0-169.0-0.0","null","","","","null","","","","","","","","","","","","","","","","",""
"","do_welcome","310","969438","0.0-169.0-1.0","null","","","","null","","","","","","","","","","","","","","","","",""
"","do_trial","311","975134","0.0-170.0-0.0","1073.5999999046326","","","","50","0,1,0","3","mountain","110","probe-80","0.052079152407093966","1","0.33461993772402415","1","","","","","","","",""
"","html-keyboard-response","312","976150","0.0-170.0-1.0","null","<p></p>","null","","","","","","","","","","","","","","","","","","",""
"","do_trial","313","981189","0.0-171.0-0.0","451","","","","50","0,1,0","3","mountain","111","probe-122","0.11117253535161246","1","0.41034816475287017","1","","","","","","","",""
"","html-keyboard-response","314","982196","0.0-171.0-1.0","null","<p></p>","null","","","","","","","","","","","","","","","","","","",""
"","do_trial","315","987224","0.0-172.0-0.0","448.90000009536743","","","","50","0,1,0","3","mountain","112","probe-159","0.15182956924769678","0.9057581797912998","0.27447797884798425","1","","","","","","","",""
"","html-keyboard-response","316","988242","0.0-172.0-1.0","null","<p></p>","null","","","","","","","","","","","","","","","","","","",""
"","do_trial","317","993185","0.0-173.0-0.0","357.7000000476837","","","","50","0,1,0","3","mountain","113","probe-112","0.1864272270091368","0.772282310920543","0.38958977736263417","1","","","","","","","",""
"","html-keyboard-response","318","994202","0.0-173.0-1.0","null","<p></p>","null","","","","","","","","","","","","","","","","","","",""
"","do_trial","319","999162","0.0-174.0-0.0","361","","","","50","0,1,1","3","mountain","114","probe-25","0.07273371774935218","0.7320441493460917","0.3547852076136301","1","","","","","","","",""
"","html-keyboard-response","320","1000187","0.0-174.0-1.0","null","<p></p>","null","","","","","","","","","","","","","","","","","","",""
"","do_trial","321","1005173","0.0-175.0-0.0","373","","","","50","0,1,0","3","mountain","115","probe-72","0.18082823947076077","0.5996199307943758","0.2569697637591339","1","","","","","","","",""
"","html-keyboard-response","322","1006196","0.0-175.0-1.0","null","<p></p>","null","","","","","","","","","","","","","","","","","","",""
"","do_trial","323","1011203","0.0-176.0-0.0","418.7999999523163","","","","50","0,0,0","3","mountain","116","probe-49","0.30189797159618437","0.49741746983173524","0.23763954250388308","0","","","","","","","",""
"","html-keyboard-response","324","1012221","0.0-176.0-1.0","null","<p></p>","null","","","","","","","","","","","","","","","","","","",""
"","do_trial","325","1017268","0.0-177.0-0.0","426.2999999523163","","","","49","0,0,0","3","mountain","117","probe-19","0.18530391031826032","0.521918036748326","0.061889696901374656","0","","","","","","","",""
"","html-keyboard-response","326","1018275","0.0-177.0-1.0","null","<p></p>","null","","","","","","","","","","","","","","","","","","",""
"","do_trial","327","1023387","0.0-178.0-0.0","498.2000000476837","","","","50","0,1,0","3","mountain","118","probe-146","0.06556353314265785","0.7050030619762082","0.14558241799401786","1","","","","","","","",""
"","html-keyboard-response","328","1024405","0.0-178.0-1.0","null","<p></p>","null","","","","","","","","","","","","","","","","","","",""
"","do_trial","329","1030371","0.0-179.0-0.0","1359.9000000953674","","","","50","0,0,0","3","mountain","119","probe-39","0.06071707508320472","0.8050624179592499","0.21322605856387356","0","","","","","","","",""
"","html-keyboard-response","330","1031387","0.0-179.0-1.0","null","<p></p>","null","","","","","","","","","","","","","","","","","","",""
"","do_trial","331","1036361","0.0-180.0-0.0","396.60000014305115","","","","51","0,1,0","3","mountain","120","probe-127","0.09660399342940731","0.6612491690252512","0.11176704557142632","0","","","","","","","",""
"","html-keyboard-response","332","1037376","0.0-180.0-1.0","null","<p></p>","null","","","","","","","","","","","","","","","","","","",""
"","do_trial","333","1042384","0.0-181.0-0.0","419.39999985694885","","","","50","1,1,0","3","mountain","121","probe-46","0.10737117910460428","0.5052568148367967","0.18588383404407396","1","","","","","","","",""
"","html-keyboard-response","334","1043404","0.0-181.0-1.0","null","<p></p>","null","","","","","","","","","","","","","","","","","","",""
"","do_trial","335","1048540","0.0-182.0-0.0","559.6000001430511","","","","50","0,1,0","3","mountain","122","probe-17","0.1755507622152031","0.5091983212253621","0.13984191246095798","1","","","","","","","",""
"","html-keyboard-response","336","1049545","0.0-182.0-1.0","null","<p></p>","null","","","","","","","","","","","","","","","","","","",""
"","do_trial","337","1056287","0.0-183.0-0.0","2145.7000000476837","","","","50","0,0,0","3","mountain","123","probe-158","0.2969431145129614","0.433947048540059","0.11279446285126156","0","","","","","","","",""
"","html-keyboard-response","338","1057308","0.0-183.0-1.0","null","<p></p>","null","","","","","","","","","","","","","","","","","","",""
"","do_trial","339","1063502","0.0-184.0-0.0","1570","","","","50","0,1,0","3","mountain","124","probe-203","0.3717296236226703","0.2534613087227026","0.05454294901307325","1","","","","","","","",""
"","html-keyboard-response","340","1064523","0.0-184.0-1.0","null","<p></p>","null","","","","","","","","","","","","","","","","","","",""
"","do_trial","341","1069752","0.0-185.0-0.0","640.2999999523163","","","","50","0,0,0","3","mountain","125","probe-225","0.5151427359934944","0.1867587797063477","0.08888133986335497","0","","","","","","","",""
"","html-keyboard-response","342","1070769","0.0-185.0-1.0","null","<p></p>","null","","","","","","","","","","","","","","","","","","",""
"","do_trial","343","1076485","0.0-186.0-0.0","1145","","","","50","0,0,1","3","mountain","126","probe-126","0.5196946870939649","0.07941303974669729","0.14709179553047008","0","","","","","","","",""
"","html-keyboard-response","344","1077500","0.0-186.0-1.0","null","<p></p>","null","","","","","","","","","","","","","","","","","","",""
"","do_trial","345","1082540","0.0-187.0-0.0","454.90000009536743","","","","51","1,0,0","3","mountain","127","probe-222","0.5917454776349499","0.14890403284270667","0.1501289179252336","0","","","","","","","",""
"","html-keyboard-response","346","1083565","0.0-187.0-1.0","null","<p></p>","null","","","","","","","","","","","","","","","","","","",""
"","do_trial","347","1088572","0.0-188.0-0.0","413.2999999523163","","","","49","0,0,0","3","mountain","128","probe-73","0.7322739981804115","0.20064161593786076","0.1671560292862493","0","","","","","","","",""
"","html-keyboard-response","348","1089588","0.0-188.0-1.0","null","<p></p>","null","","","","","","","","","","","","","","","","","","",""
"","do_trial","349","1094550","0.0-189.0-0.0","385.5","","","","50","1,0,1","3","mountain","129","probe-228","0.6388862098542623","0.10609791197590436","0.33110495193689915","0","","","","","","","",""
"","html-keyboard-response","350","1095566","0.0-189.0-1.0","null","<p></p>","null","","","","","","","","","","","","","","","","","","",""
"","do_trial","351","1100648","0.0-190.0-0.0","463.10000014305115","","","","49","1,0,0","3","mountain","130","probe-212","0.6190308400168071","0.12897780756711952","0.248272143978514","1","","","","","","","",""
"","html-keyboard-response","352","1101654","0.0-190.0-1.0","null","<p></p>","null","","","","","","","","","","","","","","","","","","",""
"","do_trial","353","1108300","0.0-191.0-0.0","2065.7000000476837","","","","49","0,0,0","3","mountain","131","probe-119","0.5712501561157882","0.08399694849036396","0.2115608024723502","0","","","","","","","",""
"","html-keyboard-response","354","1109324","0.0-191.0-1.0","null","<p></p>","null","","","","","","","","","","","","","","","","","","",""
"","do_trial","355","1114480","0.0-192.0-0.0","562.3000001907349","","","","49","0,0,0","3","mountain","132","probe-05","0.5755316500413961","0.05165856746473024","0.28813478340623955","0","","","","","","","",""
"","html-keyboard-response","356","1115484","0.0-192.0-1.0","null","<p></p>","null","","","","","","","","","","","","","","","","","","",""
"","do_trial","357","1121576","0.0-193.0-0.0","null","","","","null","0,0,0","3","mountain","133","probe-07","0.5366510058798141","0.11682097782333449","0.2324746019997011","","","","","","","","",""
"","html-keyboard-response","358","1122592","0.0-193.0-1.0","null","<p></p>","null","","","","","","","","","","","","","","","","","","",""
"","do_trial","359","1127548","0.0-194.0-0.0","349.59999990463257","","","","50","0,0,0","3","mountain","134","probe-194","0.5954661080124158","0.14683120046769726","0.1443640370333383","0","","","","","","","",""
"","html-keyboard-response","360","1128571","0.0-194.0-1.0","null","<p></p>","null","","","","","","","","","","","","","","","","","","",""
"","do_trial","361","1133572","0.0-195.0-0.0","362.80000019073486","","","","51","0,0,0","3","mountain","135","probe-200","0.5854532731158762","0.2524758205705673","0.3376096631989548","0","","","","","","","",""
"","html-keyboard-response","362","1134588","0.0-195.0-1.0","null","<p></p>","null","","","","","","","","","","","","","","","","","","",""
"","do_trial","363","1139720","0.0-196.0-0.0","527.5","","","","49","1,0,0","3","mountain","136","probe-27","0.7695134311924648","0.0757810579416698","0.196456446626212","1","","","","","","","",""
"","html-keyboard-response","364","1140725","0.0-196.0-1.0","null","<p></p>","null","","","","","","","","","","","","","","","","","","",""
"","do_trial","365","1146159","0.0-197.0-0.0","850.7999999523163","","","","50","1,0,0","3","mountain","137","probe-120","0.7180594674416934","0.17942430937289403","0.4297068969202965","0","","","","","","","",""
"","html-keyboard-response","366","1147164","0.0-197.0-1.0","null","<p></p>","null","","","","","","","","","","","","","","","","","","",""
"","do_trial","367","1154630","0.0-198.0-0.0","2882.100000143051","","","","49","1,0,1","3","mountain","138","probe-108","0.7679147517755915","0.13571725822741532","0.48149516977511675","1","","","","","","","",""
"","html-keyboard-response","368","1155641","0.0-198.0-1.0","null","<p></p>","null","","","","","","","","","","","","","","","","","","",""
"","do_trial","369","1160504","0.0-199.0-0.0","239.90000009536743","","","","50","1,0,0","3","mountain","139","probe-224","0.9228993751102563","0.16929188849062282","0.5696902388972905","0","","","","","","","",""
"","html-keyboard-response","370","1161508","0.0-199.0-1.0","null","<p></p>","null","","","","","","","","","","","","","","","","","","",""
"","do_trial","371","1166538","0.0-200.0-0.0","417.89999985694885","","","","49","1,0,1","3","mountain","140","probe-129","0.8591068568871352","0.10198505485431014","0.44561969023108555","1","","","","","","","",""
"","html-keyboard-response","372","1167563","0.0-200.0-1.0","null","<p></p>","null","","","","","","","","","","","","","","","","","","",""
"","do_trial","373","1172708","0.0-201.0-0.0","561.0999999046326","","","","49","0,0,0","3","mountain","141","probe-130","0.6934636021574387","0.11149180802934386","0.43252459755562395","0","","","","","","","",""
"","html-keyboard-response","374","1173724","0.0-201.0-1.0","null","<p></p>","null","","","","","","","","","","","","","","","","","","",""
"","do_trial","375","1179803","0.0-202.0-0.0","null","","","","null","1,0,0","3","mountain","142","probe-180","0.5390393205985433","0.11496641059085544","0.4727601208669458","","","","","","","","",""
"","html-keyboard-response","376","1180818","0.0-202.0-1.0","null","<p></p>","null","","","","","","","","","","","","","","","","","","",""
"","do_trial","377","1185819","0.0-203.0-0.0","371","","","","49","0,0,1","3","mountain","143","probe-160","0.5841945890611235","0.3121159167401967","0.47233658893442526","0","","","","","","","",""
"","html-keyboard-response","378","1186831","0.0-203.0-1.0","null","<p></p>","null","","","","","","","","","","","","","","","","","","",""
"","do_trial","379","1191908","0.0-204.0-0.0","495.7000000476837","","","","50","0,1,0","3","mountain","144","probe-68","0.3364851203182379","0.307227107945706","0.502205025874435","1","","","","","","","",""
"","html-keyboard-response","380","1192925","0.0-204.0-1.0","null","<p></p>","null","","","","","","","","","","","","","","","","","","",""
"","do_trial","381","1198217","0.0-205.0-0.0","663.4000000953674","","","","50","0,0,1","3","mountain","145","probe-137","0.38407029241417967","0.20666370340537576","0.48789264557534373","0","","","","","","","",""
"","html-keyboard-response","382","1199234","0.0-205.0-1.0","null","<p></p>","null","","","","","","","","","","","","","","","","","","",""
"","do_trial","383","1204307","0.0-206.0-0.0","456.5","","","","50","1,0,1","3","mountain","146","probe-195","0.43347673622284005","0.11891367351283069","0.31082207371122117","0","","","","","","","",""
"","html-keyboard-response","384","1205331","0.0-206.0-1.0","null","<p></p>","null","","","","","","","","","","","","","","","","","","",""
"","do_trial","385","1210876","0.0-207.0-0.0","961.2999999523163","","","","49","0,0,0","3","mountain","147","probe-01","0.2727243378007627","0.11862506652543835","0.2847106753229202","0","","","","","","","",""
"","html-keyboard-response","386","1211898","0.0-207.0-1.0","null","<p></p>","null","","","","","","","","","","","","","","","","","","",""
"","do_trial","387","1216815","0.0-208.0-0.0","317","","","","49","0,0,0","3","mountain","148","probe-211","0.3460047071769209","0.13516838945582108","0.3046178621196655","0","","","","","","","",""
"","html-keyboard-response","388","1217819","0.0-208.0-1.0","null","<p></p>","null","","","","","","","","","","","","","","","","","","",""
"","do_trial","389","1223784","0.0-209.0-0.0","1372.4000000953674","","","","50","0,0,1","3","mountain","149","probe-94","0.38702272086640194","0.11293267161141189","0.32690982311894057","0","","","","","","","",""
"","html-keyboard-response","390","1224794","0.0-209.0-1.0","null","<p></p>","null","","","","","","","","","","","","","","","","","","",""
"","do_bye","391","1226326","0.0-210.0-0.0","null","","","","null","","","","","","","","","","","","","","","","",""
"","do_travel","392","1232336","0.0-211.0-0.0","null","","","","null","","","","","","","","","","","","","","","","",""
"","do_welcome","393","1233855","0.0-211.0-1.0","null","","","","null","","","","","","","","","","","","","","","","",""
"","do_trial","394","1239989","0.0-212.0-0.0","null","","","","null","1,0,1","4","countryside","150","probe-153","1","0.06839073926002749","0.3424386071039791","","","","","","","","",""
"","html-keyboard-response","395","1241036","0.0-212.0-1.0","null","<p></p>","null","","","","","","","","","","","","","","","","","","",""
"","do_trial","396","1246254","0.0-213.0-0.0","619","","","","49","1,0,1","4","countryside","151","probe-66","1","0.17807362505295862","0.29469601273153023","1","","","","","","","",""
"","html-keyboard-response","397","1247259","0.0-213.0-1.0","null","<p></p>","null","","","","","","","","","","","","","","","","","","",""
"","do_trial","398","1252658","0.0-214.0-0.0","826.5","","","","49","1,0,0","4","countryside","152","probe-171","0.7601450447714142","0.13362337313532602","0.13587241308032133","1","","","","","","","",""
"","html-keyboard-response","399","1253675","0.0-214.0-1.0","null","<p></p>","null","","","","","","","","","","","","","","","","","","",""
"","do_trial","400","1258534","0.0-215.0-0.0","230.20000004768372","","","","49","0,0,0","4","countryside","153","probe-201","0.7941077572381446","0.07821220242566308","0.11591246610224781","0","","","","","","","",""
"","html-keyboard-response","401","1259539","0.0-215.0-1.0","null","<p></p>","null","","","","","","","","","","","","","","","","","","",""
"","do_trial","402","1264467","0.0-216.0-0.0","332.10000014305115","","","","51","1,0,0","4","countryside","154","probe-190","0.6128725482715984","0.1274062521753211","0.16989285425987816","0","","","","","","","",""
"","html-keyboard-response","403","1265490","0.0-216.0-1.0","null","<p></p>","null","","","","","","","","","","","","","","","","","","",""
"","do_trial","404","1271629","0.0-217.0-0.0","null","","","","null","1,0,0","4","countryside","155","probe-106","0.5757587537407031","0.10054207873068141","0.25319433183061546","","","","","","","","",""
"","html-keyboard-response","405","1272634","0.0-217.0-1.0","null","<p></p>","null","","","","","","","","","","","","","","","","","","",""
"","do_trial","406","1277884","0.0-218.0-0.0","651.4000000953674","","","","50","1,0,0","4","countryside","156","probe-18","0.6301712745727839","0.14673100669315933","0.17613102032052638","0","","","","","","","",""
"","html-keyboard-response","407","1278900","0.0-218.0-1.0","null","<p></p>","null","","","","","","","","","","","","","","","","","","",""
"","do_trial","408","1284595","0.0-219.0-0.0","1119.3000001907349","","","","49","1,0,1","4","countryside","157","probe-76","0.7741435721542809","0.08706841522096627","0.3736913159121113","1","","","","","","","",""
"","html-keyboard-response","409","1285609","0.0-219.0-1.0","null","<p></p>","null","","","","","","","","","","","","","","","","","","",""
"","do_trial","410","1291717","0.0-220.0-0.0","null","","","","null","1,1,1","4","countryside","158","probe-89","0.7087133545413036","0.10482451925012853","0.29778993327728465","","","","","","","","",""
"","html-keyboard-response","411","1292733","0.0-220.0-1.0","null","<p></p>","null","","","","","","","","","","","","","","","","","","",""
"","do_trial","412","1298845","0.0-221.0-0.0","null","","","","null","1,0,1","4","countryside","159","probe-229","0.7304846839210734","0.12594562907355836","0.3736961229598621","","","","","","","","",""
"","html-keyboard-response","413","1299853","0.0-221.0-1.0","null","<p></p>","null","","","","","","","","","","","","","","","","","","",""
"","do_trial","414","1304898","0.0-222.0-0.0","449","","","","49","1,0,0","4","countryside","160","probe-138","0.6192204524418216","0.25288502197938717","0.36536519112149923","1","","","","","","","",""
"","html-keyboard-response","415","1305919","0.0-222.0-1.0","null","<p></p>","null","","","","","","","","","","","","","","","","","","",""
"","do_trial","416","1311008","0.0-223.0-0.0","498.40000009536743","","","","49","1,0,0","4","countryside","161","probe-55","0.6481124820955878","0.15791924308415883","0.3120955821891364","1","","","","","","","",""
"","html-keyboard-response","417","1312036","0.0-223.0-1.0","null","<p></p>","null","","","","","","","","","","","","","","","","","","",""
"","do_trial","418","1317827","0.0-224.0-0.0","1198.2999999523163","","","","49","1,0,0","4","countryside","162","probe-87","0.46833227236648434","0.1516739031394725","0.4917352831867765","1","","","","","","","",""
"","html-keyboard-response","419","1318852","0.0-224.0-1.0","null","<p></p>","null","","","","","","","","","","","","","","","","","","",""
"","do_trial","420","1324425","0.0-225.0-0.0","989.9000000953674","","","","49","1,1,1","4","countryside","163","probe-09","0.32267847401809663","0.18285747758147458","0.5573097927202274","1","","","","","","","",""
"","html-keyboard-response","421","1325432","0.0-225.0-1.0","null","<p></p>","null","","","","","","","","","","","","","","","","","","",""
"","do_trial","422","1330506","0.0-226.0-0.0","485.40000009536743","","","","49","0,0,0","4","countryside","164","probe-64","0.3119144826659501","0.13244617065151804","0.5779736934550818","0","","","","","","","",""
"","html-keyboard-response","423","1331525","0.0-226.0-1.0","null","<p></p>","null","","","","","","","","","","","","","","","","","","",""
"","do_trial","424","1337179","0.0-227.0-0.0","1068","","","","49","0,1,0","4","countryside","165","probe-33","0.094034387720183","0.1844399684874077","0.5170754555279197","0","","","","","","","",""
"","html-keyboard-response","425","1338213","0.0-227.0-1.0","null","<p></p>","null","","","","","","","","","","","","","","","","","","",""
"","do_trial","426","1344080","0.0-228.0-0.0","1294.2000000476837","","","","49","0,0,1","4","countryside","166","probe-70","0.08695114125718259","0.13276172636287562","0.5843046164310317","0","","","","","","","",""
"","html-keyboard-response","427","1345097","0.0-228.0-1.0","null","<p></p>","null","","","","","","","","","","","","","","","","","","",""
"","do_trial","428","1351190","0.0-229.0-0.0","null","","","","null","0,0,1","4","countryside","167","probe-161","0.12790916930355573","0.16002412025332277","0.4843056538159203","","","","","","","","",""
"","html-keyboard-response","429","1352209","0.0-229.0-1.0","null","<p></p>","null","","","","","","","","","","","","","","","","","","",""
"","do_trial","430","1357704","0.0-230.0-0.0","922.5999999046326","","","","49","0,0,1","4","countryside","168","probe-23","0.1744262782628646","0.17541495960531325","0.48600601100197055","0","","","","","","","",""
"","html-keyboard-response","431","1358709","0.0-230.0-1.0","null","<p></p>","null","","","","","","","","","","","","","","","","","","",""
"","do_trial","432","1364379","0.0-231.0-0.0","1104.5","","","","49","0,1,1","4","countryside","169","probe-163","0.16536498695496823","0.29760198815690386","0.6221632048872854","0","","","","","","","",""
"","html-keyboard-response","433","1365405","0.0-231.0-1.0","null","<p></p>","null","","","","","","","","","","","","","","","","","","",""
"","do_trial","434","1370571","0.0-232.0-0.0","569.7999999523163","","","","50","0,1,1","4","countryside","170","probe-206","0.13050880938953674","0.23517067984215195","0.5180180976218732","1","","","","","","","",""
"","html-keyboard-response","435","1371577","0.0-232.0-1.0","null","<p></p>","null","","","","","","","","","","","","","","","","","","",""
"","do_trial","436","1378407","0.0-233.0-0.0","2243.7000000476837","","","","49","1,0,1","4","countryside","171","probe-150","0.10872124771914347","0.2401347440194416","0.6130676286634363","1","","","","","","","",""
"","html-keyboard-response","437","1379412","0.0-233.0-1.0","null","<p></p>","null","","","","","","","","","","","","","","","","","","",""
"","do_trial","438","1384562","0.0-234.0-0.0","562.0999999046326","","","","50","0,0,1","4","countryside","172","probe-38","0.20976623399605626","0.30463722054107417","0.6374048948642572","0","","","","","","","",""
"","html-keyboard-response","439","1385575","0.0-234.0-1.0","null","<p></p>","null","","","","","","","","","","","","","","","","","","",""
"","do_trial","440","1391550","0.0-235.0-0.0","1342.3999998569489","","","","49","1,1,1","4","countryside","173","probe-110","0.19346341377763307","0.41105589602717957","0.6047530374543364","1","","","","","","","",""
"","html-keyboard-response","441","1392556","0.0-235.0-1.0","null","<p></p>","null","","","","","","","","","","","","","","","","","","",""
"","do_trial","442","1398539","0.0-236.0-0.0","1396.1000001430511","","","","49","0,0,1","4","countryside","174","probe-85","0.10520218197897858","0.48827835531764135","0.611178890099512","0","","","","","","","",""
"","html-keyboard-response","443","1399557","0.0-236.0-1.0","null","<p></p>","null","","","","","","","","","","","","","","","","","","",""
"","do_trial","444","1406301","0.0-237.0-0.0","2122.2999999523163","","","","49","0,1,1","4","countryside","175","probe-86","0.15442577780102673","0.3864657402191368","0.6369493976144619","0","","","","","","","",""
"","html-keyboard-response","445","1407325","0.0-237.0-1.0","null","<p></p>","null","","","","","","","","","","","","","","","","","","",""
"","do_trial","446","1414250","0.0-238.0-0.0","2321.2999999523163","","","","49","0,0,1","4","countryside","176","probe-178","0.1713308611735138","0.26299185439936934","0.4821922930432416","0","","","","","","","",""
"","html-keyboard-response","447","1415266","0.0-238.0-1.0","null","<p></p>","null","","","","","","","","","","","","","","","","","","",""
"","do_trial","448","1421702","0.0-239.0-0.0","1856.5999999046326","","","","49","0,1,1","4","countryside","177","probe-207","0.1621558407807177","0.3609936257891581","0.6274188380534643","0","","","","","","","",""
"","html-keyboard-response","449","1422705","0.0-239.0-1.0","null","<p></p>","null","","","","","","","","","","","","","","","","","","",""
"","do_trial","450","1428125","0.0-240.0-0.0","821.5","","","","49","0,0,0","4","countryside","178","probe-100","0.06901108680770261","0.3025545972898135","0.49150968427253305","0","","","","","","","",""
"","html-keyboard-response","451","1429130","0.0-240.0-1.0","null","<p></p>","null","","","","","","","","","","","","","","","","","","",""
"","do_trial","452","1434610","0.0-241.0-0.0","872.9000000953674","","","","49","0,1,1","4","countryside","179","probe-182","0.13796429326388507","0.3271395725303491","0.516315848434952","0","","","","","","","",""
"","html-keyboard-response","453","1435626","0.0-241.0-1.0","null","<p></p>","null","","","","","","","","","","","","","","","","","","",""
"","do_trial","454","1441385","0.0-242.0-0.0","1151.4000000953674","","","","49","0,0,1","4","countryside","180","probe-220","0.2590611704353871","0.33703216881951326","0.5743945095779248","0","","","","","","","",""
"","html-keyboard-response","455","1442408","0.0-242.0-1.0","null","<p></p>","null","","","","","","","","","","","","","","","","","","",""
"","do_trial","456","1448007","0.0-243.0-0.0","1013.3000001907349","","","","49","1,0,1","4","countryside","181","probe-185","0.24895763408704036","0.38781447820057696","0.6773608820980518","1","","","","","","","",""
"","html-keyboard-response","457","1449024","0.0-243.0-1.0","null","<p></p>","null","","","","","","","","","","","","","","","","","","",""
"","do_trial","458","1454141","0.0-244.0-0.0","524.5","","","","49","0,0,1","4","countryside","182","probe-52","0.22829172162995812","0.41236815845199415","0.7276761375051587","0","","","","","","","",""
"","html-keyboard-response","459","1455156","0.0-244.0-1.0","null","<p></p>","null","","","","","","","","","","","","","","","","","","",""
"","do_trial","460","1460113","0.0-245.0-0.0","363.2999999523163","","","","49","0,1,1","4","countryside","183","probe-139","0.17750637651054085","0.29948339491899395","0.5790968819888813","0","","","","","","","",""
"","html-keyboard-response","461","1461137","0.0-245.0-1.0","null","<p></p>","null","","","","","","","","","","","","","","","","","","",""
"","do_trial","462","1466892","0.0-246.0-0.0","1136.2999999523163","","","","50","0,0,0","4","countryside","184","probe-183","0.08237911351470048","0.16565618396799553","0.4093718401106064","0","","","","","","","",""
"","html-keyboard-response","463","1467896","0.0-246.0-1.0","null","<p></p>","null","","","","","","","","","","","","","","","","","","",""
"","do_trial","464","1473224","0.0-247.0-0.0","725.2000000476837","","","","50","1,0,0","4","countryside","185","probe-218","0.22704921915145895","0.1290882324315844","0.5132624049062604","0","","","","","","","",""
"","html-keyboard-response","465","1474228","0.0-247.0-1.0","null","<p></p>","null","","","","","","","","","","","","","","","","","","",""
"","do_trial","466","1478809","0.0-248.0-0.0","0.2999999523162842","","","","50","1,0,0","4","countryside","186","probe-45","0.07353120980277789","0.2997759819552958","0.42929883546396497","0","","","","","","","",""
"","html-keyboard-response","467","1479825","0.0-248.0-1.0","null","<p></p>","null","","","","","","","","","","","","","","","","","","",""
"","do_trial","468","1485877","0.0-249.0-0.0","1459","","","","50","0,1,1","4","countryside","187","probe-169","0.08326062248006373","0.18991212980940528","0.5018620321605652","1","","","","","","","",""
"","html-keyboard-response","469","1486900","0.0-249.0-1.0","null","<p></p>","null","","","","","","","","","","","","","","","","","","",""
"","do_trial","470","1492909","0.0-250.0-0.0","1376","","","","50","0,0,1","4","countryside","188","probe-209","0.0732137490484048","0.3337676251210908","0.5523773092132483","0","","","","","","","",""
"","html-keyboard-response","471","1493928","0.0-250.0-1.0","null","<p></p>","null","","","","","","","","","","","","","","","","","","",""
"","do_trial","472","1499100","0.0-251.0-0.0","547.2000000476837","","","","50","0,0,0","4","countryside","189","probe-179","0.10787418699568253","0.29995987455558326","0.731830741433767","0","","","","","","","",""
"","html-keyboard-response","473","1500126","0.0-251.0-1.0","null","<p></p>","null","","","","","","","","","","","","","","","","","","",""
"","do_bye","474","1501641","0.0-252.0-0.0","null","","","","null","","","","","","","","","","","","","","","","",""
"","do_travel","475","1507658","0.0-253.0-0.0","null","","","","null","","","","","","","","","","","","","","","","",""
"","do_welcome","476","1509174","0.0-253.0-1.0","null","","","","null","","","","","","","","","","","","","","","","",""
"","do_trial","477","1515099","0.0-254.0-0.0","1330.7000000476837","","","","49","0,0,1","5","highway","190","probe-78","0.07619760111617177","0.30167431706963976","1","0","","","","","","","",""
"","html-keyboard-response","478","1516118","0.0-254.0-1.0","null","<p></p>","null","","","","","","","","","","","","","","","","","","",""
"","do_trial","479","1521251","0.0-255.0-0.0","556.3999998569489","","","","50","0,0,1","5","highway","191","probe-50","0.11126078900107218","0.34217914067501753","1","0","","","","","","","",""
"","html-keyboard-response","480","1522255","0.0-255.0-1.0","null","<p></p>","null","","","","","","","","","","","","","","","","","","",""
"","do_trial","481","1527801","0.0-256.0-0.0","938.7999999523163","","","","51","0,1,1","5","highway","192","probe-136","0.13909533622443296","0.2603999804807152","0.9186156902662737","1","","","","","","","",""
"","html-keyboard-response","482","1528815","0.0-256.0-1.0","null","<p></p>","null","","","","","","","","","","","","","","","","","","",""
"","do_trial","483","1534885","0.0-257.0-0.0","1455.7999999523163","","","","51","0,1,1","5","highway","193","probe-113","0.18218407700049338","0.2309838088182974","0.7807292254169758","1","","","","","","","",""
"","html-keyboard-response","484","1535910","0.0-257.0-1.0","null","<p></p>","null","","","","","","","","","","","","","","","","","","",""
"","do_trial","485","1540934","0.0-258.0-0.0","405.5","","","","51","1,0,1","5","highway","194","probe-36","0.13520856576319332","0.3991120170413985","0.6998417590090144","1","","","","","","","",""
"","html-keyboard-response","486","1541960","0.0-258.0-1.0","null","<p></p>","null","","","","","","","","","","","","","","","","","","",""
"","do_trial","487","1547864","0.0-259.0-0.0","1305.9000000953674","","","","51","0,0,1","5","highway","195","probe-168","0.19988949606434264","0.396676428930682","0.7701158679617794","1","","","","","","","",""
"","html-keyboard-response","488","1548877","0.0-259.0-1.0","null","<p></p>","null","","","","","","","","","","","","","","","","","","",""
"","do_trial","489","1554108","0.0-260.0-0.0","647.1000001430511","","","","51","0,0,0","5","highway","196","probe-28","0.208050695949383","0.31946727007145653","0.6897474343446791","0","","","","","","","",""
"","html-keyboard-response","490","1555124","0.0-260.0-1.0","null","<p></p>","null","","","","","","","","","","","","","","","","","","",""
"","do_trial","491","1561239","0.0-261.0-0.0","null","","","","null","0,1,0","5","highway","197","probe-157","0.23692969958498059","0.39567778189824043","0.5604260251862575","","","","","","","","",""
"","html-keyboard-response","492","1562258","0.0-261.0-1.0","null","<p></p>","null","","","","","","","","","","","","","","","","","","",""
"","do_trial","493","1567883","0.0-262.0-0.0","1022.7000000476837","","","","51","0,0,1","5","highway","198","probe-53","0.17511666223623149","0.3130364305548054","0.5756230225686609","1","","","","","","","",""
"","html-keyboard-response","494","1568905","0.0-262.0-1.0","null","<p></p>","null","","","","","","","","","","","","","","","","","","",""
"","do_trial","495","1573972","0.0-263.0-0.0","483.60000014305115","","","","51","1,1,0","5","highway","199","probe-192","0.164958488523611","0.37403547976805746","0.6161565552246823","0","","","","","","","",""
"","html-keyboard-response","496","1574976","0.0-263.0-1.0","null","<p></p>","null","","","","","","","","","","","","","","","","","","",""
"","do_trial","497","1581054","0.0-264.0-0.0","1497.2999999523163","","","","51","0,0,0","5","highway","200","probe-99","0.19796832571936787","0.36403290410213357","0.6247757701770218","0","","","","","","","",""
"","html-keyboard-response","498","1582058","0.0-264.0-1.0","null","<p></p>","null","","","","","","","","","","","","","","","","","","",""
"","do_trial","499","1587150","0.0-265.0-0.0","501.2999999523163","","","","51","0,1,1","5","highway","201","probe-42","0.21693018708443867","0.3650782502773228","0.6484524514621545","1","","","","","","","",""
"","html-keyboard-response","500","1588165","0.0-265.0-1.0","null","<p></p>","null","","","","","","","","","","","","","","","","","","",""
"","do_trial","501","1595695","0.0-266.0-0.0","2952.4000000953674","","","","51","0,1,0","5","highway","202","probe-102","0.28868978194167916","0.5083250586995329","0.4636499380759878","0","","","","","","","",""
"","html-keyboard-response","502","1596711","0.0-266.0-1.0","null","<p></p>","null","","","","","","","","","","","","","","","","","","",""
"","do_trial","503","1602007","0.0-267.0-0.0","692.5","","","","50","0,1,0","5","highway","203","probe-104","0.3576154056751544","0.5419494742515265","0.23057804139578636","1","","","","","","","",""
"","html-keyboard-response","504","1603027","0.0-267.0-1.0","null","<p></p>","null","","","","","","","","","","","","","","","","","","",""
"","do_trial","505","1608158","0.0-268.0-0.0","543.9000000953674","","","","51","0,0,0","5","highway","204","probe-166","0.38891547504336693","0.6055509987447311","0.0954421482111741","0","","","","","","","",""
"","html-keyboard-response","506","1609175","0.0-268.0-1.0","null","<p></p>","null","","","","","","","","","","","","","","","","","","",""
"","do_trial","507","1615122","0.0-269.0-0.0","1354.0999999046326","","","","50","0,0,0","5","highway","205","probe-37","0.2596963614874915","0.6630232457697776","0.17891319571424844","0","","","","","","","",""
"","html-keyboard-response","508","1616135","0.0-269.0-1.0","null","<p></p>","null","","","","","","","","","","","","","","","","","","",""
"","do_trial","509","1622246","0.0-270.0-0.0","null","","","","null","0,1,0","5","highway","206","probe-81","0.23468149245155034","0.6992606601104195","0.1475145451258068","","","","","","","","",""
"","html-keyboard-response","510","1623262","0.0-270.0-1.0","null","<p></p>","null","","","","","","","","","","","","","","","","","","",""
"","do_trial","511","1628719","0.0-271.0-0.0","860.7999999523163","","","","51","1,0,1","5","highway","207","probe-141","0.28056780589846464","0.716893348036571","0.06944834061287666","1","","","","","","","",""
"","html-keyboard-response","512","1629740","0.0-271.0-1.0","null","<p></p>","null","","","","","","","","","","","","","","","","","","",""
"","do_trial","513","1635464","0.0-272.0-0.0","1150.9000000953674","","","","51","0,0,0","5","highway","208","probe-90","0.4722491641273267","0.6291183815098036","0.09696908091806641","0","","","","","","","",""
"","html-keyboard-response","514","1636479","0.0-272.0-1.0","null","<p></p>","null","","","","","","","","","","","","","","","","","","",""
"","do_trial","515","1642553","0.0-273.0-0.0","null","","","","null","1,0,0","5","highway","209","probe-40","0.49469063147012665","0.5747932090738999","0.18126623155359106","","","","","","","","",""
"","html-keyboard-response","516","1643569","0.0-273.0-1.0","null","<p></p>","null","","","","","","","","","","","","","","","","","","",""
"","do_trial","517","1648587","0.0-274.0-0.0","437","","","","51","0,1,0","5","highway","210","probe-196","0.48001646526588676","0.4641130469096024","0.11797539191807804","0","","","","","","","",""
"","html-keyboard-response","518","1649594","0.0-274.0-1.0","null","<p></p>","null","","","","","","","","","","","","","","","","","","",""
"","do_trial","519","1654865","0.0-275.0-0.0","655.6000001430511","","","","51","1,0,0","5","highway","211","probe-32","0.4776062690307963","0.5128506122908143","0.10193838506396857","0","","","","","","","",""
"","html-keyboard-response","520","1655901","0.0-275.0-1.0","null","<p></p>","null","","","","","","","","","","","","","","","","","","",""
"","do_trial","521","1661358","0.0-276.0-0.0","877.2000000476837","","","","51","0,1,0","5","highway","212","probe-181","0.27380158141595023","0.5842565951484374","0.08596389545688543","0","","","","","","","",""
"","html-keyboard-response","522","1662380","0.0-276.0-1.0","null","<p></p>","null","","","","","","","","","","","","","","","","","","",""
"","do_trial","523","1667505","0.0-277.0-0.0","512.7000000476837","","","","50","0,1,0","5","highway","213","probe-67","0.33598868469575693","0.48383054353759297","0.1268294830806113","1","","","","","","","",""
"","html-keyboard-response","524","1668521","0.0-277.0-1.0","null","<p></p>","null","","","","","","","","","","","","","","","","","","",""
"","do_trial","525","1674693","0.0-278.0-0.0","1536.2000000476837","","","","51","0,1,0","5","highway","214","probe-69","0.39508896614990086","0.642587490765931","0.06377185885343656","0","","","","","","","",""
