"success","trial_type","trial_index","time_elapsed","internal_node_id","interactions","blur_events","focus_events","fullscreenenter_events","fullscreenexit_events","rt","stimulus","key_press","subject_id","participant_id","age","gender","prompt","response","choice_outcomes","context_n","context_img_id","trial_n","probe_img_id","pR_red","pR_white","pR_black","outcome","contextArray_ind","validImageProbes","invalidImageProbes","pRew_Red","pRew_White","pRew_Black","availableForMemProbe","choice_blocks"
"true","fullscreen","0","3627","0.0-0.0","""event"",""trial"",""time""
""fullscreenenter"",""0"",""2675""
","
","
","""event"",""trial"",""time""
""fullscreenenter"",""0"",""2675""
","
","","","","","","","","","","","","","","","","","","","","","","","","","",""
"","pavlovia","1","3632","0.0-1.0","""event"",""trial"",""time""
""fullscreenenter"",""0"",""2675""
","
","
","""event"",""trial"",""time""
""fullscreenenter"",""0"",""2675""
","
","","","","","","","","","","","","","","","","","","","","","","","","","",""
"","instruc1","2","48849","0.0-2.0","""event"",""trial"",""time""
""fullscreenenter"",""0"",""2675""
","
","
","""event"",""trial"",""time""
""fullscreenenter"",""0"",""2675""
","
","null","run_exp/static/audio/clip_1_welcome.m4a","null","302","249","16","Female","<div class='center'><p>Welcome! This is the first part of the study. It will last ~30 minutes. In part 1 and part 2 of the study, you are the head captain of a pirate ship traveling around the world to different islands. You will play a few different games throughout these two parts. Here is an overview of them:</p><br><p>Part 1 (today)</p><p>1. Instructions, practice game, and quiz</p><p>2. Pick a pirate game on 6 different islands</p><br><p>Part 2 (tomorrow)</p><p>3. Pick a pirate game and memory game</p><p>4. Where did you see this ship? </p></div>","","","","","","","","","","","","","","","","","",""
"","html-keyboard-response","3","50144","0.0-3.0","""event"",""trial"",""time""
""fullscreenenter"",""0"",""2675""
","
","
","""event"",""trial"",""time""
""fullscreenenter"",""0"",""2675""
","
","1292.4000000059605","<div class='center'><p>Welcome! This is the first part of the study. It will last ~30 minutes. In part 1 and part 2 of the study, you are the head captain of a pirate ship traveling around the world to different islands. You will play a few different games throughout these two parts. Here is an overview of them:</p><br><p>Part 1 (today)</p><p>1. Instructions, practice game, and quiz</p><p>2. Pick a pirate game on 6 different islands</p><br><p>Part 2 (tomorrow)</p><p>3. Pick a pirate game and memory game</p><p>4. Where did you see this ship? </p><p><b>[Press the space bar to continue]</b></p></div>","32","","","","","","","","","","","","","","","","","","","","","","",""
"","instruc2","4","55721","0.0-4.0","""event"",""trial"",""time""
""fullscreenenter"",""0"",""2675""
","
","
","""event"",""trial"",""time""
""fullscreenenter"",""0"",""2675""
","
","null","run_exp/static/audio/clip_2_different_places.m4a","null","","","","","<div class='center'><p>Today, you’ll visit these 6 islands on your journey. You'll be able to see these islands from your ship.</p><p><img src='run_exp/static/images/contexts/all_contexts.png' height='500'></p></div>","","","","","","","","","","","","","","","","","",""
"","html-keyboard-response","5","56792","0.0-5.0","""event"",""trial"",""time""
""fullscreenenter"",""0"",""2675""
","
","
","""event"",""trial"",""time""
""fullscreenenter"",""0"",""2675""
","
","1068.6000000014901","<div class='center'><p>Today, you’ll visit these 6 islands on your journey. You'll be able to see these islands from your ship.</p><p><img src='run_exp/static/images/contexts/all_contexts.png' height='500'></p><p><b>[Press the space bar to continue]</b></p></div>","32","","","","","","","","","","","","","","","","","","","","","","",""
"","instruc3","6","66681","0.0-6.0","""event"",""trial"",""time""
""fullscreenenter"",""0"",""2675""
","
","
","""event"",""trial"",""time""
""fullscreenenter"",""0"",""2675""
","
","null","run_exp/static/audio/clip_3_goal_of_game_1.m4a","null","","","","","<div class='center'><p> The pirates on your ship will rob other ships as they leave the island.</p> These ships have just sold their goods to the islanders, so they will be filled with lots and lots of gold.</p><p><img src='run_exp/static/images/tutorial/ship_center.png' height='400'></p></div>","","","","","","","","","","","","","","","","","",""
"","html-keyboard-response","7","67127","0.0-7.0","""event"",""trial"",""time""
""fullscreenenter"",""0"",""2675""
","
","
","""event"",""trial"",""time""
""fullscreenenter"",""0"",""2675""
","
","443.8999999985099","<div class='center'><p> The pirates on your ship will rob other ships as they leave the island.</p> These ships have just sold their goods to the islanders, so they will be filled with lots and lots of gold.</p><p><img src='run_exp/static/images/tutorial/ship_center.png' height='400'></p><p><b>[Press the space bar to continue]</b></p></div>","32","","","","","","","","","","","","","","","","","","","","","","",""
"","instruc4","8","95289","0.0-8.0","""event"",""trial"",""time""
""fullscreenenter"",""0"",""2675""
","
","
","""event"",""trial"",""time""
""fullscreenenter"",""0"",""2675""
","
","null","run_exp/static/audio/clip_4_goal_of_game_2.m4a","null","","","","","<div class='center'><p>As the head captain, you do not have to rob any ships yourself. Another pirate will be doing the robbing for you. First, you will choose a pirate to rob the next ship.</p><p><img src='run_exp/static/images/tutorial/pirates_all_crop.png' height='200'></p><p>Then, you'll see if the pirate successfully robbed the ship of their gold. If they were successful, then you'll get a stack of gold coins like this:</p><p><img src='run_exp/static/images/tutorial/reward.png' height='150'></p><p> If they were <b>not</b> successful, then you'll get no gold coins, and you'll see a big red x like this: </p><p><img src='run_exp/static/images/tutorial/reward_no.png' height='150'></p><p> How much bonus money you make is based on how many gold coins you collect.</p><div>","","","","","","","","","","","","","","","","","",""
"","html-keyboard-response","9","95772","0.0-9.0","""event"",""trial"",""time""
""fullscreenenter"",""0"",""2675""
","
","
","""event"",""trial"",""time""
""fullscreenenter"",""0"",""2675""
","
","478.5","<div class='center'><p>As the head captain, you do not have to rob any ships yourself. Another pirate will be doing the robbing for you. First, you will choose a pirate to rob the next ship.</p><p><img src='run_exp/static/images/tutorial/pirates_all_crop.png' height='200'></p><p>Then, you'll see if the pirate successfully robbed the ship of their gold. If they were successful, then you'll get a stack of gold coins like this:</p><p><img src='run_exp/static/images/tutorial/reward.png' height='150'></p><p> If they were <b>not</b> successful, then you'll get no gold coins, and you'll see a big red x like this: </p><p><img src='run_exp/static/images/tutorial/reward_no.png' height='150'></p><p> How much bonus money you make is based on how many gold coins you collect.</p<p><b>[Press the space bar to continue]</b></p></div>","32","","","","","","","","","","","","","","","","","","","","","","",""
"","instruc5","10","111609","0.0-10.0","""event"",""trial"",""time""
""fullscreenenter"",""0"",""2675""
","
","
","""event"",""trial"",""time""
""fullscreenenter"",""0"",""2675""
","
","15827","run_exp/static/audio/clip_5_probabilistic.m4a","49","","","","","<div class='center'><p>Even the most skilled pirate can not rob EVERY ship.</p><p> Some ships will have very strong protections against pirate attacks.</p><p> Blue beard, here, is very, very good at robbing ships, but he won't be successful every time he tries to rob one.</p><p> You can press the <b>‘1’</b> key on the keyboard to choose him.</p><p> Try choosing him 10 times to see how often he succeeds at robbing a ship. </p><p><img src='run_exp/static/images/tutorial/blue.png' height='500'></p></div>","","","","","","","","","","","","","","","","","",""
"","html-keyboard-response","11","113112","0.0-11.0","""event"",""trial"",""time""
""fullscreenenter"",""0"",""2675""
","
","
","""event"",""trial"",""time""
""fullscreenenter"",""0"",""2675""
","
","null","<div class='center'><p><img src='run_exp/static/images/tutorial/blue_win.png' height='500'></p></div>","null","","","","","","","","","","","","","","","","","","","","","","",""
"","html-keyboard-response","12","114181","0.0-12.0","""event"",""trial"",""time""
""fullscreenenter"",""0"",""2675""
","
","
","""event"",""trial"",""time""
""fullscreenenter"",""0"",""2675""
","
","1067","<div class='center'><img src='run_exp/static/images/tutorial/blue.png' height='500'></p></div>","49","","","","","","","","","","","","","","","","","","","","","","",""
"","html-keyboard-response","13","115683","0.0-13.0","""event"",""trial"",""time""
""fullscreenenter"",""0"",""2675""
","
","
","""event"",""trial"",""time""
""fullscreenenter"",""0"",""2675""
","
","null","<div class='center'><p><img src='run_exp/static/images/tutorial/blue_win.png' height='500'></p></div>","null","","","","","","","","","","","","","","","","","","","","","","",""
"","html-keyboard-response","14","115982","0.0-14.0","""event"",""trial"",""time""
""fullscreenenter"",""0"",""2675""
","
","
","""event"",""trial"",""time""
""fullscreenenter"",""0"",""2675""
","
","297.70000000298023","<div class='center'><img src='run_exp/static/images/tutorial/blue.png' height='500'></p></div>","49","","","","","","","","","","","","","","","","","","","","","","",""
"","html-keyboard-response","15","117484","0.0-15.0","""event"",""trial"",""time""
""fullscreenenter"",""0"",""2675""
","
","
","""event"",""trial"",""time""
""fullscreenenter"",""0"",""2675""
","
","null","<div class='center'><p><img src='run_exp/static/images/tutorial/blue_win.png' height='500'></p></div>","null","","","","","","","","","","","","","","","","","","","","","","",""
"","html-keyboard-response","16","117703","0.0-16.0","""event"",""trial"",""time""
""fullscreenenter"",""0"",""2675""
","
","
","""event"",""trial"",""time""
""fullscreenenter"",""0"",""2675""
","
","217.80000000447035","<div class='center'><img src='run_exp/static/images/tutorial/blue.png' height='500'></p></div>","49","","","","","","","","","","","","","","","","","","","","","","",""
"","html-keyboard-response","17","119205","0.0-17.0","""event"",""trial"",""time""
""fullscreenenter"",""0"",""2675""
","
","
","""event"",""trial"",""time""
""fullscreenenter"",""0"",""2675""
","
","null","<div class='center'><p><img src='run_exp/static/images/tutorial/blue_no_win.png' height='500'></p></div>","null","","","","","","","","","","","","","","","","","","","","","","",""
"","html-keyboard-response","18","119489","0.0-18.0","""event"",""trial"",""time""
""fullscreenenter"",""0"",""2675""
","
","
","""event"",""trial"",""time""
""fullscreenenter"",""0"",""2675""
","
","282.20000000298023","<div class='center'><img src='run_exp/static/images/tutorial/blue.png' height='500'></p></div>","49","","","","","","","","","","","","","","","","","","","","","","",""
"","html-keyboard-response","19","120991","0.0-19.0","""event"",""trial"",""time""
""fullscreenenter"",""0"",""2675""
","
","
","""event"",""trial"",""time""
""fullscreenenter"",""0"",""2675""
","
","null","<div class='center'><p><img src='run_exp/static/images/tutorial/blue_win.png' height='500'></p></div>","null","","","","","","","","","","","","","","","","","","","","","","",""
"","html-keyboard-response","20","121225","0.0-20.0","""event"",""trial"",""time""
""fullscreenenter"",""0"",""2675""
","
","
","""event"",""trial"",""time""
""fullscreenenter"",""0"",""2675""
","
","233.09999999403954","<div class='center'><img src='run_exp/static/images/tutorial/blue.png' height='500'></p></div>","49","","","","","","","","","","","","","","","","","","","","","","",""
"","html-keyboard-response","21","122727","0.0-21.0","""event"",""trial"",""time""
""fullscreenenter"",""0"",""2675""
","
","
","""event"",""trial"",""time""
""fullscreenenter"",""0"",""2675""
","
","null","<div class='center'><p><img src='run_exp/static/images/tutorial/blue_win.png' height='500'></p></div>","null","","","","","","","","","","","","","","","","","","","","","","",""
"","html-keyboard-response","22","123157","0.0-22.0","""event"",""trial"",""time""
""fullscreenenter"",""0"",""2675""
","
","
","""event"",""trial"",""time""
""fullscreenenter"",""0"",""2675""
","
","427.70000000298023","<div class='center'><img src='run_exp/static/images/tutorial/blue.png' height='500'></p></div>","49","","","","","","","","","","","","","","","","","","","","","","",""
"","html-keyboard-response","23","124658","0.0-23.0","""event"",""trial"",""time""
""fullscreenenter"",""0"",""2675""
","
","
","""event"",""trial"",""time""
""fullscreenenter"",""0"",""2675""
","
","null","<div class='center'><p><img src='run_exp/static/images/tutorial/blue_win.png' height='500'></p></div>","null","","","","","","","","","","","","","","","","","","","","","","",""
"","html-keyboard-response","24","124915","0.0-24.0","""event"",""trial"",""time""
""fullscreenenter"",""0"",""2675""
","
","
","""event"",""trial"",""time""
""fullscreenenter"",""0"",""2675""
","
","255.39999999850988","<div class='center'><img src='run_exp/static/images/tutorial/blue.png' height='500'></p></div>","49","","","","","","","","","","","","","","","","","","","","","","",""
"","html-keyboard-response","25","126417","0.0-25.0","""event"",""trial"",""time""
""fullscreenenter"",""0"",""2675""
","
","
","""event"",""trial"",""time""
""fullscreenenter"",""0"",""2675""
","
","null","<div class='center'><p><img src='run_exp/static/images/tutorial/blue_no_win.png' height='500'></p></div>","null","","","","","","","","","","","","","","","","","","","","","","",""
"","html-keyboard-response","26","126669","0.0-26.0","""event"",""trial"",""time""
""fullscreenenter"",""0"",""2675""
","
","
","""event"",""trial"",""time""
""fullscreenenter"",""0"",""2675""
","
","250","<div class='center'><img src='run_exp/static/images/tutorial/blue.png' height='500'></p></div>","49","","","","","","","","","","","","","","","","","","","","","","",""
"","html-keyboard-response","27","128171","0.0-27.0","""event"",""trial"",""time""
""fullscreenenter"",""0"",""2675""
","
","
","""event"",""trial"",""time""
""fullscreenenter"",""0"",""2675""
","
","null","<div class='center'><p><img src='run_exp/static/images/tutorial/blue_win.png' height='500'></p></div>","null","","","","","","","","","","","","","","","","","","","","","","",""
"","html-keyboard-response","28","128666","0.0-28.0","""event"",""trial"",""time""
""fullscreenenter"",""0"",""2675""
","
","
","""event"",""trial"",""time""
""fullscreenenter"",""0"",""2675""
","
","493.40000000596046","<div class='center'><img src='run_exp/static/images/tutorial/blue.png' height='500'></p></div>","49","","","","","","","","","","","","","","","","","","","","","","",""
"","html-keyboard-response","29","130168","0.0-29.0","""event"",""trial"",""time""
""fullscreenenter"",""0"",""2675""
","
","
","""event"",""trial"",""time""
""fullscreenenter"",""0"",""2675""
","
","null","<div class='center'><p><img src='run_exp/static/images/tutorial/blue_win.png' height='500'></p></div>","null","","","","","","","","","","","","","","","","","","","","","","",""
"","instruc6","30","135831","0.0-30.0","""event"",""trial"",""time""
""fullscreenenter"",""0"",""2675""
","
","
","""event"",""trial"",""time""
""fullscreenenter"",""0"",""2675""
","
","null","run_exp/static/audio/clip_6_blue_beard_outcome.m4a","null","","","","","<div class='center'><p> See, he succeeded in robbing the ships most of the time but not every time. </p></div>","","","","","","","","","","","","","","","","","",""
"","html-keyboard-response","31","138403","0.0-31.0","""event"",""trial"",""time""
""fullscreenenter"",""0"",""2675""
","
","
","""event"",""trial"",""time""
""fullscreenenter"",""0"",""2675""
","
","2568.89999999851","<div class='center'><p> See, he succeeded in robbing the ships most of the time but not every time. </p><p><b>[Press the space bar to continue]</b></p></div>","32","","","","","","","","","","","","","","","","","","","","","","",""
"","audio-keyboard-response","32","147671","0.0-32.0","""event"",""trial"",""time""
""fullscreenenter"",""0"",""2675""
","
","
","""event"",""trial"",""time""
""fullscreenenter"",""0"",""2675""
","
","9265.60000000149","run_exp/static/audio/clip_7_pick_pirate.m4a","50","","","","","","","","","","","","","","","","","","","","","","",""
"","audio-keyboard-response","33","149778","0.0-33.0-0.0","""event"",""trial"",""time""
""fullscreenenter"",""0"",""2675""
","
","
","""event"",""trial"",""time""
""fullscreenenter"",""0"",""2675""
","
","2102.5","run_exp/static/audio/clip_8_chosen_pirate_win.m4a","32","","","","","","","","","","","","","","","","","","","","","","",""
"","audio-keyboard-response","34","151309","0.0-33.0-1.0","""event"",""trial"",""time""
""fullscreenenter"",""0"",""2675""
","
","
","""event"",""trial"",""time""
""fullscreenenter"",""0"",""2675""
","
","1528.5","run_exp/static/audio/clip_9_pick_a_pirate_again.m4a","51","","","","","","","","","","","","","","","","","","","","","","",""
"","audio-keyboard-response","35","152376","0.0-34.0-0.0","""event"",""trial"",""time""
""fullscreenenter"",""0"",""2675""
","
","
","""event"",""trial"",""time""
""fullscreenenter"",""0"",""2675""
","
","1061.6000000014901","run_exp/static/audio/clip_10_chosen_pirate_loss.m4a","32","","","","","","","","","","","","","","","","","","","","","","",""
"","instruc9","36","158122","0.0-35.0-0.0","""event"",""trial"",""time""
""fullscreenenter"",""0"",""2675""
","
","
","""event"",""trial"",""time""
""fullscreenenter"",""0"",""2675""
","
","null","run_exp/static/audio/clip_11_time_out.m4a","null","","","","","<div class='center'><p>If you don’t make your choice fast enough, you’ll have to wait a few seconds before you can make another one. </p><p><img src='run_exp/static/images/miscellaneous/hurry_up.png' height='500'></p></div>","","","","","","","","","","","","","","","","","",""
"","html-keyboard-response","37","158751","0.0-35.0-1.0","""event"",""trial"",""time""
""fullscreenenter"",""0"",""2675""
","
","
","""event"",""trial"",""time""
""fullscreenenter"",""0"",""2675""
","
","627.3999999985099","<div class='center'><p>If you don’t make your choice fast enough, you’ll have to wait a few seconds before you can make another one. </p><p><img src='run_exp/static/images/miscellaneous/hurry_up.png' height='500'></p><p><b>[Press the space bar to continue]</b></p></div>","32","","","","","","","","","","","","","","","","","","","","","","",""
"","instruc10","38","197967","0.0-35.0-2.0","""event"",""trial"",""time""
""fullscreenenter"",""0"",""2675""
","
","
","""event"",""trial"",""time""
""fullscreenenter"",""0"",""2675""
","
","null","run_exp/static/audio/clip_12_probe.m4a","null","","","","","<div class='center'><p>Once you've chosen a pirate, you’ll be shown the ship they are robbing. You will never rob the same ship twice. Ships can be told apart from one another by the image on them. These are the goods that they sell. See, this ship has a travel mug on it. </p><p> You’ll have to remember which island you saw each ship on. You will win more gold coins and hence more bonus money if you remember correctly! To help you remember, you can imagine a story. For example, here, you could imagine a mug full of water in the desert. Or, as another example, if on the forest island, your pirate robbed a ship with an apple on it, you could imagine an apple falling from a tree in the forest. </p><p><img src='run_exp/static/images/tutorial/example_probe.png' height='500'></p></div>","","","","","","","","","","","","","","","","","",""
"","html-keyboard-response","39","202074","0.0-35.0-3.0","""event"",""trial"",""time""
""fullscreenenter"",""0"",""2675""
","
","
","""event"",""trial"",""time""
""fullscreenenter"",""0"",""2675""
","
","4104.79999999702","<div class='center'><p>Once you've chosen a pirate, you’ll be shown the ship they are robbing. You will never rob the same ship twice. Ships can be told apart from one another by the image on them. These are the goods that they sell. See, this ship has a travel mug on it. </p><p> You’ll have to remember which island you saw each ship on. You will win more gold coins and hence more bonus money if you remember correctly! To help you remember, you can imagine a story. For example, here, you could imagine a mug full of water in the desert. Or, as another example, if on the forest island, your pirate robbed a ship with an apple on it, you could imagine an apple falling from a tree in the forest. </p><p><img src='run_exp/static/images/tutorial/example_probe.png' height='500'></p><p><b>[Press the space bar to continue]</b></p></div>","32","","","","","","","","","","","","","","","","","","","","","","",""
"","instruc11","40","218679","0.0-35.0-4.0","""event"",""trial"",""time""
""fullscreenenter"",""0"",""2675""
","
","
","""event"",""trial"",""time""
""fullscreenenter"",""0"",""2675""
","
","null","run_exp/static/audio/clip_13_changepoint.m4a","null","","","","","<div class='center'><p>How successful a pirate is at robbing ships will depend on the island you’re on.</p><p> A pirate may have visited this island many times before and gained a lot of practice robbing ships there.</p><p>So, they’re more likely to be successful than a pirate who has never visited the island before.</p></div>","","","","","","","","","","","","","","","","","",""
"","html-keyboard-response","41","220459","0.0-35.0-5.0","""event"",""trial"",""time""
""fullscreenenter"",""0"",""2675""
","
","
","""event"",""trial"",""time""
""fullscreenenter"",""0"",""2675""
","
","1777.9000000059605","<div class='center'><p>How successful a pirate is at robbing ships will depend on the island you’re on.</p><p> A pirate may have visited this island many times before and gained a lot of practice robbing ships there.</p><p>So, they’re more likely to be successful than a pirate who has never visited the island before.</p><p><b>[Press the space bar to continue]</b></p></div>","32","","","","","","","","","","","","","","","","","","","","","","",""
"","instruc12","42","261775","0.0-35.0-6.0","""event"",""trial"",""time""
""fullscreenenter"",""0"",""2675""
","
","
","""event"",""trial"",""time""
""fullscreenenter"",""0"",""2675""
","
","null","run_exp/static/audio/clip_14_drift.m4a","null","","","","","<div class='center'><p>How successful a pirate is at robbing ships can also change over the time spent on the island. </p><p> Ships may hear from islanders about the pirates coming and will improve their protections against the attack. This may make it harder to rob them.</p><p> Ships may also become lazy and weaken the strength of their protections. This may make it easier to rob them.</p><br><p>Things are always changing on the high seas! So, try your best to pay attention!</p><p><img src='run_exp/static/images/tutorial/contingency.png' height='500'></p></div>","","","","","","","","","","","","","","","","","",""
"","html-keyboard-response","43","262580","0.0-35.0-7.0","""event"",""trial"",""time""
""fullscreenenter"",""0"",""2675""
","
","
","""event"",""trial"",""time""
""fullscreenenter"",""0"",""2675""
","
","800.3000000044703","<div class='center'><p>How successful a pirate is at robbing ships can also change over the time spent on the island. </p><p> Ships may hear from islanders about the pirates coming and will improve their protections against the attack. This may make it harder to rob them.</p><p> Ships may also become lazy and weaken the strength of their protections. This may make it easier to rob them.</p><br><p>Things are always changing on the high seas! So, try your best to pay attention!</p><p><img src='run_exp/static/images/tutorial/contingency.png' height='500'></p><p><b>[Press the space bar to continue]</b></p></div>","32","","","","","","","","","","","","","","","","","","","","","","",""
"","instruc13","44","297907","0.0-35.0-8.0","""event"",""trial"",""time""
""fullscreenenter"",""0"",""2675""
","
","
","""event"",""trial"",""time""
""fullscreenenter"",""0"",""2675""
","
","null","run_exp/static/audio/clip_15_summary.m4a","null","","","","","<div class='center'><p>Let's go over the instructions quickly again. You have two important things to do: </p><b><p> 1. Pick the pirate who is the best at robbing ships on the current island. </p></b><b><p> 2. Remember on which island a ship was robbed.</p> </b><p>The amount of bonus money you can win depends on both.</p><p><br><p>Let’s try a practice game. The game will start by showing you the pirates. First, pick a pirate using the <b> 1, 2, 3 </b> keys on your keyboard. When you are shown a ship, try to remember which island you’re on by making up a story.</p><p>This is just a practice game, so you’re not playing for money. </p><p> Good luck! This game will be very difficult but try your best!</p></div>","","","","","","","","","","","","","","","","","",""
"","html-keyboard-response","45","298710","0.0-35.0-9.0","""event"",""trial"",""time""
""fullscreenenter"",""0"",""2675""
","
","
","""event"",""trial"",""time""
""fullscreenenter"",""0"",""2675""
","
","800.6000000014901","<div class='center'><p>Let's go over the instructions quickly again. You have two important things to do: </p><b><p> 1. Pick the pirate who is the best at robbing ships on the current island. </p></b><b><p> 2. Remember on which island a ship was robbed.</p> </b><p>The amount of bonus money you can win depends on both.</p><p><br><p>Let’s try a practice game. The game will start by showing you the pirates. First, pick a pirate using the <b> 1, 2, 3 </b> keys on your keyboard. When you are shown a ship, try to remember which island you’re on by making up a story.</p><p>This is just a practice game, so you’re not playing for money. </p><p> Good luck! This game will be very difficult but try your best!</p><p><b>[Press the space bar to continue]</b></p></div>","32","","","","","","","","","","","","","","","","","","","","","","",""
"","do_welcome","46","302733","0.0-35.0-10.0","""event"",""trial"",""time""
""fullscreenenter"",""0"",""2675""
","
","
","""event"",""trial"",""time""
""fullscreenenter"",""0"",""2675""
","
","null","","","","","","","","null","","","","","","","","","","","","","","","","",""
"","do_trial","47","308669","0.0-35.0-11.0","""event"",""trial"",""time""
""fullscreenenter"",""0"",""2675""
","
","
","""event"",""trial"",""time""
""fullscreenenter"",""0"",""2675""
","
","1424","","","","","","","","50","1,0,0","","","","","","","","","","","","","","","",""
"","html-keyboard-response","48","309671","0.0-36.0-0.0","""event"",""trial"",""time""
""fullscreenenter"",""0"",""2675""
","
","
","""event"",""trial"",""time""
""fullscreenenter"",""0"",""2675""
","
","null","<p></p>","null","","","","","","","","","","","","","","","","","","","","","","",""
"","do_trial","49","315589","0.0-36.0-1.0","""event"",""trial"",""time""
""fullscreenenter"",""0"",""2675""
","
","
","""event"",""trial"",""time""
""fullscreenenter"",""0"",""2675""
","
","1411","","","","","","","","49","1,1,0","","","","","","","","","","","","","","","",""
"","html-keyboard-response","50","316591","0.0-37.0-0.0","""event"",""trial"",""time""
""fullscreenenter"",""0"",""2675""
","
","
","""event"",""trial"",""time""
""fullscreenenter"",""0"",""2675""
","
","null","<p></p>","null","","","","","","","","","","","","","","","","","","","","","","",""
"","do_trial","51","323716","0.0-37.0-1.0","""event"",""trial"",""time""
""fullscreenenter"",""0"",""2675""
","
","
","""event"",""trial"",""time""
""fullscreenenter"",""0"",""2675""
","
","2617.9000000059605","","","","","","","","49","1,0,1","","","","","","","","","","","","","","","",""
"","html-keyboard-response","52","324718","0.0-38.0-0.0","""event"",""trial"",""time""
""fullscreenenter"",""0"",""2675""
","
","
","""event"",""trial"",""time""
""fullscreenenter"",""0"",""2675""
","
","null","<p></p>","null","","","","","","","","","","","","","","","","","","","","","","",""
"","do_trial","53","330196","0.0-38.0-1.0","""event"",""trial"",""time""
""fullscreenenter"",""0"",""2675""
","
","
","""event"",""trial"",""time""
""fullscreenenter"",""0"",""2675""
","
","970.8000000044703","","","","","","","","49","0,1,0","","","","","","","","","","","","","","","",""
"","html-keyboard-response","54","331198","0.0-39.0-0.0","""event"",""trial"",""time""
""fullscreenenter"",""0"",""2675""
","
","
","""event"",""trial"",""time""
""fullscreenenter"",""0"",""2675""
","
","null","<p></p>","null","","","","","","","","","","","","","","","","","","","","","","",""
"","do_trial","55","338183","0.0-39.0-1.0","""event"",""trial"",""time""
""fullscreenenter"",""0"",""2675""
","
","
","""event"",""trial"",""time""
""fullscreenenter"",""0"",""2675""
","
","2478.2999999970198","","","","","","","","51","1,0,0","","","","","","","","","","","","","","","",""
"","do_bye","56","339691","0.0-40.0-0.0","""event"",""trial"",""time""
""fullscreenenter"",""0"",""2675""
","
","
","""event"",""trial"",""time""
""fullscreenenter"",""0"",""2675""
","
","null","","","","","","","","null","","","","","","","","","","","","","","","","",""
"","do_travel","57","348696","0.0-40.0-1.0","""event"",""trial"",""time""
""fullscreenenter"",""0"",""2675""
","
","
","""event"",""trial"",""time""
""fullscreenenter"",""0"",""2675""
","
","null","","","","","","","","null","","","","","","","","","","","","","","","","",""
"","do_welcome","58","352703","0.0-40.0-2.0","""event"",""trial"",""time""
""fullscreenenter"",""0"",""2675""
","
","
","""event"",""trial"",""time""
""fullscreenenter"",""0"",""2675""
","
","null","","","","","","","","null","","","","","","","","","","","","","","","","",""
"","do_trial","59","358022","0.0-40.0-3.0","""event"",""trial"",""time""
""fullscreenenter"",""0"",""2675""
","
","
","""event"",""trial"",""time""
""fullscreenenter"",""0"",""2675""
","
","812","","","","","","","","50","1,0,0","","","","","","","","","","","","","","","",""
"","html-keyboard-response","60","359024","0.0-41.0-0.0","""event"",""trial"",""time""
""fullscreenenter"",""0"",""2675""
","
","
","""event"",""trial"",""time""
""fullscreenenter"",""0"",""2675""
","
","null","<p></p>","null","","","","","","","","","","","","","","","","","","","","","","",""
"","do_trial","61","364683","0.0-41.0-1.0","""event"",""trial"",""time""
""fullscreenenter"",""0"",""2675""
","
","
","""event"",""trial"",""time""
""fullscreenenter"",""0"",""2675""
","
","1152.7000000029802","","","","","","","","50","1,0,1","","","","","","","","","","","","","","","",""
"","html-keyboard-response","62","365686","0.0-42.0-0.0","""event"",""trial"",""time""
""fullscreenenter"",""0"",""2675""
","
","
","""event"",""trial"",""time""
""fullscreenenter"",""0"",""2675""
","
","null","<p></p>","null","","","","","","","","","","","","","","","","","","","","","","",""
"","do_trial","63","370607","0.0-42.0-1.0","""event"",""trial"",""time""
""fullscreenenter"",""0"",""2675""
","
","
","""event"",""trial"",""time""
""fullscreenenter"",""0"",""2675""
","
","411.40000000596046","","","","","","","","51","1,1,0","","","","","","","","","","","","","","","",""
"","html-keyboard-response","64","371609","0.0-43.0-0.0","""event"",""trial"",""time""
""fullscreenenter"",""0"",""2675""
","
","
","""event"",""trial"",""time""
""fullscreenenter"",""0"",""2675""
","
","null","<p></p>","null","","","","","","","","","","","","","","","","","","","","","","",""
"","do_trial","65","377981","0.0-43.0-1.0","""event"",""trial"",""time""
""fullscreenenter"",""0"",""2675""
","
","
","""event"",""trial"",""time""
""fullscreenenter"",""0"",""2675""
","
","1864.6999999955297","","","","","","","","50","0,0,1","","","","","","","","","","","","","","","",""
"","html-keyboard-response","66","378983","0.0-44.0-0.0","""event"",""trial"",""time""
""fullscreenenter"",""0"",""2675""
","
","
","""event"",""trial"",""time""
""fullscreenenter"",""0"",""2675""
","
","null","<p></p>","null","","","","","","","","","","","","","","","","","","","","","","",""
"","do_trial","67","384149","0.0-44.0-1.0","""event"",""trial"",""time""
""fullscreenenter"",""0"",""2675""
","
","
","""event"",""trial"",""time""
""fullscreenenter"",""0"",""2675""
","
","659.2000000029802","","","","","","","","49","1,0,1","","","","","","","","","","","","","","","",""
"","html-keyboard-response","68","388538","0.0-45.0-0.0","""event"",""trial"",""time""
""fullscreenenter"",""0"",""2675""
","
","
","""event"",""trial"",""time""
""fullscreenenter"",""0"",""2675""
","
","4385.79999999702","<div class='center'><p><img src='run_exp/static/images/tutorial/prac_best_pirate.png'  height='500'></p></div>","49","","","","","","","","","","","","","","","","","","","","","","",""
"","html-keyboard-response","69","389873","0.0-46.0-0.0","""event"",""trial"",""time""
""fullscreenenter"",""0"",""2675""
","
","
","""event"",""trial"",""time""
""fullscreenenter"",""0"",""2675""
","
","1333.4000000059605","<div class='center'><p>That's correct! Red beard was the best.</p><p><b>[Press the space bar to continue]</b></p></div>","32","","","","","","","","","","","","","","","","","","","","","","",""
"","html-keyboard-response","70","398236","0.0-46.0-1.0","""event"",""trial"",""time""
""fullscreenenter"",""0"",""2675""
","
","
","""event"",""trial"",""time""
""fullscreenenter"",""0"",""2675""
","
","8361.5","<div class='center'><p><img src='run_exp/static/images/tutorial/prac_source.png'  height='500'></p></div>","50","","","","","","","","","","","","","","","","","","","","","","",""
"","html-keyboard-response","71","399714","0.0-47.0-0.0","""event"",""trial"",""time""
""fullscreenenter"",""0"",""2675""
","
","
","""event"",""trial"",""time""
""fullscreenenter"",""0"",""2675""
","
","1475.1000000014901","<div class='center'><p>That's correct! You saw this ship on the cavern island.</p><p><b>[Press the space bar to continue]</b></p></div>","32","","","","","","","","","","","","","","","","","","","","","","",""
"","quiz_beginning","72","410979","0.0-47.0-1.0","""event"",""trial"",""time""
""fullscreenenter"",""0"",""2675""
","
","
","""event"",""trial"",""time""
""fullscreenenter"",""0"",""2675""
","
","null","run_exp/static/audio/clip_16_quiz_intro.m4a","null","","","","","<div class='center'><p>Good job on the practice game! Now, you will be asked some true or false questions to make sure you really understand the rules of the game.</p><p> Press <b>'1'</b> on the keyboard for true and press <b>'2'</b> for false.</p></div>","","","","","","","","","","","","","","","","","",""
"","audio-keyboard-response","73","417779","0.0-47.0-2.0","""event"",""trial"",""time""
""fullscreenenter"",""0"",""2675""
","
","
","""event"",""trial"",""time""
""fullscreenenter"",""0"",""2675""
","
","6798.20000000298","run_exp/static/audio/clip_17_q1.m4a","49","","","","","","","","","","","","","","","","","","","","","","",""
"","correct","74","420361","0.0-48.0-0.0","""event"",""trial"",""time""
""fullscreenenter"",""0"",""2675""
","
","
","""event"",""trial"",""time""
""fullscreenenter"",""0"",""2675""
","
","null","run_exp/static/audio/clip_18_correct.m4a","null","","","","","<div class='center'><p>That's correct!</p></div>","","","","","","","","","","","","","","","","","",""
"","html-keyboard-response","75","420993","0.0-48.0-1.0","""event"",""trial"",""time""
""fullscreenenter"",""0"",""2675""
","
","
","""event"",""trial"",""time""
""fullscreenenter"",""0"",""2675""
","
","631.2000000029802","<div class='center'><p>That's correct!</p><p><b>[Press the space bar to continue]</b></p></div>","32","","","","","","","","","","","","","","","","","","","","","","",""
"","audio-keyboard-response","76","427617","0.0-48.0-2.0","""event"",""trial"",""time""
""fullscreenenter"",""0"",""2675""
","
","
","""event"",""trial"",""time""
""fullscreenenter"",""0"",""2675""
","
","6617.4000000059605","run_exp/static/audio/clip_20_q2.m4a","50","","","","","","","","","","","","","","","","","","","","","","",""
"","correct","77","430209","0.0-49.0-0.0","""event"",""trial"",""time""
""fullscreenenter"",""0"",""2675""
","
","
","""event"",""trial"",""time""
""fullscreenenter"",""0"",""2675""
","
","null","run_exp/static/audio/clip_18_correct.m4a","null","","","","","<div class='center'><p>That's correct!</p></div>","","","","","","","","","","","","","","","","","",""
"","html-keyboard-response","78","431599","0.0-49.0-1.0","""event"",""trial"",""time""
""fullscreenenter"",""0"",""2675""
","
","
","""event"",""trial"",""time""
""fullscreenenter"",""0"",""2675""
","
","1389.3000000044703","<div class='center'><p>That's correct!</p><p><b>[Press the space bar to continue]</b></p></div>","32","","","","","","","","","","","","","","","","","","","","","","",""
"","audio-keyboard-response","79","438174","0.0-49.0-2.0","""event"",""trial"",""time""
""fullscreenenter"",""0"",""2675""
","
","
","""event"",""trial"",""time""
""fullscreenenter"",""0"",""2675""
","
","6572.30000000447","run_exp/static/audio/clip_22_q3.m4a","50","","","","","","","","","","","","","","","","","","","","","","",""
"","correct","80","440701","0.0-50.0-0.0","""event"",""trial"",""time""
""fullscreenenter"",""0"",""2675""
","
","
","""event"",""trial"",""time""
""fullscreenenter"",""0"",""2675""
","
","null","run_exp/static/audio/clip_18_correct.m4a","null","","","","","<div class='center'><p>That's correct!</p></div>","","","","","","","","","","","","","","","","","",""
"","html-keyboard-response","81","441450","0.0-50.0-1.0","""event"",""trial"",""time""
""fullscreenenter"",""0"",""2675""
","
","
","""event"",""trial"",""time""
""fullscreenenter"",""0"",""2675""
","
","747.2999999970198","<div class='center'><p>That's correct!</p><p><b>[Press the space bar to continue]</b></p></div>","32","","","","","","","","","","","","","","","","","","","","","","",""
"","audio-keyboard-response","82","446092","0.0-50.0-2.0","""event"",""trial"",""time""
""fullscreenenter"",""0"",""2675""
","
","
","""event"",""trial"",""time""
""fullscreenenter"",""0"",""2675""
","
","4640.5","run_exp/static/audio/clip_24_q4.m4a","49","","","","","","","","","","","","","","","","","","","","","","",""
"","correct","83","448689","0.0-51.0-0.0","""event"",""trial"",""time""
""fullscreenenter"",""0"",""2675""
","
","
","""event"",""trial"",""time""
""fullscreenenter"",""0"",""2675""
","
","null","run_exp/static/audio/clip_18_correct.m4a","null","","","","","<div class='center'><p>That's correct!</p></div>","","","","","","","","","","","","","","","","","",""
"","html-keyboard-response","84","449061","0.0-51.0-1.0","""event"",""trial"",""time""
""fullscreenenter"",""0"",""2675""
","
","
","""event"",""trial"",""time""
""fullscreenenter"",""0"",""2675""
","
","369.5","<div class='center'><p>That's correct!</p><p><b>[Press the space bar to continue]</b></p></div>","32","","","","","","","","","","","","","","","","","","","","","","",""
"","q_all_corr","85","457791","0.0-52.0-0.0","""event"",""trial"",""time""
""fullscreenenter"",""0"",""2675""
","
","
","""event"",""trial"",""time""
""fullscreenenter"",""0"",""2675""
","
","null","run_exp/static/audio/clip_27_quiz_all_correct.m4a","null","","","","","<div class='center'><p>Good job! You’re now ready to move on to the real game! Remember this game will be difficult but don't get discouraged and try your best!</p></div>","","","","","","","","","","","","","","","","","",""
"","html-keyboard-response","86","461128","0.0-52.0-1.0","""event"",""trial"",""time""
""fullscreenenter"",""0"",""2675""
","
","
","""event"",""trial"",""time""
""fullscreenenter"",""0"",""2675""
","
","3334.60000000149","<div class='center'><p>Good job! You’re now ready to move on to the real game! Remember this game will be difficult but don't get discouraged and try your best!</p><p><b>[Press the space bar to continue]</b></p></div>","32","","","","","","","","","","","","","","","","","","","","","","",""
"","do_welcome","87","465136","0.0-53.0-0.0","""event"",""trial"",""time""
""fullscreenenter"",""0"",""2675""
","
","
","""event"",""trial"",""time""
""fullscreenenter"",""0"",""2675""
","
","null","","","","","","","","null","","","","","","","","","","","","","","","","",""
"","do_trial","88","470999","0.0-54.0-0.0","""event"",""trial"",""time""
""fullscreenenter"",""0"",""2675""
","
","
","""event"",""trial"",""time""
""fullscreenenter"",""0"",""2675""
","
","1299.6999999955297","","","","","","","","50","1,0,0","0","city","0","probe-199","0.6","0.3","0.1","0","","","","","","","",""
"","html-keyboard-response","89","472002","0.0-54.0-1.0","""event"",""trial"",""time""
""fullscreenenter"",""0"",""2675""
","
","
","""event"",""trial"",""time""
""fullscreenenter"",""0"",""2675""
","
","null","<p></p>","null","","","","","","","","","","","","","","","","","","","","","","",""
"","do_trial","90","478086","0.0-55.0-0.0","""event"",""trial"",""time""
""fullscreenenter"",""0"",""2675""
","
","
","""event"",""trial"",""time""
""fullscreenenter"",""0"",""2675""
","
","1523.1000000014901","","","","","","","","49","1,0,0","0","city","1","probe-76","0.5674695382025321","0.3955016712101712","0.0920584160699895","1","","","","","","","",""
"","html-keyboard-response","91","479088","0.0-55.0-1.0","""event"",""trial"",""time""
""fullscreenenter"",""0"",""2675""
","
","
","""event"",""trial"",""time""
""fullscreenenter"",""0"",""2675""
","
","null","<p></p>","null","","","","","","","","","","","","","","","","","","","","","","",""
"","do_trial","92","485261","0.0-56.0-0.0","""event"",""trial"",""time""
""fullscreenenter"",""0"",""2675""
","
","
","""event"",""trial"",""time""
""fullscreenenter"",""0"",""2675""
","
","1612","","","","","","","","49","1,1,1","0","city","2","probe-24","0.4942158325081026","0.3794281440469901","0.3229408963867292","1","","","","","","","",""
"","html-keyboard-response","93","486264","0.0-56.0-1.0","""event"",""trial"",""time""
""fullscreenenter"",""0"",""2675""
","
","
","""event"",""trial"",""time""
""fullscreenenter"",""0"",""2675""
","
","null","<p></p>","null","","","","","","","","","","","","","","","","","","","","","","",""
"","do_trial","94","492780","0.0-57.0-0.0","""event"",""trial"",""time""
""fullscreenenter"",""0"",""2675""
","
","
","""event"",""trial"",""time""
""fullscreenenter"",""0"",""2675""
","
","1955.6999999955297","","","","","","","","51","1,0,0","0","city","3","probe-177","0.6686077954287043","0.3235110231956046","0.2351793012909792","0","","","","","","","",""
"","html-keyboard-response","95","493782","0.0-57.0-1.0","""event"",""trial"",""time""
""fullscreenenter"",""0"",""2675""
","
","
","""event"",""trial"",""time""
""fullscreenenter"",""0"",""2675""
","
","null","<p></p>","null","","","","","","","","","","","","","","","","","","","","","","",""
"","do_trial","96","498717","0.0-58.0-0.0","""event"",""trial"",""time""
""fullscreenenter"",""0"",""2675""
","
","
","""event"",""trial"",""time""
""fullscreenenter"",""0"",""2675""
","
","374.70000000298023","","","","","","","","49","0,0,0","0","city","4","probe-87","0.4378841881480117","0.41973961830370704","0.19394202798575794","0","","","","","","","",""
"","html-keyboard-response","97","499719","0.0-58.0-1.0","""event"",""trial"",""time""
""fullscreenenter"",""0"",""2675""
","
","
","""event"",""trial"",""time""
""fullscreenenter"",""0"",""2675""
","
","null","<p></p>","null","","","","","","","","","","","","","","","","","","","","","","",""
"","do_trial","98","504588","0.0-59.0-0.0","""event"",""trial"",""time""
""fullscreenenter"",""0"",""2675""
","
","
","""event"",""trial"",""time""
""fullscreenenter"",""0"",""2675""
","
","306.70000000298023","","","","","","","","49","1,0,0","0","city","5","probe-85","0.5154295426086849","0.34593610003981523","0.05467771262682792","1","","","","","","","",""
"","html-keyboard-response","99","505591","0.0-59.0-1.0","""event"",""trial"",""time""
""fullscreenenter"",""0"",""2675""
","
","
","""event"",""trial"",""time""
""fullscreenenter"",""0"",""2675""
","
","null","<p></p>","null","","","","","","","","","","","","","","","","","","","","","","",""
"","do_trial","100","510950","0.0-60.0-0.0","""event"",""trial"",""time""
""fullscreenenter"",""0"",""2675""
","
","
","""event"",""trial"",""time""
""fullscreenenter"",""0"",""2675""
","
","790.9000000059605","","","","","","","","49","0,0,0","0","city","6","probe-164","0.7085669283989569","0.2588548555139464","0.12852663895815716","0","","","","","","","",""
"","html-keyboard-response","101","511952","0.0-60.0-1.0","""event"",""trial"",""time""
""fullscreenenter"",""0"",""2675""
","
","
","""event"",""trial"",""time""
""fullscreenenter"",""0"",""2675""
","
","null","<p></p>","null","","","","","","","","","","","","","","","","","","","","","","",""
"","do_trial","102","516953","0.0-61.0-0.0","""event"",""trial"",""time""
""fullscreenenter"",""0"",""2675""
","
","
","""event"",""trial"",""time""
""fullscreenenter"",""0"",""2675""
","
","441.30000000447035","","","","","","","","49","0,0,0","0","city","7","probe-05","0.5130208218571773","0.30433992872601834","0.06428045155647098","0","","","","","","","",""
"","html-keyboard-response","103","517955","0.0-61.0-1.0","""event"",""trial"",""time""
""fullscreenenter"",""0"",""2675""
","
","
","""event"",""trial"",""time""
""fullscreenenter"",""0"",""2675""
","
","null","<p></p>","null","","","","","","","","","","","","","","","","","","","","","","",""
"","do_trial","104","522792","0.0-62.0-0.0","""event"",""trial"",""time""
""fullscreenenter"",""0"",""2675""
","
","
","""event"",""trial"",""time""
""fullscreenenter"",""0"",""2675""
","
","276.59999999403954","","","","","","","","50","0,1,0","0","city","8","probe-165","0.3725978564315935","0.3950961919531072","0.23233686243958473","1","","","","","","","",""
"","html-keyboard-response","105","523794","0.0-62.0-1.0","""event"",""trial"",""time""
""fullscreenenter"",""0"",""2675""
","
","
","""event"",""trial"",""time""
""fullscreenenter"",""0"",""2675""
","
","null","<p></p>","null","","","","","","","","","","","","","","","","","","","","","","",""
"","do_trial","106","529856","0.0-63.0-0.0","""event"",""trial"",""time""
""fullscreenenter"",""0"",""2675""
","
","
","""event"",""trial"",""time""
""fullscreenenter"",""0"",""2675""
","
","null","","","","","","","","null","0,0,0","0","city","9","probe-25","0.40321474096394744","0.397332634055627","0.1935972444046873","","","","","","","","",""
"","html-keyboard-response","107","530859","0.0-63.0-1.0","""event"",""trial"",""time""
""fullscreenenter"",""0"",""2675""
","
","
","""event"",""trial"",""time""
""fullscreenenter"",""0"",""2675""
","
","null","<p></p>","null","","","","","","","","","","","","","","","","","","","","","","",""
"","do_trial","108","535814","0.0-64.0-0.0","""event"",""trial"",""time""
""fullscreenenter"",""0"",""2675""
","
","
","""event"",""trial"",""time""
""fullscreenenter"",""0"",""2675""
","
","394.79999999701977","","","","","","","","50","0,0,0","0","city","10","probe-93","0.3924492033292604","0.2994597163007602","0.15673700942361252","0","","","","","","","",""
"","html-keyboard-response","109","536816","0.0-64.0-1.0","""event"",""trial"",""time""
""fullscreenenter"",""0"",""2675""
","
","
","""event"",""trial"",""time""
""fullscreenenter"",""0"",""2675""
","
","null","<p></p>","null","","","","","","","","","","","","","","","","","","","","","","",""
"","do_trial","110","541490","0.0-65.0-0.0","""event"",""trial"",""time""
""fullscreenenter"",""0"",""2675""
","
","
","""event"",""trial"",""time""
""fullscreenenter"",""0"",""2675""
","
","107.29999999701977","","","","","","","","51","0,0,0","0","city","11","probe-50","0.36821601126682396","0.22304573133083036","0.3613643451360442","0","","","","","","","",""
"","html-keyboard-response","111","542492","0.0-65.0-1.0","""event"",""trial"",""time""
""fullscreenenter"",""0"",""2675""
","
","
","""event"",""trial"",""time""
""fullscreenenter"",""0"",""2675""
","
","null","<p></p>","null","","","","","","","","","","","","","","","","","","","","","","",""
"","do_trial","112","547339","0.0-66.0-0.0","""event"",""trial"",""time""
""fullscreenenter"",""0"",""2675""
","
","
","""event"",""trial"",""time""
""fullscreenenter"",""0"",""2675""
","
","280.70000000298023","","","","","","","","49","0,0,0","0","city","12","probe-187","0.38747506278951965","0.2914504403620578","0.21175902363253124","0","","","","","","","",""
"","html-keyboard-response","113","548341","0.0-66.0-1.0","""event"",""trial"",""time""
""fullscreenenter"",""0"",""2675""
","
","
","""event"",""trial"",""time""
""fullscreenenter"",""0"",""2675""
","
","null","<p></p>","null","","","","","","","","","","","","","","","","","","","","","","",""
"","do_trial","114","553115","0.0-67.0-0.0","""event"",""trial"",""time""
""fullscreenenter"",""0"",""2675""
","
","
","""event"",""trial"",""time""
""fullscreenenter"",""0"",""2675""
","
","210.10000000149012","","","","","","","","50","1,0,0","0","city","13","probe-120","0.5457330769262478","0.25762165538743725","0.10583018887813239","0","","","","","","","",""
"","html-keyboard-response","115","554117","0.0-67.0-1.0","""event"",""trial"",""time""
""fullscreenenter"",""0"",""2675""
","
","
","""event"",""trial"",""time""
""fullscreenenter"",""0"",""2675""
","
","null","<p></p>","null","","","","","","","","","","","","","","","","","","","","","","",""
"","do_trial","116","558943","0.0-68.0-0.0","""event"",""trial"",""time""
""fullscreenenter"",""0"",""2675""
","
","
","""event"",""trial"",""time""
""fullscreenenter"",""0"",""2675""
","
","265","","","","","","","","50","0,0,0","0","city","14","probe-151","0.5427807251984555","0.39488289995433823","0.05673663645504126","0","","","","","","","",""
"","html-keyboard-response","117","559945","0.0-68.0-1.0","""event"",""trial"",""time""
""fullscreenenter"",""0"",""2675""
","
","
","""event"",""trial"",""time""
""fullscreenenter"",""0"",""2675""
","
","null","<p></p>","null","","","","","","","","","","","","","","","","","","","","","","",""
"","do_trial","118","564765","0.0-69.0-0.0","""event"",""trial"",""time""
""fullscreenenter"",""0"",""2675""
","
","
","""event"",""trial"",""time""
""fullscreenenter"",""0"",""2675""
","
","257.79999999701977","","","","","","","","49","0,0,0","0","city","15","probe-154","0.5312974043127909","0.4489667638573539","0.051078624966957434","0","","","","","","","",""
"","html-keyboard-response","119","565768","0.0-69.0-1.0","""event"",""trial"",""time""
""fullscreenenter"",""0"",""2675""
","
","
","""event"",""trial"",""time""
""fullscreenenter"",""0"",""2675""
","
","null","<p></p>","null","","","","","","","","","","","","","","","","","","","","","","",""
"","do_trial","120","570721","0.0-70.0-0.0","""event"",""trial"",""time""
""fullscreenenter"",""0"",""2675""
","
","
","""event"",""trial"",""time""
""fullscreenenter"",""0"",""2675""
","
","389.3999999985099","","","","","","","","49","1,1,0","0","city","16","probe-104","0.5718871997211004","0.4514789106059175","0.14649305502907142","1","","","","","","","",""
"","html-keyboard-response","121","571723","0.0-70.0-1.0","""event"",""trial"",""time""
""fullscreenenter"",""0"",""2675""
","
","
","""event"",""trial"",""time""
""fullscreenenter"",""0"",""2675""
","
","null","<p></p>","null","","","","","","","","","","","","","","","","","","","","","","",""
"","do_trial","122","577709","0.0-71.0-0.0","""event"",""trial"",""time""
""fullscreenenter"",""0"",""2675""
","
","
","""event"",""trial"",""time""
""fullscreenenter"",""0"",""2675""
","
","1425","","","","","","","","49","0,0,0","0","city","17","probe-132","0.6575700466843526","0.46114343162665433","0.15533966910891336","0","","","","","","","",""
"","html-keyboard-response","123","578711","0.0-71.0-1.0","""event"",""trial"",""time""
""fullscreenenter"",""0"",""2675""
","
","
","""event"",""trial"",""time""
""fullscreenenter"",""0"",""2675""
","
","null","<p></p>","null","","","","","","","","","","","","","","","","","","","","","","",""
"","do_trial","124","583610","0.0-72.0-0.0","""event"",""trial"",""time""
""fullscreenenter"",""0"",""2675""
","
","
","""event"",""trial"",""time""
""fullscreenenter"",""0"",""2675""
","
","338.30000000447035","","","","","","","","50","1,0,0","0","city","18","probe-99","0.6050374767772313","0.4872420726569125","0.08401142467714319","0","","","","","","","",""
"","html-keyboard-response","125","584613","0.0-72.0-1.0","""event"",""trial"",""time""
""fullscreenenter"",""0"",""2675""
","
","
","""event"",""trial"",""time""
""fullscreenenter"",""0"",""2675""
","
","null","<p></p>","null","","","","","","","","","","","","","","","","","","","","","","",""
"","do_trial","126","589818","0.0-73.0-0.0","""event"",""trial"",""time""
""fullscreenenter"",""0"",""2675""
","
","
","""event"",""trial"",""time""
""fullscreenenter"",""0"",""2675""
","
","643.9000000059605","","","","","","","","50","0,0,0","0","city","19","probe-18","0.724283710014405","0.43495929437126934","0.13135557757903793","0","","","","","","","",""
"","html-keyboard-response","127","590820","0.0-73.0-1.0","""event"",""trial"",""time""
""fullscreenenter"",""0"",""2675""
","
","
","""event"",""trial"",""time""
""fullscreenenter"",""0"",""2675""
","
","null","<p></p>","null","","","","","","","","","","","","","","","","","","","","","","",""
"","do_trial","128","595712","0.0-74.0-0.0","""event"",""trial"",""time""
""fullscreenenter"",""0"",""2675""
","
","
","""event"",""trial"",""time""
""fullscreenenter"",""0"",""2675""
","
","331.3999999985099","","","","","","","","49","1,0,0","0","city","20","probe-222","0.6681355130334607","0.37569346932605174","0.07423996143627712","1","","","","","","","",""
"","html-keyboard-response","129","596715","0.0-74.0-1.0","""event"",""trial"",""time""
""fullscreenenter"",""0"",""2675""
","
","
","""event"",""trial"",""time""
""fullscreenenter"",""0"",""2675""
","
","null","<p></p>","null","","","","","","","","","","","","","","","","","","","","","","",""
"","do_trial","130","601596","0.0-75.0-0.0","""event"",""trial"",""time""
""fullscreenenter"",""0"",""2675""
","
","
","""event"",""trial"",""time""
""fullscreenenter"",""0"",""2675""
","
","319.59999999403954","","","","","","","","49","0,0,1","0","city","21","probe-178","0.6305202543976465","0.3554813423104028","0.05542441822168337","0","","","","","","","",""
"","html-keyboard-response","131","602599","0.0-75.0-1.0","""event"",""trial"",""time""
""fullscreenenter"",""0"",""2675""
","
","
","""event"",""trial"",""time""
""fullscreenenter"",""0"",""2675""
","
","null","<p></p>","null","","","","","","","","","","","","","","","","","","","","","","",""
"","do_trial","132","607473","0.0-76.0-0.0","""event"",""trial"",""time""
""fullscreenenter"",""0"",""2675""
","
","
","""event"",""trial"",""time""
""fullscreenenter"",""0"",""2675""
","
","315","","","","","","","","49","0,0,0","0","city","22","probe-127","0.6541466980187279","0.3230435160385692","0.082193899302184","0","","","","","","","",""
"","html-keyboard-response","133","608476","0.0-76.0-1.0","""event"",""trial"",""time""
""fullscreenenter"",""0"",""2675""
","
","
","""event"",""trial"",""time""
""fullscreenenter"",""0"",""2675""
","
","null","<p></p>","null","","","","","","","","","","","","","","","","","","","","","","",""
"","do_trial","134","613169","0.0-77.0-0.0","""event"",""trial"",""time""
""fullscreenenter"",""0"",""2675""
","
","
","""event"",""trial"",""time""
""fullscreenenter"",""0"",""2675""
","
","132.29999999701977","","","","","","","","49","0,1,1","0","city","23","probe-143","0.6620677255627151","0.2591617710937152","0.19720297624701189","0","","","","","","","",""
"","html-keyboard-response","135","614171","0.0-77.0-1.0","""event"",""trial"",""time""
""fullscreenenter"",""0"",""2675""
","
","
","""event"",""trial"",""time""
""fullscreenenter"",""0"",""2675""
","
","null","<p></p>","null","","","","","","","","","","","","","","","","","","","","","","",""
"","do_trial","136","619552","0.0-78.0-0.0","""event"",""trial"",""time""
""fullscreenenter"",""0"",""2675""
","
","
","""event"",""trial"",""time""
""fullscreenenter"",""0"",""2675""
","
","820.3999999985099","","","","","","","","49","0,0,0","0","city","24","probe-136","0.6264910884355485","0.23316458388288433","0.10714910694346415","0","","","","","","","",""
"","html-keyboard-response","137","620554","0.0-78.0-1.0","""event"",""trial"",""time""
""fullscreenenter"",""0"",""2675""
","
","
","""event"",""trial"",""time""
""fullscreenenter"",""0"",""2675""
","
","null","<p></p>","null","","","","","","","","","","","","","","","","","","","","","","",""
"","do_trial","138","625431","0.0-79.0-0.0","""event"",""trial"",""time""
""fullscreenenter"",""0"",""2675""
","
","
","""event"",""trial"",""time""
""fullscreenenter"",""0"",""2675""
","
","316","","","","","","","","49","0,0,0","0","city","25","probe-166","0.48810771081393356","0.294025533049691","0.05548943689653728","0","","","","","","","",""
"","html-keyboard-response","139","626434","0.0-79.0-1.0","""event"",""trial"",""time""
""fullscreenenter"",""0"",""2675""
","
","
","""event"",""trial"",""time""
""fullscreenenter"",""0"",""2675""
","
","null","<p></p>","null","","","","","","","","","","","","","","","","","","","","","","",""
"","do_trial","140","631067","0.0-80.0-0.0","""event"",""trial"",""time""
""fullscreenenter"",""0"",""2675""
","
","
","""event"",""trial"",""time""
""fullscreenenter"",""0"",""2675""
","
","66.60000000149012","","","","","","","","50","0,1,1","0","city","26","probe-56","0.49858694127417674","0.37383199343998413","0.06009340190437635","1","","","","","","","",""
"","html-keyboard-response","141","632069","0.0-80.0-1.0","""event"",""trial"",""time""
""fullscreenenter"",""0"",""2675""
","
","
","""event"",""trial"",""time""
""fullscreenenter"",""0"",""2675""
","
","null","<p></p>","null","","","","","","","","","","","","","","","","","","","","","","",""
"","do_trial","142","637427","0.0-81.0-0.0","""event"",""trial"",""time""
""fullscreenenter"",""0"",""2675""
","
","
","""event"",""trial"",""time""
""fullscreenenter"",""0"",""2675""
","
","796.5","","","","","","","","50","0,1,0","0","city","27","probe-121","0.5886065537051728","0.38861162388135834","0.06913161398882745","1","","","","","","","",""
"","html-keyboard-response","143","638430","0.0-81.0-1.0","""event"",""trial"",""time""
""fullscreenenter"",""0"",""2675""
","
","
","""event"",""trial"",""time""
""fullscreenenter"",""0"",""2675""
","
","null","<p></p>","null","","","","","","","","","","","","","","","","","","","","","","",""
"","do_trial","144","643897","0.0-82.0-0.0","""event"",""trial"",""time""
""fullscreenenter"",""0"",""2675""
","
","
","""event"",""trial"",""time""
""fullscreenenter"",""0"",""2675""
","
","908.2000000029802","","","","","","","","50","0,0,0","0","city","28","probe-12","0.7264254802358653","0.3197559843196248","0.10579619051311522","0","","","","","","","",""
"","html-keyboard-response","145","644901","0.0-82.0-1.0","""event"",""trial"",""time""
""fullscreenenter"",""0"",""2675""
","
","
","""event"",""trial"",""time""
""fullscreenenter"",""0"",""2675""
","
","null","<p></p>","null","","","","","","","","","","","","","","","","","","","","","","",""
"","do_trial","146","649768","0.0-83.0-0.0","""event"",""trial"",""time""
""fullscreenenter"",""0"",""2675""
","
","
","""event"",""trial"",""time""
""fullscreenenter"",""0"",""2675""
","
","306.79999999701977","","","","","","","","50","1,1,0","0","city","29","probe-38","0.7451297264113873","0.14529580486729093","0.05500894105632439","1","","","","","","","",""
"","html-keyboard-response","147","650771","0.0-83.0-1.0","""event"",""trial"",""time""
""fullscreenenter"",""0"",""2675""
","
","
","""event"",""trial"",""time""
""fullscreenenter"",""0"",""2675""
","
","null","<p></p>","null","","","","","","","","","","","","","","","","","","","","","","",""
"","do_bye","148","652277","0.0-84.0-0.0","""event"",""trial"",""time""
""fullscreenenter"",""0"",""2675""
","
","
","""event"",""trial"",""time""
""fullscreenenter"",""0"",""2675""
","
","null","","","","","","","","null","","","","","","","","","","","","","","","","",""
"","break","149","655630","0.0-84.0-1.0","""event"",""trial"",""time""
""fullscreenenter"",""0"",""2675""
","
","
","""event"",""trial"",""time""
""fullscreenenter"",""0"",""2675""
","
","3350.5","<div class='center'><p>Time to take a quick break! You have 2 minutes to rest, but you can move on sooner if you'd like.</p><p> Press the <b>space bar</b> to continue.</p></div>","32","","","","","","","","","","","","","","","","","","","","","","",""
"","do_travel","150","664635","0.0-85.0-0.0","""event"",""trial"",""time""
""fullscreenenter"",""0"",""2675""
","
","
","""event"",""trial"",""time""
""fullscreenenter"",""0"",""2675""
","
","null","","","","","","","","null","","","","","","","","","","","","","","","","",""
"","do_welcome","151","668653","0.0-85.0-1.0","""event"",""trial"",""time""
""fullscreenenter"",""0"",""2675""
","
","
","""event"",""trial"",""time""
""fullscreenenter"",""0"",""2675""
","
","null","","","","","","","","null","","","","","","","","","","","","","","","","",""
"","do_trial","152","674429","0.0-86.0-0.0","""event"",""trial"",""time""
""fullscreenenter"",""0"",""2675""
","
","
","""event"",""trial"",""time""
""fullscreenenter"",""0"",""2675""
","
","1214.4000000059605","","","","","","","","50","1,0,1","1","coast","30","probe-01","1","0.24630213757839423","0.1314136868232668","0","","","","","","","",""
"","html-keyboard-response","153","675431","0.0-86.0-1.0","""event"",""trial"",""time""
""fullscreenenter"",""0"",""2675""
","
","
","""event"",""trial"",""time""
""fullscreenenter"",""0"",""2675""
","
","null","<p></p>","null","","","","","","","","","","","","","","","","","","","","","","",""
"","do_trial","154","680105","0.0-87.0-0.0","""event"",""trial"",""time""
""fullscreenenter"",""0"",""2675""
","
","
","""event"",""trial"",""time""
""fullscreenenter"",""0"",""2675""
","
","112.60000000149012","","","","","","","","51","1,0,0","1","coast","31","probe-224","1","0.2717300927569834","0.24078792414191422","0","","","","","","","",""
"","html-keyboard-response","155","681108","0.0-87.0-1.0","""event"",""trial"",""time""
""fullscreenenter"",""0"",""2675""
","
","
","""event"",""trial"",""time""
""fullscreenenter"",""0"",""2675""
","
","null","<p></p>","null","","","","","","","","","","","","","","","","","","","","","","",""
"","do_trial","156","685940","0.0-88.0-0.0","""event"",""trial"",""time""
""fullscreenenter"",""0"",""2675""
","
","
","""event"",""trial"",""time""
""fullscreenenter"",""0"",""2675""
","
","273.6000000014901","","","","","","","","51","1,1,0","1","coast","32","probe-112","1","0.2596377657815159","0.18725009115658364","0","","","","","","","",""
"","html-keyboard-response","157","686942","0.0-88.0-1.0","""event"",""trial"",""time""
""fullscreenenter"",""0"",""2675""
","
","
","""event"",""trial"",""time""
""fullscreenenter"",""0"",""2675""
","
","null","<p></p>","null","","","","","","","","","","","","","","","","","","","","","","",""
"","do_trial","158","691868","0.0-89.0-0.0","""event"",""trial"",""time""
""fullscreenenter"",""0"",""2675""
","
","
","""event"",""trial"",""time""
""fullscreenenter"",""0"",""2675""
","
","363.5","","","","","","","","51","1,1,0","1","coast","33","probe-221","0.8620228213694252","0.3470044516278012","0.11006230169855961","0","","","","","","","",""
"","html-keyboard-response","159","692871","0.0-89.0-1.0","""event"",""trial"",""time""
""fullscreenenter"",""0"",""2675""
","
","
","""event"",""trial"",""time""
""fullscreenenter"",""0"",""2675""
","
","null","<p></p>","null","","","","","","","","","","","","","","","","","","","","","","",""
"","do_trial","160","699281","0.0-90.0-0.0","""event"",""trial"",""time""
""fullscreenenter"",""0"",""2675""
","
","
","""event"",""trial"",""time""
""fullscreenenter"",""0"",""2675""
","
","1848.8999999985099","","","","","","","","49","0,0,0","1","coast","34","probe-196","0.780291728380907","0.43236692428641244","0.06590295322045445","0","","","","","","","",""
"","html-keyboard-response","161","700283","0.0-90.0-1.0","""event"",""trial"",""time""
""fullscreenenter"",""0"",""2675""
","
","
","""event"",""trial"",""time""
""fullscreenenter"",""0"",""2675""
","
","null","<p></p>","null","","","","","","","","","","","","","","","","","","","","","","",""
"","do_trial","162","705106","0.0-91.0-0.0","""event"",""trial"",""time""
""fullscreenenter"",""0"",""2675""
","
","
","""event"",""trial"",""time""
""fullscreenenter"",""0"",""2675""
","
","262.6000000014901","","","","","","","","49","1,1,1","1","coast","35","probe-153","0.8478179309575277","0.4758462093346863","0.1475396791236314","1","","","","","","","",""
"","html-keyboard-response","163","706108","0.0-91.0-1.0","""event"",""trial"",""time""
""fullscreenenter"",""0"",""2675""
","
","
","""event"",""trial"",""time""
""fullscreenenter"",""0"",""2675""
","
","null","<p></p>","null","","","","","","","","","","","","","","","","","","","","","","",""
"","do_trial","164","711370","0.0-92.0-0.0","""event"",""trial"",""time""
""fullscreenenter"",""0"",""2675""
","
","
","""event"",""trial"",""time""
""fullscreenenter"",""0"",""2675""
","
","701.6000000014901","","","","","","","","49","0,0,0","1","coast","36","probe-209","0.5592744604542825","0.36949127650262215","0.1510877675878121","0","","","","","","","",""
"","html-keyboard-response","165","712372","0.0-92.0-1.0","""event"",""trial"",""time""
""fullscreenenter"",""0"",""2675""
","
","
","""event"",""trial"",""time""
""fullscreenenter"",""0"",""2675""
","
","null","<p></p>","null","","","","","","","","","","","","","","","","","","","","","","",""
"","do_trial","166","718897","0.0-93.0-0.0","""event"",""trial"",""time""
""fullscreenenter"",""0"",""2675""
","
","
","""event"",""trial"",""time""
""fullscreenenter"",""0"",""2675""
","
","1964.2999999970198","","","","","","","","49","1,0,0","1","coast","37","probe-54","0.6794772033102","0.21263831261458457","0.14271397691926166","1","","","","","","","",""
"","html-keyboard-response","167","719899","0.0-93.0-1.0","""event"",""trial"",""time""
""fullscreenenter"",""0"",""2675""
","
","
","""event"",""trial"",""time""
""fullscreenenter"",""0"",""2675""
","
","null","<p></p>","null","","","","","","","","","","","","","","","","","","","","","","",""
"","do_trial","168","725091","0.0-94.0-0.0","""event"",""trial"",""time""
""fullscreenenter"",""0"",""2675""
","
","
","""event"",""trial"",""time""
""fullscreenenter"",""0"",""2675""
","
","631.4000000059605","","","","","","","","49","1,0,0","1","coast","38","probe-46","0.6838007938998273","0.233414504449903","0.10352007448641529","1","","","","","","","",""
"","html-keyboard-response","169","726093","0.0-94.0-1.0","""event"",""trial"",""time""
""fullscreenenter"",""0"",""2675""
","
","
","""event"",""trial"",""time""
""fullscreenenter"",""0"",""2675""
","
","null","<p></p>","null","","","","","","","","","","","","","","","","","","","","","","",""
"","do_trial","170","732154","0.0-95.0-0.0","""event"",""trial"",""time""
""fullscreenenter"",""0"",""2675""
","
","
","""event"",""trial"",""time""
""fullscreenenter"",""0"",""2675""
","
","null","","","","","","","","null","1,0,0","1","coast","39","probe-74","0.6779525940680375","0.24609461235785954","0.1264305896973074","","","","","","","","",""
"","html-keyboard-response","171","733156","0.0-95.0-1.0","""event"",""trial"",""time""
""fullscreenenter"",""0"",""2675""
","
","
","""event"",""trial"",""time""
""fullscreenenter"",""0"",""2675""
","
","null","<p></p>","null","","","","","","","","","","","","","","","","","","","","","","",""
"","do_trial","172","738113","0.0-96.0-0.0","""event"",""trial"",""time""
""fullscreenenter"",""0"",""2675""
","
","
","""event"",""trial"",""time""
""fullscreenenter"",""0"",""2675""
","
","330.6000000014901","","","","","","","","49","0,0,0","1","coast","40","probe-172","0.5173466731108193","0.30392837602668094","0.08928262286222167","0","","","","","","","",""
"","html-keyboard-response","173","739116","0.0-96.0-1.0","""event"",""trial"",""time""
""fullscreenenter"",""0"",""2675""
","
","
","""event"",""trial"",""time""
""fullscreenenter"",""0"",""2675""
","
","null","<p></p>","null","","","","","","","","","","","","","","","","","","","","","","",""
"","do_trial","174","744147","0.0-97.0-0.0","""event"",""trial"",""time""
""fullscreenenter"",""0"",""2675""
","
","
","""event"",""trial"",""time""
""fullscreenenter"",""0"",""2675""
","
","471.8999999985099","","","","","","","","49","0,0,0","1","coast","41","probe-184","0.44387218851813737","0.21164394360929273","0.09922527629183868","0","","","","","","","",""
"","html-keyboard-response","175","745149","0.0-97.0-1.0","""event"",""trial"",""time""
""fullscreenenter"",""0"",""2675""
","
","
","""event"",""trial"",""time""
""fullscreenenter"",""0"",""2675""
","
","null","<p></p>","null","","","","","","","","","","","","","","","","","","","","","","",""
"","do_trial","176","750125","0.0-98.0-0.0","""event"",""trial"",""time""
""fullscreenenter"",""0"",""2675""
","
","
","""event"",""trial"",""time""
""fullscreenenter"",""0"",""2675""
","
","416.5","","","","","","","","49","0,0,0","1","coast","42","probe-225","0.36208004320036835","0.15530999962115688","0.10128152084731927","0","","","","","","","",""
"","html-keyboard-response","177","751128","0.0-98.0-1.0","""event"",""trial"",""time""
""fullscreenenter"",""0"",""2675""
","
","
","""event"",""trial"",""time""
""fullscreenenter"",""0"",""2675""
","
","null","<p></p>","null","","","","","","","","","","","","","","","","","","","","","","",""
"","do_trial","178","755984","0.0-99.0-0.0","""event"",""trial"",""time""
""fullscreenenter"",""0"",""2675""
","
","
","""event"",""trial"",""time""
""fullscreenenter"",""0"",""2675""
","
","294.5","","","","","","","","49","1,0,0","1","coast","43","probe-182","0.30565536055646786","0.18871874873335642","0.3979080975483551","1","","","","","","","",""
"","html-keyboard-response","179","756986","0.0-99.0-1.0","""event"",""trial"",""time""
""fullscreenenter"",""0"",""2675""
","
","
","""event"",""trial"",""time""
""fullscreenenter"",""0"",""2675""
","
","null","<p></p>","null","","","","","","","","","","","","","","","","","","","","","","",""
"","do_trial","180","762061","0.0-100.0-0.0","""event"",""trial"",""time""
""fullscreenenter"",""0"",""2675""
","
","
","""event"",""trial"",""time""
""fullscreenenter"",""0"",""2675""
","
","514.2999999970198","","","","","","","","49","0,0,1","1","coast","44","probe-227","0.23329949866605315","0.06121372137641361","0.47072321603255907","0","","","","","","","",""
"","html-keyboard-response","181","763064","0.0-100.0-1.0","""event"",""trial"",""time""
""fullscreenenter"",""0"",""2675""
","
","
","""event"",""trial"",""time""
""fullscreenenter"",""0"",""2675""
","
","null","<p></p>","null","","","","","","","","","","","","","","","","","","","","","","",""
"","do_trial","182","767733","0.0-101.0-0.0","""event"",""trial"",""time""
""fullscreenenter"",""0"",""2675""
","
","
","""event"",""trial"",""time""
""fullscreenenter"",""0"",""2675""
","
","107.89999999850988","","","","","","","","51","0,1,1","1","coast","45","probe-33","0.32977841799221247","0.25529098102106695","0.42417978065393136","1","","","","","","","",""
"","html-keyboard-response","183","768734","0.0-101.0-1.0","""event"",""trial"",""time""
""fullscreenenter"",""0"",""2675""
","
","
","""event"",""trial"",""time""
""fullscreenenter"",""0"",""2675""
","
","null","<p></p>","null","","","","","","","","","","","","","","","","","","","","","","",""
"","do_trial","184","773578","0.0-102.0-0.0","""event"",""trial"",""time""
""fullscreenenter"",""0"",""2675""
","
","
","""event"",""trial"",""time""
""fullscreenenter"",""0"",""2675""
","
","283.3999999985099","","","","","","","","51","0,1,1","1","coast","46","probe-117","0.36941965742769783","0.11990971112513847","0.6119597229044628","1","","","","","","","",""
"","html-keyboard-response","185","774580","0.0-102.0-1.0","""event"",""trial"",""time""
""fullscreenenter"",""0"",""2675""
","
","
","""event"",""trial"",""time""
""fullscreenenter"",""0"",""2675""
","
","null","<p></p>","null","","","","","","","","","","","","","","","","","","","","","","",""
"","do_trial","186","779462","0.0-103.0-0.0","""event"",""trial"",""time""
""fullscreenenter"",""0"",""2675""
","
","
","""event"",""trial"",""time""
""fullscreenenter"",""0"",""2675""
","
","318.29999999701977","","","","","","","","51","1,1,0","1","coast","47","probe-78","0.4182673722781168","0.22405479113375174","0.5398068960640908","0","","","","","","","",""
"","html-keyboard-response","187","780465","0.0-103.0-1.0","""event"",""trial"",""time""
""fullscreenenter"",""0"",""2675""
","
","
","""event"",""trial"",""time""
""fullscreenenter"",""0"",""2675""
","
","null","<p></p>","null","","","","","","","","","","","","","","","","","","","","","","",""
"","do_trial","188","785289","0.0-104.0-0.0","""event"",""trial"",""time""
""fullscreenenter"",""0"",""2675""
","
","
","""event"",""trial"",""time""
""fullscreenenter"",""0"",""2675""
","
","259.40000000596046","","","","","","","","51","1,1,0","1","coast","48","probe-230","0.503573557105142","0.31956298653238","0.6145636488730896","0","","","","","","","",""
"","html-keyboard-response","189","786292","0.0-104.0-1.0","""event"",""trial"",""time""
""fullscreenenter"",""0"",""2675""
","
","
","""event"",""trial"",""time""
""fullscreenenter"",""0"",""2675""
","
","null","<p></p>","null","","","","","","","","","","","","","","","","","","","","","","",""
"","do_trial","190","791115","0.0-105.0-0.0","""event"",""trial"",""time""
""fullscreenenter"",""0"",""2675""
","
","
","""event"",""trial"",""time""
""fullscreenenter"",""0"",""2675""
","
","261.8999999985099","","","","","","","","50","0,1,0","1","coast","49","probe-61","0.2465907110640132","0.30378560233320057","0.5954564729486032","1","","","","","","","",""
"","html-keyboard-response","191","792117","0.0-105.0-1.0","""event"",""trial"",""time""
""fullscreenenter"",""0"",""2675""
","
","
","""event"",""trial"",""time""
""fullscreenenter"",""0"",""2675""
","
","null","<p></p>","null","","","","","","","","","","","","","","","","","","","","","","",""
"","do_trial","192","796949","0.0-106.0-0.0","""event"",""trial"",""time""
""fullscreenenter"",""0"",""2675""
","
","
","""event"",""trial"",""time""
""fullscreenenter"",""0"",""2675""
","
","272.6000000014901","","","","","","","","50","0,0,1","1","coast","50","probe-11","0.3451796360609749","0.16903538977834046","0.6295552878708283","0","","","","","","","",""
"","html-keyboard-response","193","797951","0.0-106.0-1.0","""event"",""trial"",""time""
""fullscreenenter"",""0"",""2675""
","
","
","""event"",""trial"",""time""
""fullscreenenter"",""0"",""2675""
","
","null","<p></p>","null","","","","","","","","","","","","","","","","","","","","","","",""
"","do_trial","194","802841","0.0-107.0-0.0","""event"",""trial"",""time""
""fullscreenenter"",""0"",""2675""
","
","
","""event"",""trial"",""time""
""fullscreenenter"",""0"",""2675""
","
","327.80000000447035","","","","","","","","51","0,0,1","1","coast","51","probe-16","0.22997083038844607","0.08047264571382788","0.5536720718935242","1","","","","","","","",""
"","html-keyboard-response","195","803843","0.0-107.0-1.0","""event"",""trial"",""time""
""fullscreenenter"",""0"",""2675""
","
","
","""event"",""trial"",""time""
""fullscreenenter"",""0"",""2675""
","
","null","<p></p>","null","","","","","","","","","","","","","","","","","","","","","","",""
"","do_trial","196","808556","0.0-108.0-0.0","""event"",""trial"",""time""
""fullscreenenter"",""0"",""2675""
","
","
","""event"",""trial"",""time""
""fullscreenenter"",""0"",""2675""
","
","149","","","","","","","","51","0,0,0","1","coast","52","probe-08","0.39985450754476115","0.13545395052810796","0.5812410634273304","0","","","","","","","",""
"","html-keyboard-response","197","809558","0.0-108.0-1.0","""event"",""trial"",""time""
""fullscreenenter"",""0"",""2675""
","
","
","""event"",""trial"",""time""
""fullscreenenter"",""0"",""2675""
","
","null","<p></p>","null","","","","","","","","","","","","","","","","","","","","","","",""
"","do_trial","198","815341","0.0-109.0-0.0","""event"",""trial"",""time""
""fullscreenenter"",""0"",""2675""
","
","
","""event"",""trial"",""time""
""fullscreenenter"",""0"",""2675""
","
","1217.8000000044703","","","","","","","","51","0,0,1","1","coast","53","probe-148","0.3333623814683155","0.26168763935867456","0.4861464887102818","1","","","","","","","",""
"","html-keyboard-response","199","816343","0.0-109.0-1.0","""event"",""trial"",""time""
""fullscreenenter"",""0"",""2675""
","
","
","""event"",""trial"",""time""
""fullscreenenter"",""0"",""2675""
","
","null","<p></p>","null","","","","","","","","","","","","","","","","","","","","","","",""
"","do_trial","200","821339","0.0-110.0-0.0","""event"",""trial"",""time""
""fullscreenenter"",""0"",""2675""
","
","
","""event"",""trial"",""time""
""fullscreenenter"",""0"",""2675""
","
","434.80000000447035","","","","","","","","51","0,0,1","1","coast","54","probe-147","0.29685680600525255","0.2649489597404138","0.5144033951114468","1","","","","","","","",""
"","html-keyboard-response","201","822341","0.0-110.0-1.0","""event"",""trial"",""time""
""fullscreenenter"",""0"",""2675""
","
","
","""event"",""trial"",""time""
""fullscreenenter"",""0"",""2675""
","
","null","<p></p>","null","","","","","","","","","","","","","","","","","","","","","","",""
"","do_trial","202","827192","0.0-111.0-0.0","""event"",""trial"",""time""
""fullscreenenter"",""0"",""2675""
","
","
","""event"",""trial"",""time""
""fullscreenenter"",""0"",""2675""
","
","289.70000000298023","","","","","","","","51","1,1,0","1","coast","55","probe-83","0.313766216521903","0.31914243292118527","0.5245644969979023","0","","","","","","","",""
"","html-keyboard-response","203","828194","0.0-111.0-1.0","""event"",""trial"",""time""
""fullscreenenter"",""0"",""2675""
","
","
","""event"",""trial"",""time""
""fullscreenenter"",""0"",""2675""
","
","null","<p></p>","null","","","","","","","","","","","","","","","","","","","","","","",""
"","do_trial","204","832984","0.0-112.0-0.0","""event"",""trial"",""time""
""fullscreenenter"",""0"",""2675""
","
","
","""event"",""trial"",""time""
""fullscreenenter"",""0"",""2675""
","
","230.5","","","","","","","","51","0,0,1","1","coast","56","probe-06","0.1754809675104942","0.27081863610290535","0.5595669227835858","1","","","","","","","",""
"","html-keyboard-response","205","833987","0.0-112.0-1.0","""event"",""trial"",""time""
""fullscreenenter"",""0"",""2675""
","
","
","""event"",""trial"",""time""
""fullscreenenter"",""0"",""2675""
","
","null","<p></p>","null","","","","","","","","","","","","","","","","","","","","","","",""
"","do_trial","206","838760","0.0-113.0-0.0","""event"",""trial"",""time""
""fullscreenenter"",""0"",""2675""
","
","
","""event"",""trial"",""time""
""fullscreenenter"",""0"",""2675""
","
","210.70000000298023","","","","","","","","51","0,0,1","1","coast","57","probe-29","0.26246501501757025","0.2675611341573953","0.5758612450217458","1","","","","","","","",""
"","html-keyboard-response","207","839762","0.0-113.0-1.0","""event"",""trial"",""time""
""fullscreenenter"",""0"",""2675""
","
","
","""event"",""trial"",""time""
""fullscreenenter"",""0"",""2675""
","
","null","<p></p>","null","","","","","","","","","","","","","","","","","","","","","","",""
"","do_trial","208","844816","0.0-114.0-0.0","""event"",""trial"",""time""
""fullscreenenter"",""0"",""2675""
","
","
","""event"",""trial"",""time""
""fullscreenenter"",""0"",""2675""
","
","491.5","","","","","","","","51","0,0,1","1","coast","58","probe-158","0.3050476012749789","0.24681742757215916","0.6245783353447952","1","","","","","","","",""
"","html-keyboard-response","209","845818","0.0-114.0-1.0","""event"",""trial"",""time""
""fullscreenenter"",""0"",""2675""
","
","
","""event"",""trial"",""time""
""fullscreenenter"",""0"",""2675""
","
","null","<p></p>","null","","","","","","","","","","","","","","","","","","","","","","",""
"","do_trial","210","850626","0.0-115.0-0.0","""event"",""trial"",""time""
""fullscreenenter"",""0"",""2675""
","
","
","""event"",""trial"",""time""
""fullscreenenter"",""0"",""2675""
","
","245.60000000149012","","","","","","","","51","0,0,1","1","coast","59","probe-171","0.37761044616787054","0.2503895828187256","0.7927523708233888","1","","","","","","","",""
"","html-keyboard-response","211","851627","0.0-115.0-1.0","""event"",""trial"",""time""
""fullscreenenter"",""0"",""2675""
","
","
","""event"",""trial"",""time""
""fullscreenenter"",""0"",""2675""
","
","null","<p></p>","null","","","","","","","","","","","","","","","","","","","","","","",""
"","do_trial","212","856591","0.0-116.0-0.0","""event"",""trial"",""time""
""fullscreenenter"",""0"",""2675""
","
","
","""event"",""trial"",""time""
""fullscreenenter"",""0"",""2675""
","
","402.3999999985099","","","","","","","","51","0,0,0","1","coast","60","probe-36","0.3844377222548264","0.2303681854365793","0.5766638100955357","0","","","","","","","",""
"","html-keyboard-response","213","857593","0.0-116.0-1.0","""event"",""trial"",""time""
""fullscreenenter"",""0"",""2675""
","
","
","""event"",""trial"",""time""
""fullscreenenter"",""0"",""2675""
","
","null","<p></p>","null","","","","","","","","","","","","","","","","","","","","","","",""
"","do_trial","214","862429","0.0-117.0-0.0","""event"",""trial"",""time""
""fullscreenenter"",""0"",""2675""
","
","
","""event"",""trial"",""time""
""fullscreenenter"",""0"",""2675""
","
","274.5","","","","","","","","51","0,0,1","1","coast","61","probe-106","0.48267407147843217","0.15044125658933724","0.7260402159137873","1","","","","","","","",""
"","html-keyboard-response","215","863431","0.0-117.0-1.0","""event"",""trial"",""time""
""fullscreenenter"",""0"",""2675""
","
","
","""event"",""trial"",""time""
""fullscreenenter"",""0"",""2675""
","
","null","<p></p>","null","","","","","","","","","","","","","","","","","","","","","","",""
"","do_trial","216","868614","0.0-118.0-0.0","""event"",""trial"",""time""
""fullscreenenter"",""0"",""2675""
","
","
","""event"",""trial"",""time""
""fullscreenenter"",""0"",""2675""
","
","622.6999999955297","","","","","","","","51","1,0,1","1","coast","62","probe-80","0.4361852434089138","0.06673836451301488","0.7149024336138482","1","","","","","","","",""
"","html-keyboard-response","217","869616","0.0-118.0-1.0","""event"",""trial"",""time""
""fullscreenenter"",""0"",""2675""
","
","
","""event"",""trial"",""time""
""fullscreenenter"",""0"",""2675""
","
","null","<p></p>","null","","","","","","","","","","","","","","","","","","","","","","",""
"","do_trial","218","874785","0.0-119.0-0.0","""event"",""trial"",""time""
""fullscreenenter"",""0"",""2675""
","
","
","""event"",""trial"",""time""
""fullscreenenter"",""0"",""2675""
","
","608.1000000014901","","","","","","","","51","0,0,1","1","coast","63","probe-131","0.28894227358154806","0.06737539918789193","0.7675752705729687","1","","","","","","","",""
"","html-keyboard-response","219","875788","0.0-119.0-1.0","""event"",""trial"",""time""
""fullscreenenter"",""0"",""2675""
","
","
","""event"",""trial"",""time""
""fullscreenenter"",""0"",""2675""
","
","null","<p></p>","null","","","","","","","","","","","","","","","","","","","","","","",""
"","do_trial","220","881486","0.0-120.0-0.0","""event"",""trial"",""time""
""fullscreenenter"",""0"",""2675""
","
","
","""event"",""trial"",""time""
""fullscreenenter"",""0"",""2675""
","
","1137.4000000059605","","","","","","","","51","0,0,0","1","coast","64","probe-86","0.3183054308594063","0.0737575455769296","0.6710867628661876","0","","","","","","","",""
"","html-keyboard-response","221","882489","0.0-120.0-1.0","""event"",""trial"",""time""
""fullscreenenter"",""0"",""2675""
","
","
","""event"",""trial"",""time""
""fullscreenenter"",""0"",""2675""
","
","null","<p></p>","null","","","","","","","","","","","","","","","","","","","","","","",""
"","do_trial","222","887727","0.0-121.0-0.0","""event"",""trial"",""time""
""fullscreenenter"",""0"",""2675""
","
","
","""event"",""trial"",""time""
""fullscreenenter"",""0"",""2675""
","
","678.1000000014901","","","","","","","","51","1,0,0","1","coast","65","probe-142","0.43082940444843276","0.2158818854739753","0.613202361523853","0","","","","","","","",""
"","html-keyboard-response","223","888729","0.0-121.0-1.0","""event"",""trial"",""time""
""fullscreenenter"",""0"",""2675""
","
","
","""event"",""trial"",""time""
""fullscreenenter"",""0"",""2675""
","
","null","<p></p>","null","","","","","","","","","","","","","","","","","","","","","","",""
"","do_trial","224","893625","0.0-122.0-0.0","""event"",""trial"",""time""
""fullscreenenter"",""0"",""2675""
","
","
","""event"",""trial"",""time""
""fullscreenenter"",""0"",""2675""
","
","331.3999999985099","","","","","","","","51","0,0,1","1","coast","66","probe-52","0.4341140521171499","0.12435649339969752","0.4131830620921694","1","","","","","","","",""
"","html-keyboard-response","225","894627","0.0-122.0-1.0","""event"",""trial"",""time""
""fullscreenenter"",""0"",""2675""
","
","
","""event"",""trial"",""time""
""fullscreenenter"",""0"",""2675""
","
","null","<p></p>","null","","","","","","","","","","","","","","","","","","","","","","",""
"","do_trial","226","899787","0.0-123.0-0.0","""event"",""trial"",""time""
""fullscreenenter"",""0"",""2675""
","
","
","""event"",""trial"",""time""
""fullscreenenter"",""0"",""2675""
","
","590.2999999970198","","","","","","","","51","0,0,1","1","coast","67","probe-89","0.44951742224356284","0.06411758777299942","0.6650008109319231","1","","","","","","","",""
"","html-keyboard-response","227","900790","0.0-123.0-1.0","""event"",""trial"",""time""
""fullscreenenter"",""0"",""2675""
","
","
","""event"",""trial"",""time""
""fullscreenenter"",""0"",""2675""
","
","null","<p></p>","null","","","","","","","","","","","","","","","","","","","","","","",""
"","do_trial","228","905808","0.0-124.0-0.0","""event"",""trial"",""time""
""fullscreenenter"",""0"",""2675""
","
","
","""event"",""trial"",""time""
""fullscreenenter"",""0"",""2675""
","
","456.70000000298023","","","","","","","","51","0,0,1","1","coast","68","probe-15","0.5087806801400303","0.08998573043066527","0.5625597819378357","1","","","","","","","",""
"","html-keyboard-response","229","906810","0.0-124.0-1.0","""event"",""trial"",""time""
""fullscreenenter"",""0"",""2675""
","
","
","""event"",""trial"",""time""
""fullscreenenter"",""0"",""2675""
","
","null","<p></p>","null","","","","","","","","","","","","","","","","","","","","","","",""
"","do_trial","230","912336","0.0-125.0-0.0","""event"",""trial"",""time""
""fullscreenenter"",""0"",""2675""
","
","
","""event"",""trial"",""time""
""fullscreenenter"",""0"",""2675""
","
","963.7000000029802","","","","","","","","51","0,0,1","1","coast","69","probe-108","0.2660671883680324","0.06605557001270093","0.6094018383753815","1","","","","","","","",""
"","html-keyboard-response","231","913339","0.0-125.0-1.0","""event"",""trial"",""time""
""fullscreenenter"",""0"",""2675""
","
","
","""event"",""trial"",""time""
""fullscreenenter"",""0"",""2675""
","
","null","<p></p>","null","","","","","","","","","","","","","","","","","","","","","","",""
"","do_bye","232","914845","0.0-126.0-0.0","""event"",""trial"",""time""
""fullscreenenter"",""0"",""2675""
","
","
","""event"",""trial"",""time""
""fullscreenenter"",""0"",""2675""
","
","null","","","","","","","","null","","","","","","","","","","","","","","","","",""
"","break","233","916011","0.0-126.0-1.0","""event"",""trial"",""time""
""fullscreenenter"",""0"",""2675""
","
","
","""event"",""trial"",""time""
""fullscreenenter"",""0"",""2675""
","
","1164.2000000029802","<div class='center'><p>Time to take a quick break! You have 2 minutes to rest, but you can move on sooner if you'd like.</p><p> Press the <b>space bar</b> to continue.</p></div>","32","","","","","","","","","","","","","","","","","","","","","","",""
"","do_travel","234","925015","0.0-127.0-0.0","""event"",""trial"",""time""
""fullscreenenter"",""0"",""2675""
","
","
","""event"",""trial"",""time""
""fullscreenenter"",""0"",""2675""
","
","null","","","","","","","","null","","","","","","","","","","","","","","","","",""
"","do_welcome","235","929022","0.0-127.0-1.0","""event"",""trial"",""time""
""fullscreenenter"",""0"",""2675""
","
","
","""event"",""trial"",""time""
""fullscreenenter"",""0"",""2675""
","
","null","","","","","","","","null","","","","","","","","","","","","","","","","",""
"","do_trial","236","935084","0.0-128.0-0.0","""event"",""trial"",""time""
""fullscreenenter"",""0"",""2675""
","
","
","""event"",""trial"",""time""
""fullscreenenter"",""0"",""2675""
","
","null","","","","","","","","null","0,0,1","2","countryside","70","probe-150","0.3168716027683924","0.11037139864634338","1","","","","","","","","",""
"","html-keyboard-response","237","936086","0.0-128.0-1.0","""event"",""trial"",""time""
""fullscreenenter"",""0"",""2675""
","
","
","""event"",""trial"",""time""
""fullscreenenter"",""0"",""2675""
","
","null","<p></p>","null","","","","","","","","","","","","","","","","","","","","","","",""
"","do_trial","238","941026","0.0-129.0-0.0","""event"",""trial"",""time""
""fullscreenenter"",""0"",""2675""
","
","
","""event"",""trial"",""time""
""fullscreenenter"",""0"",""2675""
","
","371.5","","","","","","","","50","0,0,1","2","countryside","71","probe-10","0.3581326179330076","0.14393688026012838","1","0","","","","","","","",""
"","html-keyboard-response","239","942028","0.0-129.0-1.0","""event"",""trial"",""time""
""fullscreenenter"",""0"",""2675""
","
","
","""event"",""trial"",""time""
""fullscreenenter"",""0"",""2675""
","
","null","<p></p>","null","","","","","","","","","","","","","","","","","","","","","","",""
"","do_trial","240","947190","0.0-130.0-0.0","""event"",""trial"",""time""
""fullscreenenter"",""0"",""2675""
","
","
","""event"",""trial"",""time""
""fullscreenenter"",""0"",""2675""
","
","600.3999999985099","","","","","","","","50","0,0,0","2","countryside","72","probe-124","0.23977188532068336","0.11054002990079127","0.6265140572312113","0","","","","","","","",""
"","html-keyboard-response","241","948192","0.0-130.0-1.0","""event"",""trial"",""time""
""fullscreenenter"",""0"",""2675""
","
","
","""event"",""trial"",""time""
""fullscreenenter"",""0"",""2675""
","
","null","<p></p>","null","","","","","","","","","","","","","","","","","","","","","","",""
"","do_trial","242","953374","0.0-131.0-0.0","""event"",""trial"",""time""
""fullscreenenter"",""0"",""2675""
","
","
","""event"",""trial"",""time""
""fullscreenenter"",""0"",""2675""
","
","622.9000000059605","","","","","","","","49","1,0,0","2","countryside","73","probe-211","0.40092011389117205","0.07314577314891936","0.6070860601926087","1","","","","","","","",""
"","html-keyboard-response","243","954376","0.0-131.0-1.0","""event"",""trial"",""time""
""fullscreenenter"",""0"",""2675""
","
","
","""event"",""trial"",""time""
""fullscreenenter"",""0"",""2675""
","
","null","<p></p>","null","","","","","","","","","","","","","","","","","","","","","","",""
"","do_trial","244","959834","0.0-132.0-0.0","""event"",""trial"",""time""
""fullscreenenter"",""0"",""2675""
","
","
","""event"",""trial"",""time""
""fullscreenenter"",""0"",""2675""
","
","898.7000000029802","","","","","","","","49","1,0,0","2","countryside","74","probe-67","0.26090182972629455","0.05726441616450444","0.5216125289004337","1","","","","","","","",""
"","html-keyboard-response","245","960836","0.0-132.0-1.0","""event"",""trial"",""time""
""fullscreenenter"",""0"",""2675""
","
","
","""event"",""trial"",""time""
""fullscreenenter"",""0"",""2675""
","
","null","<p></p>","null","","","","","","","","","","","","","","","","","","","","","","",""
"","do_trial","246","965989","0.0-133.0-0.0","""event"",""trial"",""time""
""fullscreenenter"",""0"",""2675""
","
","
","""event"",""trial"",""time""
""fullscreenenter"",""0"",""2675""
","
","591.1000000014901","","","","","","","","49","1,1,1","2","countryside","75","probe-94","0.22979281591710582","0.2527741000011509","0.3759211366678244","1","","","","","","","",""
"","html-keyboard-response","247","966991","0.0-133.0-1.0","""event"",""trial"",""time""
""fullscreenenter"",""0"",""2675""
","
","
","""event"",""trial"",""time""
""fullscreenenter"",""0"",""2675""
","
","null","<p></p>","null","","","","","","","","","","","","","","","","","","","","","","",""
"","do_trial","248","972285","0.0-134.0-0.0","""event"",""trial"",""time""
""fullscreenenter"",""0"",""2675""
","
","
","""event"",""trial"",""time""
""fullscreenenter"",""0"",""2675""
","
","733.7000000029802","","","","","","","","49","1,1,0","2","countryside","76","probe-229","0.23463444773093664","0.2060586039562803","0.47937715680199","1","","","","","","","",""
"","html-keyboard-response","249","973287","0.0-134.0-1.0","""event"",""trial"",""time""
""fullscreenenter"",""0"",""2675""
","
","
","""event"",""trial"",""time""
""fullscreenenter"",""0"",""2675""
","
","null","<p></p>","null","","","","","","","","","","","","","","","","","","","","","","",""
"","do_trial","250","978892","0.0-135.0-0.0","""event"",""trial"",""time""
""fullscreenenter"",""0"",""2675""
","
","
","""event"",""trial"",""time""
""fullscreenenter"",""0"",""2675""
","
","1045.5","","","","","","","","49","1,0,0","2","countryside","77","probe-194","0.2249866744490976","0.0769970984860008","0.5579718949047606","1","","","","","","","",""
"","html-keyboard-response","251","979895","0.0-135.0-1.0","""event"",""trial"",""time""
""fullscreenenter"",""0"",""2675""
","
","
","""event"",""trial"",""time""
""fullscreenenter"",""0"",""2675""
","
","null","<p></p>","null","","","","","","","","","","","","","","","","","","","","","","",""
"","do_trial","252","984808","0.0-136.0-0.0","""event"",""trial"",""time""
""fullscreenenter"",""0"",""2675""
","
","
","""event"",""trial"",""time""
""fullscreenenter"",""0"",""2675""
","
","352.1000000014901","","","","","","","","49","1,0,0","2","countryside","78","probe-44","0.42069212347805923","0.051631285592492304","0.6281429124954738","1","","","","","","","",""
"","html-keyboard-response","253","985810","0.0-136.0-1.0","""event"",""trial"",""time""
""fullscreenenter"",""0"",""2675""
","
","
","""event"",""trial"",""time""
""fullscreenenter"",""0"",""2675""
","
","null","<p></p>","null","","","","","","","","","","","","","","","","","","","","","","",""
"","do_trial","254","990930","0.0-137.0-0.0","""event"",""trial"",""time""
""fullscreenenter"",""0"",""2675""
","
","
","""event"",""trial"",""time""
""fullscreenenter"",""0"",""2675""
","
","560.1000000014901","","","","","","","","49","0,0,1","2","countryside","79","probe-170","0.38688087152205164","0.05003330188122881","0.7010177297715405","0","","","","","","","",""
"","html-keyboard-response","255","991933","0.0-137.0-1.0","""event"",""trial"",""time""
""fullscreenenter"",""0"",""2675""
","
","
","""event"",""trial"",""time""
""fullscreenenter"",""0"",""2675""
","
","null","<p></p>","null","","","","","","","","","","","","","","","","","","","","","","",""
"","do_trial","256","997177","0.0-138.0-0.0","""event"",""trial"",""time""
""fullscreenenter"",""0"",""2675""
","
","
","""event"",""trial"",""time""
""fullscreenenter"",""0"",""2675""
","
","683.8999999985099","","","","","","","","49","0,1,0","2","countryside","80","probe-197","0.4420201875269689","0.05580706698656721","0.688491457115664","0","","","","","","","",""
"","html-keyboard-response","257","998179","0.0-138.0-1.0","""event"",""trial"",""time""
""fullscreenenter"",""0"",""2675""
","
","
","""event"",""trial"",""time""
""fullscreenenter"",""0"",""2675""
","
","null","<p></p>","null","","","","","","","","","","","","","","","","","","","","","","",""
"","do_trial","258","1002986","0.0-139.0-0.0","""event"",""trial"",""time""
""fullscreenenter"",""0"",""2675""
","
","
","""event"",""trial"",""time""
""fullscreenenter"",""0"",""2675""
","
","243.89999999850988","","","","","","","","49","0,0,1","2","countryside","81","probe-226","0.4886937925528871","0.1387796498103167","0.6083407250039904","0","","","","","","","",""
"","html-keyboard-response","259","1003989","0.0-139.0-1.0","""event"",""trial"",""time""
""fullscreenenter"",""0"",""2675""
","
","
","""event"",""trial"",""time""
""fullscreenenter"",""0"",""2675""
","
","null","<p></p>","null","","","","","","","","","","","","","","","","","","","","","","",""
"","do_trial","260","1008835","0.0-140.0-0.0","""event"",""trial"",""time""
""fullscreenenter"",""0"",""2675""
","
","
","""event"",""trial"",""time""
""fullscreenenter"",""0"",""2675""
","
","285.29999999701977","","","","","","","","49","0,0,0","2","countryside","82","probe-105","0.3816880802395481","0.12022423464944787","0.5363747986979053","0","","","","","","","",""
"","html-keyboard-response","261","1009837","0.0-140.0-1.0","""event"",""trial"",""time""
""fullscreenenter"",""0"",""2675""
","
","
","""event"",""trial"",""time""
""fullscreenenter"",""0"",""2675""
","
","null","<p></p>","null","","","","","","","","","","","","","","","","","","","","","","",""
